ACC_X,ACC_Y,ACC_Z,G_X,G_Y,G_Z,Unix Time
-0.388671875000, -0.863281250000, 0.312500000000, -5.406250000000, -0.406250000000, -3.960937500000, 1490951468
-0.388671875000, -0.863281250000, 0.312500000000, -5.406250000000, -0.406250000000, -3.960937500000, 1490951468
-0.285888671875, -0.958007812500, 0.405273437500, -8.250000000000, -0.054687500000, -4.515625000000, 1490951468
-0.285888671875, -0.958007812500, 0.405273437500, -8.250000000000, -0.054687500000, -4.515625000000, 1490951468
-0.285888671875, -0.958007812500, 0.405273437500, -8.250000000000, -0.054687500000, -4.515625000000, 1490951468
-0.372558593750, -0.942138671875, 0.387207031250, -3.140625000000, -0.179687500000, -4.757812500000, 1490951468
-0.237548828125, -0.932617187500, 0.338623046875, -4.210937500000, -1.062500000000, -5.343750000000, 1490951468
-0.237548828125, -0.932617187500, 0.338623046875, -4.210937500000, -1.062500000000, -5.343750000000, 1490951468
-0.237548828125, -0.932617187500, 0.338623046875, -4.210937500000, -1.062500000000, -5.343750000000, 1490951468
-0.237548828125, -0.932617187500, 0.338623046875, -4.210937500000, -1.062500000000, -5.343750000000, 1490951469
-0.237548828125, -0.932617187500, 0.338623046875, -4.210937500000, -1.062500000000, -5.343750000000, 1490951469
-0.288818359375, -0.869873046875, 0.246582031250, 4.687500000000, -1.281250000000, -6.242187500000, 1490951469
-0.288818359375, -0.869873046875, 0.246582031250, 4.687500000000, -1.281250000000, -6.242187500000, 1490951469
-0.288818359375, -0.869873046875, 0.246582031250, 4.687500000000, -1.281250000000, -6.242187500000, 1490951469
-0.241699218750, -0.951416015625, 0.323730468750, 9.742187500000, -3.296875000000, -3.140625000000, 1490951469
-0.282226562500, -0.871582031250, 0.330810546875, 9.742187500000, -3.296875000000, -3.140625000000, 1490951469
-0.282226562500, -0.871582031250, 0.330810546875, 9.742187500000, -3.296875000000, -3.140625000000, 1490951469
-0.282226562500, -0.871582031250, 0.330810546875, 9.742187500000, -3.296875000000, -3.140625000000, 1490951469
-0.282226562500, -0.871582031250, 0.330810546875, 9.742187500000, -3.296875000000, -3.140625000000, 1490951469
-0.258544921875, -0.863525390625, 0.231689453125, 5.273437500000, -8.640625000000, -5.789062500000, 1490951469
-0.258544921875, -0.863525390625, 0.231689453125, 5.273437500000, -8.640625000000, -5.789062500000, 1490951469
-0.258544921875, -0.863525390625, 0.231689453125, 5.273437500000, -8.640625000000, -5.789062500000, 1490951469
-0.258544921875, -0.863525390625, 0.231689453125, 5.273437500000, -8.640625000000, -5.789062500000, 1490951469
-0.220214843750, -0.877685546875, 0.286132812500, -0.484375000000, -7.867187500000, -8.453125000000, 1490951469
-0.220214843750, -0.877685546875, 0.286132812500, -0.484375000000, -7.867187500000, -8.453125000000, 1490951469
-0.220214843750, -0.877685546875, 0.286132812500, -0.484375000000, -7.867187500000, -8.453125000000, 1490951469
-0.285888671875, -0.925781250000, 0.281738281250, -3.960937500000, 9.390625000000, 2.078125000000, 1490951469
-0.285888671875, -0.925781250000, 0.281738281250, -3.960937500000, 9.390625000000, 2.078125000000, 1490951469
-0.285888671875, -0.925781250000, 0.281738281250, -3.960937500000, 9.390625000000, 2.078125000000, 1490951469
-0.325439453125, -0.910156250000, 0.244140625000, -14.929687500000, 9.578125000000, -2.328125000000, 1490951469
-0.325439453125, -0.910156250000, 0.244140625000, -14.929687500000, 9.578125000000, -2.328125000000, 1490951469
-0.325439453125, -0.910156250000, 0.244140625000, -14.929687500000, 9.578125000000, -2.328125000000, 1490951469
-0.291503906250, -0.943603515625, 0.342041015625, -15.070312500000, 15.265625000000, 6.273437500000, 1490951469
-0.291503906250, -0.943603515625, 0.342041015625, -15.070312500000, 15.265625000000, 6.273437500000, 1490951469
-0.291503906250, -0.943603515625, 0.342041015625, -15.070312500000, 15.265625000000, 6.273437500000, 1490951469
-0.291503906250, -0.943603515625, 0.342041015625, -15.070312500000, 15.265625000000, 6.273437500000, 1490951469
-0.344970703125, -0.958007812500, 0.271484375000, -9.585937500000, 13.320312500000, 4.539062500000, 1490951469
-0.344970703125, -0.958007812500, 0.271484375000, -9.585937500000, 13.320312500000, 4.539062500000, 1490951469
-0.344970703125, -0.958007812500, 0.271484375000, -9.585937500000, 13.320312500000, 4.539062500000, 1490951469
-0.354736328125, -0.877441406250, 0.384765625000, -9.851562500000, 7.398437500000, 3.367187500000, 1490951469
-0.354736328125, -0.877441406250, 0.384765625000, -9.851562500000, 7.398437500000, 3.367187500000, 1490951469
-0.354736328125, -0.877441406250, 0.384765625000, -9.851562500000, 7.398437500000, 3.367187500000, 1490951469
-0.440429687500, -0.883300781250, 0.324462890625, -6.773437500000, -0.960937500000, 4.132812500000, 1490951469
-0.440429687500, -0.883300781250, 0.324462890625, -6.773437500000, -0.960937500000, 4.132812500000, 1490951469
-0.440429687500, -0.883300781250, 0.324462890625, -6.773437500000, -0.960937500000, 4.132812500000, 1490951469
-0.339843750000, -0.966552734375, 0.379882812500, -2.468750000000, -14.867187500000, -3.421875000000, 1490951469
-0.339843750000, -0.966552734375, 0.379882812500, -2.468750000000, -14.867187500000, -3.421875000000, 1490951469
-0.339843750000, -0.966552734375, 0.379882812500, -2.468750000000, -14.867187500000, -3.421875000000, 1490951469
-0.339843750000, -0.966552734375, 0.379882812500, -2.468750000000, -14.867187500000, -3.421875000000, 1490951469
-0.319091796875, -0.948486328125, 0.335693359375, -1.031250000000, -15.148437500000, -8.054687500000, 1490951469
-0.319091796875, -0.948486328125, 0.335693359375, -1.031250000000, -15.148437500000, -8.054687500000, 1490951469
-0.319091796875, -0.948486328125, 0.335693359375, -1.031250000000, -15.148437500000, -8.054687500000, 1490951469
-0.168457031250, -0.865478515625, 0.315673828125, -0.148437500000, -16.023437500000, -6.843750000000, 1490951469
-0.168457031250, -0.865478515625, 0.315673828125, -0.148437500000, -16.023437500000, -6.843750000000, 1490951469
-0.168457031250, -0.865478515625, 0.315673828125, -0.148437500000, -16.023437500000, -6.843750000000, 1490951469
-0.221191406250, -0.822021484375, 0.290527343750, -0.726562500000, -11.906250000000, -2.867187500000, 1490951469
-0.221191406250, -0.822021484375, 0.290527343750, -0.726562500000, -11.906250000000, -2.867187500000, 1490951469
-0.221191406250, -0.822021484375, 0.290527343750, -0.726562500000, -11.906250000000, -2.867187500000, 1490951469
-0.280029296875, -0.946777343750, 0.385253906250, -4.789062500000, -3.578125000000, 1.281250000000, 1490951469
-0.280029296875, -0.946777343750, 0.385253906250, -4.789062500000, -3.578125000000, 1.281250000000, 1490951469
-0.280029296875, -0.946777343750, 0.385253906250, -4.789062500000, -3.578125000000, 1.281250000000, 1490951469
-0.280029296875, -0.946777343750, 0.385253906250, -4.789062500000, -3.578125000000, 1.281250000000, 1490951469
-0.332519531250, -0.940673828125, 0.387939453125, -6.601562500000, 4.023437500000, -0.890625000000, 1490951469
-0.332519531250, -0.940673828125, 0.387939453125, -6.601562500000, 4.023437500000, -0.890625000000, 1490951469
-0.332519531250, -0.940673828125, 0.387939453125, -6.601562500000, 4.023437500000, -0.890625000000, 1490951469
-0.296142578125, -1.022216796875, 0.296630859375, -8.726562500000, 10.039062500000, 2.054687500000, 1490951469
-0.296142578125, -1.022216796875, 0.296630859375, -8.726562500000, 10.039062500000, 2.054687500000, 1490951469
-0.296142578125, -1.022216796875, 0.296630859375, -8.726562500000, 10.039062500000, 2.054687500000, 1490951469
-0.270751953125, -0.905517578125, 0.318359375000, 0.304687500000, 20.156250000000, -1.617187500000, 1490951469
-0.389892578125, -0.933593750000, 0.308593750000, -3.851562500000, 15.218750000000, -2.406250000000, 1490951469
-0.287353515625, -0.914550781250, 0.313476562500, -3.382812500000, 18.828125000000, -3.820312500000, 1490951469
-0.287353515625, -0.914550781250, 0.313476562500, -3.382812500000, 18.828125000000, -3.820312500000, 1490951469
-0.287353515625, -0.914550781250, 0.313476562500, -3.382812500000, 18.828125000000, -3.820312500000, 1490951469
-0.287353515625, -0.914550781250, 0.313476562500, -3.382812500000, 18.828125000000, -3.820312500000, 1490951469
-0.287353515625, -0.914550781250, 0.313476562500, -3.382812500000, 18.828125000000, -3.820312500000, 1490951469
-0.287353515625, -0.914550781250, 0.313476562500, -3.382812500000, 18.828125000000, -3.820312500000, 1490951469
-0.287353515625, -0.914550781250, 0.313476562500, -3.382812500000, 18.828125000000, -3.820312500000, 1490951469
-0.290771484375, -1.026123046875, 0.270507812500, -4.421875000000, 16.828125000000, -6.812500000000, 1490951469
-0.290771484375, -1.026123046875, 0.270507812500, -4.421875000000, 16.828125000000, -6.812500000000, 1490951470
-0.290771484375, -1.026123046875, 0.270507812500, -4.421875000000, 16.828125000000, -6.812500000000, 1490951470
-0.290771484375, -1.026123046875, 0.270507812500, -4.421875000000, 16.828125000000, -6.812500000000, 1490951470
-0.288330078125, -0.938964843750, 0.402343750000, -10.570312500000, 12.960937500000, -6.687500000000, 1490951470
-0.288330078125, -0.938964843750, 0.402343750000, -10.570312500000, 12.960937500000, -6.687500000000, 1490951470
-0.288330078125, -0.938964843750, 0.402343750000, -10.570312500000, 12.960937500000, -6.687500000000, 1490951470
-0.394775390625, -0.951904296875, 0.349365234375, -6.976562500000, 12.437500000000, -6.992187500000, 1490951470
-0.394775390625, -0.951904296875, 0.349365234375, -6.976562500000, 12.437500000000, -6.992187500000, 1490951470
-0.394775390625, -0.951904296875, 0.349365234375, -6.976562500000, 12.437500000000, -6.992187500000, 1490951470
-0.394775390625, -0.951904296875, 0.349365234375, -6.976562500000, 12.437500000000, -6.992187500000, 1490951470
-0.344970703125, -0.961669921875, 0.343505859375, -11.375000000000, 7.570312500000, -3.718750000000, 1490951470
-0.344970703125, -0.961669921875, 0.343505859375, -11.375000000000, 7.570312500000, -3.718750000000, 1490951470
-0.344970703125, -0.961669921875, 0.343505859375, -11.375000000000, 7.570312500000, -3.718750000000, 1490951470
-0.293701171875, -0.899902343750, 0.334960937500, -7.718750000000, 2.335937500000, -4.039062500000, 1490951470
-0.293701171875, -0.899902343750, 0.334960937500, -7.718750000000, 2.335937500000, -4.039062500000, 1490951470
-0.293701171875, -0.899902343750, 0.334960937500, -7.718750000000, 2.335937500000, -4.039062500000, 1490951470
-0.298095703125, -0.895019531250, 0.335693359375, -6.828125000000, -2.914062500000, -2.984375000000, 1490951470
-0.298095703125, -0.895019531250, 0.335693359375, -6.828125000000, -2.914062500000, -2.984375000000, 1490951470
-0.301757812500, -0.807373046875, 0.282958984375, 0.390625000000, -7.695312500000, -6.414062500000, 1490951470
-0.301757812500, -0.807373046875, 0.282958984375, 0.390625000000, -7.695312500000, -6.414062500000, 1490951470
-0.301757812500, -0.807373046875, 0.282958984375, 0.390625000000, -7.695312500000, -6.414062500000, 1490951470
-0.389648437500, -1.001953125000, 0.246093750000, 2.601562500000, -12.203125000000, -3.632812500000, 1490951470
-0.437500000000, -0.963623046875, 0.295898437500, 2.203125000000, -12.476562500000, -6.375000000000, 1490951470
-0.437500000000, -0.963623046875, 0.295898437500, 2.203125000000, -12.476562500000, -6.375000000000, 1490951470
-0.437500000000, -0.963623046875, 0.295898437500, 2.203125000000, -12.476562500000, -6.375000000000, 1490951470
-0.437500000000, -0.963623046875, 0.295898437500, 2.203125000000, -12.476562500000, -6.375000000000, 1490951470
-0.236816406250, -0.964355468750, 0.308593750000, 0.007812500000, -14.976562500000, -6.304687500000, 1490951470
-0.236816406250, -0.964355468750, 0.308593750000, 0.007812500000, -14.976562500000, -6.304687500000, 1490951470
-0.236816406250, -0.964355468750, 0.308593750000, 0.007812500000, -14.976562500000, -6.304687500000, 1490951470
-0.340332031250, -0.964355468750, 0.309814453125, -0.164062500000, -21.585937500000, -4.398437500000, 1490951470
-0.340332031250, -0.964355468750, 0.309814453125, -0.164062500000, -21.585937500000, -4.398437500000, 1490951470
-0.340332031250, -0.964355468750, 0.309814453125, -0.164062500000, -21.585937500000, -4.398437500000, 1490951470
-0.443847656250, -0.904541015625, 0.385498046875, 4.101562500000, -36.718750000000, -6.851562500000, 1490951470
-0.443847656250, -0.904541015625, 0.385498046875, 4.101562500000, -36.718750000000, -6.851562500000, 1490951470
-0.443847656250, -0.904541015625, 0.385498046875, 4.101562500000, -36.718750000000, -6.851562500000, 1490951470
-0.443847656250, -0.904541015625, 0.385498046875, 4.101562500000, -36.718750000000, -6.851562500000, 1490951470
-0.298095703125, -0.961669921875, 0.295898437500, 8.296875000000, -35.390625000000, -8.085937500000, 1490951470
-0.298095703125, -0.961669921875, 0.295898437500, 8.296875000000, -35.390625000000, -8.085937500000, 1490951470
-0.298095703125, -0.961669921875, 0.295898437500, 8.296875000000, -35.390625000000, -8.085937500000, 1490951470
-0.267333984375, -0.869384765625, 0.289306640625, 7.304687500000, -43.109375000000, -12.734375000000, 1490951470
-0.267333984375, -0.869384765625, 0.289306640625, 7.304687500000, -43.109375000000, -12.734375000000, 1490951470
-0.267333984375, -0.869384765625, 0.289306640625, 7.304687500000, -43.109375000000, -12.734375000000, 1490951470
-0.318847656250, -0.852783203125, 0.333984375000, 10.398437500000, -41.257812500000, -9.898437500000, 1490951470
-0.318847656250, -0.852783203125, 0.333984375000, 10.398437500000, -41.257812500000, -9.898437500000, 1490951470
-0.318847656250, -0.852783203125, 0.333984375000, 10.398437500000, -41.257812500000, -9.898437500000, 1490951470
-0.116943359375, -0.866943359375, 0.367187500000, 7.195312500000, -37.664062500000, -12.164062500000, 1490951470
-0.116943359375, -0.866943359375, 0.367187500000, 7.195312500000, -37.664062500000, -12.164062500000, 1490951470
-0.116943359375, -0.866943359375, 0.367187500000, 7.195312500000, -37.664062500000, -12.164062500000, 1490951470
-0.116943359375, -0.866943359375, 0.367187500000, 7.195312500000, -37.664062500000, -12.164062500000, 1490951470
-0.379394531250, -1.000488281250, 0.364257812500, 3.914062500000, -31.460937500000, -6.976562500000, 1490951470
-0.379394531250, -1.000488281250, 0.364257812500, 3.914062500000, -31.460937500000, -6.976562500000, 1490951470
-0.379394531250, -1.000488281250, 0.364257812500, 3.914062500000, -31.460937500000, -6.976562500000, 1490951470
-0.337158203125, -0.903808593750, 0.224853515625, 1.218750000000, -25.242187500000, 0.914062500000, 1490951470
-0.337158203125, -0.903808593750, 0.224853515625, 1.218750000000, -25.242187500000, 0.914062500000, 1490951470
-0.337158203125, -0.903808593750, 0.224853515625, 1.218750000000, -25.242187500000, 0.914062500000, 1490951470
-0.337158203125, -0.903808593750, 0.224853515625, 1.218750000000, -25.242187500000, 0.914062500000, 1490951470
-0.285888671875, -0.963134765625, 0.340087890625, 12.898437500000, -23.437500000000, 0.085937500000, 1490951470
-0.285888671875, -0.963134765625, 0.340087890625, 12.898437500000, -23.437500000000, 0.085937500000, 1490951470
-0.285888671875, -0.963134765625, 0.340087890625, 12.898437500000, -23.437500000000, 0.085937500000, 1490951470
-0.275146484375, -0.901855468750, 0.373535156250, 8.335937500000, -23.656250000000, -1.695312500000, 1490951470
-0.275146484375, -0.901855468750, 0.373535156250, 8.335937500000, -23.656250000000, -1.695312500000, 1490951470
-0.275146484375, -0.901855468750, 0.373535156250, 8.335937500000, -23.656250000000, -1.695312500000, 1490951470
-0.275146484375, -0.901855468750, 0.373535156250, 8.335937500000, -23.656250000000, -1.695312500000, 1490951470
-0.275146484375, -0.901855468750, 0.373535156250, 8.335937500000, -23.656250000000, -1.695312500000, 1490951470
-0.275146484375, -0.901855468750, 0.373535156250, 8.335937500000, -23.656250000000, -1.695312500000, 1490951470
-0.115234375000, -0.961425781250, 0.358154296875, -6.078125000000, -22.054687500000, 0.304687500000, 1490951470
-0.115234375000, -0.961425781250, 0.358154296875, -6.078125000000, -22.054687500000, 0.304687500000, 1490951470
-0.115234375000, -0.961425781250, 0.358154296875, -6.078125000000, -22.054687500000, 0.304687500000, 1490951470
-0.196289062500, -0.964111328125, 0.307861328125, -6.492187500000, -6.000000000000, 3.468750000000, 1490951471
-0.196289062500, -0.964111328125, 0.307861328125, -6.492187500000, -6.000000000000, 3.468750000000, 1490951471
-0.196289062500, -0.964111328125, 0.307861328125, -6.492187500000, -6.000000000000, 3.468750000000, 1490951471
-0.199462890625, -0.901855468750, 0.303466796875, -6.914062500000, 8.468750000000, 6.507812500000, 1490951471
-0.199462890625, -0.901855468750, 0.303466796875, -6.914062500000, 8.468750000000, 6.507812500000, 1490951471
-0.199462890625, -0.901855468750, 0.303466796875, -6.914062500000, 8.468750000000, 6.507812500000, 1490951471
-0.199462890625, -0.901855468750, 0.303466796875, -6.914062500000, 8.468750000000, 6.507812500000, 1490951471
-0.225585937500, -0.907470703125, 0.378906250000, -5.210937500000, 12.468750000000, 7.585937500000, 1490951471
-0.225585937500, -0.907470703125, 0.378906250000, -5.210937500000, 12.468750000000, 7.585937500000, 1490951471
-0.225585937500, -0.907470703125, 0.378906250000, -5.210937500000, 12.468750000000, 7.585937500000, 1490951471
-0.253417968750, -0.904785156250, 0.292480468750, -11.500000000000, 9.500000000000, 1.960937500000, 1490951471
-0.253417968750, -0.904785156250, 0.292480468750, -11.500000000000, 9.500000000000, 1.960937500000, 1490951471
-0.253417968750, -0.904785156250, 0.292480468750, -11.500000000000, 9.500000000000, 1.960937500000, 1490951471
-0.222900390625, -0.916259765625, 0.372802734375, -7.039062500000, 18.585937500000, 7.992187500000, 1490951471
-0.222900390625, -0.916259765625, 0.372802734375, -7.039062500000, 18.585937500000, 7.992187500000, 1490951471
-0.222900390625, -0.916259765625, 0.372802734375, -7.039062500000, 18.585937500000, 7.992187500000, 1490951471
-0.264404296875, -0.953125000000, 0.309326171875, -19.351562500000, 17.070312500000, 4.148437500000, 1490951471
-0.264404296875, -0.953125000000, 0.309326171875, -19.351562500000, 17.070312500000, 4.148437500000, 1490951471
-0.264404296875, -0.953125000000, 0.309326171875, -19.351562500000, 17.070312500000, 4.148437500000, 1490951471
-0.264404296875, -0.953125000000, 0.309326171875, -19.351562500000, 17.070312500000, 4.148437500000, 1490951471
-0.233886718750, -0.954101562500, 0.455322265625, -22.187500000000, 18.156250000000, -1.210937500000, 1490951471
-0.233886718750, -0.954101562500, 0.455322265625, -22.187500000000, 18.156250000000, -1.210937500000, 1490951471
-0.233886718750, -0.954101562500, 0.455322265625, -22.187500000000, 18.156250000000, -1.210937500000, 1490951471
-0.290283203125, -0.807128906250, 0.370117187500, -24.210937500000, 22.578125000000, -1.296875000000, 1490951471
-0.290283203125, -0.807128906250, 0.370117187500, -24.210937500000, 22.578125000000, -1.296875000000, 1490951471
-0.290283203125, -0.807128906250, 0.370117187500, -24.210937500000, 22.578125000000, -1.296875000000, 1490951471
-0.314941406250, -0.763671875000, 0.292236328125, -11.531250000000, 26.546875000000, -6.671875000000, 1490951471
-0.314941406250, -0.763671875000, 0.292236328125, -11.531250000000, 26.546875000000, -6.671875000000, 1490951471
-0.314941406250, -0.763671875000, 0.292236328125, -11.531250000000, 26.546875000000, -6.671875000000, 1490951471
-0.163085937500, -0.811279296875, 0.285400390625, 0.945312500000, 18.726562500000, -3.820312500000, 1490951471
-0.163085937500, -0.811279296875, 0.285400390625, 0.945312500000, 18.726562500000, -3.820312500000, 1490951471
-0.163085937500, -0.811279296875, 0.285400390625, 0.945312500000, 18.726562500000, -3.820312500000, 1490951471
-0.163085937500, -0.811279296875, 0.285400390625, 0.945312500000, 18.726562500000, -3.820312500000, 1490951471
-0.283935546875, -0.833251953125, 0.333496093750, 9.546875000000, 9.195312500000, -11.898437500000, 1490951471
-0.283935546875, -0.833251953125, 0.333496093750, 9.546875000000, 9.195312500000, -11.898437500000, 1490951471
-0.283935546875, -0.833251953125, 0.333496093750, 9.546875000000, 9.195312500000, -11.898437500000, 1490951471
-0.337402343750, -0.815673828125, 0.292968750000, 15.898437500000, 9.156250000000, -15.882812500000, 1490951471
-0.311523437500, -0.956542968750, 0.246093750000, 17.570312500000, 14.265625000000, -30.562500000000, 1490951471
-0.311523437500, -0.956542968750, 0.246093750000, 17.570312500000, 14.265625000000, -30.562500000000, 1490951471
-0.311523437500, -0.956542968750, 0.246093750000, 17.570312500000, 14.265625000000, -30.562500000000, 1490951471
-0.311523437500, -0.956542968750, 0.246093750000, 17.570312500000, 14.265625000000, -30.562500000000, 1490951471
-0.311523437500, -0.956542968750, 0.246093750000, 12.914062500000, 28.703125000000, -36.953125000000, 1490951471
-0.353759765625, -0.942382812500, 0.236572265625, 10.765625000000, 39.218750000000, -21.656250000000, 1490951471
-0.353759765625, -0.942382812500, 0.236572265625, 10.765625000000, 39.218750000000, -21.656250000000, 1490951471
-0.353759765625, -0.942382812500, 0.236572265625, 10.765625000000, 39.218750000000, -21.656250000000, 1490951471
-0.350097656250, -0.897705078125, 0.271484375000, 7.789062500000, 49.390625000000, -18.492187500000, 1490951471
-0.350097656250, -0.897705078125, 0.271484375000, 7.789062500000, 49.390625000000, -18.492187500000, 1490951471
-0.350097656250, -0.897705078125, 0.271484375000, 7.789062500000, 49.390625000000, -18.492187500000, 1490951471
-0.350097656250, -0.897705078125, 0.271484375000, 7.789062500000, 49.390625000000, -18.492187500000, 1490951471
-0.518554687500, -0.821289062500, 0.275146484375, 5.523437500000, 52.320312500000, -13.453125000000, 1490951471
-0.518554687500, -0.821289062500, 0.275146484375, 5.523437500000, 52.320312500000, -13.453125000000, 1490951471
-0.518554687500, -0.821289062500, 0.275146484375, 5.523437500000, 52.320312500000, -13.453125000000, 1490951471
-0.408691406250, -0.838134765625, 0.206054687500, 0.132812500000, 37.031250000000, -13.992187500000, 1490951471
-0.408691406250, -0.838134765625, 0.206054687500, 0.132812500000, 37.031250000000, -13.992187500000, 1490951471
-0.408691406250, -0.838134765625, 0.206054687500, 0.132812500000, 37.031250000000, -13.992187500000, 1490951471
-0.515380859375, -0.665039062500, 0.072509765625, 2.156250000000, 46.156250000000, -17.382812500000, 1490951471
-0.515380859375, -0.665039062500, 0.072509765625, 2.156250000000, 46.156250000000, -17.382812500000, 1490951471
-0.515380859375, -0.665039062500, 0.072509765625, 2.156250000000, 46.156250000000, -17.382812500000, 1490951471
-0.515380859375, -0.665039062500, 0.072509765625, 2.156250000000, 46.156250000000, -17.382812500000, 1490951471
-0.534423828125, -0.531738281250, 0.052001953125, 9.898437500000, 0.367187500000, -11.515625000000, 1490951471
-0.534423828125, -0.531738281250, 0.052001953125, 9.898437500000, 0.367187500000, -11.515625000000, 1490951471
-0.534423828125, -0.531738281250, 0.052001953125, 9.898437500000, 0.367187500000, -11.515625000000, 1490951471
-0.389404296875, -0.770263671875, 0.039550781250, 37.492187500000, -80.156250000000, -45.476562500000, 1490951471
-0.389404296875, -0.770263671875, 0.039550781250, 37.492187500000, -80.156250000000, -45.476562500000, 1490951471
-0.389404296875, -0.770263671875, 0.039550781250, 37.492187500000, -80.156250000000, -45.476562500000, 1490951471
-0.533447265625, -0.602783203125, 0.145996093750, 70.093750000000, -92.437500000000, -2.585937500000, 1490951472
-0.533447265625, -0.602783203125, 0.145996093750, 70.093750000000, -92.437500000000, -2.585937500000, 1490951472
-0.533447265625, -0.602783203125, 0.145996093750, 70.093750000000, -92.437500000000, -2.585937500000, 1490951472
-0.495117187500, -0.452148437500, 0.197265625000, 13.078125000000, -23.593750000000, 18.289062500000, 1490951472
-0.495117187500, -0.452148437500, 0.197265625000, 13.078125000000, -23.593750000000, 18.289062500000, 1490951472
-0.495117187500, -0.452148437500, 0.197265625000, 13.078125000000, -23.593750000000, 18.289062500000, 1490951472
-0.495117187500, -0.452148437500, 0.197265625000, 13.078125000000, -23.593750000000, 18.289062500000, 1490951472
-0.392089843750, -0.371093750000, -0.006591796875, 27.781250000000, -12.421875000000, -1.718750000000, 1490951472
-0.392089843750, -0.371093750000, -0.006591796875, 27.781250000000, -12.421875000000, -1.718750000000, 1490951472
-0.392089843750, -0.371093750000, -0.006591796875, 27.781250000000, -12.421875000000, -1.718750000000, 1490951472
-0.203369140625, -0.094726562500, 0.037109375000, 20.609375000000, 16.703125000000, -30.507812500000, 1490951472
-0.203369140625, -0.094726562500, 0.037109375000, 20.609375000000, 16.703125000000, -30.507812500000, 1490951472
-0.203369140625, -0.094726562500, 0.037109375000, 20.609375000000, 16.703125000000, -30.507812500000, 1490951472
-0.052734375000, -0.270996093750, 0.058593750000, 3.687500000000, -2.015625000000, -21.015625000000, 1490951472
-0.052734375000, -0.270996093750, 0.058593750000, 3.687500000000, -2.015625000000, -21.015625000000, 1490951472
-0.052734375000, -0.270996093750, 0.058593750000, 3.687500000000, -2.015625000000, -21.015625000000, 1490951472
-0.375488281250, -0.684082031250, -0.053955078125, -46.164062500000, 54.140625000000, 56.835937500000, 1490951472
-0.375488281250, -0.684082031250, -0.053955078125, -46.164062500000, 54.140625000000, 56.835937500000, 1490951472
-0.375488281250, -0.684082031250, -0.053955078125, -46.164062500000, 54.140625000000, 56.835937500000, 1490951472
-0.375488281250, -0.684082031250, -0.053955078125, -46.164062500000, 54.140625000000, 56.835937500000, 1490951472
-0.576171875000, -1.203369140625, -0.153808593750, -170.445312500000, -89.367187500000, -7.992187500000, 1490951472
-0.576171875000, -1.203369140625, -0.153808593750, -170.445312500000, -89.367187500000, -7.992187500000, 1490951472
-0.576171875000, -1.203369140625, -0.153808593750, -170.445312500000, -89.367187500000, -7.992187500000, 1490951472
-0.702636718750, -1.337646484375, 0.077636718750, -69.656250000000, 2.484375000000, 94.125000000000, 1490951472
-0.702636718750, -1.337646484375, 0.077636718750, -69.656250000000, 2.484375000000, 94.125000000000, 1490951472
-0.702636718750, -1.337646484375, 0.077636718750, -69.656250000000, 2.484375000000, 94.125000000000, 1490951472
-0.864257812500, -1.623046875000, -0.061279296875, -121.320312500000, 54.960937500000, 57.312500000000, 1490951472
-0.864257812500, -1.623046875000, -0.061279296875, -121.320312500000, 54.960937500000, 57.312500000000, 1490951472
-0.864257812500, -1.623046875000, -0.061279296875, -121.320312500000, 54.960937500000, 57.312500000000, 1490951472
-1.208740234375, -2.124023437500, 0.071289062500, 20.398437500000, 253.992187500000, 156.054687500000, 1490951472
-1.208740234375, -2.124023437500, 0.071289062500, 20.398437500000, 253.992187500000, 156.054687500000, 1490951472
-1.208740234375, -2.124023437500, 0.071289062500, 20.398437500000, 253.992187500000, 156.054687500000, 1490951472
-1.208740234375, -2.124023437500, 0.071289062500, 20.398437500000, 253.992187500000, 156.054687500000, 1490951472
-0.779052734375, -1.945556640625, -0.022705078125, 10.101562500000, 249.843750000000, 239.367187500000, 1490951472
-0.779052734375, -1.945556640625, -0.022705078125, 10.101562500000, 249.843750000000, 239.367187500000, 1490951472
-0.779052734375, -1.945556640625, -0.022705078125, 10.101562500000, 249.843750000000, 239.367187500000, 1490951472
0.040771484375, -1.055664062500, 0.576171875000, 253.992187500000, -256.000000000000, 253.992187500000, 1490951472
0.040771484375, -1.055664062500, 0.576171875000, 253.992187500000, -256.000000000000, 253.992187500000, 1490951472
0.040771484375, -1.055664062500, 0.576171875000, 253.992187500000, -256.000000000000, 253.992187500000, 1490951472
0.268066406250, 0.153564453125, 0.499267578125, -41.210937500000, 253.992187500000, 186.835937500000, 1490951472
0.268066406250, 0.153564453125, 0.499267578125, -41.210937500000, 253.992187500000, 186.835937500000, 1490951472
0.268066406250, 0.153564453125, 0.499267578125, -41.210937500000, 253.992187500000, 186.835937500000, 1490951472
0.268066406250, 0.153564453125, 0.499267578125, -41.210937500000, 253.992187500000, 186.835937500000, 1490951472
0.268066406250, 0.153564453125, 0.499267578125, -41.210937500000, 253.992187500000, 186.835937500000, 1490951472
0.321044921875, -0.140380859375, 0.160644531250, -55.976562500000, 152.265625000000, -59.320312500000, 1490951472
0.321044921875, -0.140380859375, 0.160644531250, -55.976562500000, 152.265625000000, -59.320312500000, 1490951472
0.321044921875, -0.140380859375, 0.160644531250, -55.976562500000, 152.265625000000, -59.320312500000, 1490951472
0.321044921875, -0.140380859375, 0.160644531250, -55.976562500000, 152.265625000000, -59.320312500000, 1490951472
0.321044921875, -0.140380859375, 0.160644531250, -55.976562500000, 152.265625000000, -59.320312500000, 1490951472
0.175048828125, -0.454589843750, 0.039062500000, -185.179687500000, 115.156250000000, 57.507812500000, 1490951472
0.175048828125, -0.454589843750, 0.039062500000, -185.179687500000, 115.156250000000, 57.507812500000, 1490951472
0.175048828125, -0.454589843750, 0.039062500000, -185.179687500000, 115.156250000000, 57.507812500000, 1490951472
0.653808593750, -0.788330078125, 0.216796875000, -170.781250000000, -213.640625000000, 98.671875000000, 1490951472
0.653808593750, -0.788330078125, 0.216796875000, -170.781250000000, -213.640625000000, 98.671875000000, 1490951472
0.653808593750, -0.788330078125, 0.216796875000, -170.781250000000, -213.640625000000, 98.671875000000, 1490951472
3.287841796875, 0.370361328125, 1.189453125000, -43.843750000000, 253.992187500000, 253.992187500000, 1490951472
3.287841796875, 0.370361328125, 1.189453125000, -43.843750000000, 253.992187500000, 253.992187500000, 1490951472
3.287841796875, 0.370361328125, 1.189453125000, -43.843750000000, 253.992187500000, 253.992187500000, 1490951472
3.287841796875, 0.370361328125, 1.189453125000, -43.843750000000, 253.992187500000, 253.992187500000, 1490951472
1.805908203125, 0.234863281250, 0.030273437500, -114.812500000000, 9.351562500000, 170.296875000000, 1490951472
1.805908203125, 0.234863281250, 0.030273437500, -114.812500000000, 9.351562500000, 170.296875000000, 1490951472
1.805908203125, 0.234863281250, 0.030273437500, -114.812500000000, 9.351562500000, 170.296875000000, 1490951472
0.785644531250, 0.768798828125, 0.818359375000, -171.828125000000, 7.250000000000, 103.531250000000, 1490951472
0.785644531250, 0.768798828125, 0.818359375000, -171.828125000000, 7.250000000000, 103.531250000000, 1490951472
0.785644531250, 0.768798828125, 0.818359375000, -171.828125000000, 7.250000000000, 103.531250000000, 1490951472
0.314208984375, 0.494628906250, 0.159179687500, 19.945312500000, -23.000000000000, -88.992187500000, 1490951472
0.314208984375, 0.494628906250, 0.159179687500, 19.945312500000, -23.000000000000, -88.992187500000, 1490951472
0.314208984375, 0.494628906250, 0.159179687500, 19.945312500000, -23.000000000000, -88.992187500000, 1490951472
2.704833984375, 1.002929687500, 1.179443359375, 25.914062500000, 228.703125000000, -225.507812500000, 1490951473
2.704833984375, 1.002929687500, 1.179443359375, 25.914062500000, 228.703125000000, -225.507812500000, 1490951473
2.704833984375, 1.002929687500, 1.179443359375, 25.914062500000, 228.703125000000, -225.507812500000, 1490951473
2.704833984375, 1.002929687500, 1.179443359375, 25.914062500000, 228.703125000000, -225.507812500000, 1490951473
0.065673828125, 0.216796875000, 0.383544921875, -79.476562500000, 41.585937500000, 12.609375000000, 1490951473
0.065673828125, 0.216796875000, 0.383544921875, -79.476562500000, 41.585937500000, 12.609375000000, 1490951473
0.065673828125, 0.216796875000, 0.383544921875, -79.476562500000, 41.585937500000, 12.609375000000, 1490951473
1.094482421875, 0.056396484375, 0.573974609375, -77.171875000000, 55.007812500000, -29.023437500000, 1490951473
1.094482421875, 0.056396484375, 0.573974609375, -77.171875000000, 55.007812500000, -29.023437500000, 1490951473
1.094482421875, 0.056396484375, 0.573974609375, -77.171875000000, 55.007812500000, -29.023437500000, 1490951473
1.017578125000, 0.131347656250, 0.575683593750, -14.585937500000, -6.687500000000, -10.609375000000, 1490951473
1.017578125000, 0.131347656250, 0.575683593750, -14.585937500000, -6.687500000000, -10.609375000000, 1490951473
1.017578125000, 0.131347656250, 0.575683593750, -14.585937500000, -6.687500000000, -10.609375000000, 1490951473
1.196777343750, -0.005126953125, 0.609130859375, -0.117187500000, 8.929687500000, -25.773437500000, 1490951473
1.196777343750, -0.005126953125, 0.609130859375, -0.117187500000, 8.929687500000, -25.773437500000, 1490951473
1.196777343750, -0.005126953125, 0.609130859375, -0.117187500000, 8.929687500000, -25.773437500000, 1490951473
1.196777343750, -0.005126953125, 0.609130859375, -0.117187500000, 8.929687500000, -25.773437500000, 1490951473
0.936523437500, 0.001708984375, 0.638427734375, -5.210937500000, -5.109375000000, -20.632812500000, 1490951473
0.936523437500, 0.001708984375, 0.638427734375, -5.210937500000, -5.109375000000, -20.632812500000, 1490951473
0.936523437500, 0.001708984375, 0.638427734375, -5.210937500000, -5.109375000000, -20.632812500000, 1490951473
0.725341796875, 0.088378906250, 0.528564453125, -18.617187500000, -8.179687500000, -5.992187500000, 1490951473
0.725341796875, 0.088378906250, 0.528564453125, -18.617187500000, -8.179687500000, -5.992187500000, 1490951473
0.725341796875, 0.088378906250, 0.528564453125, -18.617187500000, -8.179687500000, -5.992187500000, 1490951473
0.880859375000, -0.003173828125, 0.594482421875, -0.656250000000, -0.601562500000, -7.328125000000, 1490951473
0.880859375000, -0.003173828125, 0.594482421875, -0.656250000000, -0.601562500000, -7.328125000000, 1490951473
0.880859375000, -0.003173828125, 0.594482421875, -0.656250000000, -0.601562500000, -7.328125000000, 1490951473
0.854736328125, 0.066894531250, 0.496826171875, -0.742187500000, -1.734375000000, 0.890625000000, 1490951473
0.854736328125, 0.066894531250, 0.496826171875, -0.742187500000, -1.734375000000, 0.890625000000, 1490951473
0.854736328125, 0.066894531250, 0.496826171875, -0.742187500000, -1.734375000000, 0.890625000000, 1490951473
0.854736328125, 0.066894531250, 0.496826171875, -0.742187500000, -1.734375000000, 0.890625000000, 1490951473
0.959960937500, 0.023925781250, 0.561523437500, -3.125000000000, 12.179687500000, 3.031250000000, 1490951473
0.959960937500, 0.023925781250, 0.561523437500, -3.125000000000, 12.179687500000, 3.031250000000, 1490951473
0.959960937500, 0.023925781250, 0.561523437500, -3.125000000000, 12.179687500000, 3.031250000000, 1490951473
0.867431640625, -0.018310546875, 0.575683593750, -5.000000000000, 13.179687500000, 1.781250000000, 1490951473
0.867431640625, -0.018310546875, 0.575683593750, -5.000000000000, 13.179687500000, 1.781250000000, 1490951473
0.867431640625, -0.018310546875, 0.575683593750, -5.000000000000, 13.179687500000, 1.781250000000, 1490951473
0.853759765625, 0.046875000000, 0.590332031250, -6.195312500000, 5.523437500000, -0.898437500000, 1490951473
0.853759765625, 0.046875000000, 0.590332031250, -6.195312500000, 5.523437500000, -0.898437500000, 1490951473
0.853759765625, 0.046875000000, 0.590332031250, -6.195312500000, 5.523437500000, -0.898437500000, 1490951473
0.662841796875, -0.016601562500, 0.568359375000, -4.187500000000, 2.976562500000, 2.453125000000, 1490951473
0.662841796875, -0.016601562500, 0.568359375000, -4.187500000000, 2.976562500000, 2.453125000000, 1490951473
0.843261718750, 0.038574218750, 0.637207031250, -1.929687500000, -2.796875000000, -2.000000000000, 1490951473
0.843261718750, 0.038574218750, 0.637207031250, -1.929687500000, -2.796875000000, -2.000000000000, 1490951473
0.843261718750, 0.038574218750, 0.637207031250, -1.929687500000, -2.796875000000, -2.000000000000, 1490951473
0.843261718750, 0.038574218750, 0.637207031250, -1.929687500000, -2.796875000000, -2.000000000000, 1490951473
0.843261718750, 0.038574218750, 0.637207031250, -1.929687500000, -2.796875000000, -2.000000000000, 1490951473
0.827636718750, 0.076416015625, 0.504638671875, -2.406250000000, -0.632812500000, 0.085937500000, 1490951473
0.827636718750, 0.076416015625, 0.504638671875, -2.406250000000, -0.632812500000, 0.085937500000, 1490951473
0.827636718750, 0.076416015625, 0.504638671875, -2.406250000000, -0.632812500000, 0.085937500000, 1490951473
0.781738281250, -0.017578125000, 0.589843750000, -1.335937500000, 1.757812500000, -1.343750000000, 1490951473
0.781738281250, -0.017578125000, 0.589843750000, -1.335937500000, 1.757812500000, -1.343750000000, 1490951473
0.781738281250, -0.017578125000, 0.589843750000, -1.335937500000, 1.757812500000, -1.343750000000, 1490951473
0.883544921875, 0.145996093750, 0.547607421875, -4.703125000000, 0.609375000000, -3.570312500000, 1490951473
0.883544921875, 0.145996093750, 0.547607421875, -4.703125000000, 0.609375000000, -3.570312500000, 1490951473
0.883544921875, 0.145996093750, 0.547607421875, -4.703125000000, 0.609375000000, -3.570312500000, 1490951473
0.883544921875, 0.145996093750, 0.547607421875, -4.703125000000, 0.609375000000, -3.570312500000, 1490951473
0.882568359375, 0.064208984375, 0.641113281250, -3.234375000000, -1.390625000000, -1.945312500000, 1490951473
0.882568359375, 0.064208984375, 0.641113281250, -3.234375000000, -1.390625000000, -1.945312500000, 1490951473
0.882568359375, 0.064208984375, 0.641113281250, -3.234375000000, -1.390625000000, -1.945312500000, 1490951473
0.898681640625, 0.132568359375, 0.522949218750, -4.625000000000, -1.867187500000, -4.101562500000, 1490951473
0.898681640625, 0.132568359375, 0.522949218750, -4.625000000000, -1.867187500000, -4.101562500000, 1490951473
0.898681640625, 0.132568359375, 0.522949218750, -4.625000000000, -1.867187500000, -4.101562500000, 1490951473
0.805175781250, 0.042724609375, 0.637695312500, -3.203125000000, -2.773437500000, -1.023437500000, 1490951473
0.805175781250, 0.042724609375, 0.637695312500, -3.203125000000, -2.773437500000, -1.023437500000, 1490951473
0.805175781250, 0.042724609375, 0.637695312500, -3.203125000000, -2.773437500000, -1.023437500000, 1490951473
0.786621093750, 0.076660156250, 0.497802734375, -4.523437500000, -1.070312500000, -2.500000000000, 1490951474
0.786621093750, 0.076660156250, 0.497802734375, -4.523437500000, -1.070312500000, -2.500000000000, 1490951474
0.786621093750, 0.076660156250, 0.497802734375, -4.523437500000, -1.070312500000, -2.500000000000, 1490951474
0.786621093750, 0.076660156250, 0.497802734375, -4.523437500000, -1.070312500000, -2.500000000000, 1490951474
0.848388671875, 0.052978515625, 0.550537109375, 0.406250000000, -0.726562500000, -2.656250000000, 1490951474
0.848388671875, 0.052978515625, 0.550537109375, 0.406250000000, -0.726562500000, -2.656250000000, 1490951474
0.848388671875, 0.052978515625, 0.550537109375, 0.406250000000, -0.726562500000, -2.656250000000, 1490951474
0.947509765625, 0.028076171875, 0.490966796875, -0.453125000000, 2.070312500000, 0.437500000000, 1490951474
0.833251953125, 0.066650390625, 0.630615234375, -1.304687500000, -0.671875000000, -2.015625000000, 1490951474
0.833251953125, 0.066650390625, 0.630615234375, -1.304687500000, -0.671875000000, -2.015625000000, 1490951474
0.833251953125, 0.066650390625, 0.630615234375, -1.304687500000, -0.671875000000, -2.015625000000, 1490951474
0.833251953125, 0.066650390625, 0.630615234375, -1.304687500000, -0.671875000000, -2.015625000000, 1490951474
0.833251953125, 0.066650390625, 0.630615234375, -1.812500000000, 0.335937500000, -2.835937500000, 1490951474
0.822753906250, 0.056152343750, 0.534423828125, -4.015625000000, 2.171875000000, 0.375000000000, 1490951474
0.822753906250, 0.056152343750, 0.534423828125, -4.015625000000, 2.171875000000, 0.375000000000, 1490951474
0.822753906250, 0.056152343750, 0.534423828125, -4.015625000000, 2.171875000000, 0.375000000000, 1490951474
0.822753906250, 0.056152343750, 0.534423828125, -4.015625000000, 2.171875000000, 0.375000000000, 1490951474
0.883544921875, 0.035400390625, 0.578369140625, -4.851562500000, 2.023437500000, -1.406250000000, 1490951474
0.883544921875, 0.035400390625, 0.578369140625, -4.851562500000, 2.023437500000, -1.406250000000, 1490951474
0.883544921875, 0.035400390625, 0.578369140625, -4.851562500000, 2.023437500000, -1.406250000000, 1490951474
0.846191406250, 0.139404296875, 0.544433593750, -1.257812500000, 0.304687500000, -4.414062500000, 1490951474
0.846191406250, 0.139404296875, 0.544433593750, -1.257812500000, 0.304687500000, -4.414062500000, 1490951474
0.846191406250, 0.139404296875, 0.544433593750, -1.257812500000, 0.304687500000, -4.414062500000, 1490951474
0.879882812500, 0.051757812500, 0.536132812500, -4.585937500000, 2.617187500000, -1.046875000000, 1490951474
0.879882812500, 0.051757812500, 0.536132812500, -4.585937500000, 2.617187500000, -1.046875000000, 1490951474
0.879882812500, 0.051757812500, 0.536132812500, -4.585937500000, 2.617187500000, -1.046875000000, 1490951474
0.883544921875, 0.081787109375, 0.551513671875, -4.570312500000, -2.390625000000, -2.898437500000, 1490951474
0.883544921875, 0.081787109375, 0.551513671875, -4.570312500000, -2.390625000000, -2.898437500000, 1490951474
0.883544921875, 0.081787109375, 0.551513671875, -4.570312500000, -2.390625000000, -2.898437500000, 1490951474
0.883544921875, 0.081787109375, 0.551513671875, -4.570312500000, -2.390625000000, -2.898437500000, 1490951474
0.865234375000, -0.029296875000, 0.539794921875, -4.203125000000, 0.210937500000, -1.046875000000, 1490951474
0.865234375000, -0.029296875000, 0.539794921875, -4.203125000000, 0.210937500000, -1.046875000000, 1490951474
0.865234375000, -0.029296875000, 0.539794921875, -4.203125000000, 0.210937500000, -1.046875000000, 1490951474
0.797851562500, 0.106201171875, 0.583740234375, -1.953125000000, 0.750000000000, -2.828125000000, 1490951474
0.797851562500, 0.106201171875, 0.583740234375, -1.953125000000, 0.750000000000, -2.828125000000, 1490951474
0.797851562500, 0.106201171875, 0.583740234375, -1.953125000000, 0.750000000000, -2.828125000000, 1490951474
0.810546875000, 0.059082031250, 0.579589843750, -4.664062500000, -2.328125000000, -2.773437500000, 1490951474
0.810546875000, 0.059082031250, 0.579589843750, -4.664062500000, -2.328125000000, -2.773437500000, 1490951474
0.810546875000, 0.059082031250, 0.579589843750, -4.664062500000, -2.328125000000, -2.773437500000, 1490951474
0.874511718750, 0.095458984375, 0.498291015625, -3.007812500000, 0.000000000000, -4.304687500000, 1490951474
0.874511718750, 0.095458984375, 0.498291015625, -3.007812500000, 0.000000000000, -4.304687500000, 1490951474
0.874511718750, 0.095458984375, 0.498291015625, -3.007812500000, 0.000000000000, -4.304687500000, 1490951474
0.874511718750, 0.095458984375, 0.498291015625, -3.007812500000, 0.000000000000, -4.304687500000, 1490951474
0.795410156250, 0.080566406250, 0.566406250000, -4.554687500000, -2.500000000000, -1.609375000000, 1490951474
0.795410156250, 0.080566406250, 0.566406250000, -4.554687500000, -2.500000000000, -1.609375000000, 1490951474
0.795410156250, 0.080566406250, 0.566406250000, -4.554687500000, -2.500000000000, -1.609375000000, 1490951474
0.869628906250, 0.069580078125, 0.478027343750, -3.031250000000, 0.609375000000, -1.250000000000, 1490951474
0.869628906250, 0.069580078125, 0.478027343750, -3.031250000000, 0.609375000000, -1.250000000000, 1490951474
0.869628906250, 0.069580078125, 0.478027343750, -3.031250000000, 0.609375000000, -1.250000000000, 1490951474
0.869628906250, 0.069580078125, 0.478027343750, -3.031250000000, 0.609375000000, -1.250000000000, 1490951474
0.869628906250, 0.069580078125, 0.478027343750, -3.031250000000, 0.609375000000, -1.250000000000, 1490951474
0.869628906250, 0.069580078125, 0.478027343750, -3.031250000000, 0.609375000000, -1.250000000000, 1490951474
0.869628906250, 0.069580078125, 0.478027343750, -3.031250000000, 0.609375000000, -1.250000000000, 1490951474
0.890380859375, 0.044189453125, 0.556396484375, -4.609375000000, -0.562500000000, -1.429687500000, 1490951474
0.890380859375, 0.044189453125, 0.556396484375, -4.609375000000, -0.562500000000, -1.429687500000, 1490951474
0.890380859375, 0.044189453125, 0.556396484375, -4.609375000000, -0.562500000000, -1.429687500000, 1490951474
0.851562500000, 0.147705078125, 0.561767578125, -4.320312500000, -0.757812500000, -1.140625000000, 1490951474
0.851562500000, 0.147705078125, 0.561767578125, -4.320312500000, -0.757812500000, -1.140625000000, 1490951474
0.851562500000, 0.147705078125, 0.561767578125, -4.320312500000, -0.757812500000, -1.140625000000, 1490951474
0.866699218750, 0.190185546875, 0.561767578125, -1.062500000000, -0.273437500000, -3.273437500000, 1490951474
0.866699218750, 0.190185546875, 0.561767578125, -1.062500000000, -0.273437500000, -3.273437500000, 1490951474
0.866699218750, 0.190185546875, 0.561767578125, -1.062500000000, -0.273437500000, -3.273437500000, 1490951474
0.844970703125, 0.133056640625, 0.559082031250, -1.070312500000, -2.398437500000, -4.687500000000, 1490951474
0.844970703125, 0.133056640625, 0.559082031250, -1.070312500000, -2.398437500000, -4.687500000000, 1490951474
0.844970703125, 0.133056640625, 0.559082031250, -1.070312500000, -2.398437500000, -4.687500000000, 1490951474
0.887207031250, -0.021484375000, 0.587890625000, -4.695312500000, 0.367187500000, -3.742187500000, 1490951474
0.887207031250, -0.021484375000, 0.587890625000, -4.695312500000, 0.367187500000, -3.742187500000, 1490951474
0.887207031250, -0.021484375000, 0.587890625000, -4.695312500000, 0.367187500000, -3.742187500000, 1490951474
0.887207031250, -0.021484375000, 0.587890625000, -4.695312500000, 0.367187500000, -3.742187500000, 1490951474
0.851806640625, -0.018798828125, 0.591796875000, -4.835937500000, -2.664062500000, -3.359375000000, 1490951475
0.851806640625, -0.018798828125, 0.591796875000, -4.835937500000, -2.664062500000, -3.359375000000, 1490951475
0.851806640625, -0.018798828125, 0.591796875000, -4.835937500000, -2.664062500000, -3.359375000000, 1490951475
0.851806640625, -0.018798828125, 0.591796875000, -4.835937500000, -2.664062500000, -3.359375000000, 1490951475
1.013916015625, 0.191894531250, 0.593505859375, -3.164062500000, 0.570312500000, -1.335937500000, 1490951475
0.876708984375, 0.018310546875, 0.573242187500, -2.765625000000, 0.328125000000, -2.632812500000, 1490951475
0.876708984375, 0.018310546875, 0.573242187500, -2.765625000000, 0.328125000000, -2.632812500000, 1490951475
0.876708984375, 0.018310546875, 0.573242187500, -2.765625000000, 0.328125000000, -2.632812500000, 1490951475
0.876708984375, 0.018310546875, 0.573242187500, -2.765625000000, 0.328125000000, -2.632812500000, 1490951475
0.891357421875, 0.065673828125, 0.582763671875, -3.718750000000, -2.273437500000, -1.882812500000, 1490951475
0.891357421875, 0.065673828125, 0.582763671875, -3.718750000000, -2.273437500000, -1.882812500000, 1490951475
0.817626953125, 0.135253906250, 0.575195312500, -4.117187500000, 0.539062500000, -3.000000000000, 1490951475
0.817626953125, 0.135253906250, 0.575195312500, -4.117187500000, 0.539062500000, -3.000000000000, 1490951475
0.817626953125, 0.135253906250, 0.575195312500, -4.117187500000, 0.539062500000, -3.000000000000, 1490951475
0.817626953125, 0.135253906250, 0.575195312500, -4.117187500000, 0.539062500000, -3.000000000000, 1490951475
0.966796875000, 0.173339843750, 0.490722656250, -2.859375000000, -0.640625000000, -4.320312500000, 1490951475
0.889160156250, 0.042236328125, 0.632324218750, -4.281250000000, -2.437500000000, -4.500000000000, 1490951475
0.889160156250, 0.042236328125, 0.632324218750, -4.281250000000, -2.437500000000, -4.500000000000, 1490951475
0.889160156250, 0.042236328125, 0.632324218750, -4.281250000000, -2.437500000000, -4.500000000000, 1490951475
0.833007812500, 0.134521484375, 0.529541015625, -4.468750000000, -1.132812500000, -1.507812500000, 1490951475
0.833007812500, 0.134521484375, 0.529541015625, -4.468750000000, -1.132812500000, -1.507812500000, 1490951475
0.833007812500, 0.134521484375, 0.529541015625, -4.468750000000, -1.132812500000, -1.507812500000, 1490951475
0.884521484375, 0.092041015625, 0.580566406250, -3.898437500000, 0.421875000000, -1.640625000000, 1490951475
0.884521484375, 0.092041015625, 0.580566406250, -3.898437500000, 0.421875000000, -1.640625000000, 1490951475
0.884521484375, 0.092041015625, 0.580566406250, -3.898437500000, 0.421875000000, -1.640625000000, 1490951475
0.884521484375, 0.092041015625, 0.580566406250, -3.898437500000, 0.421875000000, -1.640625000000, 1490951475
0.839355468750, 0.061279296875, 0.557373046875, -4.734375000000, 0.500000000000, -1.695312500000, 1490951475
0.839355468750, 0.061279296875, 0.557373046875, -4.734375000000, 0.500000000000, -1.695312500000, 1490951475
0.839355468750, 0.061279296875, 0.557373046875, -4.734375000000, 0.500000000000, -1.695312500000, 1490951475
0.853515625000, 0.112060546875, 0.482666015625, -4.742187500000, -0.492187500000, -4.984375000000, 1490951475
0.853515625000, 0.112060546875, 0.482666015625, -4.742187500000, -0.492187500000, -4.984375000000, 1490951475
0.853515625000, 0.112060546875, 0.482666015625, -4.742187500000, -0.492187500000, -4.984375000000, 1490951475
1.007324218750, 0.104980468750, 0.572753906250, -4.015625000000, 2.000000000000, -4.562500000000, 1490951475
1.007324218750, 0.104980468750, 0.572753906250, -4.015625000000, 2.000000000000, -4.562500000000, 1490951475
1.007324218750, 0.104980468750, 0.572753906250, -4.015625000000, 2.000000000000, -4.562500000000, 1490951475
0.965087890625, 0.152343750000, 0.593505859375, -4.937500000000, 2.500000000000, -4.585937500000, 1490951475
0.965087890625, 0.152343750000, 0.593505859375, -4.937500000000, 2.500000000000, -4.585937500000, 1490951475
0.965087890625, 0.152343750000, 0.593505859375, -4.937500000000, 2.500000000000, -4.585937500000, 1490951475
0.965087890625, 0.152343750000, 0.593505859375, -4.937500000000, 2.500000000000, -4.585937500000, 1490951475
0.870605468750, 0.126220703125, 0.573730468750, -1.585937500000, -2.187500000000, -6.453125000000, 1490951475
0.870605468750, 0.126220703125, 0.573730468750, -1.585937500000, -2.187500000000, -6.453125000000, 1490951475
0.870605468750, 0.126220703125, 0.573730468750, -1.585937500000, -2.187500000000, -6.453125000000, 1490951475
0.812500000000, 0.027099609375, 0.497558593750, -3.039062500000, -0.750000000000, -2.320312500000, 1490951475
0.812500000000, 0.027099609375, 0.497558593750, -3.039062500000, -0.750000000000, -2.320312500000, 1490951475
0.812500000000, 0.027099609375, 0.497558593750, -3.039062500000, -0.750000000000, -2.320312500000, 1490951475
0.828613281250, 0.074707031250, 0.589111328125, -1.937500000000, -2.320312500000, -1.726562500000, 1490951475
0.828613281250, 0.074707031250, 0.589111328125, -1.937500000000, -2.320312500000, -1.726562500000, 1490951475
0.828613281250, 0.074707031250, 0.589111328125, -1.937500000000, -2.320312500000, -1.726562500000, 1490951475
0.840087890625, 0.210693359375, 0.535156250000, -3.625000000000, -0.523437500000, -4.031250000000, 1490951475
0.840087890625, 0.210693359375, 0.535156250000, -3.625000000000, -0.523437500000, -4.031250000000, 1490951475
0.840087890625, 0.210693359375, 0.535156250000, -3.625000000000, -0.523437500000, -4.031250000000, 1490951475
0.840087890625, 0.210693359375, 0.535156250000, -3.625000000000, -0.523437500000, -4.031250000000, 1490951475
0.793457031250, 0.198242187500, 0.562500000000, -3.343750000000, 0.429687500000, -4.820312500000, 1490951475
0.793457031250, 0.198242187500, 0.562500000000, -3.343750000000, 0.429687500000, -4.820312500000, 1490951475
0.793457031250, 0.198242187500, 0.562500000000, -3.343750000000, 0.429687500000, -4.820312500000, 1490951475
0.798583984375, 0.125244140625, 0.492187500000, -4.695312500000, -0.828125000000, -1.398437500000, 1490951475
0.898925781250, 0.058105468750, 0.641113281250, -4.695312500000, 0.507812500000, -4.312500000000, 1490951475
0.898925781250, 0.058105468750, 0.641113281250, -4.695312500000, 0.507812500000, -4.312500000000, 1490951475
0.898925781250, 0.058105468750, 0.641113281250, -4.695312500000, 0.507812500000, -4.312500000000, 1490951475
0.898925781250, 0.058105468750, 0.641113281250, -4.695312500000, 0.507812500000, -4.312500000000, 1490951475
0.898925781250, 0.058105468750, 0.641113281250, -4.695312500000, 0.507812500000, -4.312500000000, 1490951475
0.960693359375, 0.137451171875, 0.554199218750, -4.632812500000, -0.929687500000, -4.132812500000, 1490951475
0.960693359375, 0.137451171875, 0.554199218750, -4.632812500000, -0.929687500000, -4.132812500000, 1490951475
0.961425781250, 0.137939453125, 0.618652343750, -4.273437500000, -0.734375000000, -4.585937500000, 1490951475
0.961425781250, 0.137939453125, 0.618652343750, -4.273437500000, -0.734375000000, -4.585937500000, 1490951476
0.961425781250, 0.137939453125, 0.618652343750, -4.273437500000, -0.734375000000, -4.585937500000, 1490951476
0.961425781250, 0.137939453125, 0.618652343750, -4.273437500000, -0.734375000000, -4.585937500000, 1490951476
0.961425781250, 0.137939453125, 0.618652343750, -4.273437500000, -0.734375000000, -4.585937500000, 1490951476
0.950683593750, 0.153564453125, 0.491210937500, -1.593750000000, -0.523437500000, -1.117187500000, 1490951476
0.950683593750, 0.153564453125, 0.491210937500, -1.593750000000, -0.523437500000, -1.117187500000, 1490951476
0.950683593750, 0.153564453125, 0.491210937500, -1.593750000000, -0.523437500000, -1.117187500000, 1490951476
0.796142578125, 0.145019531250, 0.482910156250, -4.125000000000, 0.898437500000, -1.515625000000, 1490951476
0.796142578125, 0.145019531250, 0.482910156250, -4.125000000000, 0.898437500000, -1.515625000000, 1490951476
0.796142578125, 0.145019531250, 0.482910156250, -4.125000000000, 0.898437500000, -1.515625000000, 1490951476
0.858398437500, 0.065429687500, 0.531005859375, -4.031250000000, -0.773437500000, -1.273437500000, 1490951476
0.858398437500, 0.065429687500, 0.531005859375, -4.031250000000, -0.773437500000, -1.273437500000, 1490951476
0.858398437500, 0.065429687500, 0.531005859375, -4.031250000000, -0.773437500000, -1.273437500000, 1490951476
0.858398437500, 0.065429687500, 0.531005859375, -4.031250000000, -0.773437500000, -1.273437500000, 1490951476
0.806640625000, 0.058105468750, 0.592773437500, -4.953125000000, -1.031250000000, -3.632812500000, 1490951476
0.806640625000, 0.058105468750, 0.592773437500, -4.953125000000, -1.031250000000, -3.632812500000, 1490951476
0.806640625000, 0.058105468750, 0.592773437500, -4.953125000000, -1.031250000000, -3.632812500000, 1490951476
0.856201171875, 0.149658203125, 0.541259765625, -3.500000000000, 0.414062500000, -4.507812500000, 1490951476
0.856201171875, 0.149658203125, 0.541259765625, -3.500000000000, 0.414062500000, -4.507812500000, 1490951476
0.856201171875, 0.149658203125, 0.541259765625, -3.500000000000, 0.414062500000, -4.507812500000, 1490951476
0.904785156250, 0.139160156250, 0.647705078125, -4.875000000000, 0.359375000000, -4.187500000000, 1490951476
0.904785156250, 0.139160156250, 0.647705078125, -4.875000000000, 0.359375000000, -4.187500000000, 1490951476
0.904785156250, 0.139160156250, 0.647705078125, -4.875000000000, 0.359375000000, -4.187500000000, 1490951476
0.802734375000, 0.154541015625, 0.575195312500, -4.195312500000, 0.132812500000, -2.859375000000, 1490951476
0.802734375000, 0.154541015625, 0.575195312500, -4.195312500000, 0.132812500000, -2.859375000000, 1490951476
0.802734375000, 0.154541015625, 0.575195312500, -4.195312500000, 0.132812500000, -2.859375000000, 1490951476
0.802734375000, 0.154541015625, 0.575195312500, -4.195312500000, 0.132812500000, -2.859375000000, 1490951476
0.831542968750, 0.149414062500, 0.576904296875, -1.609375000000, 0.593750000000, -1.390625000000, 1490951476
0.831542968750, 0.149414062500, 0.576904296875, -1.609375000000, 0.593750000000, -1.390625000000, 1490951476
0.831542968750, 0.149414062500, 0.576904296875, -1.609375000000, 0.593750000000, -1.390625000000, 1490951476
0.840576171875, 0.040039062500, 0.546875000000, -3.367187500000, 0.859375000000, -1.531250000000, 1490951476
0.840576171875, 0.040039062500, 0.546875000000, -3.367187500000, 0.859375000000, -1.531250000000, 1490951476
0.840576171875, 0.040039062500, 0.546875000000, -3.367187500000, 0.859375000000, -1.531250000000, 1490951476
