ACC_X,ACC_Y,ACC_Z,G_X,G_Y,G_Z,Unix Time
0.064941406250, -1.079101562500, 0.321777343750, -6.835937500000, 2.070312500000, -10.210937500000, 1490951356
0.064941406250, -1.079101562500, 0.321777343750, -6.835937500000, 2.070312500000, -10.210937500000, 1490951356
0.064941406250, -1.079101562500, 0.321777343750, -6.835937500000, 2.070312500000, -10.210937500000, 1490951356
0.140869140625, -0.912841796875, 0.342773437500, -8.625000000000, 2.609375000000, -7.007812500000, 1490951357
0.140869140625, -0.912841796875, 0.342773437500, -8.625000000000, 2.609375000000, -7.007812500000, 1490951357
0.140869140625, -0.912841796875, 0.342773437500, -8.625000000000, 2.609375000000, -7.007812500000, 1490951357
0.073486328125, -0.966064453125, 0.322753906250, -5.843750000000, 0.867187500000, -7.257812500000, 1490951357
0.073486328125, -0.966064453125, 0.322753906250, -5.843750000000, 0.867187500000, -7.257812500000, 1490951357
0.087890625000, -0.926025390625, 0.283935546875, -6.289062500000, 0.632812500000, -6.000000000000, 1490951357
-0.023193359375, -1.024902343750, 0.299072265625, -6.289062500000, 0.632812500000, -6.000000000000, 1490951357
-0.023193359375, -1.024902343750, 0.299072265625, -6.289062500000, 0.632812500000, -6.000000000000, 1490951357
-0.023193359375, -1.024902343750, 0.299072265625, -6.289062500000, 0.632812500000, -6.000000000000, 1490951357
-0.023193359375, -1.024902343750, 0.299072265625, -6.289062500000, 0.632812500000, -6.000000000000, 1490951357
0.142333984375, -0.994140625000, 0.287841796875, -6.429687500000, -1.726562500000, -8.765625000000, 1490951357
0.142333984375, -0.994140625000, 0.287841796875, -6.429687500000, -1.726562500000, -8.765625000000, 1490951357
0.142333984375, -0.994140625000, 0.287841796875, -6.429687500000, -1.726562500000, -8.765625000000, 1490951357
0.012207031250, -1.010986328125, 0.218994140625, -6.734375000000, -7.859375000000, -4.656250000000, 1490951357
0.012207031250, -1.010986328125, 0.218994140625, -6.734375000000, -7.859375000000, -4.656250000000, 1490951357
0.012207031250, -1.010986328125, 0.218994140625, -6.734375000000, -7.859375000000, -4.656250000000, 1490951357
0.145019531250, -0.859863281250, 0.237060546875, -8.406250000000, -9.203125000000, -8.132812500000, 1490951357
0.145019531250, -0.859863281250, 0.237060546875, -8.406250000000, -9.203125000000, -8.132812500000, 1490951357
0.145019531250, -0.859863281250, 0.237060546875, -8.406250000000, -9.203125000000, -8.132812500000, 1490951357
0.005371093750, -0.944335937500, 0.378662109375, -7.703125000000, -5.257812500000, -8.382812500000, 1490951357
0.098876953125, -0.929931640625, 0.340332031250, -3.257812500000, -8.015625000000, -6.312500000000, 1490951357
0.098876953125, -0.929931640625, 0.340332031250, -3.257812500000, -8.015625000000, -6.312500000000, 1490951357
0.117675781250, -0.935791015625, 0.317382812500, -2.703125000000, -5.257812500000, -7.796875000000, 1490951357
0.121582031250, -0.926269531250, 0.334228515625, -3.523437500000, -3.281250000000, -10.070312500000, 1490951357
0.121582031250, -0.926269531250, 0.334228515625, -3.523437500000, -3.281250000000, -10.070312500000, 1490951357
0.121582031250, -0.926269531250, 0.334228515625, -3.523437500000, -3.281250000000, -10.070312500000, 1490951357
0.082031250000, -0.958496093750, 0.232177734375, -8.796875000000, -3.445312500000, -10.187500000000, 1490951357
0.082031250000, -0.958496093750, 0.232177734375, -8.796875000000, -3.445312500000, -10.187500000000, 1490951357
0.047607421875, -0.925537109375, 0.287353515625, -4.859375000000, -3.492187500000, -3.328125000000, 1490951357
0.047607421875, -0.925537109375, 0.287353515625, -4.859375000000, -3.492187500000, -3.328125000000, 1490951357
0.047607421875, -0.925537109375, 0.287353515625, -4.859375000000, -3.492187500000, -3.328125000000, 1490951357
0.047607421875, -0.925537109375, 0.287353515625, -4.859375000000, -3.492187500000, -3.328125000000, 1490951357
0.047607421875, -0.925537109375, 0.287353515625, -4.859375000000, -3.492187500000, -3.328125000000, 1490951357
0.073730468750, -0.928222656250, 0.314941406250, -1.492187500000, 2.835937500000, -3.015625000000, 1490951357
0.073730468750, -0.928222656250, 0.314941406250, -1.492187500000, 2.835937500000, -3.015625000000, 1490951357
0.073730468750, -0.928222656250, 0.314941406250, -1.492187500000, 2.835937500000, -3.015625000000, 1490951357
0.062744140625, -0.922607421875, 0.394042968750, -2.320312500000, 0.945312500000, -6.078125000000, 1490951357
0.062744140625, -0.922607421875, 0.394042968750, -2.320312500000, 0.945312500000, -6.078125000000, 1490951357
0.062744140625, -0.922607421875, 0.394042968750, -2.320312500000, 0.945312500000, -6.078125000000, 1490951357
0.031738281250, -0.928955078125, 0.239013671875, -3.273437500000, 2.375000000000, -4.382812500000, 1490951357
0.031738281250, -0.928955078125, 0.239013671875, -3.273437500000, 2.375000000000, -4.382812500000, 1490951357
0.031738281250, -0.928955078125, 0.239013671875, -3.273437500000, 2.375000000000, -4.382812500000, 1490951357
0.032714843750, -1.021972656250, 0.304443359375, -1.242187500000, 2.570312500000, -3.921875000000, 1490951357
0.032714843750, -1.021972656250, 0.304443359375, -1.242187500000, 2.570312500000, -3.921875000000, 1490951357
0.032714843750, -1.021972656250, 0.304443359375, -1.242187500000, 2.570312500000, -3.921875000000, 1490951357
0.032714843750, -1.021972656250, 0.304443359375, -1.242187500000, 2.570312500000, -3.921875000000, 1490951357
-0.078369140625, -0.908691406250, 0.330078125000, -2.406250000000, 0.953125000000, -3.703125000000, 1490951357
-0.078369140625, -0.908691406250, 0.330078125000, -2.406250000000, 0.953125000000, -3.703125000000, 1490951357
-0.078369140625, -0.908691406250, 0.330078125000, -2.406250000000, 0.953125000000, -3.703125000000, 1490951357
0.112060546875, -1.000732421875, 0.236083984375, -3.609375000000, 2.101562500000, -5.593750000000, 1490951357
0.112060546875, -1.000732421875, 0.236083984375, -3.609375000000, 2.101562500000, -5.593750000000, 1490951357
0.112060546875, -1.000732421875, 0.236083984375, -3.609375000000, 2.101562500000, -5.593750000000, 1490951357
0.051513671875, -0.941894531250, 0.325439453125, -1.601562500000, -0.101562500000, -6.679687500000, 1490951357
0.051513671875, -0.941894531250, 0.325439453125, -1.601562500000, -0.101562500000, -6.679687500000, 1490951357
0.051513671875, -0.941894531250, 0.325439453125, -1.601562500000, -0.101562500000, -6.679687500000, 1490951357
0.053710937500, -0.923583984375, 0.290527343750, -4.945312500000, 2.992187500000, -5.914062500000, 1490951357
0.053710937500, -0.923583984375, 0.290527343750, -4.945312500000, 2.992187500000, -5.914062500000, 1490951357
0.053710937500, -0.923583984375, 0.290527343750, -4.945312500000, 2.992187500000, -5.914062500000, 1490951357
0.053710937500, -0.923583984375, 0.290527343750, -4.945312500000, 2.992187500000, -5.914062500000, 1490951357
0.125732421875, -0.857666015625, 0.302490234375, -6.789062500000, -0.945312500000, -5.789062500000, 1490951357
0.125732421875, -0.857666015625, 0.302490234375, -6.789062500000, -0.945312500000, -5.789062500000, 1490951357
0.125732421875, -0.857666015625, 0.302490234375, -6.789062500000, -0.945312500000, -5.789062500000, 1490951357
0.049072265625, -1.033691406250, 0.281982421875, -5.429687500000, -0.859375000000, -6.187500000000, 1490951357
0.049072265625, -1.033691406250, 0.281982421875, -5.429687500000, -0.859375000000, -6.187500000000, 1490951357
0.049072265625, -1.033691406250, 0.281982421875, -5.429687500000, -0.859375000000, -6.187500000000, 1490951357
0.044677734375, -1.004882812500, 0.267578125000, -3.976562500000, -2.656250000000, -6.445312500000, 1490951357
0.044677734375, -1.004882812500, 0.267578125000, -3.976562500000, -2.656250000000, -6.445312500000, 1490951357
0.044677734375, -1.004882812500, 0.267578125000, -3.976562500000, -2.656250000000, -6.445312500000, 1490951357
0.149658203125, -0.861083984375, 0.379638671875, -4.554687500000, -1.046875000000, -4.140625000000, 1490951358
0.149658203125, -0.861083984375, 0.379638671875, -4.554687500000, -1.046875000000, -4.140625000000, 1490951358
0.149658203125, -0.861083984375, 0.379638671875, -4.554687500000, -1.046875000000, -4.140625000000, 1490951358
0.149658203125, -0.861083984375, 0.379638671875, -4.554687500000, -1.046875000000, -4.140625000000, 1490951358
0.053222656250, -0.972167968750, 0.222656250000, -6.703125000000, 1.257812500000, -2.617187500000, 1490951358
0.053222656250, -0.972167968750, 0.222656250000, -6.703125000000, 1.257812500000, -2.617187500000, 1490951358
0.053222656250, -0.972167968750, 0.222656250000, -6.703125000000, 1.257812500000, -2.617187500000, 1490951358
0.054687500000, -1.134765625000, 0.295166015625, 4.179687500000, -4.210937500000, -3.640625000000, 1490951358
0.054687500000, -1.134765625000, 0.295166015625, 4.179687500000, -4.210937500000, -3.640625000000, 1490951358
0.054687500000, -1.134765625000, 0.295166015625, 4.179687500000, -4.210937500000, -3.640625000000, 1490951358
0.054687500000, -1.134765625000, 0.295166015625, 4.179687500000, -4.210937500000, -3.640625000000, 1490951358
0.054687500000, -1.134765625000, 0.295166015625, 4.179687500000, -4.210937500000, -3.640625000000, 1490951358
0.083007812500, -0.951660156250, 0.285156250000, -0.265625000000, 18.781250000000, 0.304687500000, 1490951358
0.083007812500, -0.951660156250, 0.285156250000, -0.265625000000, 18.781250000000, 0.304687500000, 1490951358
0.083007812500, -0.951660156250, 0.285156250000, -0.265625000000, 18.781250000000, 0.304687500000, 1490951358
0.083007812500, -0.951660156250, 0.285156250000, -0.265625000000, 18.781250000000, 0.304687500000, 1490951358
0.093750000000, -1.065673828125, 0.321044921875, 6.429687500000, 4.156250000000, -2.468750000000, 1490951358
0.093750000000, -1.065673828125, 0.321044921875, 6.429687500000, 4.156250000000, -2.468750000000, 1490951358
0.093750000000, -1.065673828125, 0.321044921875, 6.429687500000, 4.156250000000, -2.468750000000, 1490951358
0.093750000000, -1.065673828125, 0.321044921875, 6.429687500000, 4.156250000000, -2.468750000000, 1490951358
-0.074462890625, -0.999023437500, 0.343017578125, -4.632812500000, 1.664062500000, -3.859375000000, 1490951358
-0.074462890625, -0.999023437500, 0.343017578125, -4.632812500000, 1.664062500000, -3.859375000000, 1490951358
-0.074462890625, -0.999023437500, 0.343017578125, -4.632812500000, 1.664062500000, -3.859375000000, 1490951358
0.048095703125, -0.922119140625, 0.245117187500, -7.343750000000, 3.312500000000, -12.187500000000, 1490951358
0.048095703125, -0.922119140625, 0.245117187500, -7.343750000000, 3.312500000000, -12.187500000000, 1490951358
0.048095703125, -0.922119140625, 0.245117187500, -7.343750000000, 3.312500000000, -12.187500000000, 1490951358
0.078857421875, -0.983398437500, 0.187255859375, -3.367187500000, 0.171875000000, -10.460937500000, 1490951358
0.078857421875, -0.983398437500, 0.187255859375, -3.367187500000, 0.171875000000, -10.460937500000, 1490951358
-0.018066406250, -0.970214843750, 0.234375000000, -8.078125000000, 1.617187500000, -6.515625000000, 1490951358
-0.018066406250, -0.970214843750, 0.234375000000, -8.078125000000, 1.617187500000, -6.515625000000, 1490951358
-0.018066406250, -0.970214843750, 0.234375000000, -8.078125000000, 1.617187500000, -6.515625000000, 1490951358
-0.018066406250, -0.970214843750, 0.234375000000, -8.078125000000, 1.617187500000, -6.515625000000, 1490951358
-0.018066406250, -0.970214843750, 0.234375000000, -8.078125000000, 1.617187500000, -6.515625000000, 1490951358
0.018066406250, -0.867187500000, 0.263183593750, -10.257812500000, 3.914062500000, -2.000000000000, 1490951358
0.018066406250, -0.867187500000, 0.263183593750, -10.257812500000, 3.914062500000, -2.000000000000, 1490951358
0.018066406250, -0.867187500000, 0.263183593750, -10.257812500000, 3.914062500000, -2.000000000000, 1490951358
-0.012695312500, -1.024658203125, 0.268554687500, -6.078125000000, -0.093750000000, -3.757812500000, 1490951358
-0.012695312500, -1.024658203125, 0.268554687500, -6.078125000000, -0.093750000000, -3.757812500000, 1490951358
-0.012695312500, -1.024658203125, 0.268554687500, -6.078125000000, -0.093750000000, -3.757812500000, 1490951358
0.093017578125, -1.002197265625, 0.246582031250, -6.398437500000, 0.898437500000, -3.460937500000, 1490951358
0.093017578125, -1.002197265625, 0.246582031250, -6.398437500000, 0.898437500000, -3.460937500000, 1490951358
0.093017578125, -1.002197265625, 0.246582031250, -6.398437500000, 0.898437500000, -3.460937500000, 1490951358
0.093017578125, -1.002197265625, 0.246582031250, -6.398437500000, 0.898437500000, -3.460937500000, 1490951358
0.042480468750, -1.018554687500, 0.323486328125, -1.914062500000, -4.406250000000, -4.265625000000, 1490951358
0.042480468750, -1.018554687500, 0.323486328125, -1.914062500000, -4.406250000000, -4.265625000000, 1490951358
0.042480468750, -1.018554687500, 0.323486328125, -1.914062500000, -4.406250000000, -4.265625000000, 1490951358
0.046142578125, -1.012207031250, 0.284179687500, -5.351562500000, -2.867187500000, -1.281250000000, 1490951358
0.055664062500, -0.985839843750, 0.282958984375, -5.757812500000, -2.710937500000, -1.609375000000, 1490951358
0.064453125000, -1.076171875000, 0.243896484375, -4.546875000000, -4.242187500000, -4.007812500000, 1490951358
0.142822265625, -0.927978515625, 0.222167968750, -6.453125000000, 1.851562500000, -4.382812500000, 1490951358
0.142822265625, -0.927978515625, 0.222167968750, -6.453125000000, 1.851562500000, -4.382812500000, 1490951358
0.142822265625, -0.927978515625, 0.222167968750, -6.453125000000, 1.851562500000, -4.382812500000, 1490951358
0.112060546875, -0.874023437500, 0.186279296875, -3.539062500000, 0.578125000000, 2.140625000000, 1490951358
0.112060546875, -0.874023437500, 0.186279296875, -3.539062500000, 0.578125000000, 2.140625000000, 1490951358
0.112060546875, -0.874023437500, 0.186279296875, -3.539062500000, 0.578125000000, 2.140625000000, 1490951358
0.112060546875, -0.874023437500, 0.186279296875, -3.539062500000, 0.578125000000, 2.140625000000, 1490951358
0.112060546875, -0.874023437500, 0.186279296875, -3.539062500000, 0.578125000000, 2.140625000000, 1490951358
0.050048828125, -1.028808593750, 0.397705078125, -0.359375000000, -2.578125000000, -0.367187500000, 1490951358
0.050048828125, -1.028808593750, 0.397705078125, -0.359375000000, -2.578125000000, -0.367187500000, 1490951358
0.050048828125, -1.028808593750, 0.397705078125, -0.359375000000, -2.578125000000, -0.367187500000, 1490951358
0.050048828125, -1.028808593750, 0.397705078125, -0.359375000000, -2.578125000000, -0.367187500000, 1490951358
0.050048828125, -1.028808593750, 0.397705078125, -0.359375000000, -2.578125000000, -0.367187500000, 1490951358
0.146972656250, -0.930175781250, 0.341064453125, 1.031250000000, 2.140625000000, -4.132812500000, 1490951358
0.080322265625, -1.214355468750, 0.204101562500, -107.140625000000, -44.273437500000, -19.453125000000, 1490951358
0.080322265625, -1.214355468750, 0.204101562500, -107.140625000000, -44.273437500000, -19.453125000000, 1490951359
0.080322265625, -1.214355468750, 0.204101562500, -107.140625000000, -44.273437500000, -19.453125000000, 1490951359
0.080322265625, -1.214355468750, 0.204101562500, -107.140625000000, -44.273437500000, -19.453125000000, 1490951359
0.080322265625, -1.214355468750, 0.204101562500, -107.140625000000, -44.273437500000, -19.453125000000, 1490951359
0.080322265625, -1.214355468750, 0.204101562500, -107.140625000000, -44.273437500000, -19.453125000000, 1490951359
0.267578125000, -1.114257812500, 0.180419921875, -68.890625000000, 14.789062500000, -42.585937500000, 1490951359
0.267578125000, -1.114257812500, 0.180419921875, -68.890625000000, 14.789062500000, -42.585937500000, 1490951359
0.267578125000, -1.114257812500, 0.180419921875, -68.890625000000, 14.789062500000, -42.585937500000, 1490951359
0.253173828125, -0.939697265625, 0.072265625000, -50.609375000000, 48.570312500000, -10.429687500000, 1490951359
0.253173828125, -0.939697265625, 0.072265625000, -50.609375000000, 48.570312500000, -10.429687500000, 1490951359
0.253173828125, -0.939697265625, 0.072265625000, -50.609375000000, 48.570312500000, -10.429687500000, 1490951359
0.210205078125, -0.973144531250, -0.014160156250, -114.648437500000, -16.890625000000, 2.820312500000, 1490951359
0.210205078125, -0.973144531250, -0.014160156250, -114.648437500000, -16.890625000000, 2.820312500000, 1490951359
0.210205078125, -0.973144531250, -0.014160156250, -114.648437500000, -16.890625000000, 2.820312500000, 1490951359
0.175537109375, -0.911621093750, -0.011962890625, -51.375000000000, -24.859375000000, 2.890625000000, 1490951359
0.175537109375, -0.911621093750, -0.011962890625, -51.375000000000, -24.859375000000, 2.890625000000, 1490951359
0.175537109375, -0.911621093750, -0.011962890625, -51.375000000000, -24.859375000000, 2.890625000000, 1490951359
0.175537109375, -0.911621093750, -0.011962890625, -51.375000000000, -24.859375000000, 2.890625000000, 1490951359
0.100341796875, -0.645507812500, -0.003173828125, 26.929687500000, 35.320312500000, 6.632812500000, 1490951359
0.100341796875, -0.645507812500, -0.003173828125, 26.929687500000, 35.320312500000, 6.632812500000, 1490951359
0.100341796875, -0.645507812500, -0.003173828125, 26.929687500000, 35.320312500000, 6.632812500000, 1490951359
-0.079589843750, -0.404541015625, 0.031494140625, 85.710937500000, 42.578125000000, 22.132812500000, 1490951359
-0.079589843750, -0.404541015625, 0.031494140625, 85.710937500000, 42.578125000000, 22.132812500000, 1490951359
-0.079589843750, -0.404541015625, 0.031494140625, 85.710937500000, 42.578125000000, 22.132812500000, 1490951359
-0.388427734375, 0.130859375000, 0.406738281250, 253.992187500000, -6.500000000000, 81.273437500000, 1490951359
-0.388427734375, 0.130859375000, 0.406738281250, 253.992187500000, -6.500000000000, 81.273437500000, 1490951359
-0.388427734375, 0.130859375000, 0.406738281250, 253.992187500000, -6.500000000000, 81.273437500000, 1490951359
-0.006347656250, -0.138671875000, 0.166748046875, 90.476562500000, -153.031250000000, -2.468750000000, 1490951359
-0.006347656250, -0.138671875000, 0.166748046875, 90.476562500000, -153.031250000000, -2.468750000000, 1490951359
-0.006347656250, -0.138671875000, 0.166748046875, 90.476562500000, -153.031250000000, -2.468750000000, 1490951359
-0.006347656250, -0.138671875000, 0.166748046875, 90.476562500000, -153.031250000000, -2.468750000000, 1490951359
0.081787109375, -0.328125000000, 0.053710937500, 41.312500000000, 52.921875000000, -12.312500000000, 1490951359
0.081787109375, -0.328125000000, 0.053710937500, 41.312500000000, 52.921875000000, -12.312500000000, 1490951359
0.081787109375, -0.328125000000, 0.053710937500, 41.312500000000, 52.921875000000, -12.312500000000, 1490951359
0.125976562500, -0.556640625000, -0.009521484375, -30.828125000000, 51.703125000000, -57.773437500000, 1490951359
0.125976562500, -0.556640625000, -0.009521484375, -30.828125000000, 51.703125000000, -57.773437500000, 1490951359
0.125976562500, -0.556640625000, -0.009521484375, -30.828125000000, 51.703125000000, -57.773437500000, 1490951359
0.066406250000, -0.803955078125, -0.070800781250, -75.976562500000, 17.210937500000, -126.078125000000, 1490951359
-0.129150390625, -1.882080078125, 0.072509765625, -229.500000000000, 75.187500000000, -33.976562500000, 1490951359
-0.129150390625, -1.882080078125, 0.072509765625, -229.500000000000, 75.187500000000, -33.976562500000, 1490951359
-0.129150390625, -1.882080078125, 0.072509765625, -229.500000000000, 75.187500000000, -33.976562500000, 1490951359
-0.129150390625, -1.882080078125, 0.072509765625, -229.500000000000, 75.187500000000, -33.976562500000, 1490951359
-0.129150390625, -1.882080078125, 0.072509765625, -229.500000000000, 75.187500000000, -33.976562500000, 1490951359
-0.026611328125, -1.385009765625, 0.129882812500, -133.492187500000, -6.414062500000, -48.164062500000, 1490951359
-0.026611328125, -1.385009765625, 0.129882812500, -133.492187500000, -6.414062500000, -48.164062500000, 1490951359
-0.026611328125, -1.385009765625, 0.129882812500, -133.492187500000, -6.414062500000, -48.164062500000, 1490951359
0.068847656250, -1.381835937500, 0.077636718750, -172.062500000000, -83.085937500000, 20.828125000000, 1490951359
0.158691406250, -1.661621093750, 0.093505859375, -134.921875000000, -119.289062500000, 43.445312500000, 1490951359
0.158691406250, -1.661621093750, 0.093505859375, -134.921875000000, -119.289062500000, 43.445312500000, 1490951359
0.158691406250, -1.661621093750, 0.093505859375, -134.921875000000, -119.289062500000, 43.445312500000, 1490951359
0.296142578125, -1.887695312500, 0.238037109375, 40.843750000000, -143.945312500000, 83.546875000000, 1490951359
0.296142578125, -1.887695312500, 0.238037109375, 40.843750000000, -143.945312500000, 83.546875000000, 1490951359
0.368896484375, -1.735595703125, 1.785400390625, -256.000000000000, -256.000000000000, -17.726562500000, 1490951359
0.368896484375, -1.735595703125, 1.785400390625, -256.000000000000, -256.000000000000, -17.726562500000, 1490951359
0.368896484375, -1.735595703125, 1.785400390625, -256.000000000000, -256.000000000000, -17.726562500000, 1490951359
0.368896484375, -1.735595703125, 1.785400390625, -256.000000000000, -256.000000000000, -17.726562500000, 1490951359
0.368896484375, -1.735595703125, 1.785400390625, -256.000000000000, -256.000000000000, -17.726562500000, 1490951359
0.011962890625, -0.152099609375, 0.152099609375, -256.000000000000, -80.445312500000, 174.023437500000, 1490951359
0.011962890625, -0.152099609375, 0.152099609375, -256.000000000000, -80.445312500000, 174.023437500000, 1490951359
0.011962890625, -0.152099609375, 0.152099609375, -256.000000000000, -80.445312500000, 174.023437500000, 1490951359
0.115234375000, -0.016113281250, 0.118896484375, -140.210937500000, 8.835937500000, -82.453125000000, 1490951359
0.115234375000, -0.016113281250, 0.118896484375, -140.210937500000, 8.835937500000, -82.453125000000, 1490951359
0.115234375000, -0.016113281250, 0.118896484375, -140.210937500000, 8.835937500000, -82.453125000000, 1490951359
0.235107421875, 0.169189453125, 0.286865234375, 19.132812500000, 196.851562500000, -142.851562500000, 1490951359
0.235107421875, 0.169189453125, 0.286865234375, 19.132812500000, 196.851562500000, -142.851562500000, 1490951359
0.235107421875, 0.169189453125, 0.286865234375, 19.132812500000, 196.851562500000, -142.851562500000, 1490951359
0.042480468750, 0.573974609375, 0.522705078125, -162.640625000000, 145.898437500000, -126.796875000000, 1490951359
0.042480468750, 0.573974609375, 0.522705078125, -162.640625000000, 145.898437500000, -126.796875000000, 1490951359
0.042480468750, 0.573974609375, 0.522705078125, -162.640625000000, 145.898437500000, -126.796875000000, 1490951359
0.042480468750, 0.573974609375, 0.522705078125, -162.640625000000, 145.898437500000, -126.796875000000, 1490951359
-0.233154296875, 0.144042968750, 1.204833984375, -247.648437500000, -153.867187500000, -5.625000000000, 1490951360
-0.233154296875, 0.144042968750, 1.204833984375, -247.648437500000, -153.867187500000, -5.625000000000, 1490951360
-0.233154296875, 0.144042968750, 1.204833984375, -247.648437500000, -153.867187500000, -5.625000000000, 1490951360
0.440673828125, 0.224365234375, 2.119628906250, -121.406250000000, -14.562500000000, -1.742187500000, 1490951360
0.440673828125, 0.224365234375, 2.119628906250, -121.406250000000, -14.562500000000, -1.742187500000, 1490951360
0.440673828125, 0.224365234375, 2.119628906250, -121.406250000000, -14.562500000000, -1.742187500000, 1490951360
0.286376953125, 0.617187500000, 2.466552734375, -155.492187500000, -17.617187500000, 16.851562500000, 1490951360
0.286376953125, 0.617187500000, 2.466552734375, -155.492187500000, -17.617187500000, 16.851562500000, 1490951360
0.286376953125, 0.617187500000, 2.466552734375, -155.492187500000, -17.617187500000, 16.851562500000, 1490951360
-0.205566406250, 0.532226562500, 0.993164062500, -79.062500000000, 73.070312500000, 40.101562500000, 1490951360
-0.205566406250, 0.532226562500, 0.993164062500, -79.062500000000, 73.070312500000, 40.101562500000, 1490951360
-0.205566406250, 0.532226562500, 0.993164062500, -79.062500000000, 73.070312500000, 40.101562500000, 1490951360
-0.205566406250, 0.532226562500, 0.993164062500, -79.062500000000, 73.070312500000, 40.101562500000, 1490951360
-0.197509765625, 0.508300781250, 0.487548828125, -49.914062500000, 155.976562500000, 49.570312500000, 1490951360
-0.197509765625, 0.508300781250, 0.487548828125, -49.914062500000, 155.976562500000, 49.570312500000, 1490951360
-0.197509765625, 0.508300781250, 0.487548828125, -49.914062500000, 155.976562500000, 49.570312500000, 1490951360
-0.146972656250, -0.081054687500, -0.055419921875, 4.835937500000, -2.390625000000, -88.640625000000, 1490951360
-0.146972656250, -0.081054687500, -0.055419921875, 4.835937500000, -2.390625000000, -88.640625000000, 1490951360
-0.146972656250, -0.081054687500, -0.055419921875, 4.835937500000, -2.390625000000, -88.640625000000, 1490951360
-0.195800781250, 0.009033203125, 0.130615234375, -7.148437500000, -45.406250000000, -98.890625000000, 1490951360
0.201416015625, -0.188964843750, 1.563476562500, -31.023437500000, -0.507812500000, 11.242187500000, 1490951360
0.201416015625, -0.188964843750, 1.563476562500, -31.023437500000, -0.507812500000, 11.242187500000, 1490951360
0.201416015625, -0.188964843750, 1.563476562500, -31.023437500000, -0.507812500000, 11.242187500000, 1490951360
0.201416015625, -0.188964843750, 1.563476562500, -31.023437500000, -0.507812500000, 11.242187500000, 1490951360
0.201416015625, -0.188964843750, 1.563476562500, -31.023437500000, -0.507812500000, 11.242187500000, 1490951360
0.058349609375, -0.153076171875, 1.399658203125, -53.656250000000, 45.984375000000, 16.570312500000, 1490951360
-0.028076171875, 0.137695312500, 1.258300781250, -49.804687500000, 39.828125000000, 13.375000000000, 1490951360
-0.028076171875, 0.137695312500, 1.258300781250, -36.929687500000, 44.898437500000, 9.250000000000, 1490951360
-0.393310546875, 0.139160156250, 1.019775390625, -46.492187500000, 29.476562500000, -4.453125000000, 1490951360
-0.393310546875, 0.139160156250, 1.019775390625, -46.492187500000, 29.476562500000, -4.453125000000, 1490951360
-0.393310546875, 0.139160156250, 1.019775390625, -46.492187500000, 29.476562500000, -4.453125000000, 1490951360
-0.393310546875, 0.139160156250, 1.019775390625, -46.492187500000, 29.476562500000, -4.453125000000, 1490951360
-0.221679687500, 0.299316406250, 0.657226562500, -62.585937500000, -45.523437500000, -16.132812500000, 1490951360
-0.221679687500, 0.299316406250, 0.657226562500, -62.585937500000, -45.523437500000, -16.132812500000, 1490951360
-0.221679687500, 0.299316406250, 0.657226562500, -62.585937500000, -45.523437500000, -16.132812500000, 1490951360
-0.065673828125, 0.166503906250, 1.114013671875, -19.968750000000, -48.664062500000, -25.718750000000, 1490951360
-0.065673828125, 0.166503906250, 1.114013671875, -19.968750000000, -48.664062500000, -25.718750000000, 1490951360
-0.065673828125, 0.166503906250, 1.114013671875, -19.968750000000, -48.664062500000, -25.718750000000, 1490951360
-0.065673828125, 0.166503906250, 1.114013671875, -19.968750000000, -48.664062500000, -25.718750000000, 1490951360
0.162109375000, 0.327392578125, 1.088134765625, -33.437500000000, -38.851562500000, -23.320312500000, 1490951360
0.162109375000, 0.327392578125, 1.088134765625, -33.437500000000, -38.851562500000, -23.320312500000, 1490951360
0.162109375000, 0.327392578125, 1.088134765625, -33.437500000000, -38.851562500000, -23.320312500000, 1490951360
0.156250000000, 0.402099609375, 0.994628906250, -23.234375000000, 5.726562500000, -23.546875000000, 1490951360
0.156250000000, 0.402099609375, 0.994628906250, -23.234375000000, 5.726562500000, -23.546875000000, 1490951360
0.156250000000, 0.402099609375, 0.994628906250, -23.234375000000, 5.726562500000, -23.546875000000, 1490951360
0.156250000000, 0.294921875000, 0.991699218750, -7.734375000000, -9.304687500000, -9.835937500000, 1490951360
0.156250000000, 0.294921875000, 0.991699218750, -7.734375000000, -9.304687500000, -9.835937500000, 1490951360
0.218261718750, 0.225585937500, 1.001708984375, -28.148437500000, -8.164062500000, -12.500000000000, 1490951360
0.218261718750, 0.225585937500, 1.001708984375, -28.148437500000, -8.164062500000, -12.500000000000, 1490951360
0.218261718750, 0.225585937500, 1.001708984375, -28.148437500000, -8.164062500000, -12.500000000000, 1490951360
0.218261718750, 0.225585937500, 1.001708984375, -28.148437500000, -8.164062500000, -12.500000000000, 1490951360
0.218261718750, 0.225585937500, 1.001708984375, -28.148437500000, -8.164062500000, -12.500000000000, 1490951360
0.089599609375, 0.278076171875, 0.919433593750, -19.210937500000, -2.148437500000, -9.515625000000, 1490951360
0.089599609375, 0.278076171875, 0.919433593750, -19.210937500000, -2.148437500000, -9.515625000000, 1490951360
0.089599609375, 0.278076171875, 0.919433593750, -19.210937500000, -2.148437500000, -9.515625000000, 1490951360
0.134277343750, 0.375732421875, 0.916259765625, -24.164062500000, 10.507812500000, -3.492187500000, 1490951360
0.134277343750, 0.375732421875, 0.916259765625, -24.164062500000, 10.507812500000, -3.492187500000, 1490951360
0.134277343750, 0.375732421875, 0.916259765625, -24.164062500000, 10.507812500000, -3.492187500000, 1490951360
0.218261718750, 0.347656250000, 0.967773437500, -19.554687500000, 11.671875000000, 0.484375000000, 1490951360
0.218261718750, 0.347656250000, 0.967773437500, -19.554687500000, 11.671875000000, 0.484375000000, 1490951360
0.218261718750, 0.347656250000, 0.967773437500, -19.554687500000, 11.671875000000, 0.484375000000, 1490951360
0.088378906250, 0.310302734375, 0.923828125000, -11.625000000000, 15.054687500000, 1.867187500000, 1490951360
0.088378906250, 0.310302734375, 0.923828125000, -11.625000000000, 15.054687500000, 1.867187500000, 1490951360
0.088378906250, 0.310302734375, 0.923828125000, -11.625000000000, 15.054687500000, 1.867187500000, 1490951360
0.088378906250, 0.310302734375, 0.923828125000, -11.625000000000, 15.054687500000, 1.867187500000, 1490951360
0.011962890625, 0.249023437500, 0.975341796875, -16.679687500000, 11.773437500000, -2.781250000000, 1490951361
0.011962890625, 0.249023437500, 0.975341796875, -16.679687500000, 11.773437500000, -2.781250000000, 1490951361
0.011962890625, 0.249023437500, 0.975341796875, -16.679687500000, 11.773437500000, -2.781250000000, 1490951361
0.048828125000, 0.383300781250, 0.969238281250, -31.085937500000, 9.960937500000, -2.507812500000, 1490951361
0.048828125000, 0.383300781250, 0.969238281250, -31.085937500000, 9.960937500000, -2.507812500000, 1490951361
0.048828125000, 0.383300781250, 0.969238281250, -31.085937500000, 9.960937500000, -2.507812500000, 1490951361
-0.054199218750, 0.370361328125, 0.918701171875, -26.070312500000, 4.148437500000, -6.320312500000, 1490951361
-0.054199218750, 0.370361328125, 0.918701171875, -26.070312500000, 4.148437500000, -6.320312500000, 1490951361
0.070800781250, 0.500488281250, 1.001708984375, -4.085937500000, 8.296875000000, 1.085937500000, 1490951361
0.070800781250, 0.500488281250, 1.001708984375, -4.085937500000, 8.296875000000, 1.085937500000, 1490951361
0.070800781250, 0.500488281250, 1.001708984375, -4.085937500000, 8.296875000000, 1.085937500000, 1490951361
0.070800781250, 0.500488281250, 1.001708984375, -4.085937500000, 8.296875000000, 1.085937500000, 1490951361
0.070800781250, 0.500488281250, 1.001708984375, -4.085937500000, 8.296875000000, 1.085937500000, 1490951361
0.009765625000, 0.363037109375, 0.932373046875, -3.234375000000, 6.718750000000, -0.484375000000, 1490951361
0.009765625000, 0.363037109375, 0.932373046875, -3.234375000000, 6.718750000000, -0.484375000000, 1490951361
0.009765625000, 0.363037109375, 0.932373046875, -3.234375000000, 6.718750000000, -0.484375000000, 1490951361
-0.040527343750, 0.348876953125, 1.018554687500, -0.843750000000, 0.820312500000, 0.015625000000, 1490951361
-0.040527343750, 0.348876953125, 1.018554687500, -0.843750000000, 0.820312500000, 0.015625000000, 1490951361
-0.040527343750, 0.348876953125, 1.018554687500, -0.843750000000, 0.820312500000, 0.015625000000, 1490951361
-0.021240234375, 0.461914062500, 1.019531250000, 2.234375000000, -1.812500000000, -3.812500000000, 1490951361
-0.021240234375, 0.461914062500, 1.019531250000, 2.234375000000, -1.812500000000, -3.812500000000, 1490951361
0.074951171875, 0.352539062500, 0.866455078125, -4.335937500000, -4.164062500000, -9.398437500000, 1490951361
0.074951171875, 0.352539062500, 0.866455078125, -4.335937500000, -4.164062500000, -9.398437500000, 1490951361
0.074951171875, 0.352539062500, 0.866455078125, -4.335937500000, -4.164062500000, -9.398437500000, 1490951361
0.074951171875, 0.352539062500, 0.866455078125, -4.335937500000, -4.164062500000, -9.398437500000, 1490951361
-0.007324218750, 0.361572265625, 1.001953125000, -1.609375000000, -6.140625000000, -8.554687500000, 1490951361
-0.007324218750, 0.361572265625, 1.001953125000, -1.609375000000, -6.140625000000, -8.554687500000, 1490951361
-0.007324218750, 0.361572265625, 1.001953125000, -1.609375000000, -6.140625000000, -8.554687500000, 1490951361
-0.007324218750, 0.361572265625, 1.001953125000, -1.609375000000, -6.140625000000, -8.554687500000, 1490951361
0.077392578125, 0.310791015625, 0.912109375000, -1.460937500000, -6.007812500000, -3.593750000000, 1490951361
0.077392578125, 0.310791015625, 0.912109375000, -1.460937500000, -6.007812500000, -3.593750000000, 1490951361
0.077392578125, 0.310791015625, 0.912109375000, -1.460937500000, -6.007812500000, -3.593750000000, 1490951361
0.051025390625, 0.370849609375, 1.007324218750, -8.304687500000, -1.562500000000, -7.054687500000, 1490951361
0.051025390625, 0.370849609375, 1.007324218750, -8.304687500000, -1.562500000000, -7.054687500000, 1490951361
0.051025390625, 0.370849609375, 1.007324218750, -8.304687500000, -1.562500000000, -7.054687500000, 1490951361
0.081542968750, 0.381591796875, 1.031250000000, -11.218750000000, -2.046875000000, -6.789062500000, 1490951361
0.081542968750, 0.381591796875, 1.031250000000, -11.218750000000, -2.046875000000, -6.789062500000, 1490951361
0.081542968750, 0.381591796875, 1.031250000000, -11.218750000000, -2.046875000000, -6.789062500000, 1490951361
0.081542968750, 0.381591796875, 1.031250000000, -11.218750000000, -2.046875000000, -6.789062500000, 1490951361
-0.009033203125, 0.357177734375, 0.935058593750, -11.257812500000, -4.031250000000, -3.492187500000, 1490951361
-0.009033203125, 0.357177734375, 0.935058593750, -11.257812500000, -4.031250000000, -3.492187500000, 1490951361
-0.009033203125, 0.357177734375, 0.935058593750, -11.257812500000, -4.031250000000, -3.492187500000, 1490951361
-0.003173828125, 0.452148437500, 0.918945312500, -14.031250000000, 0.546875000000, -6.585937500000, 1490951361
-0.003173828125, 0.452148437500, 0.918945312500, -14.031250000000, 0.546875000000, -6.585937500000, 1490951361
-0.003173828125, 0.452148437500, 0.918945312500, -14.031250000000, 0.546875000000, -6.585937500000, 1490951361
-0.025634765625, 0.455810546875, 0.916503906250, 0.132812500000, 6.140625000000, -4.734375000000, 1490951361
-0.025634765625, 0.455810546875, 0.916503906250, 0.132812500000, 6.140625000000, -4.734375000000, 1490951361
-0.025634765625, 0.455810546875, 0.916503906250, 0.132812500000, 6.140625000000, -4.734375000000, 1490951361
-0.125976562500, 0.445800781250, 0.960205078125, -0.812500000000, 5.703125000000, 0.898437500000, 1490951361
-0.125976562500, 0.445800781250, 0.960205078125, -0.812500000000, 5.703125000000, 0.898437500000, 1490951361
-0.125976562500, 0.445800781250, 0.960205078125, -0.812500000000, 5.703125000000, 0.898437500000, 1490951361
-0.125976562500, 0.445800781250, 0.960205078125, -0.812500000000, 5.703125000000, 0.898437500000, 1490951361
-0.083251953125, 0.376464843750, 0.947753906250, -4.671875000000, -1.515625000000, -1.234375000000, 1490951361
-0.083251953125, 0.376464843750, 0.947753906250, -4.671875000000, -1.515625000000, -1.234375000000, 1490951361
-0.083251953125, 0.376464843750, 0.947753906250, -4.671875000000, -1.515625000000, -1.234375000000, 1490951361
0.032958984375, 0.506591796875, 0.953369140625, -10.054687500000, -4.531250000000, 2.695312500000, 1490951361
0.032958984375, 0.506591796875, 0.953369140625, -10.054687500000, -4.531250000000, 2.695312500000, 1490951361
0.032958984375, 0.506591796875, 0.953369140625, -10.054687500000, -4.531250000000, 2.695312500000, 1490951361
-0.004394531250, 0.401611328125, 0.977539062500, -2.156250000000, -2.656250000000, -1.593750000000, 1490951361
-0.004394531250, 0.401611328125, 0.977539062500, -2.156250000000, -2.656250000000, -1.593750000000, 1490951361
-0.004394531250, 0.401611328125, 0.977539062500, -2.156250000000, -2.656250000000, -1.593750000000, 1490951361
-0.071533203125, 0.383789062500, 0.914306640625, 5.726562500000, -0.367187500000, -7.804687500000, 1490951361
-0.071533203125, 0.383789062500, 0.914306640625, 5.726562500000, -0.367187500000, -7.804687500000, 1490951361
-0.071533203125, 0.383789062500, 0.914306640625, 5.726562500000, -0.367187500000, -7.804687500000, 1490951361
-0.071533203125, 0.383789062500, 0.914306640625, 5.726562500000, -0.367187500000, -7.804687500000, 1490951361
0.039550781250, 0.352294921875, 0.976074218750, -1.632812500000, 2.007812500000, -7.882812500000, 1490951361
0.039550781250, 0.352294921875, 0.976074218750, -1.632812500000, 2.007812500000, -7.882812500000, 1490951361
0.039550781250, 0.352294921875, 0.976074218750, -1.632812500000, 2.007812500000, -7.882812500000, 1490951361
0.032958984375, 0.374511718750, 0.914550781250, -8.257812500000, -0.914062500000, -3.921875000000, 1490951362
0.032958984375, 0.374511718750, 0.914550781250, -8.257812500000, -0.914062500000, -3.921875000000, 1490951362
0.032958984375, 0.374511718750, 0.914550781250, -8.257812500000, -0.914062500000, -3.921875000000, 1490951362
0.002197265625, 0.419677734375, 0.920410156250, -6.695312500000, 0.851562500000, -3.921875000000, 1490951362
0.002197265625, 0.419677734375, 0.920410156250, -6.695312500000, 0.851562500000, -3.921875000000, 1490951362
0.002197265625, 0.419677734375, 0.920410156250, -6.695312500000, 0.851562500000, -3.921875000000, 1490951362
0.088867187500, 0.450195312500, 0.909912109375, -1.375000000000, 0.781250000000, -6.328125000000, 1490951362
0.088867187500, 0.450195312500, 0.909912109375, -1.375000000000, 0.781250000000, -6.328125000000, 1490951362
0.088867187500, 0.450195312500, 0.909912109375, -1.375000000000, 0.781250000000, -6.328125000000, 1490951362
0.088867187500, 0.450195312500, 0.909912109375, -1.375000000000, 0.781250000000, -6.328125000000, 1490951362
0.020996093750, 0.447753906250, 1.013183593750, -6.398437500000, -0.312500000000, -5.296875000000, 1490951362
0.020996093750, 0.447753906250, 1.013183593750, -6.398437500000, -0.312500000000, -5.296875000000, 1490951362
0.020996093750, 0.447753906250, 1.013183593750, -6.398437500000, -0.312500000000, -5.296875000000, 1490951362
-0.073974609375, 0.392089843750, 0.908691406250, -6.117187500000, -2.695312500000, -8.890625000000, 1490951362
-0.073974609375, 0.392089843750, 0.908691406250, -6.117187500000, -2.695312500000, -8.890625000000, 1490951362
-0.073974609375, 0.392089843750, 0.908691406250, -6.117187500000, -2.695312500000, -8.890625000000, 1490951362
-0.004638671875, 0.361328125000, 0.975585937500, -5.164062500000, -1.046875000000, -5.804687500000, 1490951362
-0.004638671875, 0.361328125000, 0.975585937500, -5.164062500000, -1.046875000000, -5.804687500000, 1490951362
-0.004638671875, 0.361328125000, 0.975585937500, -5.164062500000, -1.046875000000, -5.804687500000, 1490951362
0.047607421875, 0.493408203125, 0.911621093750, -1.085937500000, -2.867187500000, -2.656250000000, 1490951362
0.047607421875, 0.493408203125, 0.911621093750, -1.085937500000, -2.867187500000, -2.656250000000, 1490951362
0.047607421875, 0.493408203125, 0.911621093750, -1.085937500000, -2.867187500000, -2.656250000000, 1490951362
0.047607421875, 0.493408203125, 0.911621093750, -1.085937500000, -2.867187500000, -2.656250000000, 1490951362
0.075683593750, 0.363281250000, 0.970947265625, -6.757812500000, 1.554687500000, -6.382812500000, 1490951362
0.075683593750, 0.363281250000, 0.970947265625, -6.757812500000, 1.554687500000, -6.382812500000, 1490951362
0.075683593750, 0.363281250000, 0.970947265625, -6.757812500000, 1.554687500000, -6.382812500000, 1490951362
0.031494140625, 0.460937500000, 0.923095703125, -5.234375000000, -0.687500000000, -5.101562500000, 1490951362
0.031494140625, 0.460937500000, 0.923095703125, -5.234375000000, -0.687500000000, -5.101562500000, 1490951362
0.031494140625, 0.460937500000, 0.923095703125, -5.234375000000, -0.687500000000, -5.101562500000, 1490951362
-0.017822265625, 0.458740234375, 0.868408203125, -3.312500000000, 0.109375000000, -7.351562500000, 1490951362
-0.017822265625, 0.458740234375, 0.868408203125, -3.312500000000, 0.109375000000, -7.351562500000, 1490951362
-0.017822265625, 0.458740234375, 0.868408203125, -3.312500000000, 0.109375000000, -7.351562500000, 1490951362
0.138671875000, 0.382568359375, 0.927490234375, -3.445312500000, 0.765625000000, -5.484375000000, 1490951362
0.138671875000, 0.382568359375, 0.927490234375, -3.445312500000, 0.765625000000, -5.484375000000, 1490951362
0.138671875000, 0.382568359375, 0.927490234375, -3.445312500000, 0.765625000000, -5.484375000000, 1490951362
0.138671875000, 0.382568359375, 0.927490234375, -3.445312500000, 0.765625000000, -5.484375000000, 1490951362
-0.071289062500, 0.366699218750, 1.007812500000, -6.101562500000, -2.226562500000, -6.484375000000, 1490951362
-0.071289062500, 0.366699218750, 1.007812500000, -6.101562500000, -2.226562500000, -6.484375000000, 1490951362
-0.071289062500, 0.366699218750, 1.007812500000, -6.101562500000, -2.226562500000, -6.484375000000, 1490951362
-0.007324218750, 0.354003906250, 0.965820312500, -4.437500000000, 0.007812500000, -5.484375000000, 1490951362
-0.007324218750, 0.354003906250, 0.965820312500, -4.437500000000, 0.007812500000, -5.484375000000, 1490951362
-0.007324218750, 0.354003906250, 0.965820312500, -4.437500000000, 0.007812500000, -5.484375000000, 1490951362
0.080322265625, 0.461669921875, 0.943359375000, -3.578125000000, -0.476562500000, -1.937500000000, 1490951362
0.080322265625, 0.461669921875, 0.943359375000, -3.578125000000, -0.476562500000, -1.937500000000, 1490951362
0.080322265625, 0.461669921875, 0.943359375000, -3.578125000000, -0.476562500000, -1.937500000000, 1490951362
-0.006347656250, 0.310302734375, 0.957275390625, -3.437500000000, -0.898437500000, -6.859375000000, 1490951362
-0.006347656250, 0.310302734375, 0.957275390625, -3.437500000000, -0.898437500000, -6.859375000000, 1490951362
-0.006347656250, 0.310302734375, 0.957275390625, -3.437500000000, -0.898437500000, -6.859375000000, 1490951362
-0.006347656250, 0.310302734375, 0.957275390625, -3.437500000000, -0.898437500000, -6.859375000000, 1490951362
-0.017822265625, 0.467529296875, 0.870361328125, -6.718750000000, -0.632812500000, -5.625000000000, 1490951362
-0.017822265625, 0.467529296875, 0.870361328125, -6.718750000000, -0.632812500000, -5.625000000000, 1490951362
-0.017822265625, 0.467529296875, 0.870361328125, -6.718750000000, -0.632812500000, -5.625000000000, 1490951362
-0.005859375000, 0.500488281250, 0.932373046875, -4.757812500000, 2.250000000000, -6.070312500000, 1490951362
-0.005859375000, 0.500488281250, 0.932373046875, -4.757812500000, 2.250000000000, -6.070312500000, 1490951362
0.031250000000, 0.389160156250, 0.861816406250, -3.851562500000, 0.710937500000, -6.867187500000, 1490951362
0.031250000000, 0.389160156250, 0.861816406250, -3.851562500000, 0.710937500000, -6.867187500000, 1490951362
0.031250000000, 0.389160156250, 0.861816406250, -3.851562500000, 0.710937500000, -6.867187500000, 1490951362
-0.020751953125, 0.348876953125, 1.017333984375, -3.437500000000, -2.093750000000, -6.343750000000, 1490951362
0.077148437500, 0.362060546875, 0.936279296875, -3.710937500000, -2.921875000000, -5.492187500000, 1490951362
0.077148437500, 0.362060546875, 0.936279296875, -3.710937500000, -2.921875000000, -5.492187500000, 1490951362
0.034179687500, 0.349609375000, 0.909912109375, -3.070312500000, 0.687500000000, -6.687500000000, 1490951362
0.034179687500, 0.349609375000, 0.909912109375, -3.070312500000, 0.687500000000, -6.687500000000, 1490951362
0.034179687500, 0.349609375000, 0.909912109375, -3.070312500000, 0.687500000000, -6.687500000000, 1490951362
0.034179687500, 0.349609375000, 0.909912109375, -3.070312500000, 0.687500000000, -6.687500000000, 1490951362
0.034179687500, 0.349609375000, 0.909912109375, -3.070312500000, 0.687500000000, -6.687500000000, 1490951362
0.051269531250, 0.405517578125, 0.925048828125, -6.421875000000, 0.367187500000, -8.484375000000, 1490951362
0.051269531250, 0.405517578125, 0.925048828125, -6.421875000000, 0.367187500000, -8.484375000000, 1490951363
0.051269531250, 0.405517578125, 0.925048828125, -6.421875000000, 0.367187500000, -8.484375000000, 1490951363
0.087646484375, 0.343994140625, 0.907226562500, -2.523437500000, 2.367187500000, -3.835937500000, 1490951363
0.087646484375, 0.343994140625, 0.907226562500, -2.523437500000, 2.367187500000, -3.835937500000, 1490951363
0.087646484375, 0.343994140625, 0.907226562500, -2.523437500000, 2.367187500000, -3.835937500000, 1490951363
-0.002441406250, 0.360595703125, 0.976074218750, 0.515625000000, -2.601562500000, -3.953125000000, 1490951363
-0.002441406250, 0.360595703125, 0.976074218750, 0.515625000000, -2.601562500000, -3.953125000000, 1490951363
-0.002441406250, 0.360595703125, 0.976074218750, 0.515625000000, -2.601562500000, -3.953125000000, 1490951363
-0.002441406250, 0.360595703125, 0.976074218750, 0.515625000000, -2.601562500000, -3.953125000000, 1490951363
-0.007324218750, 0.446044921875, 0.927978515625, -4.625000000000, -0.742187500000, -4.898437500000, 1490951363
-0.007324218750, 0.446044921875, 0.927978515625, -4.625000000000, -0.742187500000, -4.898437500000, 1490951363
-0.007324218750, 0.446044921875, 0.927978515625, -4.625000000000, -0.742187500000, -4.898437500000, 1490951363
0.036132812500, 0.403320312500, 0.961181640625, -3.640625000000, 2.421875000000, -5.906250000000, 1490951363
0.036132812500, 0.403320312500, 0.961181640625, -3.640625000000, 2.421875000000, -5.906250000000, 1490951363
0.036132812500, 0.403320312500, 0.961181640625, -3.640625000000, 2.421875000000, -5.906250000000, 1490951363
-0.020019531250, 0.418212890625, 0.951660156250, -3.875000000000, -0.867187500000, -5.132812500000, 1490951363
-0.020019531250, 0.418212890625, 0.951660156250, -3.875000000000, -0.867187500000, -5.132812500000, 1490951363
-0.020019531250, 0.418212890625, 0.951660156250, -3.875000000000, -0.867187500000, -5.132812500000, 1490951363
-0.007812500000, 0.405761718750, 1.009521484375, -3.414062500000, 0.601562500000, -3.953125000000, 1490951363
-0.007812500000, 0.405761718750, 1.009521484375, -3.414062500000, 0.601562500000, -3.953125000000, 1490951363
-0.007812500000, 0.405761718750, 1.009521484375, -3.414062500000, 0.601562500000, -3.953125000000, 1490951363
-0.007812500000, 0.405761718750, 1.009521484375, -3.414062500000, 0.601562500000, -3.953125000000, 1490951363
0.035156250000, 0.445556640625, 0.918701171875, -4.437500000000, -0.921875000000, -6.468750000000, 1490951363
0.035156250000, 0.445556640625, 0.918701171875, -4.437500000000, -0.921875000000, -6.468750000000, 1490951363
0.035156250000, 0.445556640625, 0.918701171875, -4.437500000000, -0.921875000000, -6.468750000000, 1490951363
0.029052734375, 0.464599609375, 0.980957031250, -2.812500000000, 1.281250000000, -4.195312500000, 1490951363
0.029052734375, 0.464599609375, 0.980957031250, -2.812500000000, 1.281250000000, -4.195312500000, 1490951363
0.029052734375, 0.464599609375, 0.980957031250, -2.812500000000, 1.281250000000, -4.195312500000, 1490951363
-0.011230468750, 0.404052734375, 0.946044921875, -6.632812500000, 2.437500000000, -5.023437500000, 1490951363
-0.011230468750, 0.404052734375, 0.946044921875, -6.632812500000, 2.437500000000, -5.023437500000, 1490951363
-0.011230468750, 0.404052734375, 0.946044921875, -6.632812500000, 2.437500000000, -5.023437500000, 1490951363
0.002929687500, 0.431152343750, 0.967285156250, -4.914062500000, -0.976562500000, -5.882812500000, 1490951363
0.002929687500, 0.431152343750, 0.967285156250, -4.914062500000, -0.976562500000, -5.882812500000, 1490951363
0.002929687500, 0.431152343750, 0.967285156250, -4.914062500000, -0.976562500000, -5.882812500000, 1490951363
0.002929687500, 0.431152343750, 0.967285156250, -4.914062500000, -0.976562500000, -5.882812500000, 1490951363
0.065429687500, 0.408691406250, 0.948242187500, -3.210937500000, 0.203125000000, -6.929687500000, 1490951363
0.065429687500, 0.408691406250, 0.948242187500, -3.210937500000, 0.203125000000, -6.929687500000, 1490951363
0.065429687500, 0.408691406250, 0.948242187500, -3.210937500000, 0.203125000000, -6.929687500000, 1490951363
0.013427734375, 0.454589843750, 0.960937500000, -3.750000000000, 2.546875000000, -6.835937500000, 1490951363
0.013427734375, 0.454589843750, 0.960937500000, -3.750000000000, 2.546875000000, -6.835937500000, 1490951363
0.013427734375, 0.454589843750, 0.960937500000, -3.750000000000, 2.546875000000, -6.835937500000, 1490951363
0.042480468750, 0.443603515625, 0.948974609375, -6.203125000000, 2.445312500000, -8.109375000000, 1490951363
0.042480468750, 0.443603515625, 0.948974609375, -6.203125000000, 2.445312500000, -8.109375000000, 1490951363
0.042480468750, 0.443603515625, 0.948974609375, -6.203125000000, 2.445312500000, -8.109375000000, 1490951363
0.084228515625, 0.368652343750, 0.950683593750, -4.453125000000, -1.359375000000, -5.226562500000, 1490951363
0.084228515625, 0.368652343750, 0.950683593750, -4.453125000000, -1.359375000000, -5.226562500000, 1490951363
0.084228515625, 0.368652343750, 0.950683593750, -4.453125000000, -1.359375000000, -5.226562500000, 1490951363
0.084228515625, 0.368652343750, 0.950683593750, -4.453125000000, -1.359375000000, -5.226562500000, 1490951363
-0.068115234375, 0.361328125000, 0.908935546875, -3.593750000000, -0.148437500000, -4.703125000000, 1490951363
-0.068115234375, 0.361328125000, 0.908935546875, -3.593750000000, -0.148437500000, -4.703125000000, 1490951363
-0.068115234375, 0.361328125000, 0.908935546875, -3.593750000000, -0.148437500000, -4.703125000000, 1490951363
0.022460937500, 0.430664062500, 0.944091796875, -3.593750000000, -1.273437500000, -6.859375000000, 1490951363
0.022460937500, 0.430664062500, 0.944091796875, -3.593750000000, -1.273437500000, -6.859375000000, 1490951363
0.022460937500, 0.430664062500, 0.944091796875, -3.593750000000, -1.273437500000, -6.859375000000, 1490951363
0.087402343750, 0.304443359375, 0.939941406250, -3.960937500000, -1.828125000000, -5.492187500000, 1490951363
0.087402343750, 0.304443359375, 0.939941406250, -3.960937500000, -1.828125000000, -5.492187500000, 1490951363
0.087402343750, 0.304443359375, 0.939941406250, -3.960937500000, -1.828125000000, -5.492187500000, 1490951363
0.081054687500, 0.417968750000, 0.928222656250, -3.156250000000, -2.023437500000, -3.820312500000, 1490951363
0.081054687500, 0.417968750000, 0.928222656250, -3.156250000000, -2.023437500000, -3.820312500000, 1490951363
0.081054687500, 0.417968750000, 0.928222656250, -3.156250000000, -2.023437500000, -3.820312500000, 1490951363
0.081054687500, 0.417968750000, 0.928222656250, -3.156250000000, -2.023437500000, -3.820312500000, 1490951363
0.146484375000, 0.379882812500, 0.934326171875, -6.039062500000, -4.304687500000, -8.156250000000, 1490951363
0.146484375000, 0.379882812500, 0.934326171875, -6.039062500000, -4.304687500000, -8.156250000000, 1490951363
0.146484375000, 0.379882812500, 0.934326171875, -6.039062500000, -4.304687500000, -8.156250000000, 1490951363
0.053466796875, 0.301757812500, 0.957275390625, -3.820312500000, 0.945312500000, -5.570312500000, 1490951363
0.053466796875, 0.301757812500, 0.957275390625, -3.820312500000, 0.945312500000, -5.570312500000, 1490951363
0.053466796875, 0.301757812500, 0.957275390625, -3.820312500000, 0.945312500000, -5.570312500000, 1490951363
0.082275390625, 0.419433593750, 0.959228515625, -6.039062500000, -0.437500000000, -3.460937500000, 1490951364
0.082275390625, 0.419433593750, 0.959228515625, -6.039062500000, -0.437500000000, -3.460937500000, 1490951364
0.082275390625, 0.419433593750, 0.959228515625, -6.039062500000, -0.437500000000, -3.460937500000, 1490951364
0.028808593750, 0.426269531250, 0.932861328125, -5.156250000000, -2.554687500000, -5.203125000000, 1490951364
0.028808593750, 0.426269531250, 0.932861328125, -5.156250000000, -2.554687500000, -5.203125000000, 1490951364
0.028808593750, 0.426269531250, 0.932861328125, -5.156250000000, -2.554687500000, -5.203125000000, 1490951364
0.028808593750, 0.426269531250, 0.932861328125, -6.210937500000, 0.601562500000, -8.359375000000, 1490951364
0.090576171875, 0.292724609375, 0.932128906250, -6.234375000000, 2.109375000000, -5.367187500000, 1490951364
0.090576171875, 0.292724609375, 0.932128906250, -6.234375000000, 2.109375000000, -5.367187500000, 1490951364
0.149658203125, 0.345703125000, 0.934814453125, -6.765625000000, 0.765625000000, -3.781250000000, 1490951364
0.079345703125, 0.390136718750, 0.968505859375, -1.875000000000, -0.085937500000, -5.796875000000, 1490951364
0.079345703125, 0.390136718750, 0.968505859375, -1.875000000000, -0.085937500000, -5.796875000000, 1490951364
0.079345703125, 0.390136718750, 0.968505859375, -1.875000000000, -0.085937500000, -5.796875000000, 1490951364
0.041748046875, 0.427001953125, 0.975830078125, -4.757812500000, 2.085937500000, -6.179687500000, 1490951364
0.041748046875, 0.427001953125, 0.975830078125, -4.757812500000, 2.085937500000, -6.179687500000, 1490951364
0.041748046875, 0.427001953125, 0.975830078125, -4.757812500000, 2.085937500000, -6.179687500000, 1490951364
0.141357421875, 0.312744140625, 1.001464843750, -3.015625000000, 2.093750000000, -6.562500000000, 1490951364
0.141357421875, 0.312744140625, 1.001464843750, -3.015625000000, 2.093750000000, -6.562500000000, 1490951364
0.141357421875, 0.312744140625, 1.001464843750, -3.015625000000, 2.093750000000, -6.562500000000, 1490951364
0.141357421875, 0.312744140625, 1.001464843750, -3.015625000000, 2.093750000000, -6.562500000000, 1490951364
0.048583984375, 0.347900390625, 1.014892578125, -4.093750000000, 2.843750000000, -2.335937500000, 1490951364
0.048583984375, 0.347900390625, 1.014892578125, -4.093750000000, 2.843750000000, -2.335937500000, 1490951364
0.048583984375, 0.347900390625, 1.014892578125, -4.093750000000, 2.843750000000, -2.335937500000, 1490951364
0.019531250000, 0.428710937500, 0.924316406250, -3.437500000000, 6.359375000000, -3.281250000000, 1490951364
0.019531250000, 0.428710937500, 0.924316406250, -3.437500000000, 6.359375000000, -3.281250000000, 1490951364
0.019531250000, 0.428710937500, 0.924316406250, -3.437500000000, 6.359375000000, -3.281250000000, 1490951364
-0.012451171875, 0.302246093750, 0.906738281250, -3.953125000000, 2.742187500000, -1.164062500000, 1490951364
-0.012451171875, 0.302246093750, 0.906738281250, -3.953125000000, 2.742187500000, -1.164062500000, 1490951364
-0.012451171875, 0.302246093750, 0.906738281250, -3.953125000000, 2.742187500000, -1.164062500000, 1490951364
0.033691406250, 0.380126953125, 1.022460937500, -3.195312500000, -0.859375000000, -5.851562500000, 1490951364
0.033691406250, 0.380126953125, 1.022460937500, -3.195312500000, -0.859375000000, -5.851562500000, 1490951364
0.033691406250, 0.380126953125, 1.022460937500, -3.195312500000, -0.859375000000, -5.851562500000, 1490951364
0.033691406250, 0.380126953125, 1.022460937500, -3.195312500000, -0.859375000000, -5.851562500000, 1490951364
0.069580078125, 0.371582031250, 0.957031250000, -3.070312500000, 0.445312500000, -3.851562500000, 1490951364
0.069580078125, 0.371582031250, 0.957031250000, -3.070312500000, 0.445312500000, -3.851562500000, 1490951364
0.069580078125, 0.371582031250, 0.957031250000, -3.070312500000, 0.445312500000, -3.851562500000, 1490951364
0.001953125000, 0.368164062500, 0.912353515625, -6.218750000000, 0.351562500000, -6.023437500000, 1490951364
0.001953125000, 0.368164062500, 0.912353515625, -6.218750000000, 0.351562500000, -6.023437500000, 1490951364
0.001953125000, 0.368164062500, 0.912353515625, -6.218750000000, 0.351562500000, -6.023437500000, 1490951364
0.015136718750, 0.286865234375, 0.935791015625, -3.609375000000, -0.414062500000, -5.445312500000, 1490951364
0.015136718750, 0.286865234375, 0.935791015625, -3.609375000000, -0.414062500000, -5.445312500000, 1490951364
0.015136718750, 0.286865234375, 0.935791015625, -3.609375000000, -0.414062500000, -5.445312500000, 1490951364
-0.069824218750, 0.447509765625, 0.955810546875, -3.906250000000, -2.765625000000, -5.015625000000, 1490951364
0.078369140625, 0.370361328125, 0.929199218750, -3.453125000000, -0.984375000000, -6.585937500000, 1490951364
0.078369140625, 0.370361328125, 0.929199218750, -3.453125000000, -0.984375000000, -6.585937500000, 1490951364
0.078369140625, 0.370361328125, 0.929199218750, -3.453125000000, -0.984375000000, -6.585937500000, 1490951364
0.064941406250, 0.372314453125, 0.915039062500, -6.664062500000, 0.101562500000, -6.468750000000, 1490951364
0.064941406250, 0.372314453125, 0.915039062500, -6.664062500000, 0.101562500000, -6.468750000000, 1490951364
0.064941406250, 0.372314453125, 0.915039062500, -6.664062500000, 0.101562500000, -6.468750000000, 1490951364
0.064941406250, 0.372314453125, 0.915039062500, -6.664062500000, 0.101562500000, -6.468750000000, 1490951364
0.085693359375, 0.507568359375, 0.918945312500, -4.437500000000, 0.453125000000, -6.187500000000, 1490951364
-0.008544921875, 0.370849609375, 0.861083984375, -4.390625000000, -1.171875000000, -3.703125000000, 1490951364
-0.008544921875, 0.370849609375, 0.861083984375, -4.390625000000, -1.171875000000, -3.703125000000, 1490951364
-0.008544921875, 0.370849609375, 0.861083984375, -4.390625000000, -1.171875000000, -3.703125000000, 1490951364
-0.008544921875, 0.370849609375, 0.861083984375, -4.390625000000, -1.171875000000, -3.703125000000, 1490951364
0.141601562500, 0.314208984375, 0.957519531250, -3.218750000000, -1.523437500000, -3.593750000000, 1490951364
0.141601562500, 0.314208984375, 0.957519531250, -3.218750000000, -1.523437500000, -3.593750000000, 1490951364
0.141601562500, 0.314208984375, 0.957519531250, -3.218750000000, -1.523437500000, -3.593750000000, 1490951364
0.141601562500, 0.314208984375, 0.957519531250, -3.218750000000, -1.523437500000, -3.593750000000, 1490951364
