ACC_X,ACC_Y,ACC_Z,G_X,G_Y,G_Z,Unix Time
-0.394287109375, -1.012451171875, 0.256347656250, -3.734375000000, 0.960937500000, -3.343750000000, 1490868528
-0.394287109375, -1.012451171875, 0.256347656250, -3.734375000000, 0.960937500000, -3.343750000000, 1490868528
-0.394287109375, -1.012451171875, 0.256347656250, -3.734375000000, 0.960937500000, -3.343750000000, 1490868528
-0.235839843750, -0.862060546875, 0.183105468750, -5.843750000000, -0.835937500000, -3.382812500000, 1490868528
-0.235839843750, -0.862060546875, 0.183105468750, -5.843750000000, -0.835937500000, -3.382812500000, 1490868528
-0.235839843750, -0.862060546875, 0.183105468750, -5.843750000000, -0.835937500000, -3.382812500000, 1490868528
-0.278564453125, -0.950439453125, 0.224365234375, -3.382812500000, 4.937500000000, -1.710937500000, 1490868528
-0.278564453125, -0.950439453125, 0.224365234375, -3.382812500000, 4.937500000000, -1.710937500000, 1490868528
-0.278564453125, -0.950439453125, 0.224365234375, -6.765625000000, 1.570312500000, -3.203125000000, 1490868528
-0.230224609375, -0.870361328125, 0.266845703125, -5.429687500000, 0.859375000000, -1.578125000000, 1490868528
-0.230224609375, -0.870361328125, 0.266845703125, -5.429687500000, 0.859375000000, -1.578125000000, 1490868528
-0.286132812500, -0.964355468750, 0.274169921875, -6.507812500000, -0.742187500000, -1.585937500000, 1490868528
-0.316650390625, -1.028564453125, 0.180664062500, -4.507812500000, 2.882812500000, -1.406250000000, 1490868528
-0.316650390625, -1.028564453125, 0.180664062500, -4.507812500000, 2.882812500000, -1.406250000000, 1490868528
-0.316650390625, -1.028564453125, 0.180664062500, -4.507812500000, 2.882812500000, -1.406250000000, 1490868528
-0.226562500000, -0.971923828125, 0.261718750000, -3.765625000000, -0.476562500000, -2.820312500000, 1490868528
-0.226562500000, -0.971923828125, 0.261718750000, -3.765625000000, -0.476562500000, -2.820312500000, 1490868528
-0.226562500000, -0.971923828125, 0.261718750000, -3.765625000000, -0.476562500000, -2.820312500000, 1490868528
-0.226562500000, -0.971923828125, 0.261718750000, -3.765625000000, -0.476562500000, -2.820312500000, 1490868528
-0.233642578125, -0.955322265625, 0.271240234375, -6.351562500000, 1.039062500000, -2.898437500000, 1490868528
-0.233642578125, -0.955322265625, 0.271240234375, -6.351562500000, 1.039062500000, -2.898437500000, 1490868528
-0.233642578125, -0.955322265625, 0.271240234375, -6.351562500000, 1.039062500000, -2.898437500000, 1490868528
-0.233642578125, -0.955322265625, 0.271240234375, -6.351562500000, 1.039062500000, -2.898437500000, 1490868528
-0.177978515625, -0.848876953125, 0.299316406250, -3.789062500000, 3.265625000000, -2.546875000000, 1490868528
-0.177978515625, -0.848876953125, 0.299316406250, -3.789062500000, 3.265625000000, -2.546875000000, 1490868528
-0.177978515625, -0.848876953125, 0.299316406250, -3.789062500000, 3.265625000000, -2.546875000000, 1490868528
-0.187011718750, -0.939453125000, 0.166992187500, -8.445312500000, 6.265625000000, 0.101562500000, 1490868528
-0.187011718750, -0.939453125000, 0.166992187500, -8.445312500000, 6.265625000000, 0.101562500000, 1490868528
-0.182128906250, -0.961669921875, 0.276123046875, -6.203125000000, 1.976562500000, -1.289062500000, 1490868528
-0.182128906250, -0.961669921875, 0.276123046875, -6.203125000000, 1.976562500000, -1.289062500000, 1490868528
-0.182128906250, -0.961669921875, 0.276123046875, -6.203125000000, 1.976562500000, -1.289062500000, 1490868528
-0.182128906250, -0.961669921875, 0.276123046875, -6.203125000000, 1.976562500000, -1.289062500000, 1490868528
-0.275146484375, -0.858154296875, 0.264648437500, -6.515625000000, 0.406250000000, -1.750000000000, 1490868528
-0.275146484375, -0.858154296875, 0.264648437500, -6.515625000000, 0.406250000000, -1.750000000000, 1490868528
-0.275146484375, -0.858154296875, 0.264648437500, -6.515625000000, 0.406250000000, -1.750000000000, 1490868528
-0.275146484375, -0.858154296875, 0.264648437500, -6.515625000000, 0.406250000000, -1.750000000000, 1490868528
-0.318115234375, -1.011962890625, 0.241699218750, -3.460937500000, 7.710937500000, -1.382812500000, 1490868528
-0.318115234375, -1.011962890625, 0.241699218750, -3.460937500000, 7.710937500000, -1.382812500000, 1490868528
-0.318115234375, -1.011962890625, 0.241699218750, -3.460937500000, 7.710937500000, -1.382812500000, 1490868528
-0.219726562500, -0.888183593750, 0.260253906250, -5.250000000000, -0.648437500000, -6.007812500000, 1490868528
-0.219726562500, -0.888183593750, 0.260253906250, -5.250000000000, -0.648437500000, -6.007812500000, 1490868528
-0.219726562500, -0.888183593750, 0.260253906250, -5.250000000000, -0.648437500000, -6.007812500000, 1490868528
-0.241943359375, -0.935791015625, 0.166015625000, -4.968750000000, -2.304687500000, -4.570312500000, 1490868528
-0.241943359375, -0.935791015625, 0.166015625000, -4.968750000000, -2.304687500000, -4.570312500000, 1490868528
-0.241943359375, -0.935791015625, 0.166015625000, -4.968750000000, -2.304687500000, -4.570312500000, 1490868528
-0.334228515625, -0.873779296875, 0.196289062500, -3.320312500000, -0.773437500000, -2.929687500000, 1490868528
-0.334228515625, -0.873779296875, 0.196289062500, -3.320312500000, -0.773437500000, -2.929687500000, 1490868529
-0.334228515625, -0.873779296875, 0.196289062500, -3.320312500000, -0.773437500000, -2.929687500000, 1490868529
-0.334228515625, -0.873779296875, 0.196289062500, -3.320312500000, -0.773437500000, -2.929687500000, 1490868529
-0.257812500000, -0.937500000000, 0.260742187500, -5.250000000000, -0.937500000000, -1.960937500000, 1490868529
-0.257812500000, -0.937500000000, 0.260742187500, -5.250000000000, -0.937500000000, -1.960937500000, 1490868529
-0.257812500000, -0.937500000000, 0.260742187500, -5.250000000000, -0.937500000000, -1.960937500000, 1490868529
-0.271484375000, -0.907226562500, 0.208251953125, -7.250000000000, -0.953125000000, -4.242187500000, 1490868529
-0.271484375000, -0.907226562500, 0.208251953125, -7.250000000000, -0.953125000000, -4.242187500000, 1490868529
-0.271484375000, -0.907226562500, 0.208251953125, -7.250000000000, -0.953125000000, -4.242187500000, 1490868529
-0.246337890625, -0.915283203125, 0.275390625000, -4.007812500000, 0.031250000000, -1.210937500000, 1490868529
-0.246337890625, -0.915283203125, 0.275390625000, -4.007812500000, 0.031250000000, -1.210937500000, 1490868529
-0.246337890625, -0.915283203125, 0.275390625000, -4.007812500000, 0.031250000000, -1.210937500000, 1490868529
-0.315673828125, -1.008056640625, 0.187255859375, -3.257812500000, 2.046875000000, -1.484375000000, 1490868529
-0.315673828125, -1.008056640625, 0.187255859375, -3.257812500000, 2.046875000000, -1.484375000000, 1490868529
-0.315673828125, -1.008056640625, 0.187255859375, -3.257812500000, 2.046875000000, -1.484375000000, 1490868529
-0.315673828125, -1.008056640625, 0.187255859375, -3.257812500000, 2.046875000000, -1.484375000000, 1490868529
-0.324951171875, -0.846923828125, 0.239257812500, -1.281250000000, -0.289062500000, -3.750000000000, 1490868529
-0.324951171875, -0.846923828125, 0.239257812500, -1.281250000000, -0.289062500000, -3.750000000000, 1490868529
-0.324951171875, -0.846923828125, 0.239257812500, -1.281250000000, -0.289062500000, -3.750000000000, 1490868529
-0.271972656250, -1.000732421875, 0.244873046875, -3.164062500000, 1.101562500000, -2.000000000000, 1490868529
-0.342529296875, -0.862060546875, 0.171142578125, -3.046875000000, 2.890625000000, -1.148437500000, 1490868529
-0.342529296875, -0.862060546875, 0.171142578125, -3.046875000000, 2.890625000000, -1.148437500000, 1490868529
-0.342529296875, -0.862060546875, 0.171142578125, -3.046875000000, 2.890625000000, -1.148437500000, 1490868529
-0.342529296875, -0.862060546875, 0.171142578125, -3.046875000000, 2.890625000000, -1.148437500000, 1490868529
-0.239501953125, -0.937500000000, 0.221435546875, -3.632812500000, -0.476562500000, 0.070312500000, 1490868529
-0.223876953125, -0.935791015625, 0.319335937500, -3.632812500000, -0.476562500000, 0.070312500000, 1490868529
-0.223876953125, -0.935791015625, 0.319335937500, -3.632812500000, -0.476562500000, 0.070312500000, 1490868529
-0.223876953125, -0.935791015625, 0.319335937500, -3.632812500000, -0.476562500000, 0.070312500000, 1490868529
-0.223876953125, -0.935791015625, 0.319335937500, -3.632812500000, -0.476562500000, 0.070312500000, 1490868529
-0.220947265625, -0.948242187500, 0.185546875000, -4.570312500000, 2.062500000000, -1.875000000000, 1490868529
-0.220947265625, -0.948242187500, 0.185546875000, -4.570312500000, 2.062500000000, -1.875000000000, 1490868529
-0.220947265625, -0.948242187500, 0.185546875000, -4.570312500000, 2.062500000000, -1.875000000000, 1490868529
-0.223388671875, -0.910400390625, 0.177001953125, -2.242187500000, -0.921875000000, -2.898437500000, 1490868529
-0.223388671875, -0.910400390625, 0.177001953125, -2.242187500000, -0.921875000000, -2.898437500000, 1490868529
-0.223388671875, -0.910400390625, 0.177001953125, -2.242187500000, -0.921875000000, -2.898437500000, 1490868529
-0.277343750000, -0.931640625000, 0.190185546875, -5.390625000000, 2.296875000000, -4.609375000000, 1490868529
-0.277343750000, -0.931640625000, 0.190185546875, -5.390625000000, 2.296875000000, -4.609375000000, 1490868529
-0.277343750000, -0.931640625000, 0.190185546875, -5.390625000000, 2.296875000000, -4.609375000000, 1490868529
-0.217529296875, -0.951904296875, 0.280029296875, -2.000000000000, 0.101562500000, -2.593750000000, 1490868529
-0.217529296875, -0.951904296875, 0.280029296875, -2.000000000000, 0.101562500000, -2.593750000000, 1490868529
-0.217529296875, -0.951904296875, 0.280029296875, -2.000000000000, 0.101562500000, -2.593750000000, 1490868529
-0.217529296875, -0.951904296875, 0.280029296875, -2.000000000000, 0.101562500000, -2.593750000000, 1490868529
-0.228027343750, -0.972167968750, 0.179199218750, -6.960937500000, 0.117187500000, -2.656250000000, 1490868529
-0.228027343750, -0.972167968750, 0.179199218750, -6.960937500000, 0.117187500000, -2.656250000000, 1490868529
-0.228027343750, -0.972167968750, 0.179199218750, -6.960937500000, 0.117187500000, -2.656250000000, 1490868529
-0.308105468750, -0.886474609375, 0.325927734375, -4.117187500000, -0.906250000000, -4.054687500000, 1490868529
-0.308105468750, -0.886474609375, 0.325927734375, -4.117187500000, -0.906250000000, -4.054687500000, 1490868529
-0.308105468750, -0.886474609375, 0.325927734375, -4.117187500000, -0.906250000000, -4.054687500000, 1490868529
-0.220703125000, -0.980712890625, 0.258300781250, -6.929687500000, -0.960937500000, -3.585937500000, 1490868529
-0.220703125000, -0.980712890625, 0.258300781250, -6.929687500000, -0.960937500000, -3.585937500000, 1490868529
-0.220703125000, -0.980712890625, 0.258300781250, -6.929687500000, -0.960937500000, -3.585937500000, 1490868529
-0.200195312500, -1.020751953125, 0.244140625000, -3.742187500000, -0.117187500000, -1.257812500000, 1490868529
-0.200195312500, -1.020751953125, 0.244140625000, -3.742187500000, -0.117187500000, -1.257812500000, 1490868529
-0.200195312500, -1.020751953125, 0.244140625000, -3.742187500000, -0.117187500000, -1.257812500000, 1490868529
-0.200195312500, -1.020751953125, 0.244140625000, -3.742187500000, -0.117187500000, -1.257812500000, 1490868529
-0.341064453125, -0.943603515625, 0.169677734375, -8.101562500000, 1.226562500000, -2.687500000000, 1490868529
-0.341064453125, -0.943603515625, 0.169677734375, -8.101562500000, 1.226562500000, -2.687500000000, 1490868529
-0.341064453125, -0.943603515625, 0.169677734375, -8.101562500000, 1.226562500000, -2.687500000000, 1490868529
-0.184814453125, -0.919189453125, 0.264404296875, -5.015625000000, -0.320312500000, -3.265625000000, 1490868529
-0.184814453125, -0.919189453125, 0.264404296875, -5.015625000000, -0.320312500000, -3.265625000000, 1490868529
-0.184814453125, -0.919189453125, 0.264404296875, -5.015625000000, -0.320312500000, -3.265625000000, 1490868529
-0.220703125000, -0.854248046875, 0.271728515625, -3.867187500000, 2.945312500000, -2.531250000000, 1490868529
-0.220703125000, -0.854248046875, 0.271728515625, -3.867187500000, 2.945312500000, -2.531250000000, 1490868529
-0.220703125000, -0.854248046875, 0.271728515625, -3.867187500000, 2.945312500000, -2.531250000000, 1490868529
-0.230712890625, -1.022460937500, 0.260986328125, -1.648437500000, 4.656250000000, -1.453125000000, 1490868529
-0.230712890625, -1.022460937500, 0.260986328125, -1.648437500000, 4.656250000000, -1.453125000000, 1490868529
-0.230712890625, -1.022460937500, 0.260986328125, -1.648437500000, 4.656250000000, -1.453125000000, 1490868529
-0.230712890625, -1.022460937500, 0.260986328125, -1.648437500000, 4.656250000000, -1.453125000000, 1490868529
-0.250000000000, -0.973632812500, 0.250000000000, -4.453125000000, 4.109375000000, -1.304687500000, 1490868530
-0.250000000000, -0.973632812500, 0.250000000000, -4.453125000000, 4.109375000000, -1.304687500000, 1490868530
-0.250000000000, -0.973632812500, 0.250000000000, -4.453125000000, 4.109375000000, -1.304687500000, 1490868530
-0.280029296875, -0.802246093750, 0.266113281250, -4.656250000000, 1.835937500000, -4.906250000000, 1490868530
-0.280029296875, -0.802246093750, 0.266113281250, -4.656250000000, 1.835937500000, -4.906250000000, 1490868530
-0.280029296875, -0.802246093750, 0.266113281250, -4.656250000000, 1.835937500000, -4.906250000000, 1490868530
-0.260986328125, -0.930908203125, 0.177490234375, -3.367187500000, 4.796875000000, -4.054687500000, 1490868530
-0.260986328125, -0.930908203125, 0.177490234375, -3.367187500000, 4.796875000000, -4.054687500000, 1490868530
-0.260986328125, -0.930908203125, 0.177490234375, -3.367187500000, 4.796875000000, -4.054687500000, 1490868530
-0.244873046875, -0.920898437500, 0.225341796875, 0.367187500000, 1.398437500000, -6.468750000000, 1490868530
-0.244873046875, -0.920898437500, 0.225341796875, 0.367187500000, 1.398437500000, -6.468750000000, 1490868530
-0.244873046875, -0.920898437500, 0.225341796875, 0.367187500000, 1.398437500000, -6.468750000000, 1490868530
-0.244873046875, -0.920898437500, 0.225341796875, 0.367187500000, 1.398437500000, -6.468750000000, 1490868530
-0.248779296875, -0.985351562500, 0.220703125000, -2.914062500000, -0.164062500000, -4.679687500000, 1490868530
-0.248779296875, -0.985351562500, 0.220703125000, -2.914062500000, -0.164062500000, -4.679687500000, 1490868530
-0.248779296875, -0.985351562500, 0.220703125000, -2.914062500000, -0.164062500000, -4.679687500000, 1490868530
-0.218994140625, -1.024658203125, 0.200927734375, -1.937500000000, 3.328125000000, -4.023437500000, 1490868530
-0.218994140625, -1.024658203125, 0.200927734375, -1.937500000000, 3.328125000000, -4.023437500000, 1490868530
-0.218994140625, -1.024658203125, 0.200927734375, -1.937500000000, 3.328125000000, -4.023437500000, 1490868530
-0.243652343750, -0.951904296875, 0.320800781250, 2.398437500000, 1.789062500000, -1.476562500000, 1490868530
-0.243652343750, -0.951904296875, 0.320800781250, 2.398437500000, 1.789062500000, -1.476562500000, 1490868530
-0.243652343750, -0.951904296875, 0.320800781250, 2.398437500000, 1.789062500000, -1.476562500000, 1490868530
-0.276367187500, -1.014648437500, 0.250488281250, -4.796875000000, -0.398437500000, -3.015625000000, 1490868530
-0.276367187500, -1.014648437500, 0.250488281250, -4.796875000000, -0.398437500000, -3.015625000000, 1490868530
-0.276367187500, -1.014648437500, 0.250488281250, -4.796875000000, -0.398437500000, -3.015625000000, 1490868530
-0.276367187500, -1.014648437500, 0.250488281250, -4.796875000000, -0.398437500000, -3.015625000000, 1490868530
-0.272460937500, -0.853027343750, 0.175781250000, -2.945312500000, -0.226562500000, -2.187500000000, 1490868530
-0.272460937500, -0.853027343750, 0.175781250000, -2.945312500000, -0.226562500000, -2.187500000000, 1490868530
-0.272460937500, -0.853027343750, 0.175781250000, -2.945312500000, -0.226562500000, -2.187500000000, 1490868530
-0.173095703125, -1.009521484375, 0.177978515625, -6.429687500000, 0.765625000000, -4.703125000000, 1490868530
-0.173095703125, -1.009521484375, 0.177978515625, -6.429687500000, 0.765625000000, -4.703125000000, 1490868530
-0.173095703125, -1.009521484375, 0.177978515625, -6.429687500000, 0.765625000000, -4.703125000000, 1490868530
-0.169921875000, -0.960205078125, 0.178955078125, -5.164062500000, -1.328125000000, 0.179687500000, 1490868530
-0.169921875000, -0.960205078125, 0.178955078125, -5.164062500000, -1.328125000000, 0.179687500000, 1490868530
-0.169921875000, -0.960205078125, 0.178955078125, -5.164062500000, -1.328125000000, 0.179687500000, 1490868530
-0.258300781250, -1.068603515625, 0.270507812500, -6.031250000000, -3.843750000000, 0.312500000000, 1490868530
-0.258300781250, -1.068603515625, 0.270507812500, -6.031250000000, -3.843750000000, 0.312500000000, 1490868530
-0.258300781250, -1.068603515625, 0.270507812500, -6.031250000000, -3.843750000000, 0.312500000000, 1490868530
-0.258300781250, -1.068603515625, 0.270507812500, -6.031250000000, -3.843750000000, 0.312500000000, 1490868530
-0.273437500000, -1.003662109375, 0.313720703125, -1.726562500000, -2.593750000000, 0.851562500000, 1490868530
-0.273437500000, -1.003662109375, 0.313720703125, -1.726562500000, -2.593750000000, 0.851562500000, 1490868530
-0.273437500000, -1.003662109375, 0.313720703125, -1.726562500000, -2.593750000000, 0.851562500000, 1490868530
-0.255615234375, -0.870849609375, 0.221923828125, -7.765625000000, -1.781250000000, -1.046875000000, 1490868530
-0.255615234375, -0.870849609375, 0.221923828125, -7.765625000000, -1.781250000000, -1.046875000000, 1490868530
-0.255615234375, -0.870849609375, 0.221923828125, -7.765625000000, -1.781250000000, -1.046875000000, 1490868530
-0.279296875000, -0.918701171875, 0.259277343750, 0.320312500000, -4.187500000000, -2.343750000000, 1490868530
-0.279296875000, -0.918701171875, 0.259277343750, 0.320312500000, -4.187500000000, -2.343750000000, 1490868530
-0.279296875000, -0.918701171875, 0.259277343750, 0.320312500000, -4.187500000000, -2.343750000000, 1490868530
-0.263671875000, -1.076416015625, 0.235351562500, -11.273437500000, 6.093750000000, -6.796875000000, 1490868530
-0.263671875000, -1.076416015625, 0.235351562500, -11.273437500000, 6.093750000000, -6.796875000000, 1490868530
-0.263671875000, -1.076416015625, 0.235351562500, -11.273437500000, 6.093750000000, -6.796875000000, 1490868530
-0.263671875000, -1.076416015625, 0.235351562500, -11.273437500000, 6.093750000000, -6.796875000000, 1490868530
-0.254394531250, -1.014892578125, 0.260253906250, -8.062500000000, -11.203125000000, -11.601562500000, 1490868530
-0.254394531250, -1.014892578125, 0.260253906250, -8.062500000000, -11.203125000000, -11.601562500000, 1490868530
-0.254394531250, -1.014892578125, 0.260253906250, -8.062500000000, -11.203125000000, -11.601562500000, 1490868530
-0.196044921875, -0.960937500000, 0.173828125000, -7.062500000000, 2.031250000000, -7.781250000000, 1490868530
-0.196044921875, -0.960937500000, 0.173828125000, -7.062500000000, 2.031250000000, -7.781250000000, 1490868530
-0.196044921875, -0.960937500000, 0.173828125000, -7.062500000000, 2.031250000000, -7.781250000000, 1490868530
-0.217285156250, -1.002929687500, 0.258544921875, -3.679687500000, 5.351562500000, -6.289062500000, 1490868530
-0.217285156250, -1.002929687500, 0.258544921875, -3.679687500000, 5.351562500000, -6.289062500000, 1490868530
-0.217285156250, -1.002929687500, 0.258544921875, -3.679687500000, 5.351562500000, -6.289062500000, 1490868530
-0.333251953125, -0.783691406250, 0.232421875000, -0.343750000000, 4.125000000000, -3.890625000000, 1490868530
-0.333251953125, -0.783691406250, 0.232421875000, -0.343750000000, 4.125000000000, -3.890625000000, 1490868530
-0.333251953125, -0.783691406250, 0.232421875000, -0.343750000000, 4.125000000000, -3.890625000000, 1490868530
-0.279785156250, -0.873046875000, 0.238037109375, -4.820312500000, -0.132812500000, -3.890625000000, 1490868530
-0.229736328125, -0.963378906250, 0.205810546875, -8.523437500000, -1.109375000000, -5.195312500000, 1490868531
-0.229736328125, -0.963378906250, 0.205810546875, -8.523437500000, -1.109375000000, -5.195312500000, 1490868531
-0.229736328125, -0.963378906250, 0.205810546875, -8.523437500000, -1.109375000000, -5.195312500000, 1490868531
-0.293212890625, -0.852783203125, 0.267089843750, -0.054687500000, -3.335937500000, -6.476562500000, 1490868531
-0.293212890625, -0.852783203125, 0.267089843750, -0.054687500000, -3.335937500000, -6.476562500000, 1490868531
-0.293212890625, -0.852783203125, 0.267089843750, -0.054687500000, -3.335937500000, -6.476562500000, 1490868531
-0.170166015625, -0.818115234375, 0.178466796875, -7.750000000000, -8.882812500000, -3.703125000000, 1490868531
-0.170166015625, -0.818115234375, 0.178466796875, -7.750000000000, -8.882812500000, -3.703125000000, 1490868531
-0.170166015625, -0.818115234375, 0.178466796875, -7.750000000000, -8.882812500000, -3.703125000000, 1490868531
-0.339355468750, -0.829833984375, 0.267822265625, -3.445312500000, -7.367187500000, -5.171875000000, 1490868531
-0.339355468750, -0.829833984375, 0.267822265625, -3.445312500000, -7.367187500000, -5.171875000000, 1490868531
-0.339355468750, -0.829833984375, 0.267822265625, -3.445312500000, -7.367187500000, -5.171875000000, 1490868531
-0.339355468750, -0.829833984375, 0.267822265625, -3.445312500000, -7.367187500000, -5.171875000000, 1490868531
-0.279296875000, -0.947265625000, 0.171142578125, -2.742187500000, -9.539062500000, -6.476562500000, 1490868531
-0.279296875000, -0.947265625000, 0.171142578125, -2.742187500000, -9.539062500000, -6.476562500000, 1490868531
-0.279296875000, -0.947265625000, 0.171142578125, -2.742187500000, -9.539062500000, -6.476562500000, 1490868531
-0.206298828125, -0.853759765625, 0.214111328125, 7.914062500000, 19.039062500000, 2.593750000000, 1490868531
-0.206298828125, -0.853759765625, 0.214111328125, 7.914062500000, 19.039062500000, 2.593750000000, 1490868531
-0.206298828125, -0.853759765625, 0.214111328125, 7.914062500000, 19.039062500000, 2.593750000000, 1490868531
-0.303710937500, -0.802978515625, 0.158447265625, 12.296875000000, 37.398437500000, 4.632812500000, 1490868531
-0.303710937500, -0.802978515625, 0.158447265625, 12.296875000000, 37.398437500000, 4.632812500000, 1490868531
-0.303710937500, -0.802978515625, 0.158447265625, 12.296875000000, 37.398437500000, 4.632812500000, 1490868531
-0.366699218750, -0.790771484375, 0.202392578125, 10.570312500000, 14.078125000000, -4.218750000000, 1490868531
-0.366699218750, -0.790771484375, 0.202392578125, 10.570312500000, 14.078125000000, -4.218750000000, 1490868531
-0.366699218750, -0.790771484375, 0.202392578125, 10.570312500000, 14.078125000000, -4.218750000000, 1490868531
-0.366699218750, -0.790771484375, 0.202392578125, 10.570312500000, 14.078125000000, -4.218750000000, 1490868531
-0.378417968750, -0.815917968750, 0.201904296875, -1.390625000000, -11.289062500000, -10.421875000000, 1490868531
-0.378417968750, -0.815917968750, 0.201904296875, -1.390625000000, -11.289062500000, -10.421875000000, 1490868531
-0.378417968750, -0.815917968750, 0.201904296875, -1.390625000000, -11.289062500000, -10.421875000000, 1490868531
-0.420654296875, -0.963378906250, 0.093994140625, 11.601562500000, -0.445312500000, -0.093750000000, 1490868531
-0.420654296875, -0.963378906250, 0.093994140625, 11.601562500000, -0.445312500000, -0.093750000000, 1490868531
-0.420654296875, -0.963378906250, 0.093994140625, 11.601562500000, -0.445312500000, -0.093750000000, 1490868531
-0.333984375000, -0.604492187500, 0.209472656250, 30.164062500000, -14.453125000000, 2.539062500000, 1490868531
-0.333984375000, -0.604492187500, 0.209472656250, 30.164062500000, -14.453125000000, 2.539062500000, 1490868531
-0.333984375000, -0.604492187500, 0.209472656250, 30.164062500000, -14.453125000000, 2.539062500000, 1490868531
-0.164794921875, -0.617431640625, 0.144287109375, 12.468750000000, -6.421875000000, 5.859375000000, 1490868531
-0.164794921875, -0.617431640625, 0.144287109375, 12.468750000000, -6.421875000000, 5.859375000000, 1490868531
-0.164794921875, -0.617431640625, 0.144287109375, 12.468750000000, -6.421875000000, 5.859375000000, 1490868531
-0.164794921875, -0.617431640625, 0.144287109375, 12.468750000000, -6.421875000000, 5.859375000000, 1490868531
-0.165771484375, -0.625244140625, 0.175537109375, 21.539062500000, 30.554687500000, 2.789062500000, 1490868531
-0.165771484375, -0.625244140625, 0.175537109375, 21.539062500000, 30.554687500000, 2.789062500000, 1490868531
-0.165771484375, -0.625244140625, 0.175537109375, 21.539062500000, 30.554687500000, 2.789062500000, 1490868531
-0.194580078125, -0.573730468750, 0.175292968750, 10.000000000000, 7.343750000000, 1.578125000000, 1490868531
-0.194580078125, -0.573730468750, 0.175292968750, 10.000000000000, 7.343750000000, 1.578125000000, 1490868531
-0.194580078125, -0.573730468750, 0.175292968750, 10.000000000000, 7.343750000000, 1.578125000000, 1490868531
-0.170410156250, -0.412841796875, 0.280029296875, -17.320312500000, 50.671875000000, 12.000000000000, 1490868531
-0.170410156250, -0.412841796875, 0.280029296875, -17.320312500000, 50.671875000000, 12.000000000000, 1490868531
-0.170410156250, -0.412841796875, 0.280029296875, -17.320312500000, 50.671875000000, 12.000000000000, 1490868531
-0.296386718750, -0.762939453125, -0.011474609375, -37.101562500000, 26.507812500000, 8.226562500000, 1490868531
-0.296386718750, -0.762939453125, -0.011474609375, -37.101562500000, 26.507812500000, 8.226562500000, 1490868531
-0.296386718750, -0.762939453125, -0.011474609375, -37.101562500000, 26.507812500000, 8.226562500000, 1490868531
-0.363281250000, -0.904052734375, 0.024169921875, -40.531250000000, 4.804687500000, 8.796875000000, 1490868531
-0.502685546875, -0.962402343750, -0.041015625000, -40.531250000000, 4.804687500000, 8.796875000000, 1490868531
-0.502685546875, -0.962402343750, -0.041015625000, -40.531250000000, 4.804687500000, 8.796875000000, 1490868531
-0.502685546875, -0.962402343750, -0.041015625000, -40.531250000000, 4.804687500000, 8.796875000000, 1490868531
-0.609130859375, -1.178466796875, -0.077636718750, -44.398437500000, -47.390625000000, -9.796875000000, 1490868531
-0.609130859375, -1.178466796875, -0.077636718750, -44.398437500000, -47.390625000000, -9.796875000000, 1490868531
-0.609130859375, -1.178466796875, -0.077636718750, -44.398437500000, -47.390625000000, -9.796875000000, 1490868531
-0.416992187500, -0.974609375000, -0.045654296875, -4.296875000000, -11.250000000000, 10.718750000000, 1490868531
-0.416992187500, -0.974609375000, -0.045654296875, -4.296875000000, -11.250000000000, 10.718750000000, 1490868531
-0.416992187500, -0.974609375000, -0.045654296875, -4.296875000000, -11.250000000000, 10.718750000000, 1490868531
-0.349609375000, -0.930175781250, -0.043212890625, 8.593750000000, -10.570312500000, -2.445312500000, 1490868531
-0.349609375000, -0.930175781250, -0.043212890625, 8.593750000000, -10.570312500000, -2.445312500000, 1490868531
-0.349609375000, -0.930175781250, -0.043212890625, 8.593750000000, -10.570312500000, -2.445312500000, 1490868531
-0.349609375000, -0.930175781250, -0.043212890625, 8.593750000000, -10.570312500000, -2.445312500000, 1490868531
-0.519042968750, -1.071289062500, 0.029785156250, -6.859375000000, 25.203125000000, 3.281250000000, 1490868531
-0.519042968750, -1.071289062500, 0.029785156250, -6.859375000000, 25.203125000000, 3.281250000000, 1490868531
-0.519042968750, -1.071289062500, 0.029785156250, -6.859375000000, 25.203125000000, 3.281250000000, 1490868531
-0.101806640625, -1.408203125000, 0.067138671875, 54.890625000000, 9.093750000000, 25.375000000000, 1490868532
-0.101806640625, -1.408203125000, 0.067138671875, 54.890625000000, 9.093750000000, 25.375000000000, 1490868532
-0.101806640625, -1.408203125000, 0.067138671875, 54.890625000000, 9.093750000000, 25.375000000000, 1490868532
-0.052734375000, -1.662353515625, 0.034667968750, -0.929687500000, -69.296875000000, 136.414062500000, 1490868532
-0.052734375000, -1.662353515625, 0.034667968750, -0.929687500000, -69.296875000000, 136.414062500000, 1490868532
-0.052734375000, -1.662353515625, 0.034667968750, -0.929687500000, -69.296875000000, 136.414062500000, 1490868532
0.236083984375, -1.206787109375, 0.148437500000, 88.101562500000, -90.257812500000, 112.023437500000, 1490868532
0.236083984375, -1.206787109375, 0.148437500000, 88.101562500000, -90.257812500000, 112.023437500000, 1490868532
0.236083984375, -1.206787109375, 0.148437500000, 88.101562500000, -90.257812500000, 112.023437500000, 1490868532
0.236083984375, -1.206787109375, 0.148437500000, 88.101562500000, -90.257812500000, 112.023437500000, 1490868532
0.492431640625, -1.783691406250, 0.265136718750, 96.078125000000, -55.523437500000, 137.859375000000, 1490868532
0.492431640625, -1.783691406250, 0.265136718750, 96.078125000000, -55.523437500000, 137.859375000000, 1490868532
0.492431640625, -1.783691406250, 0.265136718750, 96.078125000000, -55.523437500000, 137.859375000000, 1490868532
0.492431640625, -1.783691406250, 0.265136718750, 96.078125000000, -55.523437500000, 137.859375000000, 1490868532
0.065917968750, -0.809082031250, 0.057128906250, -51.703125000000, -186.640625000000, -43.773437500000, 1490868532
0.065917968750, -0.809082031250, 0.057128906250, -51.703125000000, -186.640625000000, -43.773437500000, 1490868532
0.065917968750, -0.809082031250, 0.057128906250, -51.703125000000, -186.640625000000, -43.773437500000, 1490868532
0.065917968750, -0.809082031250, 0.057128906250, -51.703125000000, -186.640625000000, -43.773437500000, 1490868532
0.065917968750, -0.809082031250, 0.057128906250, -51.703125000000, -186.640625000000, -43.773437500000, 1490868532
-0.080810546875, -0.429199218750, 0.059326171875, -5.179687500000, 112.367187500000, -18.726562500000, 1490868532
-0.080810546875, -0.429199218750, 0.059326171875, -5.179687500000, 112.367187500000, -18.726562500000, 1490868532
-0.080810546875, -0.429199218750, 0.059326171875, -5.179687500000, 112.367187500000, -18.726562500000, 1490868532
-0.080810546875, -0.429199218750, 0.059326171875, -5.179687500000, 112.367187500000, -18.726562500000, 1490868532
4.947021484375, -1.877685546875, -0.852783203125, -9.117187500000, -20.679687500000, 253.992187500000, 1490868532
4.947021484375, -1.877685546875, -0.852783203125, -9.117187500000, -20.679687500000, 253.992187500000, 1490868532
4.947021484375, -1.877685546875, -0.852783203125, -9.117187500000, -20.679687500000, 253.992187500000, 1490868532
-0.323486328125, -0.326171875000, -0.178466796875, 213.117187500000, -254.429687500000, 187.945312500000, 1490868532
-0.323486328125, -0.326171875000, -0.178466796875, 213.117187500000, -254.429687500000, 187.945312500000, 1490868532
-0.323486328125, -0.326171875000, -0.178466796875, 213.117187500000, -254.429687500000, 187.945312500000, 1490868532
1.431152343750, -1.101318359375, -0.370117187500, 111.179687500000, -22.710937500000, 122.226562500000, 1490868532
1.431152343750, -1.101318359375, -0.370117187500, 111.179687500000, -22.710937500000, 122.226562500000, 1490868532
1.431152343750, -1.101318359375, -0.370117187500, 111.179687500000, -22.710937500000, 122.226562500000, 1490868532
0.963623046875, -0.276123046875, -0.758056640625, 89.015625000000, 65.468750000000, 161.398437500000, 1490868532
0.963623046875, -0.276123046875, -0.758056640625, 89.015625000000, 65.468750000000, 161.398437500000, 1490868532
0.963623046875, -0.276123046875, -0.758056640625, 89.015625000000, 65.468750000000, 161.398437500000, 1490868532
0.963623046875, -0.276123046875, -0.758056640625, 89.015625000000, 65.468750000000, 161.398437500000, 1490868532
0.877197265625, -0.260498046875, -0.670166015625, 42.414062500000, -115.007812500000, 162.226562500000, 1490868532
0.877197265625, -0.260498046875, -0.670166015625, 42.414062500000, -115.007812500000, 162.226562500000, 1490868532
0.877197265625, -0.260498046875, -0.670166015625, 42.414062500000, -115.007812500000, 162.226562500000, 1490868532
0.969482421875, -0.227539062500, -0.770263671875, 22.992187500000, -22.945312500000, 97.296875000000, 1490868532
0.969482421875, -0.227539062500, -0.770263671875, 22.992187500000, -22.945312500000, 97.296875000000, 1490868532
0.969482421875, -0.227539062500, -0.770263671875, 22.992187500000, -22.945312500000, 97.296875000000, 1490868532
0.962402343750, -0.025634765625, -0.589355468750, 22.070312500000, 80.523437500000, 87.117187500000, 1490868532
0.962402343750, -0.025634765625, -0.589355468750, 22.070312500000, 80.523437500000, 87.117187500000, 1490868532
0.962402343750, -0.025634765625, -0.589355468750, 22.070312500000, 80.523437500000, 87.117187500000, 1490868532
0.967529296875, 0.003173828125, -0.307128906250, -30.812500000000, 111.703125000000, 58.835937500000, 1490868532
0.967529296875, 0.003173828125, -0.307128906250, -30.812500000000, 111.703125000000, 58.835937500000, 1490868532
0.967529296875, 0.003173828125, -0.307128906250, -30.812500000000, 111.703125000000, 58.835937500000, 1490868532
0.967529296875, 0.003173828125, -0.307128906250, -30.812500000000, 111.703125000000, 58.835937500000, 1490868532
0.885498046875, 0.072265625000, -0.289306640625, -53.382812500000, 41.273437500000, 43.906250000000, 1490868532
0.885498046875, 0.072265625000, -0.289306640625, -53.382812500000, 41.273437500000, 43.906250000000, 1490868532
0.885498046875, 0.072265625000, -0.289306640625, -53.382812500000, 41.273437500000, 43.906250000000, 1490868532
0.748046875000, 0.200683593750, -0.453613281250, -27.843750000000, 125.820312500000, 37.640625000000, 1490868532
0.748046875000, 0.200683593750, -0.453613281250, -27.843750000000, 125.820312500000, 37.640625000000, 1490868532
0.748046875000, 0.200683593750, -0.453613281250, -27.843750000000, 125.820312500000, 37.640625000000, 1490868532
0.984375000000, 0.079589843750, -0.320312500000, -19.421875000000, 207.539062500000, -34.109375000000, 1490868532
0.984375000000, 0.079589843750, -0.320312500000, -19.421875000000, 207.539062500000, -34.109375000000, 1490868532
0.984375000000, 0.079589843750, -0.320312500000, -19.421875000000, 207.539062500000, -34.109375000000, 1490868532
0.912597656250, 0.045898437500, 0.027587890625, -24.539062500000, 194.648437500000, -35.031250000000, 1490868532
0.912597656250, 0.045898437500, 0.027587890625, -24.539062500000, 194.648437500000, -35.031250000000, 1490868532
1.079101562500, -0.119140625000, 0.216308593750, -19.812500000000, 176.101562500000, -23.710937500000, 1490868532
0.969726562500, -0.130615234375, 0.244384765625, -19.164062500000, 128.015625000000, -6.210937500000, 1490868532
0.969726562500, -0.130615234375, 0.244384765625, -19.164062500000, 128.015625000000, -6.210937500000, 1490868532
0.969726562500, -0.130615234375, 0.244384765625, -15.734375000000, 82.734375000000, 1.898437500000, 1490868532
1.005615234375, 0.024414062500, 0.232666015625, -1.273437500000, 8.382812500000, 10.304687500000, 1490868532
1.005615234375, 0.024414062500, 0.232666015625, -1.273437500000, 8.382812500000, 10.304687500000, 1490868533
1.005615234375, 0.024414062500, 0.232666015625, -1.273437500000, 8.382812500000, 10.304687500000, 1490868533
1.005615234375, 0.024414062500, 0.232666015625, -1.273437500000, 8.382812500000, 10.304687500000, 1490868533
0.928710937500, -0.006347656250, 0.198974609375, 4.062500000000, -27.234375000000, 17.132812500000, 1490868533
0.928710937500, -0.006347656250, 0.198974609375, 4.062500000000, -27.234375000000, 17.132812500000, 1490868533
0.928710937500, -0.006347656250, 0.198974609375, 4.062500000000, -27.234375000000, 17.132812500000, 1490868533
1.031005859375, 0.005859375000, 0.125244140625, 10.109375000000, -30.437500000000, 4.414062500000, 1490868533
1.031005859375, 0.005859375000, 0.125244140625, 10.109375000000, -30.437500000000, 4.414062500000, 1490868533
1.031005859375, 0.005859375000, 0.125244140625, 10.109375000000, -30.437500000000, 4.414062500000, 1490868533
1.031005859375, 0.005859375000, 0.125244140625, 10.109375000000, -30.437500000000, 4.414062500000, 1490868533
0.911865234375, -0.020507812500, 0.072753906250, 8.718750000000, -13.492187500000, 3.664062500000, 1490868533
0.911865234375, -0.020507812500, 0.072753906250, 8.718750000000, -13.492187500000, 3.664062500000, 1490868533
0.911865234375, -0.020507812500, 0.072753906250, 8.718750000000, -13.492187500000, 3.664062500000, 1490868533
1.035888671875, -0.129638671875, 0.060546875000, 5.351562500000, -9.093750000000, 8.546875000000, 1490868533
1.035888671875, -0.129638671875, 0.060546875000, 5.351562500000, -9.093750000000, 8.546875000000, 1490868533
1.035888671875, -0.129638671875, 0.060546875000, 5.351562500000, -9.093750000000, 8.546875000000, 1490868533
1.081542968750, -0.089355468750, 0.056396484375, 1.031250000000, -12.468750000000, 3.375000000000, 1490868533
1.081542968750, -0.089355468750, 0.056396484375, 1.031250000000, -12.468750000000, 3.375000000000, 1490868533
1.081542968750, -0.089355468750, 0.056396484375, 1.031250000000, -12.468750000000, 3.375000000000, 1490868533
1.036132812500, -0.000976562500, 0.046386718750, -5.382812500000, 3.031250000000, -2.078125000000, 1490868533
1.036132812500, -0.000976562500, 0.046386718750, -5.382812500000, 3.031250000000, -2.078125000000, 1490868533
1.036132812500, -0.000976562500, 0.046386718750, -5.382812500000, 3.031250000000, -2.078125000000, 1490868533
1.036132812500, -0.000976562500, 0.046386718750, -5.382812500000, 3.031250000000, -2.078125000000, 1490868533
0.995117187500, -0.029296875000, 0.145263671875, -9.148437500000, 13.515625000000, -6.664062500000, 1490868533
0.995117187500, -0.029296875000, 0.145263671875, -9.148437500000, 13.515625000000, -6.664062500000, 1490868533
0.995117187500, -0.029296875000, 0.145263671875, -9.148437500000, 13.515625000000, -6.664062500000, 1490868533
0.859619140625, -0.079589843750, 0.167968750000, -11.796875000000, 21.929687500000, -5.429687500000, 1490868533
0.859619140625, -0.079589843750, 0.167968750000, -11.796875000000, 21.929687500000, -5.429687500000, 1490868533
0.859619140625, -0.079589843750, 0.167968750000, -11.796875000000, 21.929687500000, -5.429687500000, 1490868533
0.961181640625, 0.023681640625, 0.184082031250, -7.179687500000, 15.781250000000, -5.695312500000, 1490868533
0.961181640625, 0.023681640625, 0.184082031250, -7.179687500000, 15.781250000000, -5.695312500000, 1490868533
0.961181640625, 0.023681640625, 0.184082031250, -7.179687500000, 15.781250000000, -5.695312500000, 1490868533
1.026611328125, -0.036376953125, 0.200195312500, -1.687500000000, 4.031250000000, -4.265625000000, 1490868533
1.026611328125, -0.036376953125, 0.200195312500, -1.687500000000, 4.031250000000, -4.265625000000, 1490868533
1.026611328125, -0.036376953125, 0.200195312500, -1.687500000000, 4.031250000000, -4.265625000000, 1490868533
1.026611328125, -0.036376953125, 0.200195312500, -1.687500000000, 4.031250000000, -4.265625000000, 1490868533
1.011962890625, -0.083251953125, 0.202392578125, -1.390625000000, -2.828125000000, -1.632812500000, 1490868533
1.011962890625, -0.083251953125, 0.202392578125, -1.390625000000, -2.828125000000, -1.632812500000, 1490868533
1.011962890625, -0.083251953125, 0.202392578125, -1.390625000000, -2.828125000000, -1.632812500000, 1490868533
0.972167968750, -0.053466796875, 0.137207031250, -1.523437500000, -6.226562500000, 0.648437500000, 1490868533
0.972167968750, -0.053466796875, 0.137207031250, -1.523437500000, -6.226562500000, 0.648437500000, 1490868533
0.972167968750, -0.053466796875, 0.137207031250, -1.523437500000, -6.226562500000, 0.648437500000, 1490868533
0.871337890625, 0.027587890625, 0.115478515625, -1.273437500000, -6.304687500000, 0.640625000000, 1490868533
0.871337890625, 0.027587890625, 0.115478515625, -1.273437500000, -6.304687500000, 0.640625000000, 1490868533
0.871337890625, 0.027587890625, 0.115478515625, -1.273437500000, -6.304687500000, 0.640625000000, 1490868533
1.093750000000, -0.089843750000, 0.085937500000, -1.328125000000, -3.671875000000, -2.070312500000, 1490868533
1.093750000000, -0.089843750000, 0.085937500000, -1.328125000000, -3.671875000000, -2.070312500000, 1490868533
1.093750000000, -0.089843750000, 0.085937500000, -1.328125000000, -3.671875000000, -2.070312500000, 1490868533
1.093750000000, -0.089843750000, 0.085937500000, -1.328125000000, -3.671875000000, -2.070312500000, 1490868533
1.008544921875, -0.046386718750, 0.102783203125, -2.164062500000, -8.656250000000, 1.507812500000, 1490868533
1.008544921875, -0.046386718750, 0.102783203125, -2.164062500000, -8.656250000000, 1.507812500000, 1490868533
1.008544921875, -0.046386718750, 0.102783203125, -2.164062500000, -8.656250000000, 1.507812500000, 1490868533
1.030517578125, -0.059814453125, 0.031494140625, -4.429687500000, -1.664062500000, -0.109375000000, 1490868533
1.030517578125, -0.059814453125, 0.031494140625, -4.429687500000, -1.664062500000, -0.109375000000, 1490868533
1.030517578125, -0.059814453125, 0.031494140625, -4.429687500000, -1.664062500000, -0.109375000000, 1490868533
1.065917968750, -0.017578125000, 0.153564453125, -3.250000000000, -2.039062500000, -0.085937500000, 1490868533
1.065917968750, -0.017578125000, 0.153564453125, -3.250000000000, -2.039062500000, -0.085937500000, 1490868533
1.065917968750, -0.017578125000, 0.153564453125, -3.250000000000, -2.039062500000, -0.085937500000, 1490868533
0.921630859375, -0.029296875000, 0.052246093750, -6.304687500000, 1.679687500000, -2.593750000000, 1490868533
0.921630859375, -0.029296875000, 0.052246093750, -6.304687500000, 1.679687500000, -2.593750000000, 1490868533
0.921630859375, -0.029296875000, 0.052246093750, -6.304687500000, 1.679687500000, -2.593750000000, 1490868533
0.921630859375, -0.029296875000, 0.052246093750, -6.304687500000, 1.679687500000, -2.593750000000, 1490868533
1.074218750000, 0.009277343750, 0.122314453125, -6.281250000000, 3.226562500000, -1.218750000000, 1490868533
1.074218750000, 0.009277343750, 0.122314453125, -6.281250000000, 3.226562500000, -1.218750000000, 1490868533
1.074218750000, 0.009277343750, 0.122314453125, -6.281250000000, 3.226562500000, -1.218750000000, 1490868533
0.976318359375, 0.075195312500, 0.116210937500, -5.578125000000, 6.703125000000, -3.640625000000, 1490868533
0.976318359375, 0.075195312500, 0.116210937500, -5.578125000000, 6.703125000000, -3.640625000000, 1490868533
0.992919921875, -0.067382812500, 0.100097656250, -3.773437500000, 5.148437500000, -4.609375000000, 1490868534
0.992919921875, -0.067382812500, 0.100097656250, -3.773437500000, 5.148437500000, -4.609375000000, 1490868534
0.992919921875, -0.067382812500, 0.100097656250, -3.773437500000, 5.148437500000, -4.609375000000, 1490868534
0.992919921875, -0.067382812500, 0.100097656250, -3.773437500000, 5.148437500000, -4.609375000000, 1490868534
0.917480468750, -0.052490234375, 0.152099609375, -5.085937500000, 4.234375000000, -6.617187500000, 1490868534
0.917480468750, -0.052490234375, 0.152099609375, -5.085937500000, 4.234375000000, -6.617187500000, 1490868534
0.917480468750, -0.052490234375, 0.152099609375, -5.085937500000, 4.234375000000, -6.617187500000, 1490868534
0.917480468750, -0.052490234375, 0.152099609375, -5.085937500000, 4.234375000000, -6.617187500000, 1490868534
1.072021484375, -0.003906250000, 0.155029296875, -6.531250000000, 3.640625000000, -3.257812500000, 1490868534
1.072021484375, -0.003906250000, 0.155029296875, -6.531250000000, 3.640625000000, -3.257812500000, 1490868534
1.072021484375, -0.003906250000, 0.155029296875, -6.531250000000, 3.640625000000, -3.257812500000, 1490868534
1.072998046875, -0.020996093750, 0.189453125000, -6.125000000000, 4.500000000000, -4.796875000000, 1490868534
1.072998046875, -0.020996093750, 0.189453125000, -6.125000000000, 4.500000000000, -4.796875000000, 1490868534
1.072998046875, -0.020996093750, 0.189453125000, -6.125000000000, 4.500000000000, -4.796875000000, 1490868534
1.000488281250, 0.020019531250, 0.191162109375, -3.859375000000, 6.445312500000, -4.796875000000, 1490868534
1.000488281250, 0.020019531250, 0.191162109375, -3.859375000000, 6.445312500000, -4.796875000000, 1490868534
1.000488281250, 0.020019531250, 0.191162109375, -3.859375000000, 6.445312500000, -4.796875000000, 1490868534
1.025634765625, -0.019042968750, 0.129150390625, -6.781250000000, 2.984375000000, -4.171875000000, 1490868534
1.025634765625, -0.019042968750, 0.129150390625, -6.781250000000, 2.984375000000, -4.171875000000, 1490868534
1.025634765625, -0.019042968750, 0.129150390625, -6.781250000000, 2.984375000000, -4.171875000000, 1490868534
1.025634765625, -0.019042968750, 0.129150390625, -6.781250000000, 2.984375000000, -4.171875000000, 1490868534
1.031494140625, -0.028076171875, 0.124023437500, -3.125000000000, 1.242187500000, -3.359375000000, 1490868534
1.031494140625, -0.028076171875, 0.124023437500, -3.125000000000, 1.242187500000, -3.359375000000, 1490868534
1.031494140625, -0.028076171875, 0.124023437500, -3.125000000000, 1.242187500000, -3.359375000000, 1490868534
1.033691406250, -0.018066406250, 0.155517578125, -3.320312500000, 0.367187500000, -3.351562500000, 1490868534
1.033691406250, -0.018066406250, 0.155517578125, -3.320312500000, 0.367187500000, -3.351562500000, 1490868534
1.033691406250, -0.018066406250, 0.155517578125, -3.320312500000, 0.367187500000, -3.351562500000, 1490868534
1.005615234375, -0.051269531250, 0.208740234375, -4.867187500000, 1.312500000000, -4.757812500000, 1490868534
1.005615234375, -0.051269531250, 0.208740234375, -4.867187500000, 1.312500000000, -4.757812500000, 1490868534
1.005615234375, -0.051269531250, 0.208740234375, -4.867187500000, 1.312500000000, -4.757812500000, 1490868534
0.989257812500, -0.007324218750, 0.107421875000, -6.062500000000, 1.796875000000, -4.132812500000, 1490868534
0.989257812500, -0.007324218750, 0.107421875000, -6.062500000000, 1.796875000000, -4.132812500000, 1490868534
0.989257812500, -0.007324218750, 0.107421875000, -6.062500000000, 1.796875000000, -4.132812500000, 1490868534
0.982177734375, 0.015869140625, 0.149169921875, -3.648437500000, -0.195312500000, -1.984375000000, 1490868534
0.982177734375, 0.015869140625, 0.149169921875, -3.648437500000, -0.195312500000, -1.984375000000, 1490868534
0.992187500000, -0.066162109375, 0.192871093750, -3.710937500000, -0.132812500000, -4.960937500000, 1490868534
0.992187500000, -0.066162109375, 0.192871093750, -3.710937500000, -0.132812500000, -4.960937500000, 1490868534
0.992187500000, -0.066162109375, 0.192871093750, -3.710937500000, -0.132812500000, -4.960937500000, 1490868534
0.992187500000, -0.066162109375, 0.192871093750, -3.710937500000, -0.132812500000, -4.960937500000, 1490868534
0.992187500000, -0.066162109375, 0.192871093750, -3.710937500000, -0.132812500000, -4.960937500000, 1490868534
1.015625000000, -0.077636718750, 0.034667968750, -6.007812500000, -0.664062500000, -1.054687500000, 1490868534
1.015625000000, -0.077636718750, 0.034667968750, -6.007812500000, -0.664062500000, -1.054687500000, 1490868534
1.015625000000, -0.077636718750, 0.034667968750, -6.007812500000, -0.664062500000, -1.054687500000, 1490868534
1.064697265625, -0.024414062500, 0.128173828125, -3.164062500000, 2.148437500000, -3.765625000000, 1490868534
1.064697265625, -0.024414062500, 0.128173828125, -3.164062500000, 2.148437500000, -3.765625000000, 1490868534
1.064697265625, -0.024414062500, 0.128173828125, -3.164062500000, 2.148437500000, -3.765625000000, 1490868534
1.064697265625, -0.024414062500, 0.128173828125, -3.164062500000, 2.148437500000, -3.765625000000, 1490868534
1.026855468750, -0.023681640625, 0.190185546875, -3.359375000000, 1.984375000000, -4.773437500000, 1490868534
1.026855468750, -0.023681640625, 0.190185546875, -3.359375000000, 1.984375000000, -4.773437500000, 1490868534
1.026855468750, -0.023681640625, 0.190185546875, -3.359375000000, 1.984375000000, -4.773437500000, 1490868534
0.989746093750, 0.082275390625, 0.199218750000, -6.226562500000, 1.640625000000, -4.500000000000, 1490868534
0.989746093750, 0.082275390625, 0.199218750000, -6.226562500000, 1.640625000000, -4.500000000000, 1490868534
0.989746093750, 0.082275390625, 0.199218750000, -6.226562500000, 1.640625000000, -4.500000000000, 1490868534
1.026855468750, -0.016845703125, 0.150634765625, -6.468750000000, 2.710937500000, -2.718750000000, 1490868534
1.026855468750, -0.016845703125, 0.150634765625, -6.468750000000, 2.710937500000, -2.718750000000, 1490868534
1.026855468750, -0.016845703125, 0.150634765625, -6.468750000000, 2.710937500000, -2.718750000000, 1490868534
0.910888671875, 0.013427734375, 0.121826171875, -3.281250000000, 1.054687500000, -3.289062500000, 1490868534
0.910888671875, 0.013427734375, 0.121826171875, -3.281250000000, 1.054687500000, -3.289062500000, 1490868534
0.910888671875, 0.013427734375, 0.121826171875, -3.281250000000, 1.054687500000, -3.289062500000, 1490868534
0.910888671875, 0.013427734375, 0.121826171875, -3.281250000000, 1.054687500000, -3.289062500000, 1490868534
0.984130859375, -0.037841796875, 0.120605468750, -6.015625000000, 0.796875000000, -3.906250000000, 1490868534
0.984130859375, -0.037841796875, 0.120605468750, -6.015625000000, 0.796875000000, -3.906250000000, 1490868534
0.984130859375, -0.037841796875, 0.120605468750, -6.015625000000, 0.796875000000, -3.906250000000, 1490868534
1.031250000000, 0.044677734375, 0.099121093750, -4.539062500000, 0.765625000000, -6.398437500000, 1490868534
1.031250000000, 0.044677734375, 0.099121093750, -4.539062500000, 0.765625000000, -6.398437500000, 1490868534
1.031250000000, 0.044677734375, 0.099121093750, -4.539062500000, 0.765625000000, -6.398437500000, 1490868534
0.928222656250, -0.076416015625, 0.155761718750, -3.132812500000, 0.570312500000, -4.828125000000, 1490868534
0.928222656250, -0.076416015625, 0.155761718750, -3.132812500000, 0.570312500000, -4.828125000000, 1490868535
0.928222656250, -0.076416015625, 0.155761718750, -3.132812500000, 0.570312500000, -4.828125000000, 1490868535
0.991455078125, -0.025146484375, 0.103027343750, -6.351562500000, -0.234375000000, -4.679687500000, 1490868535
0.991455078125, -0.025146484375, 0.103027343750, -6.351562500000, -0.234375000000, -4.679687500000, 1490868535
0.991455078125, -0.025146484375, 0.103027343750, -6.351562500000, -0.234375000000, -4.679687500000, 1490868535
0.991455078125, -0.025146484375, 0.103027343750, -6.351562500000, -0.234375000000, -4.679687500000, 1490868535
1.056396484375, 0.019531250000, 0.251220703125, -4.789062500000, 2.718750000000, -2.500000000000, 1490868535
1.056396484375, 0.019531250000, 0.251220703125, -4.789062500000, 2.718750000000, -2.500000000000, 1490868535
1.056396484375, 0.019531250000, 0.251220703125, -4.789062500000, 2.718750000000, -2.500000000000, 1490868535
1.006835937500, 0.014648437500, 0.114990234375, -3.234375000000, -0.937500000000, -4.265625000000, 1490868535
1.006835937500, 0.014648437500, 0.114990234375, -3.234375000000, -0.937500000000, -4.265625000000, 1490868535
1.006835937500, 0.014648437500, 0.114990234375, -3.234375000000, -0.937500000000, -4.265625000000, 1490868535
0.920898437500, 0.029052734375, 0.099365234375, -3.078125000000, 0.343750000000, -6.062500000000, 1490868535
0.920898437500, 0.029052734375, 0.099365234375, -3.078125000000, 0.343750000000, -6.062500000000, 1490868535
0.920898437500, 0.029052734375, 0.099365234375, -3.078125000000, 0.343750000000, -6.062500000000, 1490868535
0.999267578125, 0.013427734375, 0.191894531250, -3.710937500000, 2.257812500000, 0.257812500000, 1490868535
0.999267578125, 0.013427734375, 0.191894531250, -3.710937500000, 2.257812500000, 0.257812500000, 1490868535
0.999267578125, 0.013427734375, 0.191894531250, -3.710937500000, 2.257812500000, 0.257812500000, 1490868535
0.999267578125, 0.013427734375, 0.191894531250, -3.710937500000, 2.257812500000, 0.257812500000, 1490868535
0.998779296875, 0.022949218750, 0.040039062500, -4.703125000000, 0.265625000000, -4.132812500000, 1490868535
0.998779296875, 0.022949218750, 0.040039062500, -4.703125000000, 0.265625000000, -4.132812500000, 1490868535
0.998779296875, 0.022949218750, 0.040039062500, -4.703125000000, 0.265625000000, -4.132812500000, 1490868535
0.949462890625, -0.017822265625, 0.102294921875, -3.531250000000, 1.421875000000, -1.984375000000, 1490868535
1.044921875000, -0.016601562500, 0.102539062500, -3.601562500000, -0.742187500000, -6.117187500000, 1490868535
1.044921875000, -0.016601562500, 0.102539062500, -3.601562500000, -0.742187500000, -6.117187500000, 1490868535
0.995849609375, -0.020996093750, 0.201904296875, -3.460937500000, -0.578125000000, -6.523437500000, 1490868535
1.064453125000, 0.025878906250, 0.190917968750, -4.601562500000, 0.421875000000, -4.679687500000, 1490868535
1.064453125000, 0.025878906250, 0.190917968750, -4.601562500000, 0.421875000000, -4.679687500000, 1490868535
1.064453125000, 0.025878906250, 0.190917968750, -4.601562500000, 0.421875000000, -4.679687500000, 1490868535
1.064453125000, 0.025878906250, 0.190917968750, -4.601562500000, 0.421875000000, -4.679687500000, 1490868535
1.064453125000, 0.025878906250, 0.190917968750, -4.601562500000, 0.421875000000, -4.679687500000, 1490868535
1.064453125000, 0.025878906250, 0.190917968750, -4.601562500000, 0.421875000000, -4.679687500000, 1490868535
0.930175781250, 0.069335937500, 0.102783203125, -3.085937500000, 1.421875000000, -3.148437500000, 1490868535
0.930175781250, 0.069335937500, 0.102783203125, -3.085937500000, 1.421875000000, -3.148437500000, 1490868535
0.930175781250, 0.069335937500, 0.102783203125, -3.085937500000, 1.421875000000, -3.148437500000, 1490868535
1.051757812500, -0.063476562500, 0.171875000000, -6.062500000000, 2.812500000000, -4.093750000000, 1490868535
1.051757812500, -0.063476562500, 0.171875000000, -6.062500000000, 2.812500000000, -4.093750000000, 1490868535
1.051757812500, -0.063476562500, 0.171875000000, -6.062500000000, 2.812500000000, -4.093750000000, 1490868535
0.989013671875, 0.018554687500, 0.199951171875, -3.929687500000, 2.835937500000, -4.960937500000, 1490868535
0.989013671875, 0.018554687500, 0.199951171875, -3.929687500000, 2.835937500000, -4.960937500000, 1490868535
0.989013671875, 0.018554687500, 0.199951171875, -3.929687500000, 2.835937500000, -4.960937500000, 1490868535
0.996337890625, -0.086914062500, 0.216064453125, -3.273437500000, 2.257812500000, -1.703125000000, 1490868535
0.996337890625, -0.086914062500, 0.216064453125, -3.273437500000, 2.257812500000, -1.703125000000, 1490868535
0.996337890625, -0.086914062500, 0.216064453125, -3.273437500000, 2.257812500000, -1.703125000000, 1490868535
0.996337890625, -0.086914062500, 0.216064453125, -3.273437500000, 2.257812500000, -1.703125000000, 1490868535
1.086914062500, 0.019287109375, 0.192382812500, -3.460937500000, -0.429687500000, -1.820312500000, 1490868535
1.086914062500, 0.019287109375, 0.192382812500, -3.460937500000, -0.429687500000, -1.820312500000, 1490868535
1.086914062500, 0.019287109375, 0.192382812500, -3.460937500000, -0.429687500000, -1.820312500000, 1490868535
1.053710937500, -0.034912109375, 0.218017578125, -6.898437500000, -0.601562500000, -1.906250000000, 1490868535
1.053710937500, -0.034912109375, 0.218017578125, -6.898437500000, -0.601562500000, -1.906250000000, 1490868535
1.053710937500, -0.034912109375, 0.218017578125, -6.898437500000, -0.601562500000, -1.906250000000, 1490868535
0.907226562500, 0.011474609375, 0.112060546875, -3.328125000000, -0.820312500000, -3.656250000000, 1490868535
1.038818359375, -0.004882812500, 0.059814453125, -5.859375000000, 1.585937500000, -4.945312500000, 1490868535
1.038818359375, -0.004882812500, 0.059814453125, -5.859375000000, 1.585937500000, -4.945312500000, 1490868535
1.038818359375, -0.004882812500, 0.059814453125, -5.859375000000, 1.585937500000, -4.945312500000, 1490868535
1.038818359375, -0.004882812500, 0.059814453125, -5.859375000000, 1.585937500000, -4.945312500000, 1490868535
1.038818359375, -0.004882812500, 0.059814453125, -5.859375000000, 1.585937500000, -4.945312500000, 1490868535
1.130615234375, 0.137695312500, 0.154052734375, -6.968750000000, 1.437500000000, -4.750000000000, 1490868535
1.088867187500, 0.008300781250, 0.161621093750, -3.656250000000, 2.031250000000, -6.671875000000, 1490868535
1.088867187500, 0.008300781250, 0.161621093750, -3.656250000000, 2.031250000000, -6.671875000000, 1490868535
1.088867187500, 0.008300781250, 0.161621093750, -3.656250000000, 2.031250000000, -6.671875000000, 1490868535
1.049316406250, -0.014648437500, 0.211669921875, -6.164062500000, 2.539062500000, -4.976562500000, 1490868535
1.049316406250, -0.014648437500, 0.211669921875, -6.164062500000, 2.539062500000, -4.976562500000, 1490868535
1.049316406250, -0.014648437500, 0.211669921875, -6.164062500000, 2.539062500000, -4.976562500000, 1490868535
1.034423828125, -0.024902343750, 0.173339843750, -4.726562500000, 1.328125000000, -6.460937500000, 1490868535
1.034423828125, -0.024902343750, 0.173339843750, -4.726562500000, 1.328125000000, -6.460937500000, 1490868535
1.034423828125, -0.024902343750, 0.173339843750, -4.726562500000, 1.328125000000, -6.460937500000, 1490868535
0.986816406250, 0.018066406250, 0.056640625000, -6.257812500000, 2.296875000000, -4.757812500000, 1490868536
0.986816406250, 0.018066406250, 0.056640625000, -6.257812500000, 2.296875000000, -4.757812500000, 1490868536
0.986816406250, 0.018066406250, 0.056640625000, -6.257812500000, 2.296875000000, -4.757812500000, 1490868536
0.986816406250, 0.018066406250, 0.056640625000, -6.257812500000, 2.296875000000, -4.757812500000, 1490868536
1.053955078125, 0.070068359375, 0.049560546875, -3.937500000000, 0.796875000000, -3.210937500000, 1490868536
1.053955078125, 0.070068359375, 0.049560546875, -3.937500000000, 0.796875000000, -3.210937500000, 1490868536
1.053955078125, 0.070068359375, 0.049560546875, -3.937500000000, 0.796875000000, -3.210937500000, 1490868536
0.997070312500, 0.068115234375, 0.202148437500, -3.554687500000, 2.351562500000, -1.882812500000, 1490868536
1.008544921875, -0.052001953125, 0.156982421875, -4.929687500000, 2.882812500000, -3.007812500000, 1490868536
1.008544921875, -0.052001953125, 0.156982421875, -4.929687500000, 2.882812500000, -3.007812500000, 1490868536
0.935302734375, -0.142333984375, 0.135498046875, -3.867187500000, 2.132812500000, -3.242187500000, 1490868536
1.093017578125, 0.002441406250, 0.201660156250, -3.523437500000, -0.359375000000, -3.992187500000, 1490868536
1.093017578125, 0.002441406250, 0.201660156250, -3.523437500000, -0.359375000000, -3.992187500000, 1490868536
1.093017578125, 0.002441406250, 0.201660156250, -3.523437500000, -0.359375000000, -3.992187500000, 1490868536
1.093017578125, 0.002441406250, 0.201660156250, -3.523437500000, -0.359375000000, -3.992187500000, 1490868536
1.093017578125, 0.002441406250, 0.201660156250, -3.523437500000, -0.359375000000, -3.992187500000, 1490868536
1.093017578125, 0.002441406250, 0.201660156250, -3.523437500000, -0.359375000000, -3.992187500000, 1490868536
1.093017578125, 0.002441406250, 0.201660156250, -3.523437500000, -0.359375000000, -3.992187500000, 1490868536
0.993408203125, 0.019775390625, 0.189941406250, -6.320312500000, -0.640625000000, -3.656250000000, 1490868536
0.993408203125, 0.019775390625, 0.189941406250, -6.320312500000, -0.640625000000, -3.656250000000, 1490868536
0.993408203125, 0.019775390625, 0.189941406250, -6.320312500000, -0.640625000000, -3.656250000000, 1490868536
0.993408203125, 0.019775390625, 0.189941406250, -6.320312500000, -0.640625000000, -3.656250000000, 1490868536
0.993408203125, 0.019775390625, 0.189941406250, -6.320312500000, -0.640625000000, -3.656250000000, 1490868536
0.969482421875, 0.033203125000, 0.108886718750, -3.187500000000, -0.492187500000, -3.343750000000, 1490868536
0.969482421875, 0.033203125000, 0.108886718750, -3.187500000000, -0.492187500000, -3.343750000000, 1490868536
0.969482421875, 0.033203125000, 0.108886718750, -3.187500000000, -0.492187500000, -3.343750000000, 1490868536
1.092773437500, 0.018798828125, 0.204833984375, -3.976562500000, -0.390625000000, -4.515625000000, 1490868536
1.092773437500, 0.018798828125, 0.204833984375, -3.976562500000, -0.390625000000, -4.515625000000, 1490868536
1.092773437500, 0.018798828125, 0.204833984375, -3.976562500000, -0.390625000000, -4.515625000000, 1490868536
1.092773437500, 0.018798828125, 0.204833984375, -3.976562500000, -0.390625000000, -4.515625000000, 1490868536
1.085693359375, -0.035888671875, 0.201904296875, -3.976562500000, 4.015625000000, -4.867187500000, 1490868536
1.085693359375, -0.035888671875, 0.201904296875, -3.976562500000, 4.015625000000, -4.867187500000, 1490868536
1.085693359375, -0.035888671875, 0.201904296875, -3.976562500000, 4.015625000000, -4.867187500000, 1490868536
0.911132812500, 0.086181640625, 0.192382812500, -3.687500000000, 2.476562500000, -6.718750000000, 1490868536
0.911132812500, 0.086181640625, 0.192382812500, -3.687500000000, 2.476562500000, -6.718750000000, 1490868536
0.911132812500, 0.086181640625, 0.192382812500, -3.687500000000, 2.476562500000, -6.718750000000, 1490868536
1.009765625000, -0.023925781250, 0.101074218750, -3.132812500000, 0.710937500000, -4.640625000000, 1490868536
1.009765625000, -0.023925781250, 0.101074218750, -3.132812500000, 0.710937500000, -4.640625000000, 1490868536
1.009765625000, -0.023925781250, 0.101074218750, -3.132812500000, 0.710937500000, -4.640625000000, 1490868536
1.066650390625, -0.077148437500, 0.149169921875, -3.609375000000, 0.117187500000, -1.804687500000, 1490868536
1.066650390625, -0.077148437500, 0.149169921875, -3.609375000000, 0.117187500000, -1.804687500000, 1490868536
1.066650390625, -0.077148437500, 0.149169921875, -3.609375000000, 0.117187500000, -1.804687500000, 1490868536
1.066650390625, -0.077148437500, 0.149169921875, -3.609375000000, 0.117187500000, -1.804687500000, 1490868536
0.997802734375, 0.052490234375, 0.109619140625, -3.023437500000, 0.343750000000, -4.195312500000, 1490868536
0.997802734375, 0.052490234375, 0.109619140625, -3.023437500000, 0.343750000000, -4.195312500000, 1490868536
0.997802734375, 0.052490234375, 0.109619140625, -3.023437500000, 0.343750000000, -4.195312500000, 1490868536
0.936035156250, -0.007568359375, 0.096923828125, -6.992187500000, 0.515625000000, -3.289062500000, 1490868536
0.936035156250, -0.007568359375, 0.096923828125, -6.992187500000, 0.515625000000, -3.289062500000, 1490868536
0.936035156250, -0.007568359375, 0.096923828125, -6.992187500000, 0.515625000000, -3.289062500000, 1490868536
1.030273437500, -0.006591796875, 0.157958984375, -6.687500000000, -0.726562500000, -3.742187500000, 1490868536
1.030273437500, -0.006591796875, 0.157958984375, -6.687500000000, -0.726562500000, -3.742187500000, 1490868536
0.957763671875, 0.007812500000, 0.060058593750, -4.945312500000, -0.460937500000, -4.210937500000, 1490868536
0.957763671875, 0.007812500000, 0.060058593750, -4.945312500000, -0.460937500000, -4.210937500000, 1490868536
0.957763671875, 0.007812500000, 0.060058593750, -4.945312500000, -0.460937500000, -4.210937500000, 1490868536
0.957763671875, 0.007812500000, 0.060058593750, -4.945312500000, -0.460937500000, -4.210937500000, 1490868536
0.957763671875, 0.007812500000, 0.060058593750, -4.945312500000, -0.460937500000, -4.210937500000, 1490868536
1.017822265625, -0.014160156250, 0.196044921875, -3.453125000000, -2.070312500000, -1.968750000000, 1490868536
1.017822265625, -0.014160156250, 0.196044921875, -3.453125000000, -2.070312500000, -1.968750000000, 1490868536
1.017822265625, -0.014160156250, 0.196044921875, -3.453125000000, -2.070312500000, -1.968750000000, 1490868536
1.005371093750, -0.015625000000, 0.097900390625, -3.695312500000, -0.640625000000, -1.757812500000, 1490868536
1.005371093750, -0.015625000000, 0.097900390625, -3.695312500000, -0.640625000000, -1.757812500000, 1490868536
1.005371093750, -0.015625000000, 0.097900390625, -3.695312500000, -0.640625000000, -1.757812500000, 1490868536
1.011230468750, 0.021484375000, 0.105957031250, -3.796875000000, 0.968750000000, -1.320312500000, 1490868536
1.011230468750, 0.021484375000, 0.105957031250, -3.796875000000, 0.968750000000, -1.320312500000, 1490868536
0.977050781250, 0.017089843750, 0.153076171875, -6.671875000000, -0.554687500000, -1.101562500000, 1490868537
0.977050781250, 0.017089843750, 0.153076171875, -6.671875000000, -0.554687500000, -1.101562500000, 1490868537
0.977050781250, 0.017089843750, 0.153076171875, -6.671875000000, -0.554687500000, -1.101562500000, 1490868537
0.977050781250, 0.017089843750, 0.153076171875, -6.671875000000, -0.554687500000, -1.101562500000, 1490868537
0.991943359375, -0.067871093750, 0.161865234375, -3.171875000000, 2.156250000000, -3.968750000000, 1490868537
0.991943359375, -0.067871093750, 0.161865234375, -3.171875000000, 2.156250000000, -3.968750000000, 1490868537
0.991943359375, -0.067871093750, 0.161865234375, -3.171875000000, 2.156250000000, -3.968750000000, 1490868537
0.991943359375, -0.067871093750, 0.161865234375, -3.171875000000, 2.156250000000, -3.968750000000, 1490868537
0.991943359375, -0.067871093750, 0.161865234375, -3.171875000000, 2.156250000000, -3.968750000000, 1490868537
0.991943359375, -0.067871093750, 0.161865234375, -3.171875000000, 2.156250000000, -3.968750000000, 1490868537
0.991943359375, -0.067871093750, 0.161865234375, -3.171875000000, 2.156250000000, -3.968750000000, 1490868537
1.019287109375, 0.063720703125, 0.197021484375, -3.820312500000, -0.289062500000, -6.781250000000, 1490868537
1.019287109375, 0.063720703125, 0.197021484375, -3.820312500000, -0.289062500000, -6.781250000000, 1490868537
1.019287109375, 0.063720703125, 0.197021484375, -3.820312500000, -0.289062500000, -6.781250000000, 1490868537
1.019287109375, 0.063720703125, 0.197021484375, -3.820312500000, -0.289062500000, -6.781250000000, 1490868537
1.041992187500, 0.067871093750, 0.103271484375, -4.835937500000, -0.554687500000, -3.468750000000, 1490868537
1.041992187500, 0.067871093750, 0.103271484375, -4.835937500000, -0.554687500000, -3.468750000000, 1490868537
1.041992187500, 0.067871093750, 0.103271484375, -4.835937500000, -0.554687500000, -3.468750000000, 1490868537
1.041992187500, 0.067871093750, 0.103271484375, -4.835937500000, -0.554687500000, -3.468750000000, 1490868537
1.041992187500, 0.067871093750, 0.103271484375, -4.835937500000, -0.554687500000, -3.468750000000, 1490868537
1.014648437500, -0.061035156250, 0.210205078125, -4.507812500000, 0.992187500000, -4.539062500000, 1490868537
1.014648437500, -0.061035156250, 0.210205078125, -4.507812500000, 0.992187500000, -4.539062500000, 1490868537
1.014648437500, -0.061035156250, 0.210205078125, -4.507812500000, 0.992187500000, -4.539062500000, 1490868537
1.014648437500, -0.061035156250, 0.210205078125, -4.507812500000, 0.992187500000, -4.539062500000, 1490868537
