ACC_X,ACC_Y,ACC_Z,G_X,G_Y,G_Z,Unix Time
0.061279296875, -0.982910156250, 0.286132812500, -4.609375000000, 4.437500000000, 0.984375000000, 1490868240
0.061279296875, -0.982910156250, 0.286132812500, -4.609375000000, 4.437500000000, 0.984375000000, 1490868240
0.061279296875, -0.982910156250, 0.286132812500, -4.609375000000, 4.437500000000, 0.984375000000, 1490868240
-0.023193359375, -0.988037109375, 0.282226562500, -6.203125000000, 4.992187500000, 0.695312500000, 1490868240
-0.069824218750, -0.893310546875, 0.239501953125, -6.156250000000, 4.515625000000, -0.937500000000, 1490868240
-0.069824218750, -0.893310546875, 0.239501953125, -6.156250000000, 4.515625000000, -0.937500000000, 1490868240
-0.069824218750, -0.893310546875, 0.239501953125, -6.156250000000, 4.515625000000, -0.937500000000, 1490868240
0.010498046875, -0.955078125000, 0.394531250000, -3.125000000000, -0.562500000000, -4.664062500000, 1490868240
0.010498046875, -0.955078125000, 0.394531250000, -3.125000000000, -0.562500000000, -4.664062500000, 1490868240
0.010498046875, -0.955078125000, 0.394531250000, -3.125000000000, -0.562500000000, -4.664062500000, 1490868240
0.046142578125, -0.924316406250, 0.284667968750, -3.484375000000, 2.359375000000, 0.148437500000, 1490868240
0.046142578125, -0.924316406250, 0.284667968750, -3.484375000000, 2.359375000000, 0.148437500000, 1490868240
0.046142578125, -0.924316406250, 0.284667968750, -3.484375000000, 2.359375000000, 0.148437500000, 1490868240
0.076904296875, -1.018798828125, 0.297363281250, -3.312500000000, -0.625000000000, 0.203125000000, 1490868240
0.076904296875, -1.018798828125, 0.297363281250, -3.312500000000, -0.625000000000, 0.203125000000, 1490868240
0.076904296875, -1.018798828125, 0.297363281250, -3.312500000000, -0.625000000000, 0.203125000000, 1490868240
0.089111328125, -1.000488281250, 0.295898437500, -6.671875000000, -0.125000000000, -3.132812500000, 1490868240
0.089111328125, -1.000488281250, 0.295898437500, -6.671875000000, -0.125000000000, -3.132812500000, 1490868240
0.089111328125, -1.000488281250, 0.295898437500, -6.671875000000, -0.125000000000, -3.132812500000, 1490868240
0.089111328125, -1.000488281250, 0.295898437500, -6.671875000000, -0.125000000000, -3.132812500000, 1490868240
0.012207031250, -1.070068359375, 0.310791015625, -3.523437500000, -2.320312500000, -3.679687500000, 1490868241
0.012207031250, -1.070068359375, 0.310791015625, -3.523437500000, -2.320312500000, -3.679687500000, 1490868241
0.012207031250, -1.070068359375, 0.310791015625, -3.523437500000, -2.320312500000, -3.679687500000, 1490868241
0.048339843750, -0.932373046875, 0.253662109375, -3.742187500000, -0.265625000000, -2.117187500000, 1490868241
0.048339843750, -0.932373046875, 0.253662109375, -3.742187500000, -0.265625000000, -2.117187500000, 1490868241
0.048339843750, -0.932373046875, 0.253662109375, -3.742187500000, -0.265625000000, -2.117187500000, 1490868241
-0.031982421875, -0.932861328125, 0.243164062500, -1.203125000000, -0.953125000000, -1.460937500000, 1490868241
-0.031982421875, -0.932861328125, 0.243164062500, -1.203125000000, -0.953125000000, -1.460937500000, 1490868241
-0.031982421875, -0.932861328125, 0.243164062500, -1.203125000000, -0.953125000000, -1.460937500000, 1490868241
-0.031982421875, -0.932861328125, 0.243164062500, -1.203125000000, -0.953125000000, -1.460937500000, 1490868241
0.007080078125, -0.973388671875, 0.290283203125, -3.460937500000, 0.171875000000, -1.625000000000, 1490868241
0.007080078125, -0.973388671875, 0.290283203125, -3.460937500000, 0.171875000000, -1.625000000000, 1490868241
0.007080078125, -0.973388671875, 0.290283203125, -3.460937500000, 0.171875000000, -1.625000000000, 1490868241
0.046142578125, -1.002197265625, 0.318603515625, -3.968750000000, -0.617187500000, -3.039062500000, 1490868241
0.046142578125, -1.002197265625, 0.318603515625, -3.968750000000, -0.617187500000, -3.039062500000, 1490868241
0.046142578125, -1.002197265625, 0.318603515625, -3.968750000000, -0.617187500000, -3.039062500000, 1490868241
0.092285156250, -0.928955078125, 0.400146484375, -3.718750000000, 0.734375000000, -3.140625000000, 1490868241
0.092285156250, -0.928955078125, 0.400146484375, -3.718750000000, 0.734375000000, -3.140625000000, 1490868241
0.092285156250, -0.928955078125, 0.400146484375, -3.718750000000, 0.734375000000, -3.140625000000, 1490868241
0.013427734375, -0.917480468750, 0.329345703125, -4.523437500000, 0.375000000000, -1.914062500000, 1490868241
0.013427734375, -0.917480468750, 0.329345703125, -4.523437500000, 0.375000000000, -1.914062500000, 1490868241
0.013427734375, -0.917480468750, 0.329345703125, -4.523437500000, 0.375000000000, -1.914062500000, 1490868241
0.013427734375, -0.917480468750, 0.329345703125, -4.523437500000, 0.375000000000, -1.914062500000, 1490868241
-0.001953125000, -0.917968750000, 0.233398437500, -4.625000000000, -1.070312500000, -1.765625000000, 1490868241
-0.001953125000, -0.917968750000, 0.233398437500, -4.625000000000, -1.070312500000, -1.765625000000, 1490868241
-0.001953125000, -0.917968750000, 0.233398437500, -4.625000000000, -1.070312500000, -1.765625000000, 1490868241
0.089599609375, -0.928466796875, 0.401611328125, -3.687500000000, 0.914062500000, -1.210937500000, 1490868241
0.089599609375, -0.928466796875, 0.401611328125, -3.687500000000, 0.914062500000, -1.210937500000, 1490868241
0.089599609375, -0.928466796875, 0.401611328125, -3.687500000000, 0.914062500000, -1.210937500000, 1490868241
-0.029296875000, -1.007080078125, 0.318847656250, -4.359375000000, -0.453125000000, -4.406250000000, 1490868241
-0.029296875000, -1.007080078125, 0.318847656250, -4.359375000000, -0.453125000000, -4.406250000000, 1490868241
-0.029296875000, -1.007080078125, 0.318847656250, -4.359375000000, -0.453125000000, -4.406250000000, 1490868241
-0.010742187500, -0.921142578125, 0.329589843750, -3.140625000000, -0.554687500000, -1.851562500000, 1490868241
-0.010742187500, -0.921142578125, 0.329589843750, -3.140625000000, -0.554687500000, -1.851562500000, 1490868241
-0.010742187500, -0.921142578125, 0.329589843750, -3.140625000000, -0.554687500000, -1.851562500000, 1490868241
-0.010742187500, -0.921142578125, 0.329589843750, -3.140625000000, -0.554687500000, -1.851562500000, 1490868241
0.024169921875, -0.942382812500, 0.342773437500, -3.125000000000, -0.953125000000, -2.273437500000, 1490868241
0.024169921875, -0.942382812500, 0.342773437500, -3.125000000000, -0.953125000000, -2.273437500000, 1490868241
0.024169921875, -0.942382812500, 0.342773437500, -3.125000000000, -0.953125000000, -2.273437500000, 1490868241
0.011230468750, -0.863525390625, 0.287353515625, -1.914062500000, -0.703125000000, -1.687500000000, 1490868241
0.011230468750, -0.863525390625, 0.287353515625, -1.914062500000, -0.703125000000, -1.687500000000, 1490868241
0.011230468750, -0.863525390625, 0.287353515625, -1.914062500000, -0.703125000000, -1.687500000000, 1490868241
0.070800781250, -0.970703125000, 0.389160156250, -4.554687500000, -0.468750000000, -1.132812500000, 1490868241
0.070800781250, -0.970703125000, 0.389160156250, -4.554687500000, -0.468750000000, -1.132812500000, 1490868241
0.070800781250, -0.970703125000, 0.389160156250, -4.554687500000, -0.468750000000, -1.132812500000, 1490868241
0.008056640625, -0.876953125000, 0.322509765625, -1.750000000000, 1.187500000000, -1.851562500000, 1490868241
0.008056640625, -0.876953125000, 0.322509765625, -1.750000000000, 1.187500000000, -1.851562500000, 1490868241
0.008056640625, -0.876953125000, 0.322509765625, -1.750000000000, 1.187500000000, -1.851562500000, 1490868241
0.008056640625, -0.876953125000, 0.322509765625, -1.750000000000, 1.187500000000, -1.851562500000, 1490868241
-0.021484375000, -0.862548828125, 0.292724609375, -3.085937500000, 1.968750000000, -1.968750000000, 1490868241
-0.021484375000, -0.862548828125, 0.292724609375, -3.085937500000, 1.968750000000, -1.968750000000, 1490868241
-0.007324218750, -0.945068359375, 0.307373046875, -1.531250000000, 0.039062500000, -3.234375000000, 1490868241
-0.007324218750, -0.945068359375, 0.307373046875, -1.531250000000, 0.039062500000, -3.234375000000, 1490868241
-0.007324218750, -0.945068359375, 0.307373046875, -1.531250000000, 0.039062500000, -3.234375000000, 1490868241
-0.007324218750, -0.945068359375, 0.307373046875, -1.531250000000, 0.039062500000, -3.234375000000, 1490868241
0.070312500000, -0.984130859375, 0.393310546875, 0.359375000000, -2.398437500000, -1.507812500000, 1490868241
0.022216796875, -0.849609375000, 0.457275390625, -4.781250000000, -2.078125000000, -3.062500000000, 1490868241
0.022216796875, -0.849609375000, 0.457275390625, -4.781250000000, -2.078125000000, -3.062500000000, 1490868241
0.022216796875, -0.849609375000, 0.457275390625, -4.781250000000, -2.078125000000, -3.062500000000, 1490868241
-0.075195312500, -0.937988281250, 0.384521484375, -3.984375000000, -0.078125000000, -4.023437500000, 1490868241
-0.075195312500, -0.937988281250, 0.384521484375, -3.984375000000, -0.078125000000, -4.023437500000, 1490868241
-0.075195312500, -0.937988281250, 0.384521484375, -3.984375000000, -0.078125000000, -4.023437500000, 1490868241
-0.075195312500, -0.937988281250, 0.384521484375, -3.984375000000, -0.078125000000, -4.023437500000, 1490868241
-0.075195312500, -0.937988281250, 0.384521484375, -3.984375000000, -0.078125000000, -4.023437500000, 1490868241
-0.075195312500, -0.937988281250, 0.384521484375, -3.984375000000, -0.078125000000, -4.023437500000, 1490868241
0.049560546875, -0.919433593750, 0.308837890625, -4.789062500000, -1.015625000000, -1.835937500000, 1490868241
0.049560546875, -0.919433593750, 0.308837890625, -4.789062500000, -1.015625000000, -1.835937500000, 1490868242
0.049560546875, -0.919433593750, 0.308837890625, -4.789062500000, -1.015625000000, -1.835937500000, 1490868242
-0.016845703125, -0.955810546875, 0.343261718750, 0.265625000000, -2.789062500000, -1.617187500000, 1490868242
-0.016845703125, -0.955810546875, 0.343261718750, 0.265625000000, -2.789062500000, -1.617187500000, 1490868242
-0.016845703125, -0.955810546875, 0.343261718750, 0.265625000000, -2.789062500000, -1.617187500000, 1490868242
-0.006835937500, -0.933105468750, 0.317871093750, -4.125000000000, 2.093750000000, -4.210937500000, 1490868242
-0.006835937500, -0.933105468750, 0.317871093750, -4.125000000000, 2.093750000000, -4.210937500000, 1490868242
-0.006835937500, -0.933105468750, 0.317871093750, -4.125000000000, 2.093750000000, -4.210937500000, 1490868242
-0.006835937500, -0.933105468750, 0.317871093750, -4.125000000000, 2.093750000000, -4.210937500000, 1490868242
0.080566406250, -0.956298828125, 0.232666015625, -4.281250000000, -0.656250000000, -4.367187500000, 1490868242
0.080566406250, -0.956298828125, 0.232666015625, -4.281250000000, -0.656250000000, -4.367187500000, 1490868242
0.080566406250, -0.956298828125, 0.232666015625, -4.281250000000, -0.656250000000, -4.367187500000, 1490868242
0.049560546875, -0.978027343750, 0.248779296875, -4.296875000000, -0.390625000000, -4.148437500000, 1490868242
0.049560546875, -0.978027343750, 0.248779296875, -4.296875000000, -0.390625000000, -4.148437500000, 1490868242
0.049560546875, -0.978027343750, 0.248779296875, -4.296875000000, -0.390625000000, -4.148437500000, 1490868242
-0.003906250000, -0.986816406250, 0.317626953125, 0.789062500000, 1.664062500000, -1.742187500000, 1490868242
-0.003906250000, -0.986816406250, 0.317626953125, 0.789062500000, 1.664062500000, -1.742187500000, 1490868242
-0.003906250000, -0.986816406250, 0.317626953125, 0.789062500000, 1.664062500000, -1.742187500000, 1490868242
-0.008544921875, -0.974853515625, 0.324707031250, -0.523437500000, 0.773437500000, -2.843750000000, 1490868242
-0.008544921875, -0.974853515625, 0.324707031250, -0.523437500000, 0.773437500000, -2.843750000000, 1490868242
-0.008544921875, -0.974853515625, 0.324707031250, -0.523437500000, 0.773437500000, -2.843750000000, 1490868242
-0.008544921875, -0.974853515625, 0.324707031250, -0.523437500000, 0.773437500000, -2.843750000000, 1490868242
0.062988281250, -0.951904296875, 0.386718750000, 0.914062500000, -0.460937500000, -2.289062500000, 1490868242
0.062988281250, -0.951904296875, 0.386718750000, 0.914062500000, -0.460937500000, -2.289062500000, 1490868242
0.062988281250, -0.951904296875, 0.386718750000, 0.914062500000, -0.460937500000, -2.289062500000, 1490868242
0.078369140625, -0.923828125000, 0.250732421875, -2.343750000000, -0.187500000000, 0.085937500000, 1490868242
0.017333984375, -1.016357421875, 0.386474609375, -0.851562500000, -0.757812500000, -1.710937500000, 1490868242
0.017333984375, -1.016357421875, 0.386474609375, -0.851562500000, -0.757812500000, -1.710937500000, 1490868242
0.017333984375, -1.016357421875, 0.386474609375, -0.851562500000, -0.757812500000, -1.710937500000, 1490868242
0.017333984375, -1.016357421875, 0.386474609375, -0.851562500000, -0.757812500000, -1.710937500000, 1490868242
0.080566406250, -0.957031250000, 0.322021484375, 0.570312500000, 0.296875000000, -1.421875000000, 1490868242
-0.006347656250, -0.929199218750, 0.324951171875, 0.570312500000, 0.296875000000, -1.421875000000, 1490868242
-0.006347656250, -0.929199218750, 0.324951171875, 0.570312500000, 0.296875000000, -1.421875000000, 1490868242
-0.006347656250, -0.929199218750, 0.324951171875, 0.570312500000, 0.296875000000, -1.421875000000, 1490868242
0.079589843750, -1.015380859375, 0.327148437500, 2.515625000000, 1.367187500000, 0.039062500000, 1490868242
0.079589843750, -1.015380859375, 0.327148437500, 2.515625000000, 1.367187500000, 0.039062500000, 1490868242
0.079589843750, -1.015380859375, 0.327148437500, 2.515625000000, 1.367187500000, 0.039062500000, 1490868242
0.079589843750, -1.015380859375, 0.327148437500, 2.515625000000, 1.367187500000, 0.039062500000, 1490868242
-0.002441406250, -1.017333984375, 0.286865234375, 1.687500000000, 1.125000000000, -4.609375000000, 1490868242
-0.002441406250, -1.017333984375, 0.286865234375, 1.687500000000, 1.125000000000, -4.609375000000, 1490868242
-0.002441406250, -1.017333984375, 0.286865234375, 1.687500000000, 1.125000000000, -4.609375000000, 1490868242
-0.024658203125, -1.071289062500, 0.254394531250, 3.406250000000, -2.820312500000, -1.234375000000, 1490868242
-0.024658203125, -1.071289062500, 0.254394531250, 3.406250000000, -2.820312500000, -1.234375000000, 1490868242
-0.024658203125, -1.071289062500, 0.254394531250, 3.406250000000, -2.820312500000, -1.234375000000, 1490868242
-0.068115234375, -0.915283203125, 0.332763671875, 6.656250000000, 0.632812500000, -2.398437500000, 1490868242
-0.068115234375, -0.915283203125, 0.332763671875, 6.656250000000, 0.632812500000, -2.398437500000, 1490868242
-0.068115234375, -0.915283203125, 0.332763671875, 6.656250000000, 0.632812500000, -2.398437500000, 1490868242
-0.068115234375, -0.915283203125, 0.332763671875, 6.656250000000, 0.632812500000, -2.398437500000, 1490868242
0.020263671875, -0.926757812500, 0.322998046875, 6.367187500000, -2.578125000000, -2.398437500000, 1490868242
0.020263671875, -0.926757812500, 0.322998046875, 6.367187500000, -2.578125000000, -2.398437500000, 1490868242
0.020263671875, -0.926757812500, 0.322998046875, 6.367187500000, -2.578125000000, -2.398437500000, 1490868242
0.068847656250, -1.069824218750, 0.250732421875, 3.882812500000, -2.710937500000, -3.429687500000, 1490868242
0.068847656250, -1.069824218750, 0.250732421875, 3.882812500000, -2.710937500000, -3.429687500000, 1490868242
0.068847656250, -1.069824218750, 0.250732421875, 3.882812500000, -2.710937500000, -3.429687500000, 1490868242
-0.023925781250, -0.966796875000, 0.319580078125, 4.265625000000, -4.507812500000, -4.343750000000, 1490868242
-0.023925781250, -0.966796875000, 0.319580078125, 4.265625000000, -4.507812500000, -4.343750000000, 1490868242
-0.025146484375, -0.908447265625, 0.285644531250, 6.890625000000, -3.148437500000, -3.921875000000, 1490868242
-0.025146484375, -0.908447265625, 0.285644531250, 6.890625000000, -3.148437500000, -3.921875000000, 1490868242
-0.025146484375, -0.908447265625, 0.285644531250, 6.890625000000, -3.148437500000, -3.921875000000, 1490868242
-0.025146484375, -0.908447265625, 0.285644531250, 6.890625000000, -3.148437500000, -3.921875000000, 1490868242
-0.025146484375, -0.908447265625, 0.285644531250, 6.890625000000, -3.148437500000, -3.921875000000, 1490868242
-0.016601562500, -1.008056640625, 0.282226562500, 8.085937500000, -2.187500000000, -1.140625000000, 1490868242
-0.016601562500, -1.008056640625, 0.282226562500, 8.085937500000, -2.187500000000, -1.140625000000, 1490868242
-0.016601562500, -1.008056640625, 0.282226562500, 8.085937500000, -2.187500000000, -1.140625000000, 1490868242
-0.004638671875, -1.006591796875, 0.242431640625, 7.820312500000, -4.796875000000, -2.039062500000, 1490868242
-0.004638671875, -1.006591796875, 0.242431640625, 7.820312500000, -4.796875000000, -2.039062500000, 1490868242
-0.004638671875, -1.006591796875, 0.242431640625, 7.820312500000, -4.796875000000, -2.039062500000, 1490868242
-0.063964843750, -1.001220703125, 0.235839843750, 7.968750000000, -3.742187500000, -1.437500000000, 1490868243
-0.063964843750, -1.001220703125, 0.235839843750, 7.968750000000, -3.742187500000, -1.437500000000, 1490868243
-0.063964843750, -1.001220703125, 0.235839843750, 7.968750000000, -3.742187500000, -1.437500000000, 1490868243
0.081054687500, -0.801269531250, 0.320556640625, 14.101562500000, -1.601562500000, -1.164062500000, 1490868243
0.081054687500, -0.801269531250, 0.320556640625, 14.101562500000, -1.601562500000, -1.164062500000, 1490868243
0.081054687500, -0.801269531250, 0.320556640625, 14.101562500000, -1.601562500000, -1.164062500000, 1490868243
0.081054687500, -0.801269531250, 0.320556640625, 14.101562500000, -1.601562500000, -1.164062500000, 1490868243
0.088867187500, -0.953613281250, 0.279541015625, 16.382812500000, -3.250000000000, 0.812500000000, 1490868243
0.088867187500, -0.953613281250, 0.279541015625, 16.382812500000, -3.250000000000, 0.812500000000, 1490868243
0.088867187500, -0.953613281250, 0.279541015625, 16.382812500000, -3.250000000000, 0.812500000000, 1490868243
-0.010253906250, -0.910644531250, 0.275878906250, 17.367187500000, -7.601562500000, 0.578125000000, 1490868243
-0.010253906250, -0.910644531250, 0.275878906250, 17.367187500000, -7.601562500000, 0.578125000000, 1490868243
-0.010253906250, -0.910644531250, 0.275878906250, 17.367187500000, -7.601562500000, 0.578125000000, 1490868243
0.085205078125, -1.010253906250, 0.124023437500, 32.671875000000, -1.414062500000, 10.023437500000, 1490868243
0.085205078125, -1.010253906250, 0.124023437500, 32.671875000000, -1.414062500000, 10.023437500000, 1490868243
0.085205078125, -1.010253906250, 0.124023437500, 32.671875000000, -1.414062500000, 10.023437500000, 1490868243
0.085205078125, -1.010253906250, 0.124023437500, 32.671875000000, -1.414062500000, 10.023437500000, 1490868243
0.013183593750, -0.862060546875, 0.148437500000, 37.382812500000, -14.242187500000, 10.078125000000, 1490868243
0.013183593750, -0.862060546875, 0.148437500000, 37.382812500000, -14.242187500000, 10.078125000000, 1490868243
0.013183593750, -0.862060546875, 0.148437500000, 37.382812500000, -14.242187500000, 10.078125000000, 1490868243
0.013183593750, -0.862060546875, 0.148437500000, 37.382812500000, -14.242187500000, 10.078125000000, 1490868243
0.013183593750, -0.862060546875, 0.148437500000, 37.382812500000, -14.242187500000, 10.078125000000, 1490868243
0.013183593750, -0.862060546875, 0.148437500000, 37.382812500000, -14.242187500000, 10.078125000000, 1490868243
0.095703125000, -0.852783203125, 0.103515625000, 47.570312500000, -15.937500000000, 7.960937500000, 1490868243
0.095703125000, -0.852783203125, 0.103515625000, 47.570312500000, -15.937500000000, 7.960937500000, 1490868243
0.095703125000, -0.852783203125, 0.103515625000, 47.570312500000, -15.937500000000, 7.960937500000, 1490868243
0.194580078125, -0.910400390625, 0.098144531250, 51.781250000000, -20.273437500000, 16.445312500000, 1490868243
-0.015869140625, -0.808837890625, -0.009277343750, 56.851562500000, -23.039062500000, 19.710937500000, 1490868243
-0.015869140625, -0.808837890625, -0.009277343750, 56.851562500000, -23.039062500000, 19.710937500000, 1490868243
0.146484375000, -0.723388671875, 0.130615234375, 57.875000000000, 16.070312500000, 34.804687500000, 1490868243
0.146484375000, -0.723388671875, 0.130615234375, 57.875000000000, 16.070312500000, 34.804687500000, 1490868243
0.146484375000, -0.723388671875, 0.130615234375, 57.875000000000, 16.070312500000, 34.804687500000, 1490868243
0.146484375000, -0.723388671875, 0.130615234375, 57.875000000000, 16.070312500000, 34.804687500000, 1490868243
0.146484375000, -0.723388671875, 0.130615234375, 57.875000000000, 16.070312500000, 34.804687500000, 1490868243
0.146484375000, -0.723388671875, 0.130615234375, 57.875000000000, 16.070312500000, 34.804687500000, 1490868243
0.146484375000, -0.723388671875, 0.130615234375, 57.875000000000, 16.070312500000, 34.804687500000, 1490868243
0.096191406250, -0.743408203125, -0.026123046875, 49.039062500000, 0.507812500000, 34.726562500000, 1490868243
0.055419921875, -0.532470703125, 0.048339843750, 64.132812500000, -40.664062500000, 46.687500000000, 1490868243
0.055419921875, -0.532470703125, 0.048339843750, 64.132812500000, -40.664062500000, 46.687500000000, 1490868243
0.044189453125, -0.484863281250, 0.126464843750, 84.000000000000, -22.242187500000, 35.921875000000, 1490868243
0.135009765625, -0.491210937500, 0.033935546875, 69.695312500000, -15.710937500000, 39.671875000000, 1490868243
0.135009765625, -0.491210937500, 0.033935546875, 69.695312500000, -15.710937500000, 39.671875000000, 1490868243
0.135009765625, -0.491210937500, 0.033935546875, 69.695312500000, -15.710937500000, 39.671875000000, 1490868243
0.040039062500, -0.476562500000, -0.010253906250, 33.812500000000, -36.703125000000, 21.023437500000, 1490868243
0.040039062500, -0.476562500000, -0.010253906250, 33.812500000000, -36.703125000000, 21.023437500000, 1490868243
0.040039062500, -0.476562500000, -0.010253906250, 33.812500000000, -36.703125000000, 21.023437500000, 1490868243
0.040039062500, -0.476562500000, -0.010253906250, 33.812500000000, -36.703125000000, 21.023437500000, 1490868243
0.069091796875, -0.373779296875, 0.062744140625, 22.992187500000, -63.039062500000, 10.226562500000, 1490868243
0.131347656250, -0.396728515625, -0.016601562500, 14.984375000000, -76.625000000000, 2.757812500000, 1490868243
0.131347656250, -0.396728515625, -0.016601562500, 14.984375000000, -76.625000000000, 2.757812500000, 1490868243
0.131347656250, -0.396728515625, -0.016601562500, 14.984375000000, -76.625000000000, 2.757812500000, 1490868243
0.131347656250, -0.396728515625, -0.016601562500, 14.984375000000, -76.625000000000, 2.757812500000, 1490868243
0.131347656250, -0.396728515625, -0.016601562500, 14.984375000000, -76.625000000000, 2.757812500000, 1490868243
0.131347656250, -0.396728515625, -0.016601562500, 14.984375000000, -76.625000000000, 2.757812500000, 1490868243
0.131347656250, -0.396728515625, -0.016601562500, 14.984375000000, -76.625000000000, 2.757812500000, 1490868243
0.008544921875, -0.372070312500, 0.014160156250, -60.773437500000, -92.226562500000, -75.687500000000, 1490868243
0.008544921875, -0.372070312500, 0.014160156250, -60.773437500000, -92.226562500000, -75.687500000000, 1490868243
0.008544921875, -0.372070312500, 0.014160156250, -60.773437500000, -92.226562500000, -75.687500000000, 1490868243
0.008544921875, -0.372070312500, 0.014160156250, -60.773437500000, -92.226562500000, -75.687500000000, 1490868243
-0.166503906250, -1.169189453125, -0.062988281250, -209.992187500000, -18.507812500000, -234.859375000000, 1490868243
-0.166503906250, -1.169189453125, -0.062988281250, -209.992187500000, -18.507812500000, -234.859375000000, 1490868243
-0.166503906250, -1.169189453125, -0.062988281250, -209.992187500000, -18.507812500000, -234.859375000000, 1490868243
-0.894042968750, -2.010986328125, 0.141357421875, -182.234375000000, -244.304687500000, -150.906250000000, 1490868243
-0.894042968750, -2.010986328125, 0.141357421875, -182.234375000000, -244.304687500000, -150.906250000000, 1490868243
-0.894042968750, -2.010986328125, 0.141357421875, -182.234375000000, -244.304687500000, -150.906250000000, 1490868243
-0.729980468750, -1.790771484375, 0.111572265625, -207.257812500000, -68.898437500000, -224.601562500000, 1490868244
-0.729980468750, -1.790771484375, 0.111572265625, -207.257812500000, -68.898437500000, -224.601562500000, 1490868244
-0.729980468750, -1.790771484375, 0.111572265625, -207.257812500000, -68.898437500000, -224.601562500000, 1490868244
-0.371337890625, -0.517822265625, 0.302978515625, 253.992187500000, 253.843750000000, 253.992187500000, 1490868244
-0.371337890625, -0.517822265625, 0.302978515625, 253.992187500000, 253.843750000000, 253.992187500000, 1490868244
-0.371337890625, -0.517822265625, 0.302978515625, 253.992187500000, 253.843750000000, 253.992187500000, 1490868244
-0.371337890625, -0.517822265625, 0.302978515625, 253.992187500000, 253.843750000000, 253.992187500000, 1490868244
0.142089843750, 0.140136718750, 0.013916015625, 253.992187500000, 167.898437500000, 253.992187500000, 1490868244
0.142089843750, 0.140136718750, 0.013916015625, 253.992187500000, 167.898437500000, 253.992187500000, 1490868244
0.142089843750, 0.140136718750, 0.013916015625, 253.992187500000, 167.898437500000, 253.992187500000, 1490868244
-0.296875000000, -0.240722656250, 0.731201171875, 71.867187500000, -256.000000000000, 203.445312500000, 1490868244
0.074707031250, -0.206054687500, 0.249511718750, 87.390625000000, -256.000000000000, 68.304687500000, 1490868244
0.074707031250, -0.206054687500, 0.249511718750, 87.390625000000, -256.000000000000, 68.304687500000, 1490868244
0.275878906250, 0.214111328125, -0.535888671875, -117.125000000000, 44.125000000000, -226.375000000000, 1490868244
0.275878906250, 0.214111328125, -0.535888671875, -117.125000000000, 44.125000000000, -226.375000000000, 1490868244
0.275878906250, 0.214111328125, -0.535888671875, -117.125000000000, 44.125000000000, -226.375000000000, 1490868244
0.275878906250, 0.214111328125, -0.535888671875, -107.437500000000, 58.132812500000, -175.734375000000, 1490868244
0.036865234375, -0.058105468750, 0.029785156250, -131.250000000000, -256.000000000000, -253.750000000000, 1490868244
0.036865234375, -0.058105468750, 0.029785156250, -131.250000000000, -256.000000000000, -253.750000000000, 1490868244
0.036865234375, -0.058105468750, 0.029785156250, -131.250000000000, -256.000000000000, -253.750000000000, 1490868244
0.036865234375, -0.058105468750, 0.029785156250, -131.250000000000, -256.000000000000, -253.750000000000, 1490868244
1.286376953125, 0.492187500000, -2.278076171875, -256.000000000000, -256.000000000000, -178.101562500000, 1490868244
1.286376953125, 0.492187500000, -2.278076171875, -256.000000000000, -256.000000000000, -178.101562500000, 1490868244
1.286376953125, 0.492187500000, -2.278076171875, -256.000000000000, -256.000000000000, -178.101562500000, 1490868244
1.286376953125, 0.492187500000, -2.278076171875, -256.000000000000, -256.000000000000, -178.101562500000, 1490868244
-0.089111328125, 0.020751953125, -0.112304687500, 94.007812500000, 8.968750000000, 59.125000000000, 1490868244
-0.089111328125, 0.020751953125, -0.112304687500, 94.007812500000, 8.968750000000, 59.125000000000, 1490868244
-0.089111328125, 0.020751953125, -0.112304687500, 94.007812500000, 8.968750000000, 59.125000000000, 1490868244
-0.089111328125, 0.020751953125, -0.112304687500, 94.007812500000, 8.968750000000, 59.125000000000, 1490868244
-1.025634765625, -0.388183593750, -2.591064453125, -23.148437500000, -14.234375000000, -76.843750000000, 1490868244
-1.025634765625, -0.388183593750, -2.591064453125, -23.148437500000, -14.234375000000, -76.843750000000, 1490868244
-1.025634765625, -0.388183593750, -2.591064453125, -23.148437500000, -14.234375000000, -76.843750000000, 1490868244
-1.025634765625, -0.388183593750, -2.591064453125, -23.148437500000, -14.234375000000, -76.843750000000, 1490868244
0.000488281250, 0.217529296875, -0.716552734375, -19.093750000000, -10.242187500000, -21.328125000000, 1490868244
0.000488281250, 0.217529296875, -0.716552734375, -19.093750000000, -10.242187500000, -21.328125000000, 1490868244
0.000488281250, 0.217529296875, -0.716552734375, -19.093750000000, -10.242187500000, -21.328125000000, 1490868244
-0.217529296875, 0.014892578125, -0.718017578125, 37.585937500000, 15.968750000000, -13.507812500000, 1490868244
-0.217529296875, 0.014892578125, -0.718017578125, 37.585937500000, 15.968750000000, -13.507812500000, 1490868244
-0.217529296875, 0.014892578125, -0.718017578125, 37.585937500000, 15.968750000000, -13.507812500000, 1490868244
-0.038085937500, -0.011718750000, -0.973388671875, -0.601562500000, 5.492187500000, -3.687500000000, 1490868244
-0.038085937500, -0.011718750000, -0.973388671875, -0.601562500000, 5.492187500000, -3.687500000000, 1490868244
-0.038085937500, -0.011718750000, -0.973388671875, -0.601562500000, 5.492187500000, -3.687500000000, 1490868244
-0.204101562500, -0.096679687500, -0.739746093750, -11.242187500000, 6.171875000000, 8.218750000000, 1490868244
-0.204101562500, -0.096679687500, -0.739746093750, -11.242187500000, 6.171875000000, 8.218750000000, 1490868244
-0.204101562500, -0.096679687500, -0.739746093750, -11.242187500000, 6.171875000000, 8.218750000000, 1490868244
-0.204101562500, -0.096679687500, -0.739746093750, -11.242187500000, 6.171875000000, 8.218750000000, 1490868244
0.006347656250, -0.059082031250, -1.003173828125, -0.992187500000, 11.562500000000, 1.210937500000, 1490868244
0.006347656250, -0.059082031250, -1.003173828125, -0.992187500000, 11.562500000000, 1.210937500000, 1490868244
0.006347656250, -0.059082031250, -1.003173828125, -0.992187500000, 11.562500000000, 1.210937500000, 1490868244
-0.149414062500, 0.021728515625, -1.015869140625, 7.609375000000, 8.171875000000, 10.359375000000, 1490868244
-0.149414062500, 0.021728515625, -1.015869140625, 7.609375000000, 8.171875000000, 10.359375000000, 1490868244
-0.149414062500, 0.021728515625, -1.015869140625, 7.609375000000, 8.171875000000, 10.359375000000, 1490868244
-0.088134765625, -0.141113281250, -0.895751953125, 14.039062500000, -1.507812500000, 27.718750000000, 1490868244
-0.088134765625, -0.141113281250, -0.895751953125, 14.039062500000, -1.507812500000, 27.718750000000, 1490868244
-0.088134765625, -0.141113281250, -0.895751953125, 14.039062500000, -1.507812500000, 27.718750000000, 1490868244
-0.125244140625, -0.064208984375, -1.072998046875, 18.835937500000, 12.414062500000, 26.578125000000, 1490868244
-0.125244140625, -0.064208984375, -1.072998046875, 18.835937500000, 12.414062500000, 26.578125000000, 1490868244
-0.125244140625, -0.064208984375, -1.072998046875, 18.835937500000, 12.414062500000, 26.578125000000, 1490868244
-0.125244140625, -0.064208984375, -1.072998046875, 18.835937500000, 12.414062500000, 26.578125000000, 1490868244
-0.052978515625, -0.083496093750, -1.001464843750, -4.304687500000, -2.851562500000, 27.359375000000, 1490868244
-0.052978515625, -0.083496093750, -1.001464843750, -4.304687500000, -2.851562500000, 27.359375000000, 1490868244
-0.052978515625, -0.083496093750, -1.001464843750, -4.304687500000, -2.851562500000, 27.359375000000, 1490868244
-0.139648437500, 0.020019531250, -0.977783203125, -4.148437500000, 2.968750000000, 1.570312500000, 1490868244
-0.139648437500, 0.020019531250, -0.977783203125, -4.148437500000, 2.968750000000, 1.570312500000, 1490868244
-0.139648437500, 0.020019531250, -0.977783203125, -4.148437500000, 2.968750000000, 1.570312500000, 1490868244
-0.118896484375, 0.067138671875, -0.951416015625, -4.890625000000, -0.843750000000, -0.500000000000, 1490868244
-0.118896484375, 0.067138671875, -0.951416015625, -4.890625000000, -0.843750000000, -0.500000000000, 1490868244
-0.118896484375, 0.067138671875, -0.951416015625, -4.890625000000, -0.843750000000, -0.500000000000, 1490868244
-0.043701171875, -0.016845703125, -1.001708984375, 2.023437500000, 3.703125000000, 1.906250000000, 1490868245
-0.043701171875, -0.016845703125, -1.001708984375, 2.023437500000, 3.703125000000, 1.906250000000, 1490868245
-0.043701171875, -0.016845703125, -1.001708984375, 2.023437500000, 3.703125000000, 1.906250000000, 1490868245
-0.043701171875, -0.016845703125, -1.001708984375, 2.023437500000, 3.703125000000, 1.906250000000, 1490868245
-0.083007812500, -0.051025390625, -0.997802734375, -10.367187500000, -7.562500000000, 2.179687500000, 1490868245
-0.083007812500, -0.051025390625, -0.997802734375, -10.367187500000, -7.562500000000, 2.179687500000, 1490868245
-0.083007812500, -0.051025390625, -0.997802734375, -10.367187500000, -7.562500000000, 2.179687500000, 1490868245
-0.207275390625, 0.016357421875, -0.981689453125, -4.976562500000, 2.296875000000, -4.171875000000, 1490868245
-0.207275390625, 0.016357421875, -0.981689453125, -4.976562500000, 2.296875000000, -4.171875000000, 1490868245
-0.207275390625, 0.016357421875, -0.981689453125, -4.976562500000, 2.296875000000, -4.171875000000, 1490868245
-0.120117187500, -0.090087890625, -1.022705078125, -4.101562500000, 0.132812500000, -1.265625000000, 1490868245
-0.120117187500, -0.090087890625, -1.022705078125, -4.101562500000, 0.132812500000, -1.265625000000, 1490868245
-0.120117187500, -0.090087890625, -1.022705078125, -4.101562500000, 0.132812500000, -1.265625000000, 1490868245
-0.149169921875, -0.128662109375, -0.973632812500, -4.531250000000, -2.828125000000, -2.828125000000, 1490868245
-0.149169921875, -0.128662109375, -0.973632812500, -4.531250000000, -2.828125000000, -2.828125000000, 1490868245
-0.149169921875, -0.128662109375, -0.973632812500, -4.531250000000, -2.828125000000, -2.828125000000, 1490868245
-0.149169921875, -0.128662109375, -0.973632812500, -4.531250000000, -2.828125000000, -2.828125000000, 1490868245
-0.053955078125, 0.022949218750, -0.923339843750, -2.101562500000, 0.906250000000, -3.289062500000, 1490868245
-0.053955078125, 0.022949218750, -0.923339843750, -2.101562500000, 0.906250000000, -3.289062500000, 1490868245
-0.053955078125, 0.022949218750, -0.923339843750, -2.101562500000, 0.906250000000, -3.289062500000, 1490868245
-0.082275390625, -0.002441406250, -1.025878906250, -4.500000000000, 0.070312500000, -1.773437500000, 1490868245
-0.082275390625, -0.002441406250, -1.025878906250, -4.500000000000, 0.070312500000, -1.773437500000, 1490868245
-0.082275390625, -0.002441406250, -1.025878906250, -4.500000000000, 0.070312500000, -1.773437500000, 1490868245
-0.205566406250, -0.011718750000, -0.921875000000, -3.382812500000, -0.382812500000, -3.101562500000, 1490868245
-0.205566406250, -0.011718750000, -0.921875000000, -3.382812500000, -0.382812500000, -3.101562500000, 1490868245
-0.205566406250, -0.011718750000, -0.921875000000, -3.382812500000, -0.382812500000, -3.101562500000, 1490868245
-0.144042968750, -0.046142578125, -0.975830078125, -6.937500000000, -0.695312500000, -4.273437500000, 1490868245
-0.144042968750, -0.046142578125, -0.975830078125, -6.937500000000, -0.695312500000, -4.273437500000, 1490868245
-0.144042968750, -0.046142578125, -0.975830078125, -6.937500000000, -0.695312500000, -4.273437500000, 1490868245
-0.144042968750, -0.046142578125, -0.975830078125, -6.937500000000, -0.695312500000, -4.273437500000, 1490868245
-0.130126953125, -0.067138671875, -0.983398437500, -4.296875000000, 1.109375000000, -2.304687500000, 1490868245
-0.130126953125, -0.067138671875, -0.983398437500, -4.296875000000, 1.109375000000, -2.304687500000, 1490868245
-0.130126953125, -0.067138671875, -0.983398437500, -4.296875000000, 1.109375000000, -2.304687500000, 1490868245
-0.063964843750, -0.022216796875, -0.936767578125, -4.460937500000, -0.812500000000, -1.960937500000, 1490868245
-0.063964843750, -0.022216796875, -0.936767578125, -4.460937500000, -0.812500000000, -1.960937500000, 1490868245
-0.063964843750, -0.022216796875, -0.936767578125, -4.460937500000, -0.812500000000, -1.960937500000, 1490868245
-0.052246093750, -0.025146484375, -1.000976562500, -5.281250000000, -4.148437500000, -2.203125000000, 1490868245
-0.052246093750, -0.025146484375, -1.000976562500, -5.281250000000, -4.148437500000, -2.203125000000, 1490868245
-0.052246093750, -0.025146484375, -1.000976562500, -5.281250000000, -4.148437500000, -2.203125000000, 1490868245
-0.051025390625, -0.064697265625, -0.936035156250, -3.132812500000, -2.085937500000, -3.359375000000, 1490868245
-0.051025390625, -0.064697265625, -0.936035156250, -3.132812500000, -2.085937500000, -3.359375000000, 1490868245
-0.109619140625, -0.021240234375, -1.004394531250, -3.125000000000, -2.343750000000, -1.625000000000, 1490868245
-0.109619140625, -0.021240234375, -1.004394531250, -3.125000000000, -2.343750000000, -1.625000000000, 1490868245
-0.109619140625, -0.021240234375, -1.004394531250, -3.125000000000, -2.343750000000, -1.625000000000, 1490868245
-0.109619140625, -0.021240234375, -1.004394531250, -3.125000000000, -2.343750000000, -1.625000000000, 1490868245
0.009765625000, 0.025390625000, -0.910644531250, -6.796875000000, -1.335937500000, -3.179687500000, 1490868245
-0.042236328125, 0.081542968750, -1.019775390625, -3.945312500000, -2.593750000000, -2.789062500000, 1490868245
-0.042236328125, 0.081542968750, -1.019775390625, -3.945312500000, -2.593750000000, -2.789062500000, 1490868245
-0.042236328125, 0.081542968750, -1.019775390625, -3.945312500000, -2.593750000000, -2.789062500000, 1490868245
-0.104736328125, -0.011962890625, -0.960693359375, -8.593750000000, -4.726562500000, -1.875000000000, 1490868245
-0.104736328125, -0.011962890625, -0.960693359375, -8.593750000000, -4.726562500000, -1.875000000000, 1490868245
-0.104736328125, -0.011962890625, -0.960693359375, -8.593750000000, -4.726562500000, -1.875000000000, 1490868245
-0.033691406250, 0.014648437500, -0.874511718750, -3.632812500000, -2.085937500000, -1.023437500000, 1490868245
-0.033691406250, 0.014648437500, -0.874511718750, -3.632812500000, -2.085937500000, -1.023437500000, 1490868245
-0.033691406250, 0.014648437500, -0.874511718750, -3.632812500000, -2.085937500000, -1.023437500000, 1490868245
-0.033691406250, 0.014648437500, -0.874511718750, -3.632812500000, -2.085937500000, -1.023437500000, 1490868245
-0.049560546875, 0.017822265625, -1.020019531250, -8.656250000000, -4.679687500000, -4.367187500000, 1490868245
-0.049560546875, 0.017822265625, -1.020019531250, -8.656250000000, -4.679687500000, -4.367187500000, 1490868245
-0.049560546875, 0.017822265625, -1.020019531250, -8.656250000000, -4.679687500000, -4.367187500000, 1490868245
-0.094238281250, -0.045166015625, -0.986816406250, -5.757812500000, 0.773437500000, -4.539062500000, 1490868245
-0.094238281250, -0.045166015625, -0.986816406250, -5.757812500000, 0.773437500000, -4.539062500000, 1490868245
-0.094238281250, -0.045166015625, -0.986816406250, -5.757812500000, 0.773437500000, -4.539062500000, 1490868245
-0.066650390625, -0.039794921875, -1.006347656250, -3.453125000000, -0.820312500000, -1.703125000000, 1490868245
-0.066650390625, -0.039794921875, -1.006347656250, -3.453125000000, -0.820312500000, -1.703125000000, 1490868245
-0.066650390625, -0.039794921875, -1.006347656250, -3.453125000000, -0.820312500000, -1.703125000000, 1490868245
-0.057373046875, 0.073730468750, -1.062500000000, -4.890625000000, -3.023437500000, -1.320312500000, 1490868245
-0.057373046875, 0.073730468750, -1.062500000000, -4.890625000000, -3.023437500000, -1.320312500000, 1490868245
-0.057373046875, 0.073730468750, -1.062500000000, -4.890625000000, -3.023437500000, -1.320312500000, 1490868246
-0.057373046875, 0.073730468750, -1.062500000000, -4.890625000000, -3.023437500000, -1.320312500000, 1490868246
-0.134033203125, 0.029296875000, -0.936523437500, -4.007812500000, -2.140625000000, -4.523437500000, 1490868246
-0.134033203125, 0.029296875000, -0.936523437500, -4.007812500000, -2.140625000000, -4.523437500000, 1490868246
-0.134033203125, 0.029296875000, -0.936523437500, -4.007812500000, -2.140625000000, -4.523437500000, 1490868246
-0.151367187500, -0.071289062500, -0.976562500000, -3.234375000000, -0.359375000000, -3.398437500000, 1490868246
-0.151367187500, -0.071289062500, -0.976562500000, -3.234375000000, -0.359375000000, -3.398437500000, 1490868246
-0.151367187500, -0.071289062500, -0.976562500000, -3.234375000000, -0.359375000000, -3.398437500000, 1490868246
-0.053466796875, 0.030273437500, -0.975097656250, -3.320312500000, 2.507812500000, -4.890625000000, 1490868246
0.022216796875, -0.082275390625, -0.922851562500, -4.085937500000, 0.593750000000, -4.304687500000, 1490868246
0.022216796875, -0.082275390625, -0.922851562500, -4.085937500000, 0.593750000000, -4.304687500000, 1490868246
-0.140136718750, -0.035400390625, -0.952880859375, -1.898437500000, -0.109375000000, -1.687500000000, 1490868246
-0.140136718750, -0.035400390625, -0.952880859375, -1.898437500000, -0.109375000000, -1.687500000000, 1490868246
-0.140136718750, -0.035400390625, -0.952880859375, -1.898437500000, -0.109375000000, -1.687500000000, 1490868246
-0.140136718750, -0.035400390625, -0.952880859375, -1.898437500000, -0.109375000000, -1.687500000000, 1490868246
-0.135498046875, 0.024658203125, -1.016113281250, -3.562500000000, -0.421875000000, -1.046875000000, 1490868246
-0.135498046875, 0.024658203125, -1.016113281250, -3.562500000000, -0.421875000000, -1.046875000000, 1490868246
-0.135498046875, 0.024658203125, -1.016113281250, -3.562500000000, -0.421875000000, -1.046875000000, 1490868246
-0.131835937500, -0.140380859375, -1.015869140625, -1.960937500000, -2.273437500000, -2.664062500000, 1490868246
-0.112060546875, -0.042968750000, -0.965332031250, -4.367187500000, -2.007812500000, -6.062500000000, 1490868246
-0.112060546875, -0.042968750000, -0.965332031250, -4.367187500000, -2.007812500000, -6.062500000000, 1490868246
-0.112060546875, -0.042968750000, -0.965332031250, -4.367187500000, -2.007812500000, -6.062500000000, 1490868246
-0.112060546875, -0.042968750000, -0.965332031250, -4.367187500000, -2.007812500000, -6.062500000000, 1490868246
-0.112060546875, -0.042968750000, -0.965332031250, -4.367187500000, -2.007812500000, -6.062500000000, 1490868246
-0.145019531250, -0.051757812500, -1.002197265625, -6.054687500000, 0.625000000000, -3.828125000000, 1490868246
-0.145019531250, -0.051757812500, -1.002197265625, -6.054687500000, 0.625000000000, -3.828125000000, 1490868246
-0.145019531250, -0.051757812500, -1.002197265625, -6.054687500000, 0.625000000000, -3.828125000000, 1490868246
-0.145019531250, -0.051757812500, -1.002197265625, -6.054687500000, 0.625000000000, -3.828125000000, 1490868246
-0.038085937500, -0.065185546875, -1.007812500000, -4.796875000000, -0.578125000000, 0.109375000000, 1490868246
-0.038085937500, -0.065185546875, -1.007812500000, -4.796875000000, -0.578125000000, 0.109375000000, 1490868246
-0.038085937500, -0.065185546875, -1.007812500000, -4.796875000000, -0.578125000000, 0.109375000000, 1490868246
-0.059082031250, 0.025878906250, -0.913818359375, -3.984375000000, 2.859375000000, -4.179687500000, 1490868246
-0.059082031250, 0.025878906250, -0.913818359375, -3.984375000000, 2.859375000000, -4.179687500000, 1490868246
-0.059082031250, 0.025878906250, -0.913818359375, -3.984375000000, 2.859375000000, -4.179687500000, 1490868246
-0.088134765625, -0.072753906250, -0.969970703125, -3.421875000000, 0.171875000000, -4.046875000000, 1490868246
-0.088134765625, -0.072753906250, -0.969970703125, -3.421875000000, 0.171875000000, -4.046875000000, 1490868246
-0.088134765625, -0.072753906250, -0.969970703125, -3.421875000000, 0.171875000000, -4.046875000000, 1490868246
-0.031494140625, -0.012451171875, -0.933105468750, -1.937500000000, -0.164062500000, -1.757812500000, 1490868246
-0.031494140625, -0.012451171875, -0.933105468750, -1.937500000000, -0.164062500000, -1.757812500000, 1490868246
-0.031494140625, -0.012451171875, -0.933105468750, -1.937500000000, -0.164062500000, -1.757812500000, 1490868246
-0.031494140625, -0.012451171875, -0.933105468750, -1.937500000000, -0.164062500000, -1.757812500000, 1490868246
-0.130859375000, -0.085693359375, -0.912841796875, -1.796875000000, -0.976562500000, -1.796875000000, 1490868246
-0.130859375000, -0.085693359375, -0.912841796875, -1.796875000000, -0.976562500000, -1.796875000000, 1490868246
-0.130859375000, -0.085693359375, -0.912841796875, -1.796875000000, -0.976562500000, -1.796875000000, 1490868246
-0.128662109375, -0.024169921875, -0.919677734375, -4.289062500000, -0.914062500000, -4.539062500000, 1490868246
-0.128662109375, -0.024169921875, -0.919677734375, -4.289062500000, -0.914062500000, -4.539062500000, 1490868246
-0.128662109375, -0.024169921875, -0.919677734375, -4.289062500000, -0.914062500000, -4.539062500000, 1490868246
-0.045410156250, 0.002929687500, -0.914062500000, -4.875000000000, 0.781250000000, -4.718750000000, 1490868246
-0.045410156250, 0.002929687500, -0.914062500000, -4.875000000000, 0.781250000000, -4.718750000000, 1490868246
-0.045410156250, 0.002929687500, -0.914062500000, -4.875000000000, 0.781250000000, -4.718750000000, 1490868246
-0.050292968750, 0.001220703125, -1.085205078125, -3.351562500000, -0.335937500000, -3.390625000000, 1490868246
-0.050292968750, 0.001220703125, -1.085205078125, -3.351562500000, -0.335937500000, -3.390625000000, 1490868246
-0.050292968750, 0.001220703125, -1.085205078125, -3.351562500000, -0.335937500000, -3.390625000000, 1490868246
-0.050292968750, 0.001220703125, -1.085205078125, -3.351562500000, -0.335937500000, -3.390625000000, 1490868246
-0.062255859375, -0.142578125000, -1.009033203125, -1.687500000000, -0.140625000000, -4.687500000000, 1490868246
-0.062255859375, -0.142578125000, -1.009033203125, -1.687500000000, -0.140625000000, -4.687500000000, 1490868246
-0.062255859375, -0.142578125000, -1.009033203125, -1.687500000000, -0.140625000000, -4.687500000000, 1490868246
0.008056640625, -0.006347656250, -1.093017578125, -4.820312500000, -2.773437500000, -4.125000000000, 1490868246
0.008056640625, -0.006347656250, -1.093017578125, -4.820312500000, -2.773437500000, -4.125000000000, 1490868246
0.008056640625, -0.006347656250, -1.093017578125, -4.820312500000, -2.773437500000, -4.125000000000, 1490868246
-0.070068359375, 0.004638671875, -1.001708984375, -1.859375000000, -0.960937500000, -1.250000000000, 1490868246
-0.070068359375, 0.004638671875, -1.001708984375, -1.859375000000, -0.960937500000, -1.250000000000, 1490868246
-0.070068359375, 0.004638671875, -1.001708984375, -1.859375000000, -0.960937500000, -1.250000000000, 1490868246
-0.043701171875, -0.058105468750, -1.030517578125, -4.304687500000, -0.070312500000, -2.867187500000, 1490868246
-0.043701171875, -0.058105468750, -1.030517578125, -4.304687500000, -0.070312500000, -2.867187500000, 1490868246
-0.043701171875, -0.058105468750, -1.030517578125, -4.304687500000, -0.070312500000, -2.867187500000, 1490868246
-0.043701171875, -0.058105468750, -1.030517578125, -4.304687500000, -0.070312500000, -2.867187500000, 1490868247
-0.045898437500, -0.012451171875, -0.857421875000, -4.960937500000, -0.554687500000, -3.687500000000, 1490868247
-0.045898437500, -0.012451171875, -0.857421875000, -4.960937500000, -0.554687500000, -3.687500000000, 1490868247
-0.045898437500, -0.012451171875, -0.857421875000, -4.960937500000, -0.554687500000, -3.687500000000, 1490868247
-0.033447265625, -0.077636718750, -0.967529296875, -4.500000000000, -0.796875000000, -1.468750000000, 1490868247
-0.033447265625, -0.077636718750, -0.967529296875, -4.500000000000, -0.796875000000, -1.468750000000, 1490868247
-0.033447265625, -0.077636718750, -0.967529296875, -4.500000000000, -0.796875000000, -1.468750000000, 1490868247
-0.056640625000, -0.051025390625, -0.993408203125, -6.507812500000, 0.382812500000, -3.039062500000, 1490868247
-0.056640625000, -0.051025390625, -0.993408203125, -6.507812500000, 0.382812500000, -3.039062500000, 1490868247
-0.056640625000, -0.051025390625, -0.993408203125, -6.507812500000, 0.382812500000, -3.039062500000, 1490868247
