ACC_X,ACC_Y,ACC_Z,G_X,G_Y,G_Z,Unix Time
0.144287109375, -1.106933593750, 0.172851562500, -50.789062500000, -23.085937500000, 22.820312500000, 1490952186
0.144287109375, -1.106933593750, 0.172851562500, -50.789062500000, -23.085937500000, 22.820312500000, 1490952186
0.144287109375, -1.106933593750, 0.172851562500, -50.789062500000, -23.085937500000, 22.820312500000, 1490952186
-0.049072265625, -1.210937500000, 0.327636718750, 27.851562500000, 9.890625000000, 6.968750000000, 1490952186
-0.049072265625, -1.210937500000, 0.327636718750, 27.851562500000, 9.890625000000, 6.968750000000, 1490952186
-0.049072265625, -1.210937500000, 0.327636718750, 27.851562500000, 9.890625000000, 6.968750000000, 1490952186
0.141357421875, -0.873535156250, 0.364013671875, 64.367187500000, 43.531250000000, -12.351562500000, 1490952186
0.141357421875, -0.873535156250, 0.364013671875, 64.367187500000, 43.531250000000, -12.351562500000, 1490952186
-0.001220703125, -0.873291015625, 0.400878906250, -4.484375000000, 6.156250000000, 1.609375000000, 1490952186
0.009521484375, -0.957763671875, 0.340332031250, -20.828125000000, 10.289062500000, -1.703125000000, 1490952186
0.009521484375, -0.957763671875, 0.340332031250, -20.828125000000, 10.289062500000, -1.703125000000, 1490952186
0.009521484375, -0.957763671875, 0.340332031250, -20.828125000000, 10.289062500000, -1.703125000000, 1490952186
0.009521484375, -0.957763671875, 0.340332031250, -20.828125000000, 10.289062500000, -1.703125000000, 1490952186
0.195556640625, -0.912841796875, 0.243164062500, -32.609375000000, -11.320312500000, -4.804687500000, 1490952186
0.195556640625, -0.912841796875, 0.243164062500, -32.609375000000, -11.320312500000, -4.804687500000, 1490952186
0.195556640625, -0.912841796875, 0.243164062500, -32.609375000000, -11.320312500000, -4.804687500000, 1490952186
0.179931640625, -0.917968750000, 0.334960937500, 5.093750000000, -13.968750000000, -3.937500000000, 1490952186
0.179931640625, -0.917968750000, 0.334960937500, 5.093750000000, -13.968750000000, -3.937500000000, 1490952186
0.179931640625, -0.917968750000, 0.334960937500, 5.093750000000, -13.968750000000, -3.937500000000, 1490952186
0.209228515625, -1.024414062500, 0.383056640625, 20.640625000000, -14.117187500000, -2.242187500000, 1490952186
0.209228515625, -1.024414062500, 0.383056640625, 20.640625000000, -14.117187500000, -2.242187500000, 1490952186
0.209228515625, -1.024414062500, 0.383056640625, 20.640625000000, -14.117187500000, -2.242187500000, 1490952186
0.049560546875, -1.006591796875, 0.381835937500, 5.117187500000, -7.562500000000, -9.000000000000, 1490952186
0.049560546875, -1.006591796875, 0.381835937500, 5.117187500000, -7.562500000000, -9.000000000000, 1490952186
0.049560546875, -1.006591796875, 0.381835937500, 5.117187500000, -7.562500000000, -9.000000000000, 1490952186
0.049560546875, -1.006591796875, 0.381835937500, 5.117187500000, -7.562500000000, -9.000000000000, 1490952186
0.138671875000, -0.871582031250, 0.439941406250, 8.648437500000, -6.351562500000, -3.632812500000, 1490952186
0.138671875000, -0.871582031250, 0.439941406250, 8.648437500000, -6.351562500000, -3.632812500000, 1490952186
0.138671875000, -0.871582031250, 0.439941406250, 8.648437500000, -6.351562500000, -3.632812500000, 1490952186
0.140869140625, -0.924804687500, 0.308105468750, -4.875000000000, 6.437500000000, -8.562500000000, 1490952186
0.140869140625, -0.924804687500, 0.308105468750, -4.875000000000, 6.437500000000, -8.562500000000, 1490952186
0.140869140625, -0.924804687500, 0.308105468750, -4.875000000000, 6.437500000000, -8.562500000000, 1490952186
0.102050781250, -0.913085937500, 0.395996093750, 1.234375000000, -4.726562500000, -11.312500000000, 1490952186
0.102050781250, -0.913085937500, 0.395996093750, 1.234375000000, -4.726562500000, -11.312500000000, 1490952186
0.102050781250, -0.913085937500, 0.395996093750, 1.234375000000, -4.726562500000, -11.312500000000, 1490952186
0.102294921875, -0.882324218750, 0.403076171875, -9.476562500000, 5.171875000000, -10.179687500000, 1490952186
0.102294921875, -0.882324218750, 0.403076171875, -9.476562500000, 5.171875000000, -10.179687500000, 1490952186
0.102294921875, -0.882324218750, 0.403076171875, -9.476562500000, 5.171875000000, -10.179687500000, 1490952186
0.102294921875, -0.882324218750, 0.403076171875, -9.476562500000, 5.171875000000, -10.179687500000, 1490952186
0.084228515625, -1.074462890625, 0.359375000000, -35.476562500000, 5.187500000000, -12.882812500000, 1490952186
0.084228515625, -1.074462890625, 0.359375000000, -35.476562500000, 5.187500000000, -12.882812500000, 1490952186
0.084228515625, -1.074462890625, 0.359375000000, -35.476562500000, 5.187500000000, -12.882812500000, 1490952187
-0.025878906250, -1.022460937500, 0.386230468750, -35.890625000000, -27.898437500000, -5.687500000000, 1490952187
-0.071289062500, -0.900878906250, 0.260986328125, -15.507812500000, -11.585937500000, -8.437500000000, 1490952187
-0.056884765625, -0.727539062500, 0.201171875000, -17.898437500000, -9.109375000000, -18.531250000000, 1490952187
-0.056884765625, -0.727539062500, 0.201171875000, -17.898437500000, -9.109375000000, -18.531250000000, 1490952187
-0.056884765625, -0.727539062500, 0.201171875000, -17.898437500000, -9.109375000000, -18.531250000000, 1490952187
-0.056884765625, -0.727539062500, 0.201171875000, -17.898437500000, -9.109375000000, -18.531250000000, 1490952187
0.090576171875, -1.079833984375, 0.233398437500, -52.554687500000, -87.132812500000, -53.781250000000, 1490952187
0.090576171875, -1.079833984375, 0.233398437500, -52.554687500000, -87.132812500000, -53.781250000000, 1490952187
0.090576171875, -1.079833984375, 0.233398437500, -52.554687500000, -87.132812500000, -53.781250000000, 1490952187
0.090576171875, -1.079833984375, 0.233398437500, -52.554687500000, -87.132812500000, -53.781250000000, 1490952187
0.203125000000, -1.049804687500, 0.279296875000, 61.257812500000, 1.585937500000, -42.914062500000, 1490952187
0.203125000000, -1.049804687500, 0.279296875000, 61.257812500000, 1.585937500000, -42.914062500000, 1490952187
0.203125000000, -1.049804687500, 0.279296875000, 61.257812500000, 1.585937500000, -42.914062500000, 1490952187
0.220458984375, -0.962402343750, 0.446044921875, 53.039062500000, -30.914062500000, -0.906250000000, 1490952187
0.220458984375, -0.962402343750, 0.446044921875, 53.039062500000, -30.914062500000, -0.906250000000, 1490952187
0.220458984375, -0.962402343750, 0.446044921875, 53.039062500000, -30.914062500000, -0.906250000000, 1490952187
0.020996093750, -0.922119140625, 0.451171875000, 10.367187500000, 12.015625000000, 12.367187500000, 1490952187
0.020996093750, -0.922119140625, 0.451171875000, 10.367187500000, 12.015625000000, 12.367187500000, 1490952187
0.020996093750, -0.922119140625, 0.451171875000, 10.367187500000, 12.015625000000, 12.367187500000, 1490952187
0.093261718750, -0.959472656250, 0.341064453125, -30.718750000000, 10.578125000000, 4.007812500000, 1490952187
0.093261718750, -0.959472656250, 0.341064453125, -30.718750000000, 10.578125000000, 4.007812500000, 1490952187
0.093261718750, -0.959472656250, 0.341064453125, -30.718750000000, 10.578125000000, 4.007812500000, 1490952187
0.093261718750, -0.959472656250, 0.341064453125, -30.718750000000, 10.578125000000, 4.007812500000, 1490952187
-0.010742187500, -0.850341796875, 0.304931640625, -1.554687500000, 24.226562500000, -4.773437500000, 1490952187
-0.010742187500, -0.850341796875, 0.304931640625, -1.554687500000, 24.226562500000, -4.773437500000, 1490952187
-0.010742187500, -0.850341796875, 0.304931640625, -1.554687500000, 24.226562500000, -4.773437500000, 1490952187
0.037109375000, -0.868896484375, 0.290771484375, 8.156250000000, 21.218750000000, -4.039062500000, 1490952187
0.037109375000, -0.868896484375, 0.290771484375, 8.156250000000, 21.218750000000, -4.039062500000, 1490952187
0.037109375000, -0.868896484375, 0.290771484375, 8.156250000000, 21.218750000000, -4.039062500000, 1490952187
-0.064697265625, -0.824218750000, 0.239990234375, -3.117187500000, 21.484375000000, 12.726562500000, 1490952187
-0.064697265625, -0.824218750000, 0.239990234375, -3.117187500000, 21.484375000000, 12.726562500000, 1490952187
-0.064697265625, -0.824218750000, 0.239990234375, -3.117187500000, 21.484375000000, 12.726562500000, 1490952187
0.011962890625, -0.964843750000, 0.373291015625, -4.062500000000, 13.554687500000, 7.476562500000, 1490952187
0.011962890625, -0.964843750000, 0.373291015625, -4.062500000000, 13.554687500000, 7.476562500000, 1490952187
0.011962890625, -0.964843750000, 0.373291015625, -4.062500000000, 13.554687500000, 7.476562500000, 1490952187
0.011962890625, -0.964843750000, 0.373291015625, -6.445312500000, 11.218750000000, 5.609375000000, 1490952187
-0.030761718750, -1.065673828125, 0.476562500000, -22.914062500000, 8.007812500000, 5.570312500000, 1490952187
-0.030761718750, -1.065673828125, 0.476562500000, -22.914062500000, 8.007812500000, 5.570312500000, 1490952187
-0.030761718750, -1.065673828125, 0.476562500000, -22.914062500000, 8.007812500000, 5.570312500000, 1490952187
0.155029296875, -1.197509765625, 0.438964843750, -38.867187500000, -0.750000000000, 12.734375000000, 1490952187
0.155029296875, -1.197509765625, 0.438964843750, -38.867187500000, -0.750000000000, 12.734375000000, 1490952187
0.155029296875, -1.197509765625, 0.438964843750, -38.867187500000, -0.750000000000, 12.734375000000, 1490952187
0.033935546875, -0.851074218750, 0.399658203125, -27.148437500000, -18.242187500000, 12.164062500000, 1490952187
0.033935546875, -0.851074218750, 0.399658203125, -27.148437500000, -18.242187500000, 12.164062500000, 1490952187
0.033935546875, -0.851074218750, 0.399658203125, -27.148437500000, -18.242187500000, 12.164062500000, 1490952187
0.151611328125, -0.561035156250, 0.172363281250, -32.062500000000, 7.671875000000, -5.679687500000, 1490952187
0.151611328125, -0.561035156250, 0.172363281250, -32.062500000000, 7.671875000000, -5.679687500000, 1490952187
0.151611328125, -0.561035156250, 0.172363281250, -32.062500000000, 7.671875000000, -5.679687500000, 1490952187
0.151611328125, -0.561035156250, 0.172363281250, -32.062500000000, 7.671875000000, -5.679687500000, 1490952187
0.082519531250, -0.936767578125, 0.177734375000, -53.695312500000, -50.968750000000, -15.289062500000, 1490952187
0.082519531250, -0.936767578125, 0.177734375000, -53.695312500000, -50.968750000000, -15.289062500000, 1490952187
0.082519531250, -0.936767578125, 0.177734375000, -53.695312500000, -50.968750000000, -15.289062500000, 1490952187
0.072021484375, -1.066162109375, 0.338867187500, 2.195312500000, -14.312500000000, -15.273437500000, 1490952187
0.072021484375, -1.066162109375, 0.338867187500, 2.195312500000, -14.312500000000, -15.273437500000, 1490952187
0.072021484375, -1.066162109375, 0.338867187500, 2.195312500000, -14.312500000000, -15.273437500000, 1490952187
0.124267578125, -1.128173828125, 0.378662109375, 54.078125000000, 19.585937500000, -30.195312500000, 1490952187
0.124267578125, -1.128173828125, 0.378662109375, 54.078125000000, 19.585937500000, -30.195312500000, 1490952187
0.124267578125, -1.128173828125, 0.378662109375, 54.078125000000, 19.585937500000, -30.195312500000, 1490952187
0.024902343750, -0.948730468750, 0.505126953125, 13.945312500000, 18.875000000000, -18.984375000000, 1490952187
0.024902343750, -0.948730468750, 0.505126953125, 13.945312500000, 18.875000000000, -18.984375000000, 1490952187
0.024902343750, -0.948730468750, 0.505126953125, 13.945312500000, 18.875000000000, -18.984375000000, 1490952187
0.024902343750, -0.948730468750, 0.505126953125, 13.945312500000, 18.875000000000, -18.984375000000, 1490952187
0.148925781250, -0.921875000000, 0.368164062500, -12.703125000000, 19.648437500000, -17.242187500000, 1490952187
0.148925781250, -0.921875000000, 0.368164062500, -12.703125000000, 19.648437500000, -17.242187500000, 1490952187
0.148925781250, -0.921875000000, 0.368164062500, -12.703125000000, 19.648437500000, -17.242187500000, 1490952187
0.031982421875, -0.965820312500, 0.376220703125, 12.484375000000, 12.242187500000, -10.085937500000, 1490952187
0.031982421875, -0.965820312500, 0.376220703125, 12.484375000000, 12.242187500000, -10.085937500000, 1490952187
0.031982421875, -0.965820312500, 0.376220703125, 12.484375000000, 12.242187500000, -10.085937500000, 1490952188
0.089355468750, -0.931884765625, 0.352294921875, 32.734375000000, 10.453125000000, -2.710937500000, 1490952188
0.089355468750, -0.931884765625, 0.352294921875, 32.734375000000, 10.453125000000, -2.710937500000, 1490952188
0.089355468750, -0.931884765625, 0.352294921875, 32.734375000000, 10.453125000000, -2.710937500000, 1490952188
0.001220703125, -1.003173828125, 0.401611328125, 11.929687500000, 12.273437500000, -2.164062500000, 1490952188
0.001220703125, -1.003173828125, 0.401611328125, 11.929687500000, 12.273437500000, -2.164062500000, 1490952188
0.001220703125, -1.003173828125, 0.401611328125, 11.929687500000, 12.273437500000, -2.164062500000, 1490952188
0.001220703125, -1.003173828125, 0.401611328125, 11.929687500000, 12.273437500000, -2.164062500000, 1490952188
-0.126708984375, -1.001708984375, 0.343505859375, -2.234375000000, -3.117187500000, -4.226562500000, 1490952188
-0.126708984375, -1.001708984375, 0.343505859375, -2.234375000000, -3.117187500000, -4.226562500000, 1490952188
-0.126708984375, -1.001708984375, 0.343505859375, -2.234375000000, -3.117187500000, -4.226562500000, 1490952188
-0.027343750000, -0.907226562500, 0.328125000000, -8.921875000000, -13.945312500000, -6.796875000000, 1490952188
-0.027343750000, -0.907226562500, 0.328125000000, -8.921875000000, -13.945312500000, -6.796875000000, 1490952188
-0.027343750000, -0.907226562500, 0.328125000000, -8.921875000000, -13.945312500000, -6.796875000000, 1490952188
0.033935546875, -1.010498046875, 0.402099609375, 2.750000000000, -13.632812500000, -5.796875000000, 1490952188
0.033935546875, -1.010498046875, 0.402099609375, 2.750000000000, -13.632812500000, -5.796875000000, 1490952188
0.033935546875, -1.010498046875, 0.402099609375, 2.750000000000, -13.632812500000, -5.796875000000, 1490952188
-0.072998046875, -0.942138671875, 0.466064453125, -20.578125000000, -34.453125000000, -16.656250000000, 1490952188
-0.072998046875, -0.942138671875, 0.466064453125, -20.578125000000, -34.453125000000, -16.656250000000, 1490952188
-0.072998046875, -0.942138671875, 0.466064453125, -20.578125000000, -34.453125000000, -16.656250000000, 1490952188
-0.072998046875, -0.942138671875, 0.466064453125, -20.578125000000, -34.453125000000, -16.656250000000, 1490952188
-0.253662109375, -0.831054687500, 0.283691406250, -20.718750000000, -2.601562500000, -5.000000000000, 1490952188
-0.253662109375, -0.831054687500, 0.283691406250, -20.718750000000, -2.601562500000, -5.000000000000, 1490952188
-0.253662109375, -0.831054687500, 0.283691406250, -20.718750000000, -2.601562500000, -5.000000000000, 1490952188
-0.188964843750, -0.897705078125, 0.274414062500, -27.468750000000, -48.109375000000, -16.148437500000, 1490952188
-0.188964843750, -0.897705078125, 0.274414062500, -27.468750000000, -48.109375000000, -16.148437500000, 1490952188
-0.188964843750, -0.897705078125, 0.274414062500, -27.468750000000, -48.109375000000, -16.148437500000, 1490952188
-0.082275390625, -1.025634765625, 0.274414062500, -46.734375000000, -56.093750000000, -30.187500000000, 1490952188
-0.082275390625, -1.025634765625, 0.274414062500, -46.734375000000, -56.093750000000, -30.187500000000, 1490952188
-0.082275390625, -1.025634765625, 0.274414062500, -46.734375000000, -56.093750000000, -30.187500000000, 1490952188
0.102294921875, -1.201416015625, 0.396972656250, 24.289062500000, -22.171875000000, 2.812500000000, 1490952188
0.102294921875, -1.201416015625, 0.396972656250, 24.289062500000, -22.171875000000, 2.812500000000, 1490952188
0.102294921875, -1.201416015625, 0.396972656250, 24.289062500000, -22.171875000000, 2.812500000000, 1490952188
0.102294921875, -1.201416015625, 0.396972656250, 24.289062500000, -22.171875000000, 2.812500000000, 1490952188
-0.011718750000, -1.073730468750, 0.351562500000, 55.679687500000, -26.882812500000, 10.890625000000, 1490952188
-0.011718750000, -1.073730468750, 0.351562500000, 55.679687500000, -26.882812500000, 10.890625000000, 1490952188
-0.011718750000, -1.073730468750, 0.351562500000, 55.679687500000, -26.882812500000, 10.890625000000, 1490952188
0.028076171875, -0.846923828125, 0.440917968750, 24.328125000000, -21.281250000000, -5.765625000000, 1490952188
0.028076171875, -0.846923828125, 0.440917968750, 24.328125000000, -21.281250000000, -5.765625000000, 1490952188
0.028076171875, -0.846923828125, 0.440917968750, 24.328125000000, -21.281250000000, -5.765625000000, 1490952188
0.086914062500, -0.852783203125, 0.378417968750, -9.296875000000, -9.890625000000, -21.812500000000, 1490952188
0.086914062500, -0.852783203125, 0.378417968750, -9.296875000000, -9.890625000000, -21.812500000000, 1490952188
0.086914062500, -0.852783203125, 0.378417968750, -9.296875000000, -9.890625000000, -21.812500000000, 1490952188
0.086181640625, -0.955322265625, 0.221679687500, -0.218750000000, 6.796875000000, -25.109375000000, 1490952188
0.086181640625, -0.955322265625, 0.221679687500, -0.218750000000, 6.796875000000, -25.109375000000, 1490952188
0.086181640625, -0.955322265625, 0.221679687500, -0.218750000000, 6.796875000000, -25.109375000000, 1490952188
0.086181640625, -0.955322265625, 0.221679687500, -0.218750000000, 6.796875000000, -25.109375000000, 1490952188
-0.091064453125, -0.920654296875, 0.325927734375, 7.023437500000, 19.984375000000, -20.398437500000, 1490952188
-0.091064453125, -0.920654296875, 0.325927734375, 7.023437500000, 19.984375000000, -20.398437500000, 1490952188
-0.091064453125, -0.920654296875, 0.325927734375, 7.023437500000, 19.984375000000, -20.398437500000, 1490952188
0.027587890625, -0.891113281250, 0.321533203125, -16.531250000000, 36.679687500000, -8.000000000000, 1490952188
0.027587890625, -0.891113281250, 0.321533203125, -16.531250000000, 36.679687500000, -8.000000000000, 1490952188
0.027587890625, -0.891113281250, 0.321533203125, -16.531250000000, 36.679687500000, -8.000000000000, 1490952188
-0.110351562500, -0.916503906250, 0.343994140625, -21.914062500000, 38.664062500000, -0.507812500000, 1490952188
-0.110351562500, -0.916503906250, 0.343994140625, -21.914062500000, 38.664062500000, -0.507812500000, 1490952188
-0.110351562500, -0.916503906250, 0.343994140625, -21.914062500000, 38.664062500000, -0.507812500000, 1490952188
0.063476562500, -1.083740234375, 0.444580078125, -38.117187500000, 36.273437500000, 7.484375000000, 1490952188
0.063476562500, -1.083740234375, 0.444580078125, -38.117187500000, 36.273437500000, 7.484375000000, 1490952188
0.063476562500, -1.083740234375, 0.444580078125, -38.117187500000, 36.273437500000, 7.484375000000, 1490952188
0.063476562500, -1.083740234375, 0.444580078125, -38.117187500000, 36.273437500000, 7.484375000000, 1490952188
-0.062500000000, -1.042968750000, 0.485351562500, -49.710937500000, 35.164062500000, 6.718750000000, 1490952188
-0.062500000000, -1.042968750000, 0.485351562500, -49.710937500000, 35.164062500000, 6.718750000000, 1490952188
-0.062500000000, -1.042968750000, 0.485351562500, -49.710937500000, 35.164062500000, 6.718750000000, 1490952188
0.058593750000, -0.600585937500, 0.337890625000, -20.445312500000, 79.031250000000, 30.156250000000, 1490952188
0.058593750000, -0.600585937500, 0.337890625000, -20.445312500000, 79.031250000000, 30.156250000000, 1490952188
0.058593750000, -0.600585937500, 0.337890625000, -20.445312500000, 79.031250000000, 30.156250000000, 1490952188
0.063232421875, -0.722656250000, 0.034423828125, -65.335937500000, 37.695312500000, 47.171875000000, 1490952189
0.063232421875, -0.722656250000, 0.034423828125, -65.335937500000, 37.695312500000, 47.171875000000, 1490952189
0.063232421875, -0.722656250000, 0.034423828125, -65.335937500000, 37.695312500000, 47.171875000000, 1490952189
-0.212890625000, -1.330322265625, 0.435302734375, -8.468750000000, -58.625000000000, 35.203125000000, 1490952189
-0.212890625000, -1.330322265625, 0.435302734375, -8.468750000000, -58.625000000000, 35.203125000000, 1490952189
-0.212890625000, -1.330322265625, 0.435302734375, -8.468750000000, -58.625000000000, 35.203125000000, 1490952189
0.087646484375, -0.977539062500, 0.390869140625, 79.375000000000, 30.132812500000, -35.937500000000, 1490952189
0.087646484375, -0.977539062500, 0.390869140625, 79.375000000000, 30.132812500000, -35.937500000000, 1490952189
0.087646484375, -0.977539062500, 0.390869140625, 79.375000000000, 30.132812500000, -35.937500000000, 1490952189
0.070312500000, -1.010986328125, 0.311523437500, 78.976562500000, 23.093750000000, -48.507812500000, 1490952189
0.203369140625, -0.916503906250, 0.464111328125, 43.007812500000, 0.625000000000, -19.476562500000, 1490952189
0.203369140625, -0.916503906250, 0.464111328125, 43.007812500000, 0.625000000000, -19.476562500000, 1490952189
0.203369140625, -0.916503906250, 0.464111328125, 43.007812500000, 0.625000000000, -19.476562500000, 1490952189
0.075195312500, -0.929199218750, 0.427734375000, -19.539062500000, -3.921875000000, -8.500000000000, 1490952189
0.075195312500, -0.929199218750, 0.427734375000, -19.539062500000, -3.921875000000, -8.500000000000, 1490952189
0.075195312500, -0.929199218750, 0.427734375000, -19.539062500000, -3.921875000000, -8.500000000000, 1490952189
0.069091796875, -0.954101562500, 0.304443359375, 1.265625000000, 7.414062500000, -3.218750000000, 1490952189
0.069091796875, -0.954101562500, 0.304443359375, 1.265625000000, 7.414062500000, -3.218750000000, 1490952189
0.069091796875, -0.954101562500, 0.304443359375, 1.265625000000, 7.414062500000, -3.218750000000, 1490952189
0.069091796875, -0.954101562500, 0.304443359375, 1.265625000000, 7.414062500000, -3.218750000000, 1490952189
0.067871093750, -0.908691406250, 0.307373046875, 19.046875000000, 6.867187500000, -2.367187500000, 1490952189
0.067871093750, -0.908691406250, 0.307373046875, 19.046875000000, 6.867187500000, -2.367187500000, 1490952189
0.067871093750, -0.908691406250, 0.307373046875, 19.046875000000, 6.867187500000, -2.367187500000, 1490952189
0.003417968750, -0.928710937500, 0.361328125000, 6.781250000000, 3.843750000000, -4.382812500000, 1490952189
0.003417968750, -0.928710937500, 0.361328125000, 6.781250000000, 3.843750000000, -4.382812500000, 1490952189
0.003417968750, -0.928710937500, 0.361328125000, 6.781250000000, 3.843750000000, -4.382812500000, 1490952189
-0.009277343750, -0.811035156250, 0.379150390625, -3.734375000000, 6.343750000000, -7.046875000000, 1490952189
-0.009277343750, -0.811035156250, 0.379150390625, -3.734375000000, 6.343750000000, -7.046875000000, 1490952189
-0.009277343750, -0.811035156250, 0.379150390625, -3.734375000000, 6.343750000000, -7.046875000000, 1490952189
-0.023193359375, -0.865966796875, 0.448730468750, -1.468750000000, -6.210937500000, -2.648437500000, 1490952189
-0.023193359375, -0.865966796875, 0.448730468750, -1.468750000000, -6.210937500000, -2.648437500000, 1490952189
-0.023193359375, -0.865966796875, 0.448730468750, -1.468750000000, -6.210937500000, -2.648437500000, 1490952189
-0.023193359375, -0.865966796875, 0.448730468750, -1.468750000000, -6.210937500000, -2.648437500000, 1490952189
0.082763671875, -0.869384765625, 0.403808593750, -6.601562500000, -11.531250000000, -2.062500000000, 1490952189
0.082763671875, -0.869384765625, 0.403808593750, -6.601562500000, -11.531250000000, -2.062500000000, 1490952189
0.082763671875, -0.869384765625, 0.403808593750, -6.601562500000, -11.531250000000, -2.062500000000, 1490952189
-0.060791015625, -0.947021484375, 0.356201171875, -60.906250000000, -23.242187500000, -0.296875000000, 1490952189
-0.060791015625, -0.947021484375, 0.356201171875, -60.906250000000, -23.242187500000, -0.296875000000, 1490952189
-0.060791015625, -0.947021484375, 0.356201171875, -60.906250000000, -23.242187500000, -0.296875000000, 1490952189
-0.169921875000, -0.903320312500, 0.251708984375, -65.867187500000, -58.718750000000, -10.890625000000, 1490952189
-0.169921875000, -0.903320312500, 0.251708984375, -65.867187500000, -58.718750000000, -10.890625000000, 1490952189
-0.169921875000, -0.903320312500, 0.251708984375, -65.867187500000, -58.718750000000, -10.890625000000, 1490952189
-0.072753906250, -0.945068359375, 0.248046875000, 43.804687500000, -31.390625000000, -53.539062500000, 1490952189
-0.072753906250, -0.945068359375, 0.248046875000, 43.804687500000, -31.390625000000, -53.539062500000, 1490952189
-0.072753906250, -0.945068359375, 0.248046875000, 43.804687500000, -31.390625000000, -53.539062500000, 1490952189
-0.072753906250, -0.945068359375, 0.248046875000, 43.804687500000, -31.390625000000, -53.539062500000, 1490952189
0.154052734375, -0.976074218750, 0.303466796875, 78.117187500000, -46.593750000000, -39.492187500000, 1490952189
0.154052734375, -0.976074218750, 0.303466796875, 78.117187500000, -46.593750000000, -39.492187500000, 1490952189
0.154052734375, -0.976074218750, 0.303466796875, 78.117187500000, -46.593750000000, -39.492187500000, 1490952189
0.156982421875, -1.075439453125, 0.404296875000, 53.984375000000, -17.664062500000, -8.406250000000, 1490952189
0.156982421875, -1.075439453125, 0.404296875000, 53.984375000000, -17.664062500000, -8.406250000000, 1490952189
-0.151611328125, -1.112060546875, 0.382324218750, 20.601562500000, -16.812500000000, -8.828125000000, 1490952189
-0.151611328125, -1.112060546875, 0.382324218750, 20.601562500000, -16.812500000000, -8.828125000000, 1490952189
-0.151611328125, -1.112060546875, 0.382324218750, 20.601562500000, -16.812500000000, -8.828125000000, 1490952189
-0.151611328125, -1.112060546875, 0.382324218750, 20.601562500000, -16.812500000000, -8.828125000000, 1490952189
-0.061767578125, -0.864501953125, 0.218994140625, 24.273437500000, -14.414062500000, -35.078125000000, 1490952189
-0.061767578125, -0.864501953125, 0.218994140625, 24.273437500000, -14.414062500000, -35.078125000000, 1490952189
-0.061767578125, -0.864501953125, 0.218994140625, 24.273437500000, -14.414062500000, -35.078125000000, 1490952189
-0.061767578125, -0.864501953125, 0.218994140625, 24.273437500000, -14.414062500000, -35.078125000000, 1490952189
-0.017333984375, -0.933349609375, 0.239501953125, 35.875000000000, -4.757812500000, -40.812500000000, 1490952189
-0.017333984375, -0.933349609375, 0.239501953125, 35.875000000000, -4.757812500000, -40.812500000000, 1490952189
-0.017333984375, -0.933349609375, 0.239501953125, 35.875000000000, -4.757812500000, -40.812500000000, 1490952189
0.004882812500, -0.786376953125, 0.373535156250, 20.343750000000, 25.539062500000, -19.109375000000, 1490952189
0.004882812500, -0.786376953125, 0.373535156250, 20.343750000000, 25.539062500000, -19.109375000000, 1490952189
0.004882812500, -0.786376953125, 0.373535156250, 20.343750000000, 25.539062500000, -19.109375000000, 1490952189
-0.074462890625, -0.813476562500, 0.207519531250, -31.929687500000, 56.085937500000, -13.929687500000, 1490952189
-0.074462890625, -0.813476562500, 0.207519531250, -31.929687500000, 56.085937500000, -13.929687500000, 1490952189
-0.074462890625, -0.813476562500, 0.207519531250, -31.929687500000, 56.085937500000, -13.929687500000, 1490952190
-0.117919921875, -1.017578125000, 0.301757812500, -46.921875000000, 27.812500000000, 13.218750000000, 1490952190
-0.257080078125, -0.897705078125, 0.391845703125, -21.453125000000, 30.304687500000, 25.640625000000, 1490952190
-0.164306640625, -1.067138671875, 0.395263671875, -26.906250000000, 34.195312500000, 25.125000000000, 1490952190
-0.164306640625, -1.067138671875, 0.395263671875, -26.906250000000, 34.195312500000, 25.125000000000, 1490952190
-0.164306640625, -1.067138671875, 0.395263671875, -26.906250000000, 34.195312500000, 25.125000000000, 1490952190
-0.164306640625, -1.067138671875, 0.395263671875, -26.906250000000, 34.195312500000, 25.125000000000, 1490952190
-0.164306640625, -1.067138671875, 0.395263671875, -26.906250000000, 34.195312500000, 25.125000000000, 1490952190
0.126953125000, -1.039306640625, 0.439697265625, -38.015625000000, 31.726562500000, 31.898437500000, 1490952190
0.126953125000, -1.039306640625, 0.439697265625, -38.015625000000, 31.726562500000, 31.898437500000, 1490952190
0.126953125000, -1.039306640625, 0.439697265625, -38.015625000000, 31.726562500000, 31.898437500000, 1490952190
0.037597656250, -1.082275390625, 0.104003906250, -72.117187500000, 90.484375000000, 43.437500000000, 1490952190
0.037597656250, -1.082275390625, 0.104003906250, -72.117187500000, 90.484375000000, 43.437500000000, 1490952190
0.037597656250, -1.082275390625, 0.104003906250, -72.117187500000, 90.484375000000, 43.437500000000, 1490952190
-0.306884765625, -1.027587890625, 0.166748046875, -72.000000000000, -10.781250000000, 41.070312500000, 1490952190
-0.306884765625, -1.027587890625, 0.166748046875, -72.000000000000, -10.781250000000, 41.070312500000, 1490952190
-0.306884765625, -1.027587890625, 0.166748046875, -72.000000000000, -10.781250000000, 41.070312500000, 1490952190
-0.306884765625, -1.027587890625, 0.166748046875, -72.000000000000, -10.781250000000, 41.070312500000, 1490952190
-0.343261718750, -0.861083984375, 0.343017578125, 54.273437500000, -46.226562500000, 9.523437500000, 1490952190
-0.343261718750, -0.861083984375, 0.343017578125, 54.273437500000, -46.226562500000, 9.523437500000, 1490952190
-0.343261718750, -0.861083984375, 0.343017578125, 54.273437500000, -46.226562500000, 9.523437500000, 1490952190
0.135009765625, -0.944580078125, 0.328857421875, 93.085937500000, -11.937500000000, -43.562500000000, 1490952190
0.135009765625, -0.944580078125, 0.328857421875, 93.085937500000, -11.937500000000, -43.562500000000, 1490952190
0.135009765625, -0.944580078125, 0.328857421875, 93.085937500000, -11.937500000000, -43.562500000000, 1490952190
0.120605468750, -0.825927734375, 0.336425781250, -3.835937500000, 8.171875000000, -9.992187500000, 1490952190
0.120605468750, -0.825927734375, 0.336425781250, -3.835937500000, 8.171875000000, -9.992187500000, 1490952190
0.120605468750, -0.825927734375, 0.336425781250, -3.835937500000, 8.171875000000, -9.992187500000, 1490952190
0.053222656250, -0.906982421875, 0.337402343750, -21.203125000000, -3.648437500000, -14.296875000000, 1490952190
0.053222656250, -0.906982421875, 0.337402343750, -21.203125000000, -3.648437500000, -14.296875000000, 1490952190
0.053222656250, -0.906982421875, 0.337402343750, -21.203125000000, -3.648437500000, -14.296875000000, 1490952190
0.053222656250, -0.906982421875, 0.337402343750, -21.203125000000, -3.648437500000, -14.296875000000, 1490952190
0.064697265625, -1.104003906250, 0.231933593750, -2.976562500000, 6.601562500000, -8.757812500000, 1490952190
0.064697265625, -1.104003906250, 0.231933593750, -2.976562500000, 6.601562500000, -8.757812500000, 1490952190
0.064697265625, -1.104003906250, 0.231933593750, -2.976562500000, 6.601562500000, -8.757812500000, 1490952190
-0.073974609375, -1.077148437500, 0.321533203125, 6.718750000000, 1.453125000000, 4.265625000000, 1490952190
-0.073974609375, -1.077148437500, 0.321533203125, 6.718750000000, 1.453125000000, 4.265625000000, 1490952190
-0.073974609375, -1.077148437500, 0.321533203125, 6.718750000000, 1.453125000000, 4.265625000000, 1490952190
-0.149658203125, -0.927490234375, 0.296142578125, 0.632812500000, -10.015625000000, -19.179687500000, 1490952190
-0.149658203125, -0.927490234375, 0.296142578125, 0.632812500000, -10.015625000000, -19.179687500000, 1490952190
-0.149658203125, -0.927490234375, 0.296142578125, 0.632812500000, -10.015625000000, -19.179687500000, 1490952190
0.114990234375, -0.834472656250, 0.416259765625, 21.437500000000, 6.953125000000, -11.335937500000, 1490952190
0.114990234375, -0.834472656250, 0.416259765625, 21.437500000000, 6.953125000000, -11.335937500000, 1490952190
0.190917968750, -0.810546875000, 0.505615234375, 50.570312500000, 78.351562500000, 8.406250000000, 1490952190
0.187988281250, -0.719726562500, 0.433105468750, 50.570312500000, 78.351562500000, 8.406250000000, 1490952190
0.187988281250, -0.719726562500, 0.433105468750, 50.570312500000, 78.351562500000, 8.406250000000, 1490952190
0.187988281250, -0.719726562500, 0.433105468750, 50.570312500000, 78.351562500000, 8.406250000000, 1490952190
-0.169433593750, -0.898681640625, 0.366699218750, -64.414062500000, 19.625000000000, 33.234375000000, 1490952190
-0.169433593750, -0.898681640625, 0.366699218750, -64.414062500000, 19.625000000000, 33.234375000000, 1490952190
-0.169433593750, -0.898681640625, 0.366699218750, -64.414062500000, 19.625000000000, 33.234375000000, 1490952190
-0.169433593750, -0.898681640625, 0.366699218750, -64.414062500000, 19.625000000000, 33.234375000000, 1490952190
-0.394775390625, -1.079833984375, 0.232177734375, -138.007812500000, -40.835937500000, 4.703125000000, 1490952190
-0.394775390625, -1.079833984375, 0.232177734375, -138.007812500000, -40.835937500000, 4.703125000000, 1490952190
-0.394775390625, -1.079833984375, 0.232177734375, -138.007812500000, -40.835937500000, 4.703125000000, 1490952190
-0.257812500000, -0.915771484375, 0.196044921875, -80.937500000000, -6.710937500000, -51.617187500000, 1490952190
-0.257812500000, -0.915771484375, 0.196044921875, -80.937500000000, -6.710937500000, -51.617187500000, 1490952190
-0.257812500000, -0.915771484375, 0.196044921875, -80.937500000000, -6.710937500000, -51.617187500000, 1490952190
-0.257812500000, -0.915771484375, 0.196044921875, -80.937500000000, -6.710937500000, -51.617187500000, 1490952190
-0.053466796875, -1.130615234375, 0.260009765625, -18.695312500000, -10.742187500000, -85.203125000000, 1490952190
-0.053466796875, -1.130615234375, 0.260009765625, -18.695312500000, -10.742187500000, -85.203125000000, 1490952190
-0.053466796875, -1.130615234375, 0.260009765625, -18.695312500000, -10.742187500000, -85.203125000000, 1490952190
0.090332031250, -1.129882812500, 0.327148437500, 89.984375000000, -49.921875000000, -1.203125000000, 1490952190
0.090332031250, -1.129882812500, 0.327148437500, 89.984375000000, -49.921875000000, -1.203125000000, 1490952190
0.090332031250, -1.129882812500, 0.327148437500, 89.984375000000, -49.921875000000, -1.203125000000, 1490952190
-0.073730468750, -0.985107421875, 0.579345703125, 241.421875000000, -110.789062500000, 17.656250000000, 1490952190
-0.073730468750, -0.985107421875, 0.579345703125, 241.421875000000, -110.789062500000, 17.656250000000, 1490952190
-0.073730468750, -0.985107421875, 0.579345703125, 241.421875000000, -110.789062500000, 17.656250000000, 1490952190
-0.198730468750, -0.850585937500, 0.488037109375, -71.562500000000, -40.421875000000, 14.187500000000, 1490952191
-0.198730468750, -0.850585937500, 0.488037109375, -71.562500000000, -40.421875000000, 14.187500000000, 1490952191
-0.198730468750, -0.850585937500, 0.488037109375, -71.562500000000, -40.421875000000, 14.187500000000, 1490952191
-0.198730468750, -0.850585937500, 0.488037109375, -71.562500000000, -40.421875000000, 14.187500000000, 1490952191
-0.126464843750, -0.988525390625, 0.234375000000, -150.750000000000, -46.062500000000, 5.367187500000, 1490952191
-0.126464843750, -0.988525390625, 0.234375000000, -150.750000000000, -46.062500000000, 5.367187500000, 1490952191
-0.126464843750, -0.988525390625, 0.234375000000, -150.750000000000, -46.062500000000, 5.367187500000, 1490952191
-0.275878906250, -0.936035156250, 0.284912109375, -101.062500000000, 64.492187500000, -40.273437500000, 1490952191
-0.086181640625, -0.950439453125, 0.174072265625, 13.812500000000, 34.093750000000, -39.140625000000, 1490952191
-0.086181640625, -0.950439453125, 0.174072265625, 13.812500000000, 34.093750000000, -39.140625000000, 1490952191
-0.103271484375, -0.868164062500, 0.372802734375, 96.843750000000, 8.429687500000, 5.507812500000, 1490952191
-0.103271484375, -0.868164062500, 0.372802734375, 96.843750000000, 8.429687500000, 5.507812500000, 1490952191
-0.103271484375, -0.868164062500, 0.372802734375, 96.843750000000, 8.429687500000, 5.507812500000, 1490952191
-0.103271484375, -0.868164062500, 0.372802734375, 96.843750000000, 8.429687500000, 5.507812500000, 1490952191
-0.195068359375, -0.623535156250, 0.688232421875, 33.343750000000, 77.796875000000, 1.976562500000, 1490952191
-0.195068359375, -0.623535156250, 0.688232421875, 33.343750000000, 77.796875000000, 1.976562500000, 1490952191
-0.195068359375, -0.623535156250, 0.688232421875, 33.343750000000, 77.796875000000, 1.976562500000, 1490952191
-0.195068359375, -0.623535156250, 0.688232421875, 33.343750000000, 77.796875000000, 1.976562500000, 1490952191
-0.195068359375, -0.623535156250, 0.688232421875, 33.343750000000, 77.796875000000, 1.976562500000, 1490952191
-0.208740234375, -0.997802734375, 0.479736328125, -112.734375000000, -5.226562500000, 26.265625000000, 1490952191
-0.153564453125, -1.045898437500, 0.458251953125, -153.273437500000, -32.687500000000, 29.312500000000, 1490952191
-0.153564453125, -1.045898437500, 0.458251953125, -153.273437500000, -32.687500000000, 29.312500000000, 1490952191
-0.153564453125, -1.045898437500, 0.458251953125, -153.273437500000, -32.687500000000, 29.312500000000, 1490952191
-0.083496093750, -0.961669921875, 0.304199218750, -123.976562500000, -10.882812500000, 53.195312500000, 1490952191
-0.083496093750, -0.961669921875, 0.304199218750, -123.976562500000, -10.882812500000, 53.195312500000, 1490952191
-0.083496093750, -0.961669921875, 0.304199218750, -123.976562500000, -10.882812500000, 53.195312500000, 1490952191
0.062011718750, -0.933837890625, 0.197998046875, -5.507812500000, 5.062500000000, 58.765625000000, 1490952191
0.062011718750, -0.933837890625, 0.197998046875, -5.507812500000, 5.062500000000, 58.765625000000, 1490952191
0.062011718750, -0.933837890625, 0.197998046875, -5.507812500000, 5.062500000000, 58.765625000000, 1490952191
0.062011718750, -0.933837890625, 0.197998046875, -5.507812500000, 5.062500000000, 58.765625000000, 1490952191
-0.133300781250, -1.188232421875, 0.467041015625, 114.265625000000, -87.335937500000, 33.218750000000, 1490952191
-0.133300781250, -1.188232421875, 0.467041015625, 114.265625000000, -87.335937500000, 33.218750000000, 1490952191
-0.133300781250, -1.188232421875, 0.467041015625, 114.265625000000, -87.335937500000, 33.218750000000, 1490952191
0.062255859375, -0.928710937500, 0.540527343750, 120.429687500000, 38.882812500000, -7.007812500000, 1490952191
0.062255859375, -0.928710937500, 0.540527343750, 120.429687500000, 38.882812500000, -7.007812500000, 1490952191
0.062255859375, -0.928710937500, 0.540527343750, 120.429687500000, 38.882812500000, -7.007812500000, 1490952191
0.086914062500, -0.805908203125, 0.453613281250, -32.585937500000, -1.671875000000, 4.500000000000, 1490952191
0.086914062500, -0.805908203125, 0.453613281250, -32.585937500000, -1.671875000000, 4.500000000000, 1490952191
0.086914062500, -0.805908203125, 0.453613281250, -32.585937500000, -1.671875000000, 4.500000000000, 1490952191
0.059082031250, -0.876220703125, 0.254150390625, -71.171875000000, -43.492187500000, -17.968750000000, 1490952191
0.059082031250, -0.876220703125, 0.254150390625, -71.171875000000, -43.492187500000, -17.968750000000, 1490952191
0.059082031250, -0.876220703125, 0.254150390625, -71.171875000000, -43.492187500000, -17.968750000000, 1490952191
0.059082031250, -0.876220703125, 0.254150390625, -71.171875000000, -43.492187500000, -17.968750000000, 1490952191
0.269042968750, -0.849609375000, 0.248779296875, -1.546875000000, -0.445312500000, -31.015625000000, 1490952191
0.269042968750, -0.849609375000, 0.248779296875, -1.546875000000, -0.445312500000, -31.015625000000, 1490952191
0.269042968750, -0.849609375000, 0.248779296875, -1.546875000000, -0.445312500000, -31.015625000000, 1490952191
0.147949218750, -0.845947265625, 0.436523437500, 59.562500000000, -2.148437500000, -10.757812500000, 1490952191
0.147949218750, -0.845947265625, 0.436523437500, 59.562500000000, -2.148437500000, -10.757812500000, 1490952191
0.147949218750, -0.845947265625, 0.436523437500, 59.562500000000, -2.148437500000, -10.757812500000, 1490952191
-0.090820312500, -0.875000000000, 0.490478515625, 38.734375000000, 18.882812500000, -6.007812500000, 1490952191
-0.090820312500, -0.875000000000, 0.490478515625, 38.734375000000, 18.882812500000, -6.007812500000, 1490952191
-0.090820312500, -0.875000000000, 0.490478515625, 38.734375000000, 18.882812500000, -6.007812500000, 1490952191
0.068359375000, -0.989013671875, 0.414062500000, -53.851562500000, -13.164062500000, -32.718750000000, 1490952191
0.068359375000, -0.989013671875, 0.414062500000, -53.851562500000, -13.164062500000, -32.718750000000, 1490952191
0.068359375000, -0.989013671875, 0.414062500000, -53.851562500000, -13.164062500000, -32.718750000000, 1490952191
0.068359375000, -0.989013671875, 0.414062500000, -53.851562500000, -13.164062500000, -32.718750000000, 1490952191
0.283447265625, -0.940917968750, 0.458496093750, -15.921875000000, 15.906250000000, -26.257812500000, 1490952191
0.283447265625, -0.940917968750, 0.458496093750, -15.921875000000, 15.906250000000, -26.257812500000, 1490952191
0.283447265625, -0.940917968750, 0.458496093750, -15.921875000000, 15.906250000000, -26.257812500000, 1490952191
0.258056640625, -0.829101562500, 0.494384765625, 48.882812500000, 63.132812500000, 15.203125000000, 1490952191
0.258056640625, -0.829101562500, 0.494384765625, 48.882812500000, 63.132812500000, 15.203125000000, 1490952191
0.258056640625, -0.829101562500, 0.494384765625, 48.882812500000, 63.132812500000, 15.203125000000, 1490952191
-0.077392578125, -0.790771484375, 0.482421875000, 15.460937500000, 57.328125000000, 21.257812500000, 1490952191
-0.077392578125, -0.790771484375, 0.482421875000, 15.460937500000, 57.328125000000, 21.257812500000, 1490952191
-0.077392578125, -0.790771484375, 0.482421875000, 15.460937500000, 57.328125000000, 21.257812500000, 1490952191
-0.116455078125, -0.966552734375, 0.397460937500, -58.226562500000, -13.562500000000, 14.492187500000, 1490952191
-0.116455078125, -0.966552734375, 0.397460937500, -58.226562500000, -13.562500000000, 14.492187500000, 1490952191
-0.116455078125, -0.966552734375, 0.397460937500, -58.226562500000, -13.562500000000, 14.492187500000, 1490952191
-0.116455078125, -0.966552734375, 0.397460937500, -58.226562500000, -13.562500000000, 14.492187500000, 1490952192
-0.149902343750, -1.079101562500, 0.309326171875, -56.382812500000, -17.171875000000, -7.734375000000, 1490952192
-0.149902343750, -1.079101562500, 0.309326171875, -56.382812500000, -17.171875000000, -7.734375000000, 1490952192
-0.149902343750, -1.079101562500, 0.309326171875, -56.382812500000, -17.171875000000, -7.734375000000, 1490952192
-0.080810546875, -0.735107421875, 0.171142578125, -1.734375000000, -7.062500000000, -17.898437500000, 1490952192
-0.080810546875, -0.735107421875, 0.171142578125, -1.734375000000, -7.062500000000, -17.898437500000, 1490952192
-0.080810546875, -0.735107421875, 0.171142578125, -1.734375000000, -7.062500000000, -17.898437500000, 1490952192
-0.044677734375, -0.937744140625, 0.118164062500, 8.757812500000, -58.226562500000, -9.742187500000, 1490952192
-0.044677734375, -0.937744140625, 0.118164062500, 8.757812500000, -58.226562500000, -9.742187500000, 1490952192
-0.044677734375, -0.937744140625, 0.118164062500, 8.757812500000, -58.226562500000, -9.742187500000, 1490952192
-0.066650390625, -1.091064453125, 0.355468750000, 66.132812500000, -26.593750000000, -23.625000000000, 1490952192
-0.066650390625, -1.091064453125, 0.355468750000, 66.132812500000, -26.593750000000, -23.625000000000, 1490952192
0.104492187500, -1.034667968750, 0.374755859375, 57.218750000000, -40.742187500000, -10.757812500000, 1490952192
0.104492187500, -1.034667968750, 0.374755859375, 57.218750000000, -40.742187500000, -10.757812500000, 1490952192
0.104492187500, -1.034667968750, 0.374755859375, 57.218750000000, -40.742187500000, -10.757812500000, 1490952192
0.052978515625, -1.040283203125, 0.513427734375, 37.398437500000, -23.429687500000, 2.867187500000, 1490952192
0.146728515625, -0.915527343750, 0.461181640625, 24.109375000000, -17.234375000000, 4.648437500000, 1490952192
0.146728515625, -0.915527343750, 0.461181640625, 24.109375000000, -17.234375000000, 4.648437500000, 1490952192
0.146728515625, -0.915527343750, 0.461181640625, 24.109375000000, -17.234375000000, 4.648437500000, 1490952192
0.193603515625, -0.968505859375, 0.390625000000, -11.015625000000, -15.210937500000, 14.234375000000, 1490952192
0.193603515625, -0.968505859375, 0.390625000000, -11.015625000000, -15.210937500000, 14.234375000000, 1490952192
0.193603515625, -0.968505859375, 0.390625000000, -11.015625000000, -15.210937500000, 14.234375000000, 1490952192
0.193603515625, -0.968505859375, 0.390625000000, -11.015625000000, -15.210937500000, 14.234375000000, 1490952192
0.132568359375, -0.958496093750, 0.317626953125, -20.414062500000, 13.851562500000, 31.234375000000, 1490952192
0.132568359375, -0.958496093750, 0.317626953125, -20.414062500000, 13.851562500000, 31.234375000000, 1490952192
0.132568359375, -0.958496093750, 0.317626953125, -20.414062500000, 13.851562500000, 31.234375000000, 1490952192
0.072753906250, -0.854248046875, 0.358398437500, 3.554687500000, 42.859375000000, 43.343750000000, 1490952192
0.016113281250, -0.850341796875, 0.383300781250, 3.554687500000, 42.859375000000, 43.343750000000, 1490952192
0.016113281250, -0.850341796875, 0.383300781250, 3.554687500000, 42.859375000000, 43.343750000000, 1490952192
0.016113281250, -0.850341796875, 0.383300781250, 3.554687500000, 42.859375000000, 43.343750000000, 1490952192
0.017089843750, -0.976318359375, 0.389648437500, -6.273437500000, 23.031250000000, 41.664062500000, 1490952192
0.017089843750, -0.976318359375, 0.389648437500, -6.273437500000, 23.031250000000, 41.664062500000, 1490952192
0.017089843750, -0.976318359375, 0.389648437500, -6.273437500000, 23.031250000000, 41.664062500000, 1490952192
-0.039306640625, -0.844482421875, 0.362304687500, -14.031250000000, 24.695312500000, 22.664062500000, 1490952192
-0.039306640625, -0.844482421875, 0.362304687500, -14.031250000000, 24.695312500000, 22.664062500000, 1490952192
-0.039306640625, -0.844482421875, 0.362304687500, -14.031250000000, 24.695312500000, 22.664062500000, 1490952192
-0.000976562500, -1.156005859375, 0.413085937500, -35.953125000000, -6.648437500000, -18.031250000000, 1490952192
-0.000976562500, -1.156005859375, 0.413085937500, -35.953125000000, -6.648437500000, -18.031250000000, 1490952192
-0.000976562500, -1.156005859375, 0.413085937500, -35.953125000000, -6.648437500000, -18.031250000000, 1490952192
-0.000976562500, -1.156005859375, 0.413085937500, -35.953125000000, -6.648437500000, -18.031250000000, 1490952192
0.195800781250, -0.883544921875, 0.358642578125, -35.140625000000, 2.789062500000, -1.093750000000, 1490952192
0.195800781250, -0.883544921875, 0.358642578125, -35.140625000000, 2.789062500000, -1.093750000000, 1490952192
0.195800781250, -0.883544921875, 0.358642578125, -35.140625000000, 2.789062500000, -1.093750000000, 1490952192
0.253662109375, -0.604248046875, 0.233154296875, -20.539062500000, 39.765625000000, -2.015625000000, 1490952192
0.253662109375, -0.604248046875, 0.233154296875, -20.539062500000, 39.765625000000, -2.015625000000, 1490952192
0.253662109375, -0.604248046875, 0.233154296875, -20.539062500000, 39.765625000000, -2.015625000000, 1490952192
0.362060546875, -1.033935546875, 0.380615234375, -1.023437500000, 89.265625000000, 26.562500000000, 1490952192
0.362060546875, -1.033935546875, 0.380615234375, -1.023437500000, 89.265625000000, 26.562500000000, 1490952192
0.362060546875, -1.033935546875, 0.380615234375, -1.023437500000, 89.265625000000, 26.562500000000, 1490952192
-0.003173828125, -1.061767578125, 0.365234375000, 8.453125000000, -59.992187500000, 14.890625000000, 1490952192
-0.003173828125, -1.061767578125, 0.365234375000, 8.453125000000, -59.992187500000, 14.890625000000, 1490952192
-0.003173828125, -1.061767578125, 0.365234375000, 8.453125000000, -59.992187500000, 14.890625000000, 1490952192
-0.003173828125, -1.061767578125, 0.365234375000, 8.453125000000, -59.992187500000, 14.890625000000, 1490952192
0.047851562500, -0.927978515625, 0.367187500000, 54.085937500000, 32.531250000000, -32.890625000000, 1490952192
0.047851562500, -0.927978515625, 0.367187500000, 54.085937500000, 32.531250000000, -32.890625000000, 1490952192
0.047851562500, -0.927978515625, 0.367187500000, 54.085937500000, 32.531250000000, -32.890625000000, 1490952192
0.326660156250, -0.800048828125, 0.413085937500, 11.500000000000, 20.656250000000, -28.289062500000, 1490952192
0.326660156250, -0.800048828125, 0.413085937500, 11.500000000000, 20.656250000000, -28.289062500000, 1490952192
0.326660156250, -0.800048828125, 0.413085937500, 11.500000000000, 20.656250000000, -28.289062500000, 1490952192
0.199462890625, -0.944580078125, 0.240478515625, -22.429687500000, 30.187500000000, -5.171875000000, 1490952192
0.199462890625, -0.944580078125, 0.240478515625, -22.429687500000, 30.187500000000, -5.171875000000, 1490952192
0.199462890625, -0.944580078125, 0.240478515625, -22.429687500000, 30.187500000000, -5.171875000000, 1490952192
0.130859375000, -0.951171875000, 0.332275390625, 13.492187500000, 6.179687500000, -5.609375000000, 1490952192
0.130859375000, -0.951171875000, 0.332275390625, 13.492187500000, 6.179687500000, -5.609375000000, 1490952192
0.130859375000, -0.951171875000, 0.332275390625, 13.492187500000, 6.179687500000, -5.609375000000, 1490952192
0.130859375000, -0.951171875000, 0.332275390625, 13.492187500000, 6.179687500000, -5.609375000000, 1490952192
-0.029296875000, -0.979248046875, 0.372070312500, 30.414062500000, -5.328125000000, -19.554687500000, 1490952193
-0.029296875000, -0.979248046875, 0.372070312500, 30.414062500000, -5.328125000000, -19.554687500000, 1490952193
-0.029296875000, -0.979248046875, 0.372070312500, 30.414062500000, -5.328125000000, -19.554687500000, 1490952193
0.026611328125, -0.998779296875, 0.393798828125, -12.421875000000, -15.000000000000, -38.859375000000, 1490952193
0.026611328125, -0.998779296875, 0.393798828125, -12.421875000000, -15.000000000000, -38.859375000000, 1490952193
0.026611328125, -0.998779296875, 0.393798828125, -12.421875000000, -15.000000000000, -38.859375000000, 1490952193
0.083007812500, -1.027099609375, 0.414306640625, -19.289062500000, -2.546875000000, -62.140625000000, 1490952193
0.083007812500, -1.027099609375, 0.414306640625, -19.289062500000, -2.546875000000, -62.140625000000, 1490952193
0.255371093750, -0.828613281250, 0.505615234375, -31.484375000000, 33.945312500000, -17.882812500000, 1490952193
0.255371093750, -0.828613281250, 0.505615234375, -31.484375000000, 33.945312500000, -17.882812500000, 1490952193
0.255371093750, -0.828613281250, 0.505615234375, -31.484375000000, 33.945312500000, -17.882812500000, 1490952193
0.255371093750, -0.828613281250, 0.505615234375, -31.484375000000, 33.945312500000, -17.882812500000, 1490952193
0.255371093750, -0.828613281250, 0.505615234375, -31.484375000000, 33.945312500000, -17.882812500000, 1490952193
-0.066894531250, -0.968750000000, 0.372314453125, -49.429687500000, 31.015625000000, -2.492187500000, 1490952193
-0.066894531250, -0.968750000000, 0.372314453125, -49.429687500000, 31.015625000000, -2.492187500000, 1490952193
-0.171142578125, -0.908203125000, 0.380126953125, -39.070312500000, 15.578125000000, 22.554687500000, 1490952193
-0.171142578125, -0.908203125000, 0.380126953125, -39.070312500000, 15.578125000000, 22.554687500000, 1490952193
-0.171142578125, -0.908203125000, 0.380126953125, -39.070312500000, 15.578125000000, 22.554687500000, 1490952193
-0.171142578125, -0.908203125000, 0.380126953125, -39.070312500000, 15.578125000000, 22.554687500000, 1490952193
-0.229492187500, -0.806884765625, 0.159912109375, -19.109375000000, -8.554687500000, 22.429687500000, 1490952193
-0.229492187500, -0.806884765625, 0.159912109375, -19.109375000000, -8.554687500000, 22.429687500000, 1490952193
-0.229492187500, -0.806884765625, 0.159912109375, -19.109375000000, -8.554687500000, 22.429687500000, 1490952193
0.088867187500, -0.927246093750, 0.235839843750, 9.664062500000, -59.656250000000, -33.804687500000, 1490952193
0.088867187500, -0.927246093750, 0.235839843750, 9.664062500000, -59.656250000000, -33.804687500000, 1490952193
0.088867187500, -0.927246093750, 0.235839843750, 9.664062500000, -59.656250000000, -33.804687500000, 1490952193
0.145751953125, -1.063476562500, 0.185791015625, 58.187500000000, -3.429687500000, -3.375000000000, 1490952193
0.145751953125, -1.063476562500, 0.185791015625, 58.187500000000, -3.429687500000, -3.375000000000, 1490952193
0.145751953125, -1.063476562500, 0.185791015625, 58.187500000000, -3.429687500000, -3.375000000000, 1490952193
-0.196533203125, -1.069091796875, 0.362304687500, 42.789062500000, -36.539062500000, 46.882812500000, 1490952193
-0.196533203125, -1.069091796875, 0.362304687500, 42.789062500000, -36.539062500000, 46.882812500000, 1490952193
-0.196533203125, -1.069091796875, 0.362304687500, 42.789062500000, -36.539062500000, 46.882812500000, 1490952193
-0.196533203125, -1.069091796875, 0.362304687500, 42.789062500000, -36.539062500000, 46.882812500000, 1490952193
-0.149414062500, -0.920166015625, 0.389160156250, -3.515625000000, -57.023437500000, 2.843750000000, 1490952193
-0.149414062500, -0.920166015625, 0.389160156250, -3.515625000000, -57.023437500000, 2.843750000000, 1490952193
-0.149414062500, -0.920166015625, 0.389160156250, -3.515625000000, -57.023437500000, 2.843750000000, 1490952193
0.062500000000, -0.863281250000, 0.376953125000, 19.648437500000, -36.828125000000, -1.554687500000, 1490952193
0.062500000000, -0.863281250000, 0.376953125000, 19.648437500000, -36.828125000000, -1.554687500000, 1490952193
0.062500000000, -0.863281250000, 0.376953125000, 19.648437500000, -36.828125000000, -1.554687500000, 1490952193
0.062500000000, -0.863281250000, 0.376953125000, 19.648437500000, -36.828125000000, -1.554687500000, 1490952193
0.153320312500, -0.728027343750, 0.279052734375, 16.703125000000, -0.328125000000, 11.117187500000, 1490952193
0.153320312500, -0.728027343750, 0.279052734375, 16.703125000000, -0.328125000000, 11.117187500000, 1490952193
0.153320312500, -0.728027343750, 0.279052734375, 16.703125000000, -0.328125000000, 11.117187500000, 1490952193
0.105712890625, -0.929687500000, 0.390869140625, 26.539062500000, 25.078125000000, 2.187500000000, 1490952193
0.105712890625, -0.929687500000, 0.390869140625, 26.539062500000, 25.078125000000, 2.187500000000, 1490952193
0.105712890625, -0.929687500000, 0.390869140625, 26.539062500000, 25.078125000000, 2.187500000000, 1490952193
0.061035156250, -1.013916015625, 0.435058593750, 1.476562500000, 33.335937500000, 12.328125000000, 1490952193
0.061035156250, -1.013916015625, 0.435058593750, 1.476562500000, 33.335937500000, 12.328125000000, 1490952193
0.061035156250, -1.013916015625, 0.435058593750, 1.476562500000, 33.335937500000, 12.328125000000, 1490952193
-0.004150390625, -1.185546875000, 0.336669921875, -61.406250000000, 16.843750000000, -14.046875000000, 1490952193
-0.004150390625, -1.185546875000, 0.336669921875, -61.406250000000, 16.843750000000, -14.046875000000, 1490952193
-0.004150390625, -1.185546875000, 0.336669921875, -61.406250000000, 16.843750000000, -14.046875000000, 1490952193
-0.004150390625, -1.185546875000, 0.336669921875, -61.406250000000, 16.843750000000, -14.046875000000, 1490952193
0.143554687500, -0.861816406250, 0.334716796875, -55.914062500000, 23.945312500000, 4.218750000000, 1490952193
0.143554687500, -0.861816406250, 0.334716796875, -55.914062500000, 23.945312500000, 4.218750000000, 1490952193
0.143554687500, -0.861816406250, 0.334716796875, -55.914062500000, 23.945312500000, 4.218750000000, 1490952193
0.038818359375, -0.818847656250, 0.276855468750, -7.953125000000, 41.140625000000, -0.101562500000, 1490952193
0.038818359375, -0.818847656250, 0.276855468750, -7.953125000000, 41.140625000000, -0.101562500000, 1490952193
0.038818359375, -0.818847656250, 0.276855468750, -7.953125000000, 41.140625000000, -0.101562500000, 1490952193
0.137207031250, -0.938964843750, 0.202148437500, -16.960937500000, 45.484375000000, -24.031250000000, 1490952193
0.137207031250, -0.938964843750, 0.202148437500, -16.960937500000, 45.484375000000, -24.031250000000, 1490952193
0.137207031250, -0.938964843750, 0.202148437500, -16.960937500000, 45.484375000000, -24.031250000000, 1490952193
0.094238281250, -1.208984375000, 0.243408203125, -20.023437500000, 5.632812500000, -32.781250000000, 1490952193
0.094238281250, -1.208984375000, 0.243408203125, -20.023437500000, 5.632812500000, -32.781250000000, 1490952193
0.094238281250, -1.208984375000, 0.243408203125, -20.023437500000, 5.632812500000, -32.781250000000, 1490952193
0.094238281250, -1.208984375000, 0.243408203125, -20.023437500000, 5.632812500000, -32.781250000000, 1490952193
0.019531250000, -0.974609375000, 0.388183593750, 44.179687500000, 18.984375000000, -8.476562500000, 1490952193
0.019531250000, -0.974609375000, 0.388183593750, 44.179687500000, 18.984375000000, -8.476562500000, 1490952193
0.019531250000, -0.974609375000, 0.388183593750, 44.179687500000, 18.984375000000, -8.476562500000, 1490952193
-0.092773437500, -0.949951171875, 0.387695312500, 32.992187500000, 11.484375000000, -17.984375000000, 1490952194
-0.092773437500, -0.949951171875, 0.387695312500, 32.992187500000, 11.484375000000, -17.984375000000, 1490952194
-0.092773437500, -0.949951171875, 0.387695312500, 32.992187500000, 11.484375000000, -17.984375000000, 1490952194
0.077636718750, -0.923828125000, 0.369873046875, -8.328125000000, -2.632812500000, -18.335937500000, 1490952194
0.077636718750, -0.923828125000, 0.369873046875, -8.328125000000, -2.632812500000, -18.335937500000, 1490952194
0.077636718750, -0.923828125000, 0.369873046875, -8.328125000000, -2.632812500000, -18.335937500000, 1490952194
0.058105468750, -0.908935546875, 0.319335937500, -15.765625000000, 25.367187500000, 2.890625000000, 1490952194
0.058105468750, -0.908935546875, 0.319335937500, -15.765625000000, 25.367187500000, 2.890625000000, 1490952194
0.058105468750, -0.908935546875, 0.319335937500, -15.765625000000, 25.367187500000, 2.890625000000, 1490952194
0.058105468750, -0.908935546875, 0.319335937500, -15.765625000000, 25.367187500000, 2.890625000000, 1490952194
-0.134765625000, -0.858642578125, 0.248779296875, 20.585937500000, 14.093750000000, -2.679687500000, 1490952194
-0.134765625000, -0.858642578125, 0.248779296875, 20.585937500000, 14.093750000000, -2.679687500000, 1490952194
-0.134765625000, -0.858642578125, 0.248779296875, 20.585937500000, 14.093750000000, -2.679687500000, 1490952194
-0.083984375000, -1.018798828125, 0.416748046875, 29.296875000000, 8.093750000000, -5.546875000000, 1490952194
-0.083984375000, -1.018798828125, 0.416748046875, 29.296875000000, 8.093750000000, -5.546875000000, 1490952194
-0.083984375000, -1.018798828125, 0.416748046875, 29.296875000000, 8.093750000000, -5.546875000000, 1490952194
-0.130371093750, -1.005615234375, 0.388427734375, 0.203125000000, 18.437500000000, 0.101562500000, 1490952194
-0.130371093750, -1.005615234375, 0.388427734375, 0.203125000000, 18.437500000000, 0.101562500000, 1490952194
-0.130371093750, -1.005615234375, 0.388427734375, 0.203125000000, 18.437500000000, 0.101562500000, 1490952194
-0.031982421875, -0.858642578125, 0.362304687500, 6.562500000000, 3.218750000000, -6.898437500000, 1490952194
-0.031982421875, -0.858642578125, 0.362304687500, 6.562500000000, 3.218750000000, -6.898437500000, 1490952194
-0.031982421875, -0.858642578125, 0.362304687500, 6.562500000000, 3.218750000000, -6.898437500000, 1490952194
-0.031982421875, -0.858642578125, 0.362304687500, 6.562500000000, 3.218750000000, -6.898437500000, 1490952194
-0.031005859375, -0.876220703125, 0.454589843750, 1.281250000000, -5.695312500000, -2.179687500000, 1490952194
-0.031005859375, -0.876220703125, 0.454589843750, 1.281250000000, -5.695312500000, -2.179687500000, 1490952194
-0.031005859375, -0.876220703125, 0.454589843750, 1.281250000000, -5.695312500000, -2.179687500000, 1490952194
-0.004394531250, -0.907470703125, 0.396728515625, -7.148437500000, -8.492187500000, -1.945312500000, 1490952194
-0.004394531250, -0.907470703125, 0.396728515625, -7.148437500000, -8.492187500000, -1.945312500000, 1490952194
-0.004394531250, -0.907470703125, 0.396728515625, -7.148437500000, -8.492187500000, -1.945312500000, 1490952194
-0.021240234375, -0.947998046875, 0.442382812500, -16.820312500000, -8.625000000000, -5.804687500000, 1490952194
-0.021240234375, -0.947998046875, 0.442382812500, -16.820312500000, -8.625000000000, -5.804687500000, 1490952194
-0.021240234375, -0.947998046875, 0.442382812500, -16.820312500000, -8.625000000000, -5.804687500000, 1490952194
-0.172607421875, -1.017089843750, 0.338623046875, -63.187500000000, -34.546875000000, -3.648437500000, 1490952194
-0.172607421875, -1.017089843750, 0.338623046875, -63.187500000000, -34.546875000000, -3.648437500000, 1490952194
-0.172607421875, -1.017089843750, 0.338623046875, -63.187500000000, -34.546875000000, -3.648437500000, 1490952194
-0.172607421875, -1.017089843750, 0.338623046875, -63.187500000000, -34.546875000000, -3.648437500000, 1490952194
-0.258789062500, -0.949462890625, 0.267333984375, -74.695312500000, -51.148437500000, -36.093750000000, 1490952194
-0.258789062500, -0.949462890625, 0.267333984375, -74.695312500000, -51.148437500000, -36.093750000000, 1490952194
-0.258789062500, -0.949462890625, 0.267333984375, -74.695312500000, -51.148437500000, -36.093750000000, 1490952194
-0.213378906250, -0.787841796875, 0.203613281250, -58.617187500000, -90.531250000000, -50.875000000000, 1490952194
-0.213378906250, -0.787841796875, 0.203613281250, -58.617187500000, -90.531250000000, -50.875000000000, 1490952194
-0.213378906250, -0.787841796875, 0.203613281250, -58.617187500000, -90.531250000000, -50.875000000000, 1490952194
0.080810546875, -1.129638671875, 0.250000000000, -2.898437500000, -92.906250000000, -58.218750000000, 1490952194
0.080810546875, -1.129638671875, 0.250000000000, -2.898437500000, -92.906250000000, -58.218750000000, 1490952194
0.080810546875, -1.129638671875, 0.250000000000, -2.898437500000, -92.906250000000, -58.218750000000, 1490952194
0.097900390625, -1.001464843750, 0.264404296875, 124.664062500000, -71.531250000000, -9.703125000000, 1490952194
0.097900390625, -1.001464843750, 0.264404296875, 124.664062500000, -71.531250000000, -9.703125000000, 1490952194
0.097900390625, -1.001464843750, 0.264404296875, 124.664062500000, -71.531250000000, -9.703125000000, 1490952194
0.097900390625, -1.001464843750, 0.264404296875, 124.664062500000, -71.531250000000, -9.703125000000, 1490952194
0.068359375000, -0.943115234375, 0.489990234375, 63.617187500000, -52.226562500000, -12.218750000000, 1490952194
0.068359375000, -0.943115234375, 0.489990234375, 63.617187500000, -52.226562500000, -12.218750000000, 1490952194
0.049072265625, -0.947021484375, 0.520751953125, 5.296875000000, -4.390625000000, -9.703125000000, 1490952194
0.034667968750, -0.912109375000, 0.423339843750, -15.554687500000, 3.656250000000, -8.023437500000, 1490952194
0.034667968750, -0.912109375000, 0.423339843750, -15.554687500000, 3.656250000000, -8.023437500000, 1490952194
0.034667968750, -0.912109375000, 0.423339843750, -15.554687500000, 3.656250000000, -8.023437500000, 1490952194
0.008300781250, -0.913330078125, 0.276123046875, -22.203125000000, 17.804687500000, 8.015625000000, 1490952194
0.008300781250, -0.913330078125, 0.276123046875, -22.203125000000, 17.804687500000, 8.015625000000, 1490952194
0.008300781250, -0.913330078125, 0.276123046875, -22.203125000000, 17.804687500000, 8.015625000000, 1490952194
-0.020019531250, -0.956542968750, 0.246582031250, 35.273437500000, 29.484375000000, 9.234375000000, 1490952194
0.003417968750, -0.866455078125, 0.319335937500, 36.757812500000, 30.593750000000, 12.390625000000, 1490952194
0.003417968750, -0.866455078125, 0.319335937500, 36.757812500000, 30.593750000000, 12.390625000000, 1490952194
0.003417968750, -0.866455078125, 0.319335937500, 36.757812500000, 30.593750000000, 12.390625000000, 1490952194
-0.126953125000, -0.844726562500, 0.372558593750, 9.468750000000, 25.960937500000, 1.328125000000, 1490952195
-0.126953125000, -0.844726562500, 0.372558593750, 9.468750000000, 25.960937500000, 1.328125000000, 1490952195
-0.126953125000, -0.844726562500, 0.372558593750, 9.468750000000, 25.960937500000, 1.328125000000, 1490952195
-0.126953125000, -0.844726562500, 0.372558593750, 9.468750000000, 25.960937500000, 1.328125000000, 1490952195
-0.126953125000, -0.844726562500, 0.372558593750, 9.468750000000, 25.960937500000, 1.328125000000, 1490952195
-0.126953125000, -0.844726562500, 0.372558593750, 9.468750000000, 25.960937500000, 1.328125000000, 1490952195
-0.096923828125, -0.916259765625, 0.247070312500, -3.062500000000, 24.578125000000, 1.273437500000, 1490952195
-0.096923828125, -0.916259765625, 0.247070312500, -3.062500000000, 24.578125000000, 1.273437500000, 1490952195
-0.096923828125, -0.916259765625, 0.247070312500, -3.062500000000, 24.578125000000, 1.273437500000, 1490952195
-0.146484375000, -0.947265625000, 0.388671875000, -4.078125000000, 6.710937500000, 5.101562500000, 1490952195
-0.146484375000, -0.947265625000, 0.388671875000, -4.078125000000, 6.710937500000, 5.101562500000, 1490952195
-0.146484375000, -0.947265625000, 0.388671875000, -4.078125000000, 6.710937500000, 5.101562500000, 1490952195
-0.146484375000, -0.947265625000, 0.388671875000, -4.078125000000, 6.710937500000, 5.101562500000, 1490952195
-0.065673828125, -1.025146484375, 0.330810546875, 4.140625000000, 8.953125000000, 7.960937500000, 1490952195
0.062988281250, -1.057861328125, 0.465576171875, -7.757812500000, 13.632812500000, 6.546875000000, 1490952195
0.062988281250, -1.057861328125, 0.465576171875, -7.757812500000, 13.632812500000, 6.546875000000, 1490952195
0.062988281250, -1.057861328125, 0.465576171875, -7.757812500000, 13.632812500000, 6.546875000000, 1490952195
0.062988281250, -1.057861328125, 0.465576171875, -7.757812500000, 13.632812500000, 6.546875000000, 1490952195
0.062988281250, -1.057861328125, 0.465576171875, -7.757812500000, 13.632812500000, 6.546875000000, 1490952195
0.111083984375, -1.144042968750, 0.347900390625, -49.289062500000, 34.007812500000, 7.734375000000, 1490952195
0.111083984375, -1.144042968750, 0.347900390625, -49.289062500000, 34.007812500000, 7.734375000000, 1490952195
0.111083984375, -1.144042968750, 0.347900390625, -49.289062500000, 34.007812500000, 7.734375000000, 1490952195
0.087646484375, -0.846679687500, 0.167968750000, -33.757812500000, 50.882812500000, 29.031250000000, 1490952195
0.087646484375, -0.846679687500, 0.167968750000, -33.757812500000, 50.882812500000, 29.031250000000, 1490952195
0.087646484375, -0.846679687500, 0.167968750000, -33.757812500000, 50.882812500000, 29.031250000000, 1490952195
0.087646484375, -0.846679687500, 0.167968750000, -33.757812500000, 50.882812500000, 29.031250000000, 1490952195
0.069335937500, -0.537353515625, 0.140136718750, -23.460937500000, 79.351562500000, 28.703125000000, 1490952195
0.069335937500, -0.537353515625, 0.140136718750, -23.460937500000, 79.351562500000, 28.703125000000, 1490952195
0.069335937500, -0.537353515625, 0.140136718750, -23.460937500000, 79.351562500000, 28.703125000000, 1490952195
-0.004638671875, -0.973388671875, 0.123535156250, -99.156250000000, 31.601562500000, -8.718750000000, 1490952195
-0.004638671875, -0.973388671875, 0.123535156250, -99.156250000000, 31.601562500000, -8.718750000000, 1490952195
-0.004638671875, -0.973388671875, 0.123535156250, -99.156250000000, 31.601562500000, -8.718750000000, 1490952195
0.084960937500, -1.275878906250, 0.314453125000, -24.046875000000, 12.609375000000, 21.460937500000, 1490952195
0.084960937500, -1.275878906250, 0.314453125000, -24.046875000000, 12.609375000000, 21.460937500000, 1490952195
0.084960937500, -1.275878906250, 0.314453125000, -24.046875000000, 12.609375000000, 21.460937500000, 1490952195
-0.014160156250, -0.911132812500, 0.170166015625, 66.437500000000, 7.789062500000, 18.406250000000, 1490952195
-0.014160156250, -0.911132812500, 0.170166015625, 66.437500000000, 7.789062500000, 18.406250000000, 1490952195
-0.014160156250, -0.911132812500, 0.170166015625, 66.437500000000, 7.789062500000, 18.406250000000, 1490952195
-0.014160156250, -0.911132812500, 0.170166015625, 66.437500000000, 7.789062500000, 18.406250000000, 1490952195
-0.110595703125, -0.851318359375, 0.324707031250, 78.578125000000, -21.140625000000, 16.929687500000, 1490952195
-0.110595703125, -0.851318359375, 0.324707031250, 78.578125000000, -21.140625000000, 16.929687500000, 1490952195
-0.110595703125, -0.851318359375, 0.324707031250, 78.578125000000, -21.140625000000, 16.929687500000, 1490952195
-0.092773437500, -0.947998046875, 0.431640625000, 28.312500000000, -26.882812500000, -33.570312500000, 1490952195
-0.092773437500, -0.947998046875, 0.431640625000, 28.312500000000, -26.882812500000, -33.570312500000, 1490952195
-0.092773437500, -0.947998046875, 0.431640625000, 28.312500000000, -26.882812500000, -33.570312500000, 1490952195
0.044189453125, -0.967529296875, 0.375976562500, -24.976562500000, 9.750000000000, -25.335937500000, 1490952195
0.044189453125, -0.967529296875, 0.375976562500, -24.976562500000, 9.750000000000, -25.335937500000, 1490952195
0.044189453125, -0.967529296875, 0.375976562500, -24.976562500000, 9.750000000000, -25.335937500000, 1490952195
-0.001953125000, -0.935546875000, 0.315185546875, -10.281250000000, -2.257812500000, -5.562500000000, 1490952195
-0.001953125000, -0.935546875000, 0.315185546875, -10.281250000000, -2.257812500000, -5.562500000000, 1490952195
-0.001953125000, -0.935546875000, 0.315185546875, -10.281250000000, -2.257812500000, -5.562500000000, 1490952195
-0.001953125000, -0.935546875000, 0.315185546875, -10.281250000000, -2.257812500000, -5.562500000000, 1490952195
0.019775390625, -1.088378906250, 0.318847656250, 39.187500000000, -11.523437500000, -9.460937500000, 1490952195
0.019775390625, -1.088378906250, 0.318847656250, 39.187500000000, -11.523437500000, -9.460937500000, 1490952195
0.019775390625, -1.088378906250, 0.318847656250, 39.187500000000, -11.523437500000, -9.460937500000, 1490952195
-0.065429687500, -0.937500000000, 0.420654296875, 41.085937500000, 4.273437500000, -21.890625000000, 1490952195
-0.065429687500, -0.937500000000, 0.420654296875, 41.085937500000, 4.273437500000, -21.890625000000, 1490952195
-0.065429687500, -0.937500000000, 0.420654296875, 41.085937500000, 4.273437500000, -21.890625000000, 1490952195
0.034667968750, -0.944091796875, 0.360351562500, -22.171875000000, 1.796875000000, -13.335937500000, 1490952195
0.034667968750, -0.944091796875, 0.360351562500, -22.171875000000, 1.796875000000, -13.335937500000, 1490952195
0.034667968750, -0.944091796875, 0.360351562500, -22.171875000000, 1.796875000000, -13.335937500000, 1490952195
-0.028564453125, -0.886474609375, 0.389648437500, -36.953125000000, -7.101562500000, -11.562500000000, 1490952195
-0.028564453125, -0.886474609375, 0.389648437500, -36.953125000000, -7.101562500000, -11.562500000000, 1490952195
-0.028564453125, -0.886474609375, 0.389648437500, -36.953125000000, -7.101562500000, -11.562500000000, 1490952195
-0.028564453125, -0.886474609375, 0.389648437500, -36.953125000000, -7.101562500000, -11.562500000000, 1490952195
-0.142089843750, -0.905273437500, 0.285888671875, -19.343750000000, -22.984375000000, 2.289062500000, 1490952195
-0.142089843750, -0.905273437500, 0.285888671875, -19.343750000000, -22.984375000000, 2.289062500000, 1490952195
-0.142089843750, -0.905273437500, 0.285888671875, -19.343750000000, -22.984375000000, 2.289062500000, 1490952195
-0.272460937500, -0.792480468750, 0.280761718750, -57.476562500000, -34.101562500000, -13.734375000000, 1490952195
-0.272460937500, -0.792480468750, 0.280761718750, -57.476562500000, -34.101562500000, -13.734375000000, 1490952195
-0.272460937500, -0.792480468750, 0.280761718750, -57.476562500000, -34.101562500000, -13.734375000000, 1490952196
-0.256835937500, -0.871582031250, 0.168701171875, -56.921875000000, -88.382812500000, -45.460937500000, 1490952196
-0.256835937500, -0.871582031250, 0.168701171875, -56.921875000000, -88.382812500000, -45.460937500000, 1490952196
-0.256835937500, -0.871582031250, 0.168701171875, -56.921875000000, -88.382812500000, -45.460937500000, 1490952196
0.152587890625, -1.032714843750, 0.263427734375, 13.445312500000, 9.992187500000, -25.695312500000, 1490952196
0.152587890625, -1.032714843750, 0.263427734375, 13.445312500000, 9.992187500000, -25.695312500000, 1490952196
0.152587890625, -1.032714843750, 0.263427734375, 13.445312500000, 9.992187500000, -25.695312500000, 1490952196
0.152587890625, -1.032714843750, 0.263427734375, 13.445312500000, 9.992187500000, -25.695312500000, 1490952196
0.055908203125, -1.062255859375, 0.190429687500, 56.789062500000, 8.921875000000, 9.390625000000, 1490952196
0.055908203125, -1.062255859375, 0.190429687500, 56.789062500000, 8.921875000000, 9.390625000000, 1490952196
0.055908203125, -1.062255859375, 0.190429687500, 56.789062500000, 8.921875000000, 9.390625000000, 1490952196
-0.008056640625, -0.956787109375, 0.194580078125, 56.812500000000, -93.398437500000, 19.632812500000, 1490952196
-0.008056640625, -0.956787109375, 0.194580078125, 56.812500000000, -93.398437500000, 19.632812500000, 1490952196
-0.008056640625, -0.956787109375, 0.194580078125, 56.812500000000, -93.398437500000, 19.632812500000, 1490952196
-0.078613281250, -1.024169921875, 0.355224609375, 103.976562500000, -109.828125000000, 9.351562500000, 1490952196
-0.078613281250, -1.024169921875, 0.355224609375, 103.976562500000, -109.828125000000, 9.351562500000, 1490952196
-0.078613281250, -1.024169921875, 0.355224609375, 103.976562500000, -109.828125000000, 9.351562500000, 1490952196
0.046386718750, -0.954589843750, 0.382568359375, 7.523437500000, 0.906250000000, -10.976562500000, 1490952196
0.046386718750, -0.954589843750, 0.382568359375, 7.523437500000, 0.906250000000, -10.976562500000, 1490952196
0.046386718750, -0.954589843750, 0.382568359375, 7.523437500000, 0.906250000000, -10.976562500000, 1490952196
0.046386718750, -0.954589843750, 0.382568359375, 7.523437500000, 0.906250000000, -10.976562500000, 1490952196
-0.032714843750, -0.920898437500, 0.254638671875, -39.273437500000, 9.398437500000, -2.773437500000, 1490952196
-0.032714843750, -0.920898437500, 0.254638671875, -39.273437500000, 9.398437500000, -2.773437500000, 1490952196
-0.032714843750, -0.920898437500, 0.254638671875, -39.273437500000, 9.398437500000, -2.773437500000, 1490952196
-0.085449218750, -0.982421875000, 0.199707031250, -55.945312500000, 25.718750000000, 3.750000000000, 1490952196
-0.085449218750, -0.982421875000, 0.199707031250, -55.945312500000, 25.718750000000, 3.750000000000, 1490952196
-0.085449218750, -0.982421875000, 0.199707031250, -55.945312500000, 25.718750000000, 3.750000000000, 1490952196
0.020751953125, -1.093017578125, 0.188232421875, -15.656250000000, -4.945312500000, 10.085937500000, 1490952196
0.020751953125, -1.093017578125, 0.188232421875, -15.656250000000, -4.945312500000, 10.085937500000, 1490952196
0.020751953125, -1.093017578125, 0.188232421875, -15.656250000000, -4.945312500000, 10.085937500000, 1490952196
0.001220703125, -0.999511718750, 0.169189453125, 62.531250000000, 4.546875000000, 9.171875000000, 1490952196
0.001220703125, -0.999511718750, 0.169189453125, 62.531250000000, 4.546875000000, 9.171875000000, 1490952196
0.001220703125, -0.999511718750, 0.169189453125, 62.531250000000, 4.546875000000, 9.171875000000, 1490952196
0.001220703125, -0.999511718750, 0.169189453125, 62.531250000000, 4.546875000000, 9.171875000000, 1490952196
-0.071289062500, -0.995605468750, 0.293212890625, 54.179687500000, -14.117187500000, 11.554687500000, 1490952196
-0.071289062500, -0.995605468750, 0.293212890625, 54.179687500000, -14.117187500000, 11.554687500000, 1490952196
-0.071289062500, -0.995605468750, 0.293212890625, 54.179687500000, -14.117187500000, 11.554687500000, 1490952196
0.009033203125, -0.851806640625, 0.386474609375, 2.421875000000, -23.976562500000, 3.164062500000, 1490952196
0.009033203125, -0.851806640625, 0.386474609375, 2.421875000000, -23.976562500000, 3.164062500000, 1490952196
0.009033203125, -0.851806640625, 0.386474609375, 2.421875000000, -23.976562500000, 3.164062500000, 1490952196
-0.098876953125, -0.969482421875, 0.243408203125, -41.757812500000, -12.054687500000, 5.765625000000, 1490952196
-0.098876953125, -0.969482421875, 0.243408203125, -41.757812500000, -12.054687500000, 5.765625000000, 1490952196
-0.098876953125, -0.969482421875, 0.243408203125, -41.757812500000, -12.054687500000, 5.765625000000, 1490952196
0.054443359375, -1.253417968750, 0.312744140625, -59.437500000000, -11.281250000000, -12.898437500000, 1490952196
0.054443359375, -1.253417968750, 0.312744140625, -59.437500000000, -11.281250000000, -12.898437500000, 1490952196
0.054443359375, -1.253417968750, 0.312744140625, -59.437500000000, -11.281250000000, -12.898437500000, 1490952196
0.054443359375, -1.253417968750, 0.312744140625, -59.437500000000, -11.281250000000, -12.898437500000, 1490952196
-0.016113281250, -0.964599609375, 0.166748046875, -1.375000000000, 2.210937500000, -17.617187500000, 1490952196
-0.016113281250, -0.964599609375, 0.166748046875, -1.375000000000, 2.210937500000, -17.617187500000, 1490952196
-0.016113281250, -0.964599609375, 0.166748046875, -1.375000000000, 2.210937500000, -17.617187500000, 1490952196
0.068847656250, -0.759765625000, 0.141601562500, 5.140625000000, 15.851562500000, -32.367187500000, 1490952196
0.068847656250, -0.759765625000, 0.141601562500, 5.140625000000, 15.851562500000, -32.367187500000, 1490952196
0.068847656250, -0.759765625000, 0.141601562500, 5.140625000000, 15.851562500000, -32.367187500000, 1490952196
0.052001953125, -0.935546875000, 0.209228515625, -105.140625000000, -7.351562500000, -52.656250000000, 1490952196
0.052001953125, -0.935546875000, 0.209228515625, -105.140625000000, -7.351562500000, -52.656250000000, 1490952196
0.052001953125, -0.935546875000, 0.209228515625, -105.140625000000, -7.351562500000, -52.656250000000, 1490952196
0.121337890625, -1.175537109375, 0.320312500000, -22.632812500000, 7.898437500000, 7.203125000000, 1490952196
0.121337890625, -1.175537109375, 0.320312500000, -22.632812500000, 7.898437500000, 7.203125000000, 1490952196
0.121337890625, -1.175537109375, 0.320312500000, -22.632812500000, 7.898437500000, 7.203125000000, 1490952196
0.121337890625, -1.175537109375, 0.320312500000, -22.632812500000, 7.898437500000, 7.203125000000, 1490952196
-0.025390625000, -0.867919921875, 0.257324218750, 28.726562500000, 50.625000000000, -13.734375000000, 1490952196
-0.025390625000, -0.867919921875, 0.257324218750, 28.726562500000, 50.625000000000, -13.734375000000, 1490952196
-0.025390625000, -0.867919921875, 0.257324218750, 28.726562500000, 50.625000000000, -13.734375000000, 1490952196
-0.069580078125, -0.842529296875, 0.162353515625, 23.132812500000, -31.320312500000, -6.992187500000, 1490952196
-0.069580078125, -0.842529296875, 0.162353515625, 23.132812500000, -31.320312500000, -6.992187500000, 1490952196
-0.069580078125, -0.842529296875, 0.162353515625, 23.132812500000, -31.320312500000, -6.992187500000, 1490952196
-0.017578125000, -0.800781250000, 0.310058593750, 26.781250000000, 5.062500000000, -9.835937500000, 1490952197
-0.017578125000, -0.800781250000, 0.310058593750, 26.781250000000, 5.062500000000, -9.835937500000, 1490952197
-0.017578125000, -0.800781250000, 0.310058593750, 26.781250000000, 5.062500000000, -9.835937500000, 1490952197
-0.030029296875, -0.941894531250, 0.341064453125, -8.890625000000, 19.632812500000, -15.929687500000, 1490952197
-0.030029296875, -0.941894531250, 0.341064453125, -8.890625000000, 19.632812500000, -15.929687500000, 1490952197
-0.030029296875, -0.941894531250, 0.341064453125, -8.890625000000, 19.632812500000, -15.929687500000, 1490952197
-0.030029296875, -0.941894531250, 0.341064453125, -8.890625000000, 19.632812500000, -15.929687500000, 1490952197
0.064941406250, -1.032470703125, 0.306152343750, -3.085937500000, 23.453125000000, -15.007812500000, 1490952197
0.064941406250, -1.032470703125, 0.306152343750, -3.085937500000, 23.453125000000, -15.007812500000, 1490952197
0.064941406250, -1.032470703125, 0.306152343750, -3.085937500000, 23.453125000000, -15.007812500000, 1490952197
0.129150390625, -0.907714843750, 0.342529296875, 28.476562500000, 14.187500000000, -7.656250000000, 1490952197
0.129150390625, -0.907714843750, 0.342529296875, 28.476562500000, 14.187500000000, -7.656250000000, 1490952197
0.129150390625, -0.907714843750, 0.342529296875, 28.476562500000, 14.187500000000, -7.656250000000, 1490952197
-0.038574218750, -1.010498046875, 0.350830078125, 29.070312500000, 34.070312500000, 6.734375000000, 1490952197
-0.038574218750, -1.010498046875, 0.350830078125, 29.070312500000, 34.070312500000, 6.734375000000, 1490952197
-0.038574218750, -1.010498046875, 0.350830078125, 29.070312500000, 34.070312500000, 6.734375000000, 1490952197
-0.244873046875, -0.959960937500, 0.336669921875, -25.789062500000, -1.992187500000, -5.835937500000, 1490952197
-0.244873046875, -0.959960937500, 0.336669921875, -25.789062500000, -1.992187500000, -5.835937500000, 1490952197
-0.244873046875, -0.959960937500, 0.336669921875, -25.789062500000, -1.992187500000, -5.835937500000, 1490952197
-0.244873046875, -0.959960937500, 0.336669921875, -25.789062500000, -1.992187500000, -5.835937500000, 1490952197
-0.052246093750, -0.989990234375, 0.332519531250, -53.132812500000, -32.343750000000, -24.125000000000, 1490952197
-0.052246093750, -0.989990234375, 0.332519531250, -53.132812500000, -32.343750000000, -24.125000000000, 1490952197
-0.052246093750, -0.989990234375, 0.332519531250, -53.132812500000, -32.343750000000, -24.125000000000, 1490952197
-0.183593750000, -0.987304687500, 0.261962890625, -72.906250000000, -34.570312500000, -28.117187500000, 1490952197
-0.183593750000, -0.987304687500, 0.261962890625, -72.906250000000, -34.570312500000, -28.117187500000, 1490952197
-0.183593750000, -0.987304687500, 0.261962890625, -72.906250000000, -34.570312500000, -28.117187500000, 1490952197
-0.096679687500, -0.868408203125, 0.273925781250, -10.593750000000, -15.914062500000, -30.164062500000, 1490952197
-0.096679687500, -0.868408203125, 0.273925781250, -10.593750000000, -15.914062500000, -30.164062500000, 1490952197
-0.096679687500, -0.868408203125, 0.273925781250, -10.593750000000, -15.914062500000, -30.164062500000, 1490952197
-0.112304687500, -0.793945312500, 0.235351562500, 11.390625000000, -52.375000000000, -18.781250000000, 1490952197
-0.103027343750, -0.922363281250, 0.271240234375, 11.390625000000, -52.375000000000, -18.781250000000, 1490952197
-0.103027343750, -0.922363281250, 0.271240234375, 11.390625000000, -52.375000000000, -18.781250000000, 1490952197
-0.103027343750, -0.922363281250, 0.271240234375, 11.390625000000, -52.375000000000, -18.781250000000, 1490952197
0.002929687500, -1.036376953125, 0.304931640625, 4.554687500000, -6.117187500000, -4.726562500000, 1490952197
0.002929687500, -1.036376953125, 0.304931640625, 4.554687500000, -6.117187500000, -4.726562500000, 1490952197
0.002929687500, -1.036376953125, 0.304931640625, 4.554687500000, -6.117187500000, -4.726562500000, 1490952197
0.002929687500, -1.036376953125, 0.304931640625, 4.554687500000, -6.117187500000, -4.726562500000, 1490952197
0.002929687500, -1.036376953125, 0.304931640625, 4.554687500000, -6.117187500000, -4.726562500000, 1490952197
0.002929687500, -1.036376953125, 0.304931640625, 4.554687500000, -6.117187500000, -4.726562500000, 1490952197
-0.099121093750, -0.919189453125, 0.302978515625, 18.500000000000, 4.351562500000, 12.078125000000, 1490952197
-0.099121093750, -0.919189453125, 0.302978515625, 18.500000000000, 4.351562500000, 12.078125000000, 1490952197
-0.099121093750, -0.919189453125, 0.302978515625, 18.500000000000, 4.351562500000, 12.078125000000, 1490952197
-0.115478515625, -0.916992187500, 0.393798828125, 8.484375000000, 1.460937500000, 4.960937500000, 1490952197
-0.115478515625, -0.916992187500, 0.393798828125, 8.484375000000, 1.460937500000, 4.960937500000, 1490952197
-0.115478515625, -0.916992187500, 0.393798828125, 8.484375000000, 1.460937500000, 4.960937500000, 1490952197
-0.115478515625, -0.916992187500, 0.393798828125, 8.484375000000, 1.460937500000, 4.960937500000, 1490952197
-0.166259765625, -0.965820312500, 0.393798828125, -5.562500000000, 17.593750000000, -12.109375000000, 1490952197
-0.166259765625, -0.965820312500, 0.393798828125, -5.562500000000, 17.593750000000, -12.109375000000, 1490952197
-0.166259765625, -0.965820312500, 0.393798828125, -5.562500000000, 17.593750000000, -12.109375000000, 1490952197
-0.189453125000, -0.937011718750, 0.318603515625, 4.539062500000, 37.414062500000, -2.578125000000, 1490952197
-0.189453125000, -0.937011718750, 0.318603515625, 4.539062500000, 37.414062500000, -2.578125000000, 1490952197
-0.189453125000, -0.937011718750, 0.318603515625, 4.539062500000, 37.414062500000, -2.578125000000, 1490952197
-0.144775390625, -0.953613281250, 0.385253906250, -5.382812500000, 45.828125000000, 21.171875000000, 1490952197
-0.144775390625, -0.953613281250, 0.385253906250, -5.382812500000, 45.828125000000, 21.171875000000, 1490952197
-0.144775390625, -0.953613281250, 0.385253906250, -5.382812500000, 45.828125000000, 21.171875000000, 1490952197
-0.037597656250, -0.924560546875, 0.390625000000, -17.742187500000, 34.570312500000, 42.992187500000, 1490952197
-0.037597656250, -0.924560546875, 0.390625000000, -17.742187500000, 34.570312500000, 42.992187500000, 1490952197
-0.037597656250, -0.924560546875, 0.390625000000, -17.742187500000, 34.570312500000, 42.992187500000, 1490952197
-0.037597656250, -0.924560546875, 0.390625000000, -17.742187500000, 34.570312500000, 42.992187500000, 1490952197
-0.265380859375, -0.948730468750, 0.439941406250, -8.078125000000, 41.054687500000, 40.179687500000, 1490952197
-0.265380859375, -0.948730468750, 0.439941406250, -8.078125000000, 41.054687500000, 40.179687500000, 1490952197
-0.265380859375, -0.948730468750, 0.439941406250, -8.078125000000, 41.054687500000, 40.179687500000, 1490952197
-0.162597656250, -0.866699218750, 0.390380859375, -15.289062500000, 28.187500000000, 22.664062500000, 1490952197
-0.162597656250, -0.866699218750, 0.390380859375, -15.289062500000, 28.187500000000, 22.664062500000, 1490952197
-0.162597656250, -0.866699218750, 0.390380859375, -15.289062500000, 28.187500000000, 22.664062500000, 1490952197
0.090332031250, -1.096191406250, 0.502441406250, -54.367187500000, 12.843750000000, 10.296875000000, 1490952197
0.090332031250, -1.096191406250, 0.502441406250, -54.367187500000, 12.843750000000, 10.296875000000, 1490952197
0.090332031250, -1.096191406250, 0.502441406250, -54.367187500000, 12.843750000000, 10.296875000000, 1490952197
0.063964843750, -0.949707031250, 0.249267578125, -51.742187500000, 45.156250000000, 17.054687500000, 1490952198
0.063964843750, -0.949707031250, 0.249267578125, -51.742187500000, 45.156250000000, 17.054687500000, 1490952198
0.063964843750, -0.949707031250, 0.249267578125, -51.742187500000, 45.156250000000, 17.054687500000, 1490952198
0.063964843750, -0.949707031250, 0.249267578125, -51.742187500000, 45.156250000000, 17.054687500000, 1490952198
0.149414062500, -0.666992187500, 0.207031250000, -11.359375000000, 74.007812500000, 24.070312500000, 1490952198
0.149414062500, -0.666992187500, 0.207031250000, -11.359375000000, 74.007812500000, 24.070312500000, 1490952198
0.149414062500, -0.666992187500, 0.207031250000, -11.359375000000, 74.007812500000, 24.070312500000, 1490952198
0.056884765625, -0.879638671875, 0.159912109375, -28.335937500000, 64.585937500000, 25.109375000000, 1490952198
0.056884765625, -0.879638671875, 0.159912109375, -28.335937500000, 64.585937500000, 25.109375000000, 1490952198
0.056884765625, -0.879638671875, 0.159912109375, -28.335937500000, 64.585937500000, 25.109375000000, 1490952198
0.018310546875, -1.299072265625, 0.375732421875, -18.273437500000, 9.039062500000, 56.000000000000, 1490952198
0.018310546875, -1.299072265625, 0.375732421875, -18.273437500000, 9.039062500000, 56.000000000000, 1490952198
0.018310546875, -1.299072265625, 0.375732421875, -18.273437500000, 9.039062500000, 56.000000000000, 1490952198
-0.130126953125, -0.978759765625, 0.364501953125, 42.953125000000, 31.007812500000, 11.976562500000, 1490952198
-0.130126953125, -0.978759765625, 0.364501953125, 42.953125000000, 31.007812500000, 11.976562500000, 1490952198
-0.130126953125, -0.978759765625, 0.364501953125, 42.953125000000, 31.007812500000, 11.976562500000, 1490952198
-0.130126953125, -0.978759765625, 0.364501953125, 42.953125000000, 31.007812500000, 11.976562500000, 1490952198
0.062255859375, -0.782226562500, 0.333496093750, 34.171875000000, 21.039062500000, 11.484375000000, 1490952198
0.062255859375, -0.782226562500, 0.333496093750, 34.171875000000, 21.039062500000, 11.484375000000, 1490952198
0.062255859375, -0.782226562500, 0.333496093750, 34.171875000000, 21.039062500000, 11.484375000000, 1490952198
0.133300781250, -0.959960937500, 0.357666015625, 2.039062500000, -28.062500000000, 3.593750000000, 1490952198
0.133300781250, -0.959960937500, 0.357666015625, 2.039062500000, -28.062500000000, 3.593750000000, 1490952198
0.133300781250, -0.959960937500, 0.357666015625, 2.039062500000, -28.062500000000, 3.593750000000, 1490952198
0.133300781250, -0.959960937500, 0.357666015625, 2.039062500000, -28.062500000000, 3.593750000000, 1490952198
0.098388671875, -0.960693359375, 0.384033203125, 4.054687500000, -23.539062500000, 6.406250000000, 1490952198
0.098388671875, -0.960693359375, 0.384033203125, 4.054687500000, -23.539062500000, 6.406250000000, 1490952198
0.098388671875, -0.960693359375, 0.384033203125, 4.054687500000, -23.539062500000, 6.406250000000, 1490952198
0.117919921875, -0.944824218750, 0.385498046875, 8.156250000000, -9.335937500000, 5.875000000000, 1490952198
0.117919921875, -0.944824218750, 0.385498046875, 8.156250000000, -9.335937500000, 5.875000000000, 1490952198
0.117919921875, -0.944824218750, 0.385498046875, 8.156250000000, -9.335937500000, 5.875000000000, 1490952198
0.117919921875, -0.944824218750, 0.385498046875, 8.156250000000, -9.335937500000, 5.875000000000, 1490952198
0.117919921875, -0.944824218750, 0.385498046875, 8.156250000000, -9.335937500000, 5.875000000000, 1490952198
0.117919921875, -0.944824218750, 0.385498046875, 8.156250000000, -9.335937500000, 5.875000000000, 1490952198
0.155517578125, -0.848632812500, 0.356201171875, 8.515625000000, -0.289062500000, 2.453125000000, 1490952198
0.155517578125, -0.848632812500, 0.356201171875, 8.515625000000, -0.289062500000, 2.453125000000, 1490952198
0.155517578125, -0.848632812500, 0.356201171875, 8.515625000000, -0.289062500000, 2.453125000000, 1490952198
0.101562500000, -0.848144531250, 0.466064453125, -7.492187500000, 5.210937500000, -1.734375000000, 1490952198
0.101562500000, -0.848144531250, 0.466064453125, -7.492187500000, 5.210937500000, -1.734375000000, 1490952198
0.101562500000, -0.848144531250, 0.466064453125, -7.492187500000, 5.210937500000, -1.734375000000, 1490952198
0.052978515625, -0.905273437500, 0.346191406250, -10.750000000000, 3.492187500000, -5.585937500000, 1490952198
0.052978515625, -0.905273437500, 0.346191406250, -10.750000000000, 3.492187500000, -5.585937500000, 1490952198
0.052978515625, -0.905273437500, 0.346191406250, -10.750000000000, 3.492187500000, -5.585937500000, 1490952198
0.052978515625, -0.905273437500, 0.346191406250, -10.750000000000, 3.492187500000, -5.585937500000, 1490952198
0.089355468750, -0.967041015625, 0.383056640625, -21.273437500000, 6.890625000000, -8.914062500000, 1490952198
0.089355468750, -0.967041015625, 0.383056640625, -21.273437500000, 6.890625000000, -8.914062500000, 1490952198
0.089355468750, -0.967041015625, 0.383056640625, -21.273437500000, 6.890625000000, -8.914062500000, 1490952198
0.011718750000, -1.061279296875, 0.393066406250, -44.804687500000, -9.640625000000, -18.359375000000, 1490952198
0.011718750000, -1.061279296875, 0.393066406250, -44.804687500000, -9.640625000000, -18.359375000000, 1490952198
0.011718750000, -1.061279296875, 0.393066406250, -44.804687500000, -9.640625000000, -18.359375000000, 1490952198
0.048339843750, -0.908447265625, 0.281494140625, -16.109375000000, 21.289062500000, -13.187500000000, 1490952198
0.048339843750, -0.908447265625, 0.281494140625, -16.109375000000, 21.289062500000, -13.187500000000, 1490952198
0.048339843750, -0.908447265625, 0.281494140625, -16.109375000000, 21.289062500000, -13.187500000000, 1490952198
-0.126220703125, -0.760742187500, 0.276611328125, -25.054687500000, -10.484375000000, -2.468750000000, 1490952198
-0.126220703125, -0.760742187500, 0.276611328125, -25.054687500000, -10.484375000000, -2.468750000000, 1490952198
-0.126220703125, -0.760742187500, 0.276611328125, -25.054687500000, -10.484375000000, -2.468750000000, 1490952198
-0.126220703125, -0.760742187500, 0.276611328125, -25.054687500000, -10.484375000000, -2.468750000000, 1490952198
-0.136474609375, -0.951416015625, 0.181152343750, -47.679687500000, -48.687500000000, -42.296875000000, 1490952198
-0.136474609375, -0.951416015625, 0.181152343750, -47.679687500000, -48.687500000000, -42.296875000000, 1490952198
-0.136474609375, -0.951416015625, 0.181152343750, -47.679687500000, -48.687500000000, -42.296875000000, 1490952198
0.083740234375, -1.189208984375, 0.265136718750, 10.351562500000, -25.828125000000, -22.671875000000, 1490952198
0.083740234375, -1.189208984375, 0.265136718750, 10.351562500000, -25.828125000000, -22.671875000000, 1490952198
0.083740234375, -1.189208984375, 0.265136718750, 10.351562500000, -25.828125000000, -22.671875000000, 1490952198
0.221679687500, -1.076904296875, 0.297851562500, 61.593750000000, -40.250000000000, 5.804687500000, 1490952198
0.221679687500, -1.076904296875, 0.297851562500, 61.593750000000, -40.250000000000, 5.804687500000, 1490952198
0.221679687500, -1.076904296875, 0.297851562500, 61.593750000000, -40.250000000000, 5.804687500000, 1490952198
0.045654296875, -0.950195312500, 0.286132812500, -20.039062500000, -38.062500000000, 12.851562500000, 1490952199
0.045654296875, -0.950195312500, 0.286132812500, -20.039062500000, -38.062500000000, 12.851562500000, 1490952199
0.045654296875, -0.950195312500, 0.286132812500, -20.039062500000, -38.062500000000, 12.851562500000, 1490952199
0.045654296875, -0.950195312500, 0.286132812500, -20.039062500000, -38.062500000000, 12.851562500000, 1490952199
0.075927734375, -0.920654296875, 0.279296875000, -15.078125000000, -9.609375000000, 3.515625000000, 1490952199
0.075927734375, -0.920654296875, 0.279296875000, -15.078125000000, -9.609375000000, 3.515625000000, 1490952199
0.075927734375, -0.920654296875, 0.279296875000, -15.078125000000, -9.609375000000, 3.515625000000, 1490952199
0.075927734375, -0.920654296875, 0.279296875000, -15.078125000000, -9.609375000000, 3.515625000000, 1490952199
0.075927734375, -0.920654296875, 0.279296875000, -15.078125000000, -9.609375000000, 3.515625000000, 1490952199
0.075927734375, -0.920654296875, 0.279296875000, -15.078125000000, -9.609375000000, 3.515625000000, 1490952199
0.118896484375, -0.929687500000, 0.225830078125, 36.242187500000, -1.148437500000, 0.648437500000, 1490952199
0.118896484375, -0.929687500000, 0.225830078125, 36.242187500000, -1.148437500000, 0.648437500000, 1490952199
0.118896484375, -0.929687500000, 0.225830078125, 36.242187500000, -1.148437500000, 0.648437500000, 1490952199
0.114501953125, -0.801513671875, 0.449462890625, 32.507812500000, -2.921875000000, 16.992187500000, 1490952199
0.114501953125, -0.801513671875, 0.449462890625, 32.507812500000, -2.921875000000, 16.992187500000, 1490952199
0.114501953125, -0.801513671875, 0.449462890625, 32.507812500000, -2.921875000000, 16.992187500000, 1490952199
0.114501953125, -0.801513671875, 0.449462890625, 32.507812500000, -2.921875000000, 16.992187500000, 1490952199
0.082031250000, -0.908203125000, 0.391601562500, -11.179687500000, 10.960937500000, 13.562500000000, 1490952199
0.082031250000, -0.908203125000, 0.391601562500, -11.179687500000, 10.960937500000, 13.562500000000, 1490952199
0.082031250000, -0.908203125000, 0.391601562500, -11.179687500000, 10.960937500000, 13.562500000000, 1490952199
0.050537109375, -0.913818359375, 0.246826171875, -30.578125000000, -0.968750000000, 14.132812500000, 1490952199
0.050537109375, -0.913818359375, 0.246826171875, -30.578125000000, -0.968750000000, 14.132812500000, 1490952199
0.050537109375, -0.913818359375, 0.246826171875, -30.578125000000, -0.968750000000, 14.132812500000, 1490952199
0.191894531250, -1.058105468750, 0.379882812500, -13.289062500000, -13.109375000000, 0.070312500000, 1490952199
0.191894531250, -1.058105468750, 0.379882812500, -13.289062500000, -13.109375000000, 0.070312500000, 1490952199
0.191894531250, -1.058105468750, 0.379882812500, -13.289062500000, -13.109375000000, 0.070312500000, 1490952199
0.254882812500, -0.912841796875, 0.282958984375, -18.179687500000, -15.335937500000, -4.046875000000, 1490952199
0.254882812500, -0.912841796875, 0.282958984375, -18.179687500000, -15.335937500000, -4.046875000000, 1490952199
0.254882812500, -0.912841796875, 0.282958984375, -18.179687500000, -15.335937500000, -4.046875000000, 1490952199
0.254882812500, -0.912841796875, 0.282958984375, -18.179687500000, -15.335937500000, -4.046875000000, 1490952199
0.223388671875, -0.941162109375, 0.187500000000, -34.929687500000, 15.914062500000, -11.843750000000, 1490952199
0.223388671875, -0.941162109375, 0.187500000000, -34.929687500000, 15.914062500000, -11.843750000000, 1490952199
0.223388671875, -0.941162109375, 0.187500000000, -34.929687500000, 15.914062500000, -11.843750000000, 1490952199
0.154296875000, -0.775146484375, 0.118408203125, -46.632812500000, 40.882812500000, -13.226562500000, 1490952199
0.154296875000, -0.775146484375, 0.118408203125, -46.632812500000, 40.882812500000, -13.226562500000, 1490952199
0.154296875000, -0.775146484375, 0.118408203125, -46.632812500000, 40.882812500000, -13.226562500000, 1490952199
0.198974609375, -1.017333984375, 0.182373046875, -47.484375000000, 13.796875000000, -21.820312500000, 1490952199
0.198974609375, -1.017333984375, 0.182373046875, -47.484375000000, 13.796875000000, -21.820312500000, 1490952199
0.198974609375, -1.017333984375, 0.182373046875, -47.484375000000, 13.796875000000, -21.820312500000, 1490952199
0.113769531250, -1.134033203125, 0.324462890625, 43.375000000000, 31.039062500000, 3.882812500000, 1490952199
0.113769531250, -1.134033203125, 0.324462890625, 43.375000000000, 31.039062500000, 3.882812500000, 1490952199
0.113769531250, -1.134033203125, 0.324462890625, 43.375000000000, 31.039062500000, 3.882812500000, 1490952199
0.113769531250, -1.134033203125, 0.324462890625, 43.375000000000, 31.039062500000, 3.882812500000, 1490952199
0.132080078125, -1.032714843750, 0.406494140625, 24.500000000000, 34.828125000000, -7.523437500000, 1490952199
0.132080078125, -1.032714843750, 0.406494140625, 24.500000000000, 34.828125000000, -7.523437500000, 1490952199
0.132080078125, -1.032714843750, 0.406494140625, 24.500000000000, 34.828125000000, -7.523437500000, 1490952199
0.074951171875, -0.984863281250, 0.328857421875, -13.968750000000, 31.671875000000, -6.687500000000, 1490952199
0.074951171875, -0.984863281250, 0.328857421875, -13.968750000000, 31.671875000000, -6.687500000000, 1490952199
0.074951171875, -0.984863281250, 0.328857421875, -13.968750000000, 31.671875000000, -6.687500000000, 1490952199
0.114990234375, -0.952880859375, 0.324462890625, 10.187500000000, 25.203125000000, -11.171875000000, 1490952199
0.114990234375, -0.952880859375, 0.324462890625, 10.187500000000, 25.203125000000, -11.171875000000, 1490952199
0.114990234375, -0.952880859375, 0.324462890625, 10.187500000000, 25.203125000000, -11.171875000000, 1490952199
0.107177734375, -0.847656250000, 0.304931640625, 19.929687500000, 24.031250000000, -0.726562500000, 1490952199
0.107177734375, -0.847656250000, 0.304931640625, 19.929687500000, 24.031250000000, -0.726562500000, 1490952199
0.107177734375, -0.847656250000, 0.304931640625, 19.929687500000, 24.031250000000, -0.726562500000, 1490952199
0.107177734375, -0.847656250000, 0.304931640625, 19.929687500000, 24.031250000000, -0.726562500000, 1490952199
0.076904296875, -0.915771484375, 0.383544921875, 20.140625000000, 34.968750000000, 1.328125000000, 1490952199
0.076904296875, -0.915771484375, 0.383544921875, 20.140625000000, 34.968750000000, 1.328125000000, 1490952199
0.076904296875, -0.915771484375, 0.383544921875, 20.140625000000, 34.968750000000, 1.328125000000, 1490952199
0.050781250000, -0.845458984375, 0.328613281250, 18.460937500000, 27.664062500000, 5.859375000000, 1490952199
0.050781250000, -0.845458984375, 0.328613281250, 18.460937500000, 27.664062500000, 5.859375000000, 1490952199
0.050781250000, -0.845458984375, 0.328613281250, 18.460937500000, 27.664062500000, 5.859375000000, 1490952199
-0.018310546875, -0.928222656250, 0.318603515625, 25.265625000000, 21.546875000000, 3.812500000000, 1490952199
-0.018310546875, -0.928222656250, 0.318603515625, 25.265625000000, 21.546875000000, 3.812500000000, 1490952199
-0.018310546875, -0.928222656250, 0.318603515625, 25.265625000000, 21.546875000000, 3.812500000000, 1490952199
-0.086425781250, -1.073974609375, 0.370361328125, 22.382812500000, 23.132812500000, 10.531250000000, 1490952199
-0.086425781250, -1.073974609375, 0.370361328125, 22.382812500000, 23.132812500000, 10.531250000000, 1490952200
-0.062500000000, -0.962646484375, 0.445556640625, -9.750000000000, 19.742187500000, -10.218750000000, 1490952200
-0.062500000000, -0.962646484375, 0.445556640625, -9.750000000000, 19.742187500000, -10.218750000000, 1490952200
-0.062500000000, -0.962646484375, 0.445556640625, -9.750000000000, 19.742187500000, -10.218750000000, 1490952200
-0.062500000000, -0.962646484375, 0.445556640625, -9.750000000000, 19.742187500000, -10.218750000000, 1490952200
-0.062500000000, -0.962646484375, 0.445556640625, -9.750000000000, 19.742187500000, -10.218750000000, 1490952200
-0.037597656250, -0.941162109375, 0.372802734375, -37.593750000000, 10.468750000000, -20.046875000000, 1490952200
-0.037597656250, -0.941162109375, 0.372802734375, -37.593750000000, 10.468750000000, -20.046875000000, 1490952200
-0.037597656250, -0.941162109375, 0.372802734375, -37.593750000000, 10.468750000000, -20.046875000000, 1490952200
-0.039306640625, -0.996093750000, 0.292968750000, -67.000000000000, 3.656250000000, -10.828125000000, 1490952200
-0.039306640625, -0.996093750000, 0.292968750000, -67.000000000000, 3.656250000000, -10.828125000000, 1490952200
-0.039306640625, -0.996093750000, 0.292968750000, -67.000000000000, 3.656250000000, -10.828125000000, 1490952200
-0.148193359375, -0.889160156250, 0.197998046875, -123.578125000000, -27.351562500000, -38.273437500000, 1490952200
-0.148193359375, -0.889160156250, 0.197998046875, -123.578125000000, -27.351562500000, -38.273437500000, 1490952200
-0.148193359375, -0.889160156250, 0.197998046875, -123.578125000000, -27.351562500000, -38.273437500000, 1490952200
-0.148193359375, -0.889160156250, 0.197998046875, -123.578125000000, -27.351562500000, -38.273437500000, 1490952200
-0.218017578125, -1.024902343750, 0.216308593750, -91.195312500000, -49.359375000000, -78.304687500000, 1490952200
-0.218017578125, -1.024902343750, 0.216308593750, -91.195312500000, -49.359375000000, -78.304687500000, 1490952200
-0.218017578125, -1.024902343750, 0.216308593750, -91.195312500000, -49.359375000000, -78.304687500000, 1490952200
0.061279296875, -1.209716796875, 0.337158203125, 44.148437500000, -16.601562500000, -20.859375000000, 1490952200
0.061279296875, -1.209716796875, 0.337158203125, 44.148437500000, -16.601562500000, -20.859375000000, 1490952200
0.061279296875, -1.209716796875, 0.337158203125, 44.148437500000, -16.601562500000, -20.859375000000, 1490952200
0.154296875000, -1.103271484375, 0.158447265625, 76.929687500000, 62.507812500000, 29.062500000000, 1490952200
0.154296875000, -1.103271484375, 0.158447265625, 76.929687500000, 62.507812500000, 29.062500000000, 1490952200
0.154296875000, -1.103271484375, 0.158447265625, 76.929687500000, 62.507812500000, 29.062500000000, 1490952200
0.208251953125, -0.858398437500, 0.120605468750, 118.679687500000, -143.414062500000, -6.687500000000, 1490952200
0.208251953125, -0.858398437500, 0.120605468750, 118.679687500000, -143.414062500000, -6.687500000000, 1490952200
0.208251953125, -0.858398437500, 0.120605468750, 118.679687500000, -143.414062500000, -6.687500000000, 1490952200
0.208251953125, -0.858398437500, 0.120605468750, 118.679687500000, -143.414062500000, -6.687500000000, 1490952200
0.002197265625, -0.930175781250, 0.773193359375, 52.421875000000, 18.335937500000, 22.234375000000, 1490952200
0.002197265625, -0.930175781250, 0.773193359375, 52.421875000000, 18.335937500000, 22.234375000000, 1490952200
0.002197265625, -0.930175781250, 0.773193359375, 52.421875000000, 18.335937500000, 22.234375000000, 1490952200
0.104980468750, -0.887695312500, 0.389892578125, -55.203125000000, -56.179687500000, 1.132812500000, 1490952200
0.104980468750, -0.887695312500, 0.389892578125, -55.203125000000, -56.179687500000, 1.132812500000, 1490952200
0.104980468750, -0.887695312500, 0.389892578125, -55.203125000000, -56.179687500000, 1.132812500000, 1490952200
-0.077880859375, -0.931884765625, 0.263916015625, -28.132812500000, 1.367187500000, 17.109375000000, 1490952200
-0.077880859375, -0.931884765625, 0.263916015625, -28.132812500000, 1.367187500000, 17.109375000000, 1490952200
-0.077880859375, -0.931884765625, 0.263916015625, -28.132812500000, 1.367187500000, 17.109375000000, 1490952200
0.030761718750, -0.957763671875, 0.319580078125, 22.390625000000, 17.828125000000, -8.062500000000, 1490952200
0.030761718750, -0.957763671875, 0.319580078125, 22.390625000000, 17.828125000000, -8.062500000000, 1490952200
0.030761718750, -0.957763671875, 0.319580078125, 22.390625000000, 17.828125000000, -8.062500000000, 1490952200
0.030761718750, -0.957763671875, 0.319580078125, 22.390625000000, 17.828125000000, -8.062500000000, 1490952200
0.004150390625, -0.958007812500, 0.296142578125, 2.171875000000, 12.703125000000, -3.195312500000, 1490952200
0.004150390625, -0.958007812500, 0.296142578125, 2.171875000000, 12.703125000000, -3.195312500000, 1490952200
0.004150390625, -0.958007812500, 0.296142578125, 2.171875000000, 12.703125000000, -3.195312500000, 1490952200
-0.014404296875, -0.897949218750, 0.456542968750, -31.179687500000, 1.679687500000, 0.304687500000, 1490952200
-0.014404296875, -0.897949218750, 0.456542968750, -31.179687500000, 1.679687500000, 0.304687500000, 1490952200
-0.014404296875, -0.897949218750, 0.456542968750, -31.179687500000, 1.679687500000, 0.304687500000, 1490952200
0.070068359375, -0.981201171875, 0.356445312500, -47.007812500000, 10.234375000000, -1.601562500000, 1490952200
0.070068359375, -0.981201171875, 0.356445312500, -47.007812500000, 10.234375000000, -1.601562500000, 1490952200
0.070068359375, -0.981201171875, 0.356445312500, -47.007812500000, 10.234375000000, -1.601562500000, 1490952200
0.140380859375, -1.023437500000, 0.228027343750, -27.609375000000, -22.648437500000, 3.140625000000, 1490952200
0.140380859375, -1.023437500000, 0.228027343750, -27.609375000000, -22.648437500000, 3.140625000000, 1490952200
0.140380859375, -1.023437500000, 0.228027343750, -27.609375000000, -22.648437500000, 3.140625000000, 1490952200
0.140380859375, -1.023437500000, 0.228027343750, -27.609375000000, -22.648437500000, 3.140625000000, 1490952200
0.132812500000, -0.947998046875, 0.356201171875, -8.382812500000, 10.140625000000, -1.476562500000, 1490952200
0.132812500000, -0.947998046875, 0.356201171875, -8.382812500000, 10.140625000000, -1.476562500000, 1490952200
0.132812500000, -0.947998046875, 0.356201171875, -8.382812500000, 10.140625000000, -1.476562500000, 1490952200
0.155761718750, -0.767089843750, 0.114257812500, -39.031250000000, 30.335937500000, -1.742187500000, 1490952200
0.155761718750, -0.767089843750, 0.114257812500, -39.031250000000, 30.335937500000, -1.742187500000, 1490952200
0.155761718750, -0.767089843750, 0.114257812500, -39.031250000000, 30.335937500000, -1.742187500000, 1490952200
0.146484375000, -0.976074218750, 0.110351562500, -89.250000000000, -23.984375000000, -16.437500000000, 1490952200
0.146484375000, -0.976074218750, 0.110351562500, -89.250000000000, -23.984375000000, -16.437500000000, 1490952200
0.146484375000, -0.976074218750, 0.110351562500, -89.250000000000, -23.984375000000, -16.437500000000, 1490952200
0.091796875000, -1.201171875000, 0.339599609375, 47.257812500000, -9.960937500000, -3.312500000000, 1490952200
0.091796875000, -1.201171875000, 0.339599609375, 47.257812500000, -9.960937500000, -3.312500000000, 1490952200
0.091796875000, -1.201171875000, 0.339599609375, 47.257812500000, -9.960937500000, -3.312500000000, 1490952200
0.091796875000, -1.201171875000, 0.339599609375, 47.257812500000, -9.960937500000, -3.312500000000, 1490952200
0.059570312500, -1.091308593750, 0.352539062500, 98.171875000000, 15.390625000000, -26.468750000000, 1490952201
0.059570312500, -1.091308593750, 0.352539062500, 98.171875000000, 15.390625000000, -26.468750000000, 1490952201
0.059570312500, -1.091308593750, 0.352539062500, 98.171875000000, 15.390625000000, -26.468750000000, 1490952201
0.059570312500, -1.010986328125, 0.487060546875, 21.929687500000, 30.335937500000, -17.351562500000, 1490952201
0.059570312500, -1.010986328125, 0.487060546875, 21.929687500000, 30.335937500000, -17.351562500000, 1490952201
0.059570312500, -1.010986328125, 0.487060546875, 21.929687500000, 30.335937500000, -17.351562500000, 1490952201
0.141357421875, -0.916259765625, 0.326660156250, -27.851562500000, 35.000000000000, -17.187500000000, 1490952201
0.141357421875, -0.916259765625, 0.326660156250, -27.851562500000, 35.000000000000, -17.187500000000, 1490952201
0.141357421875, -0.916259765625, 0.326660156250, -27.851562500000, 35.000000000000, -17.187500000000, 1490952201
-0.040771484375, -0.862792968750, 0.246582031250, 5.851562500000, 23.656250000000, -8.609375000000, 1490952201
-0.040771484375, -0.862792968750, 0.246582031250, 5.851562500000, 23.656250000000, -8.609375000000, 1490952201
-0.040771484375, -0.862792968750, 0.246582031250, 5.851562500000, 23.656250000000, -8.609375000000, 1490952201
-0.040771484375, -0.862792968750, 0.246582031250, 5.851562500000, 23.656250000000, -8.609375000000, 1490952201
-0.050048828125, -0.919433593750, 0.296875000000, 24.000000000000, 17.218750000000, -10.859375000000, 1490952201
-0.050048828125, -0.919433593750, 0.296875000000, 24.000000000000, 17.218750000000, -10.859375000000, 1490952201
-0.050048828125, -0.919433593750, 0.296875000000, 24.000000000000, 17.218750000000, -10.859375000000, 1490952201
0.026611328125, -0.963867187500, 0.299560546875, 6.328125000000, 17.257812500000, -9.125000000000, 1490952201
0.026611328125, -0.963867187500, 0.299560546875, 6.328125000000, 17.257812500000, -9.125000000000, 1490952201
0.026611328125, -0.963867187500, 0.299560546875, 6.328125000000, 17.257812500000, -9.125000000000, 1490952201
0.072509765625, -0.939941406250, 0.283691406250, -9.445312500000, 11.132812500000, -8.210937500000, 1490952201
0.072509765625, -0.939941406250, 0.283691406250, -9.445312500000, 11.132812500000, -8.210937500000, 1490952201
0.072509765625, -0.939941406250, 0.283691406250, -9.445312500000, 11.132812500000, -8.210937500000, 1490952201
-0.041748046875, -0.960449218750, 0.355468750000, -12.609375000000, 14.125000000000, -7.414062500000, 1490952201
-0.041748046875, -0.960449218750, 0.355468750000, -12.609375000000, 14.125000000000, -7.414062500000, 1490952201
-0.041748046875, -0.960449218750, 0.355468750000, -12.609375000000, 14.125000000000, -7.414062500000, 1490952201
-0.041748046875, -0.960449218750, 0.355468750000, -12.609375000000, 14.125000000000, -7.414062500000, 1490952201
0.016601562500, -1.030029296875, 0.395263671875, -22.757812500000, -12.218750000000, 2.085937500000, 1490952201
0.016601562500, -1.030029296875, 0.395263671875, -22.757812500000, -12.218750000000, 2.085937500000, 1490952201
0.016601562500, -1.030029296875, 0.395263671875, -22.757812500000, -12.218750000000, 2.085937500000, 1490952201
-0.203613281250, -1.159423828125, 0.365722656250, -52.632812500000, -41.460937500000, 2.187500000000, 1490952201
-0.203613281250, -1.159423828125, 0.365722656250, -52.632812500000, -41.460937500000, 2.187500000000, 1490952201
-0.203613281250, -1.159423828125, 0.365722656250, -52.632812500000, -41.460937500000, 2.187500000000, 1490952201
-0.166503906250, -1.012939453125, 0.261230468750, -31.859375000000, -53.648437500000, -42.000000000000, 1490952201
-0.166503906250, -1.012939453125, 0.261230468750, -31.859375000000, -53.648437500000, -42.000000000000, 1490952201
-0.166503906250, -1.012939453125, 0.261230468750, -31.859375000000, -53.648437500000, -42.000000000000, 1490952201
-0.181152343750, -0.872558593750, 0.209472656250, -95.992187500000, -71.828125000000, -70.218750000000, 1490952201
-0.181152343750, -0.872558593750, 0.209472656250, -95.992187500000, -71.828125000000, -70.218750000000, 1490952201
-0.181152343750, -0.872558593750, 0.209472656250, -95.992187500000, -71.828125000000, -70.218750000000, 1490952201
-0.181152343750, -0.872558593750, 0.209472656250, -95.992187500000, -71.828125000000, -70.218750000000, 1490952201
0.141845703125, -1.064453125000, 0.239013671875, -14.718750000000, -68.015625000000, -72.039062500000, 1490952201
0.141845703125, -1.064453125000, 0.239013671875, -14.718750000000, -68.015625000000, -72.039062500000, 1490952201
0.141845703125, -1.064453125000, 0.239013671875, -14.718750000000, -68.015625000000, -72.039062500000, 1490952201
0.241455078125, -1.088623046875, 0.391113281250, 114.656250000000, 47.984375000000, 25.289062500000, 1490952201
0.241455078125, -1.088623046875, 0.391113281250, 114.656250000000, 47.984375000000, 25.289062500000, 1490952201
0.241455078125, -1.088623046875, 0.391113281250, 114.656250000000, 47.984375000000, 25.289062500000, 1490952201
0.165527343750, -0.870361328125, 0.448974609375, 109.937500000000, -25.632812500000, 11.296875000000, 1490952201
0.165527343750, -0.870361328125, 0.448974609375, 109.937500000000, -25.632812500000, 11.296875000000, 1490952201
0.165527343750, -0.870361328125, 0.448974609375, 109.937500000000, -25.632812500000, 11.296875000000, 1490952201
-0.118652343750, -1.026855468750, 0.382812500000, -41.320312500000, -39.484375000000, 13.226562500000, 1490952201
-0.118652343750, -1.026855468750, 0.382812500000, -41.320312500000, -39.484375000000, 13.226562500000, 1490952201
-0.118652343750, -1.026855468750, 0.382812500000, -41.320312500000, -39.484375000000, 13.226562500000, 1490952201
-0.118652343750, -1.026855468750, 0.382812500000, -41.320312500000, -39.484375000000, 13.226562500000, 1490952201
-0.010742187500, -0.941650390625, 0.244873046875, -19.437500000000, 12.226562500000, 5.695312500000, 1490952201
-0.010742187500, -0.941650390625, 0.244873046875, -19.437500000000, 12.226562500000, 5.695312500000, 1490952201
-0.010742187500, -0.941650390625, 0.244873046875, -19.437500000000, 12.226562500000, 5.695312500000, 1490952201
0.020507812500, -0.944580078125, 0.274658203125, 20.828125000000, 18.914062500000, 2.054687500000, 1490952201
0.020507812500, -0.944580078125, 0.274658203125, 20.828125000000, 18.914062500000, 2.054687500000, 1490952201
0.020507812500, -0.944580078125, 0.274658203125, 20.828125000000, 18.914062500000, 2.054687500000, 1490952201
-0.049804687500, -0.923095703125, 0.317626953125, 23.281250000000, 27.421875000000, 2.703125000000, 1490952201
-0.049804687500, -0.923095703125, 0.317626953125, 23.281250000000, 27.421875000000, 2.703125000000, 1490952201
-0.049804687500, -0.923095703125, 0.317626953125, 23.281250000000, 27.421875000000, 2.703125000000, 1490952201
0.069335937500, -0.906982421875, 0.326416015625, -17.867187500000, 32.546875000000, 2.156250000000, 1490952201
0.069335937500, -0.906982421875, 0.326416015625, -17.867187500000, 32.546875000000, 2.156250000000, 1490952201
0.069335937500, -0.906982421875, 0.326416015625, -17.867187500000, 32.546875000000, 2.156250000000, 1490952201
-0.083740234375, -0.852783203125, 0.304443359375, -23.859375000000, 28.015625000000, 11.031250000000, 1490952201
-0.083740234375, -0.852783203125, 0.304443359375, -23.859375000000, 28.015625000000, 11.031250000000, 1490952201
-0.083740234375, -0.852783203125, 0.304443359375, -23.859375000000, 28.015625000000, 11.031250000000, 1490952201
-0.083740234375, -0.852783203125, 0.304443359375, -23.859375000000, 28.015625000000, 11.031250000000, 1490952202
-0.098632812500, -0.803710937500, 0.308593750000, -15.210937500000, -4.101562500000, 32.671875000000, 1490952202
-0.098632812500, -0.803710937500, 0.308593750000, -15.210937500000, -4.101562500000, 32.671875000000, 1490952202
-0.098632812500, -0.803710937500, 0.308593750000, -15.210937500000, -4.101562500000, 32.671875000000, 1490952202
-0.208496093750, -1.270996093750, 0.348388671875, -63.031250000000, -84.242187500000, -27.320312500000, 1490952202
-0.208496093750, -1.270996093750, 0.348388671875, -63.031250000000, -84.242187500000, -27.320312500000, 1490952202
-0.208496093750, -1.270996093750, 0.348388671875, -63.031250000000, -84.242187500000, -27.320312500000, 1490952202
0.196533203125, -0.915527343750, 0.386962890625, 26.179687500000, -15.656250000000, -10.414062500000, 1490952202
0.196533203125, -0.915527343750, 0.386962890625, 26.179687500000, -15.656250000000, -10.414062500000, 1490952202
0.196533203125, -0.915527343750, 0.386962890625, 26.179687500000, -15.656250000000, -10.414062500000, 1490952202
0.196533203125, -0.915527343750, 0.386962890625, 26.179687500000, -15.656250000000, -10.414062500000, 1490952202
0.175048828125, -0.710205078125, 0.393310546875, 23.718750000000, 30.523437500000, -28.414062500000, 1490952202
0.175048828125, -0.710205078125, 0.393310546875, 23.718750000000, 30.523437500000, -28.414062500000, 1490952202
0.175048828125, -0.710205078125, 0.393310546875, 23.718750000000, 30.523437500000, -28.414062500000, 1490952202
0.270263671875, -0.820068359375, 0.095703125000, -50.601562500000, 77.671875000000, -23.812500000000, 1490952202
0.270263671875, -0.820068359375, 0.095703125000, -50.601562500000, 77.671875000000, -23.812500000000, 1490952202
0.270263671875, -0.820068359375, 0.095703125000, -50.601562500000, 77.671875000000, -23.812500000000, 1490952202
0.122314453125, -1.071777343750, 0.207763671875, -73.687500000000, 2.593750000000, 7.328125000000, 1490952202
0.122314453125, -1.071777343750, 0.207763671875, -73.687500000000, 2.593750000000, 7.328125000000, 1490952202
0.122314453125, -1.071777343750, 0.207763671875, -73.687500000000, 2.593750000000, 7.328125000000, 1490952202
-0.191894531250, -1.195800781250, 0.376464843750, 55.445312500000, -2.554687500000, -9.015625000000, 1490952202
-0.191894531250, -1.195800781250, 0.376464843750, 55.445312500000, -2.554687500000, -9.015625000000, 1490952202
-0.191894531250, -1.195800781250, 0.376464843750, 55.445312500000, -2.554687500000, -9.015625000000, 1490952202
-0.299560546875, -0.998535156250, 0.395019531250, 83.804687500000, 16.937500000000, 6.234375000000, 1490952202
-0.241943359375, -0.963623046875, 0.403808593750, 102.187500000000, 10.835937500000, -3.289062500000, 1490952202
-0.241943359375, -0.963623046875, 0.403808593750, 102.187500000000, 10.835937500000, -3.289062500000, 1490952202
-0.241943359375, -0.963623046875, 0.403808593750, 102.187500000000, 10.835937500000, -3.289062500000, 1490952202
-0.082763671875, -0.794189453125, 0.393554687500, 31.132812500000, 41.531250000000, -29.906250000000, 1490952202
