ACC_X,ACC_Y,ACC_Z,G_X,G_Y,G_Z,Unix Time
-0.246582031250, -0.869873046875, 0.331787109375, 9.687500000000, -6.468750000000, -2.382812500000, 1490954086
-0.246582031250, -0.869873046875, 0.331787109375, 9.687500000000, -6.468750000000, -2.382812500000, 1490954086
-0.246582031250, -0.869873046875, 0.331787109375, 9.687500000000, -6.468750000000, -2.382812500000, 1490954086
-0.267333984375, -0.958496093750, 0.243164062500, 1.851562500000, -6.015625000000, -6.796875000000, 1490954086
-0.267333984375, -0.958496093750, 0.243164062500, 1.851562500000, -6.015625000000, -6.796875000000, 1490954086
-0.267333984375, -0.958496093750, 0.243164062500, 1.851562500000, -6.015625000000, -6.796875000000, 1490954086
-0.395751953125, -1.007812500000, 0.223388671875, 0.429687500000, 1.664062500000, -8.453125000000, 1490954086
-0.395751953125, -1.007812500000, 0.223388671875, 0.429687500000, 1.664062500000, -8.453125000000, 1490954086
-0.395751953125, -1.007812500000, 0.223388671875, 0.429687500000, 1.664062500000, -8.453125000000, 1490954086
-0.395751953125, -1.007812500000, 0.223388671875, 0.429687500000, 1.664062500000, -8.453125000000, 1490954086
-0.340332031250, -0.988525390625, 0.239990234375, 1.820312500000, -1.593750000000, -5.351562500000, 1490954086
-0.340332031250, -0.988525390625, 0.239990234375, 1.820312500000, -1.593750000000, -5.351562500000, 1490954086
-0.340332031250, -0.988525390625, 0.239990234375, 1.820312500000, -1.593750000000, -5.351562500000, 1490954086
-0.283691406250, -0.949462890625, 0.306396484375, -1.210937500000, -4.601562500000, -1.093750000000, 1490954087
-0.283691406250, -0.949462890625, 0.306396484375, -1.210937500000, -4.601562500000, -1.093750000000, 1490954087
-0.283691406250, -0.949462890625, 0.306396484375, -1.210937500000, -4.601562500000, -1.093750000000, 1490954087
-0.293701171875, -0.930908203125, 0.238281250000, -10.218750000000, -5.265625000000, -2.531250000000, 1490954087
-0.293701171875, -0.930908203125, 0.238281250000, -10.218750000000, -5.265625000000, -2.531250000000, 1490954087
-0.293701171875, -0.930908203125, 0.238281250000, -10.218750000000, -5.265625000000, -2.531250000000, 1490954087
-0.293701171875, -0.930908203125, 0.238281250000, -10.218750000000, -5.265625000000, -2.531250000000, 1490954087
-0.260009765625, -0.936767578125, 0.273925781250, -4.351562500000, -8.250000000000, 2.648437500000, 1490954087
-0.260009765625, -0.936767578125, 0.273925781250, -4.351562500000, -8.250000000000, 2.648437500000, 1490954087
-0.260009765625, -0.936767578125, 0.273925781250, -4.351562500000, -8.250000000000, 2.648437500000, 1490954087
-0.182373046875, -0.908203125000, 0.331298828125, -5.554687500000, -4.046875000000, 0.414062500000, 1490954087
-0.182373046875, -0.908203125000, 0.331298828125, -5.554687500000, -4.046875000000, 0.414062500000, 1490954087
-0.182373046875, -0.908203125000, 0.331298828125, -5.554687500000, -4.046875000000, 0.414062500000, 1490954087
-0.367431640625, -0.858886718750, 0.231445312500, -5.656250000000, 0.703125000000, 1.101562500000, 1490954087
-0.367431640625, -0.858886718750, 0.231445312500, -5.656250000000, 0.703125000000, 1.101562500000, 1490954087
-0.367431640625, -0.858886718750, 0.231445312500, -5.656250000000, 0.703125000000, 1.101562500000, 1490954087
-0.315673828125, -0.975341796875, 0.253906250000, -7.281250000000, -0.968750000000, -0.429687500000, 1490954087
-0.315673828125, -0.975341796875, 0.253906250000, -7.281250000000, -0.968750000000, -0.429687500000, 1490954087
-0.235107421875, -1.006347656250, 0.329589843750, -6.515625000000, -0.796875000000, 1.265625000000, 1490954087
-0.235107421875, -1.006347656250, 0.329589843750, -6.515625000000, -0.796875000000, 1.265625000000, 1490954087
-0.235107421875, -1.006347656250, 0.329589843750, -6.515625000000, -0.796875000000, 1.265625000000, 1490954087
-0.235107421875, -1.006347656250, 0.329589843750, -6.515625000000, -0.796875000000, 1.265625000000, 1490954087
-0.235107421875, -1.006347656250, 0.329589843750, -6.515625000000, -0.796875000000, 1.265625000000, 1490954087
-0.201171875000, -0.902832031250, 0.279296875000, -8.546875000000, -6.851562500000, 0.312500000000, 1490954087
-0.201171875000, -0.902832031250, 0.279296875000, -8.546875000000, -6.851562500000, 0.312500000000, 1490954087
-0.201171875000, -0.902832031250, 0.279296875000, -8.546875000000, -6.851562500000, 0.312500000000, 1490954087
-0.257812500000, -0.981689453125, 0.245605468750, -8.898437500000, -8.679687500000, 0.523437500000, 1490954087
-0.257812500000, -0.981689453125, 0.245605468750, -8.898437500000, -8.679687500000, 0.523437500000, 1490954087
-0.257812500000, -0.981689453125, 0.245605468750, -8.898437500000, -8.679687500000, 0.523437500000, 1490954087
-0.384765625000, -0.964355468750, 0.314941406250, -12.617187500000, -8.562500000000, -3.867187500000, 1490954087
-0.384765625000, -0.964355468750, 0.314941406250, -12.617187500000, -8.562500000000, -3.867187500000, 1490954087
-0.384765625000, -0.964355468750, 0.314941406250, -12.617187500000, -8.562500000000, -3.867187500000, 1490954087
-0.384765625000, -0.964355468750, 0.314941406250, -12.617187500000, -8.562500000000, -3.867187500000, 1490954087
-0.316162109375, -0.900878906250, 0.320556640625, -12.007812500000, -16.523437500000, -7.132812500000, 1490954087
-0.316162109375, -0.900878906250, 0.320556640625, -12.007812500000, -16.523437500000, -7.132812500000, 1490954087
-0.316162109375, -0.900878906250, 0.320556640625, -12.007812500000, -16.523437500000, -7.132812500000, 1490954087
-0.256347656250, -0.948486328125, 0.287841796875, -8.570312500000, -21.531250000000, -6.656250000000, 1490954087
-0.256347656250, -0.948486328125, 0.287841796875, -8.570312500000, -21.531250000000, -6.656250000000, 1490954087
-0.256347656250, -0.948486328125, 0.287841796875, -8.570312500000, -21.531250000000, -6.656250000000, 1490954087
-0.237548828125, -1.011230468750, 0.375976562500, 0.343750000000, -18.429687500000, -1.992187500000, 1490954087
-0.237548828125, -1.011230468750, 0.375976562500, 0.343750000000, -18.429687500000, -1.992187500000, 1490954087
-0.237548828125, -1.011230468750, 0.375976562500, 0.343750000000, -18.429687500000, -1.992187500000, 1490954087
-0.255615234375, -1.016601562500, 0.376708984375, 6.398437500000, -23.164062500000, -0.679687500000, 1490954087
-0.255615234375, -1.016601562500, 0.376708984375, 6.398437500000, -23.164062500000, -0.679687500000, 1490954087
-0.255615234375, -1.016601562500, 0.376708984375, 6.398437500000, -23.164062500000, -0.679687500000, 1490954087
-0.255615234375, -1.016601562500, 0.376708984375, 6.398437500000, -23.164062500000, -0.679687500000, 1490954087
-0.227783203125, -0.874755859375, 0.327636718750, 0.234375000000, -17.132812500000, -4.796875000000, 1490954087
-0.227783203125, -0.874755859375, 0.327636718750, 0.234375000000, -17.132812500000, -4.796875000000, 1490954087
-0.227783203125, -0.874755859375, 0.327636718750, 0.234375000000, -17.132812500000, -4.796875000000, 1490954087
-0.276367187500, -0.853515625000, 0.312500000000, 0.320312500000, -15.140625000000, -6.203125000000, 1490954087
-0.276367187500, -0.853515625000, 0.312500000000, 0.320312500000, -15.140625000000, -6.203125000000, 1490954087
-0.276367187500, -0.853515625000, 0.312500000000, 0.320312500000, -15.140625000000, -6.203125000000, 1490954087
-0.246337890625, -1.027099609375, 0.296386718750, -5.648437500000, -16.250000000000, -8.554687500000, 1490954087
-0.246337890625, -1.027099609375, 0.296386718750, -5.648437500000, -16.250000000000, -8.554687500000, 1490954087
-0.246337890625, -1.027099609375, 0.296386718750, -5.648437500000, -16.250000000000, -8.554687500000, 1490954087
-0.121826171875, -0.908203125000, 0.284423828125, -6.750000000000, -15.609375000000, -10.343750000000, 1490954087
-0.121826171875, -0.908203125000, 0.284423828125, -6.750000000000, -15.609375000000, -10.343750000000, 1490954087
-0.121826171875, -0.908203125000, 0.284423828125, -6.750000000000, -15.609375000000, -10.343750000000, 1490954087
-0.121826171875, -0.908203125000, 0.284423828125, -6.750000000000, -15.609375000000, -10.343750000000, 1490954087
-0.168212890625, -0.936523437500, 0.292968750000, -2.851562500000, -15.617187500000, -7.531250000000, 1490954087
-0.168212890625, -0.936523437500, 0.292968750000, -2.851562500000, -15.617187500000, -7.531250000000, 1490954087
-0.168212890625, -0.936523437500, 0.292968750000, -2.851562500000, -15.617187500000, -7.531250000000, 1490954087
-0.264404296875, -0.925292968750, 0.309814453125, -2.570312500000, -19.468750000000, -3.039062500000, 1490954087
-0.264404296875, -0.925292968750, 0.309814453125, -2.570312500000, -19.468750000000, -3.039062500000, 1490954087
-0.264404296875, -0.925292968750, 0.309814453125, -2.570312500000, -19.468750000000, -3.039062500000, 1490954087
-0.172607421875, -0.948486328125, 0.371337890625, -7.304687500000, -20.156250000000, -1.945312500000, 1490954087
-0.172607421875, -0.948486328125, 0.371337890625, -7.304687500000, -20.156250000000, -1.945312500000, 1490954087
-0.172607421875, -0.948486328125, 0.371337890625, -7.304687500000, -20.156250000000, -1.945312500000, 1490954087
-0.187011718750, -0.968505859375, 0.391845703125, -3.796875000000, -18.882812500000, -2.085937500000, 1490954088
-0.187011718750, -0.968505859375, 0.391845703125, -3.796875000000, -18.882812500000, -2.085937500000, 1490954088
-0.187011718750, -0.968505859375, 0.391845703125, -3.796875000000, -18.882812500000, -2.085937500000, 1490954088
-0.187011718750, -0.968505859375, 0.391845703125, -3.796875000000, -18.882812500000, -2.085937500000, 1490954088
-0.167236328125, -0.922851562500, 0.366210937500, -6.031250000000, -22.296875000000, -4.281250000000, 1490954088
-0.167236328125, -0.922851562500, 0.366210937500, -6.031250000000, -22.296875000000, -4.281250000000, 1490954088
-0.167236328125, -0.922851562500, 0.366210937500, -6.031250000000, -22.296875000000, -4.281250000000, 1490954088
-0.179199218750, -1.000976562500, 0.349609375000, -1.382812500000, -25.289062500000, -5.335937500000, 1490954088
-0.179199218750, -1.000976562500, 0.349609375000, -1.382812500000, -25.289062500000, -5.335937500000, 1490954088
-0.179199218750, -1.000976562500, 0.349609375000, -1.382812500000, -25.289062500000, -5.335937500000, 1490954088
-0.212402343750, -0.938232421875, 0.305908203125, -4.031250000000, -25.585937500000, -4.718750000000, 1490954088
-0.212402343750, -0.938232421875, 0.305908203125, -4.031250000000, -25.585937500000, -4.718750000000, 1490954088
-0.212402343750, -0.938232421875, 0.305908203125, -4.031250000000, -25.585937500000, -4.718750000000, 1490954088
-0.176269531250, -0.999755859375, 0.326171875000, 4.304687500000, -25.242187500000, -8.328125000000, 1490954088
-0.176269531250, -0.999755859375, 0.326171875000, 4.304687500000, -25.242187500000, -8.328125000000, 1490954088
-0.176269531250, -0.999755859375, 0.326171875000, 4.304687500000, -25.242187500000, -8.328125000000, 1490954088
-0.181884765625, -0.809326171875, 0.358886718750, -0.945312500000, -23.273437500000, -2.914062500000, 1490954088
-0.181884765625, -0.809326171875, 0.358886718750, -0.945312500000, -23.273437500000, -2.914062500000, 1490954088
-0.181884765625, -0.809326171875, 0.358886718750, -0.945312500000, -23.273437500000, -2.914062500000, 1490954088
-0.181884765625, -0.809326171875, 0.358886718750, -0.945312500000, -23.273437500000, -2.914062500000, 1490954088
-0.215576171875, -0.887695312500, 0.357666015625, -1.921875000000, -20.000000000000, -4.625000000000, 1490954088
-0.215576171875, -0.887695312500, 0.357666015625, -1.921875000000, -20.000000000000, -4.625000000000, 1490954088
-0.215576171875, -0.887695312500, 0.357666015625, -1.921875000000, -20.000000000000, -4.625000000000, 1490954088
-0.251220703125, -0.846191406250, 0.334228515625, -7.468750000000, -16.593750000000, -3.734375000000, 1490954088
-0.251220703125, -0.846191406250, 0.334228515625, -7.468750000000, -16.593750000000, -3.734375000000, 1490954088
-0.251220703125, -0.846191406250, 0.334228515625, -7.468750000000, -16.593750000000, -3.734375000000, 1490954088
-0.153320312500, -0.965087890625, 0.309814453125, -3.757812500000, -14.312500000000, -0.984375000000, 1490954088
-0.153320312500, -0.965087890625, 0.309814453125, -3.757812500000, -14.312500000000, -0.984375000000, 1490954088
-0.153320312500, -0.965087890625, 0.309814453125, -3.757812500000, -14.312500000000, -0.984375000000, 1490954088
-0.153320312500, -0.965087890625, 0.309814453125, -3.757812500000, -14.312500000000, -0.984375000000, 1490954088
-0.151611328125, -0.945068359375, 0.396728515625, 4.468750000000, -10.531250000000, -3.250000000000, 1490954088
-0.151611328125, -0.945068359375, 0.396728515625, 4.468750000000, -10.531250000000, -3.250000000000, 1490954088
-0.151611328125, -0.945068359375, 0.396728515625, 4.468750000000, -10.531250000000, -3.250000000000, 1490954088
-0.216308593750, -0.866210937500, 0.351318359375, -0.539062500000, -1.820312500000, -0.140625000000, 1490954088
-0.216308593750, -0.866210937500, 0.351318359375, -0.539062500000, -1.820312500000, -0.140625000000, 1490954088
-0.216308593750, -0.866210937500, 0.351318359375, -0.539062500000, -1.820312500000, -0.140625000000, 1490954088
-0.158203125000, -0.809570312500, 0.383056640625, 1.812500000000, -3.148437500000, -2.867187500000, 1490954088
-0.158203125000, -0.809570312500, 0.383056640625, 1.812500000000, -3.148437500000, -2.867187500000, 1490954088
-0.158203125000, -0.809570312500, 0.383056640625, 1.812500000000, -3.148437500000, -2.867187500000, 1490954088
-0.204833984375, -1.027587890625, 0.461425781250, 2.195312500000, -1.687500000000, -3.070312500000, 1490954088
-0.204833984375, -1.027587890625, 0.461425781250, 2.195312500000, -1.687500000000, -3.070312500000, 1490954088
-0.204833984375, -1.027587890625, 0.461425781250, 2.195312500000, -1.687500000000, -3.070312500000, 1490954088
-0.204833984375, -1.027587890625, 0.461425781250, 2.195312500000, -1.687500000000, -3.070312500000, 1490954088
-0.195068359375, -0.934082031250, 0.304443359375, 0.281250000000, -6.718750000000, -1.460937500000, 1490954088
-0.195068359375, -0.934082031250, 0.304443359375, 0.281250000000, -6.718750000000, -1.460937500000, 1490954088
-0.195068359375, -0.934082031250, 0.304443359375, 0.281250000000, -6.718750000000, -1.460937500000, 1490954088
-0.251220703125, -0.977050781250, 0.424072265625, -4.109375000000, -2.882812500000, -1.343750000000, 1490954088
-0.251220703125, -0.977050781250, 0.424072265625, -4.109375000000, -2.882812500000, -1.343750000000, 1490954088
-0.251220703125, -0.977050781250, 0.424072265625, -4.109375000000, -2.882812500000, -1.343750000000, 1490954088
-0.211425781250, -0.850097656250, 0.390136718750, -9.140625000000, -2.742187500000, -4.015625000000, 1490954088
-0.211425781250, -0.850097656250, 0.390136718750, -9.140625000000, -2.742187500000, -4.015625000000, 1490954088
-0.211425781250, -0.850097656250, 0.390136718750, -9.140625000000, -2.742187500000, -4.015625000000, 1490954088
-0.219726562500, -0.967773437500, 0.311035156250, -10.773437500000, -3.093750000000, -3.468750000000, 1490954088
-0.219726562500, -0.967773437500, 0.311035156250, -10.773437500000, -3.093750000000, -3.468750000000, 1490954088
-0.219726562500, -0.967773437500, 0.311035156250, -10.773437500000, -3.093750000000, -3.468750000000, 1490954088
-0.219726562500, -0.967773437500, 0.311035156250, -10.773437500000, -3.093750000000, -3.468750000000, 1490954088
-0.199462890625, -0.958251953125, 0.249511718750, -14.351562500000, -7.234375000000, -1.515625000000, 1490954088
-0.199462890625, -0.958251953125, 0.249511718750, -14.351562500000, -7.234375000000, -1.515625000000, 1490954088
-0.199462890625, -0.958251953125, 0.249511718750, -14.351562500000, -7.234375000000, -1.515625000000, 1490954088
-0.172607421875, -0.946777343750, 0.312988281250, -6.851562500000, -5.890625000000, 1.218750000000, 1490954088
-0.172607421875, -0.946777343750, 0.312988281250, -6.851562500000, -5.890625000000, 1.218750000000, 1490954088
-0.172607421875, -0.946777343750, 0.312988281250, -6.851562500000, -5.890625000000, 1.218750000000, 1490954088
-0.263427734375, -0.950439453125, 0.404541015625, -8.460937500000, -15.101562500000, 4.593750000000, 1490954088
-0.263427734375, -0.950439453125, 0.404541015625, -8.460937500000, -15.101562500000, 4.593750000000, 1490954088
-0.263427734375, -0.950439453125, 0.404541015625, -8.460937500000, -15.101562500000, 4.593750000000, 1490954088
-0.150390625000, -0.849365234375, 0.298828125000, -3.820312500000, -21.671875000000, 0.804687500000, 1490954089
-0.150390625000, -0.849365234375, 0.298828125000, -3.820312500000, -21.671875000000, 0.804687500000, 1490954089
-0.150390625000, -0.849365234375, 0.298828125000, -3.820312500000, -21.671875000000, 0.804687500000, 1490954089
-0.150390625000, -0.849365234375, 0.298828125000, -3.820312500000, -21.671875000000, 0.804687500000, 1490954089
-0.076171875000, -0.852539062500, 0.420654296875, -4.070312500000, -12.523437500000, -8.671875000000, 1490954089
-0.076171875000, -0.852539062500, 0.420654296875, -4.070312500000, -12.523437500000, -8.671875000000, 1490954089
-0.076171875000, -0.852539062500, 0.420654296875, -4.070312500000, -12.523437500000, -8.671875000000, 1490954089
-0.039794921875, -1.004150390625, 0.353759765625, -6.054687500000, 8.382812500000, -6.460937500000, 1490954089
-0.039794921875, -1.004150390625, 0.353759765625, -6.054687500000, 8.382812500000, -6.460937500000, 1490954089
-0.039794921875, -1.004150390625, 0.353759765625, -6.054687500000, 8.382812500000, -6.460937500000, 1490954089
-0.138427734375, -0.984863281250, 0.386230468750, -4.226562500000, 7.234375000000, 4.445312500000, 1490954089
-0.138427734375, -0.984863281250, 0.386230468750, -4.226562500000, 7.234375000000, 4.445312500000, 1490954089
-0.138427734375, -0.984863281250, 0.386230468750, -4.226562500000, 7.234375000000, 4.445312500000, 1490954089
-0.098388671875, -0.963623046875, 0.433105468750, -1.812500000000, 0.539062500000, 0.539062500000, 1490954089
-0.098388671875, -0.963623046875, 0.433105468750, -1.812500000000, 0.539062500000, 0.539062500000, 1490954089
-0.098388671875, -0.963623046875, 0.433105468750, -1.812500000000, 0.539062500000, 0.539062500000, 1490954089
-0.098388671875, -0.963623046875, 0.433105468750, -1.812500000000, 0.539062500000, 0.539062500000, 1490954089
-0.139404296875, -0.804443359375, 0.394042968750, 0.062500000000, -1.945312500000, -1.195312500000, 1490954089
-0.139404296875, -0.804443359375, 0.394042968750, 0.062500000000, -1.945312500000, -1.195312500000, 1490954089
-0.139404296875, -0.804443359375, 0.394042968750, 0.062500000000, -1.945312500000, -1.195312500000, 1490954089
-0.060791015625, -0.810302734375, 0.403808593750, 6.898437500000, 3.484375000000, 0.296875000000, 1490954089
-0.060791015625, -0.810302734375, 0.403808593750, 6.898437500000, 3.484375000000, 0.296875000000, 1490954089
-0.060791015625, -0.810302734375, 0.403808593750, 6.898437500000, 3.484375000000, 0.296875000000, 1490954089
-0.051269531250, -0.855224609375, 0.385009765625, 3.617187500000, 3.382812500000, 1.953125000000, 1490954089
-0.051269531250, -0.855224609375, 0.385009765625, 3.617187500000, 3.382812500000, 1.953125000000, 1490954089
-0.051269531250, -0.855224609375, 0.385009765625, 3.617187500000, 3.382812500000, 1.953125000000, 1490954089
-0.135253906250, -0.896972656250, 0.370361328125, 19.656250000000, 7.445312500000, 5.851562500000, 1490954089
-0.135253906250, -0.896972656250, 0.370361328125, 19.656250000000, 7.445312500000, 5.851562500000, 1490954089
-0.135253906250, -0.896972656250, 0.370361328125, 19.656250000000, 7.445312500000, 5.851562500000, 1490954089
-0.135253906250, -0.896972656250, 0.370361328125, 19.656250000000, 7.445312500000, 5.851562500000, 1490954089
-0.050048828125, -0.805664062500, 0.284179687500, 17.789062500000, 18.062500000000, 6.203125000000, 1490954089
-0.085693359375, -0.918701171875, 0.295166015625, 69.992187500000, 35.335937500000, 7.921875000000, 1490954089
-0.085693359375, -0.918701171875, 0.295166015625, 69.992187500000, 35.335937500000, 7.921875000000, 1490954089
-0.085693359375, -0.918701171875, 0.295166015625, 69.992187500000, 35.335937500000, 7.921875000000, 1490954089
-0.085693359375, -0.918701171875, 0.295166015625, 69.992187500000, 35.335937500000, 7.921875000000, 1490954089
-0.051025390625, -0.871582031250, 0.294189453125, 78.898437500000, 38.203125000000, 7.328125000000, 1490954089
-0.057861328125, -0.856201171875, 0.228515625000, 81.984375000000, 41.179687500000, 2.601562500000, 1490954089
-0.057861328125, -0.856201171875, 0.228515625000, 81.984375000000, 41.179687500000, 2.601562500000, 1490954089
-0.072998046875, -0.961669921875, 0.281250000000, 72.296875000000, 64.671875000000, -7.007812500000, 1490954089
-0.056152343750, -0.867431640625, 0.250244140625, 72.296875000000, 64.671875000000, -7.007812500000, 1490954089
-0.056152343750, -0.867431640625, 0.250244140625, 72.296875000000, 64.671875000000, -7.007812500000, 1490954089
-0.056152343750, -0.867431640625, 0.250244140625, 72.296875000000, 64.671875000000, -7.007812500000, 1490954089
-0.056152343750, -0.867431640625, 0.250244140625, 72.296875000000, 64.671875000000, -7.007812500000, 1490954089
-0.059814453125, -0.708740234375, 0.208984375000, 78.390625000000, 97.695312500000, -5.351562500000, 1490954089
-0.059814453125, -0.708740234375, 0.208984375000, 78.390625000000, 97.695312500000, -5.351562500000, 1490954089
-0.059814453125, -0.708740234375, 0.208984375000, 78.390625000000, 97.695312500000, -5.351562500000, 1490954089
-0.078369140625, -0.560302734375, 0.117919921875, 89.765625000000, 141.593750000000, 33.093750000000, 1490954089
-0.078369140625, -0.560302734375, 0.117919921875, 89.765625000000, 141.593750000000, 33.093750000000, 1490954089
-0.078369140625, -0.560302734375, 0.117919921875, 89.765625000000, 141.593750000000, 33.093750000000, 1490954089
0.013916015625, -0.474609375000, 0.079833984375, 86.687500000000, 170.500000000000, 37.007812500000, 1490954089
0.013916015625, -0.474609375000, 0.079833984375, 86.687500000000, 170.500000000000, 37.007812500000, 1490954089
0.013916015625, -0.474609375000, 0.079833984375, 86.687500000000, 170.500000000000, 37.007812500000, 1490954089
0.018310546875, -0.452880859375, -0.079833984375, -33.515625000000, 102.601562500000, 0.296875000000, 1490954089
0.018310546875, -0.452880859375, -0.079833984375, -33.515625000000, 102.601562500000, 0.296875000000, 1490954089
0.018310546875, -0.452880859375, -0.079833984375, -33.515625000000, 102.601562500000, 0.296875000000, 1490954089
0.018310546875, -0.452880859375, -0.079833984375, -33.515625000000, 102.601562500000, 0.296875000000, 1490954089
-0.088867187500, -0.711425781250, -0.000488281250, -32.320312500000, 9.429687500000, -26.375000000000, 1490954089
-0.088867187500, -0.711425781250, -0.000488281250, -32.320312500000, 9.429687500000, -26.375000000000, 1490954089
-0.088867187500, -0.711425781250, -0.000488281250, -32.320312500000, 9.429687500000, -26.375000000000, 1490954089
-0.114257812500, -0.430419921875, 0.014648437500, 18.054687500000, 5.132812500000, 1.039062500000, 1490954089
-0.114257812500, -0.430419921875, 0.014648437500, 18.054687500000, 5.132812500000, 1.039062500000, 1490954089
-0.114257812500, -0.430419921875, 0.014648437500, 18.054687500000, 5.132812500000, 1.039062500000, 1490954089
-0.045166015625, -0.767089843750, -0.050048828125, -41.820312500000, 11.171875000000, 2.593750000000, 1490954089
-0.045166015625, -0.767089843750, -0.050048828125, -41.820312500000, 11.171875000000, 2.593750000000, 1490954089
-0.045166015625, -0.767089843750, -0.050048828125, -41.820312500000, 11.171875000000, 2.593750000000, 1490954089
-0.268798828125, -0.968994140625, -0.034912109375, -50.492187500000, -74.531250000000, -78.234375000000, 1490954089
-0.268798828125, -0.968994140625, -0.034912109375, -50.492187500000, -74.531250000000, -78.234375000000, 1490954089
-0.268798828125, -0.968994140625, -0.034912109375, -50.492187500000, -74.531250000000, -78.234375000000, 1490954089
-0.268798828125, -0.968994140625, -0.034912109375, -50.492187500000, -74.531250000000, -78.234375000000, 1490954089
-0.214843750000, -0.929687500000, 0.038818359375, -78.875000000000, -106.000000000000, -70.929687500000, 1490954090
-0.214843750000, -0.929687500000, 0.038818359375, -78.875000000000, -106.000000000000, -70.929687500000, 1490954090
-0.214843750000, -0.929687500000, 0.038818359375, -78.875000000000, -106.000000000000, -70.929687500000, 1490954090
-0.394775390625, -1.303710937500, 0.017333984375, -96.609375000000, -54.921875000000, -75.265625000000, 1490954090
-0.394775390625, -1.303710937500, 0.017333984375, -96.609375000000, -54.921875000000, -75.265625000000, 1490954090
-0.394775390625, -1.303710937500, 0.017333984375, -96.609375000000, -54.921875000000, -75.265625000000, 1490954090
-0.280761718750, -1.772949218750, -0.013183593750, -136.015625000000, 15.375000000000, -84.773437500000, 1490954090
-0.280761718750, -1.772949218750, -0.013183593750, -136.015625000000, 15.375000000000, -84.773437500000, 1490954090
-0.280761718750, -1.772949218750, -0.013183593750, -136.015625000000, 15.375000000000, -84.773437500000, 1490954090
-0.249267578125, -1.255859375000, 0.156982421875, -50.906250000000, 104.570312500000, -7.328125000000, 1490954090
-0.249267578125, -1.255859375000, 0.156982421875, -50.906250000000, 104.570312500000, -7.328125000000, 1490954090
-0.249267578125, -1.255859375000, 0.156982421875, -50.906250000000, 104.570312500000, -7.328125000000, 1490954090
-0.249267578125, -1.255859375000, 0.156982421875, -50.906250000000, 104.570312500000, -7.328125000000, 1490954090
0.071533203125, -1.652832031250, 0.088623046875, -72.054687500000, 43.953125000000, -0.453125000000, 1490954090
0.071533203125, -1.652832031250, 0.088623046875, -72.054687500000, 43.953125000000, -0.453125000000, 1490954090
0.071533203125, -1.652832031250, 0.088623046875, -72.054687500000, 43.953125000000, -0.453125000000, 1490954090
-0.044189453125, -1.275146484375, 0.106689453125, -1.664062500000, -144.289062500000, -21.195312500000, 1490954090
-0.044189453125, -1.275146484375, 0.106689453125, -1.664062500000, -144.289062500000, -21.195312500000, 1490954090
-0.044189453125, -1.275146484375, 0.106689453125, -1.664062500000, -144.289062500000, -21.195312500000, 1490954090
-0.385253906250, -1.346435546875, 0.217773437500, 177.593750000000, 50.210937500000, 53.117187500000, 1490954090
-0.385253906250, -1.346435546875, 0.217773437500, 177.593750000000, 50.210937500000, 53.117187500000, 1490954090
-0.385253906250, -1.346435546875, 0.217773437500, 177.593750000000, 50.210937500000, 53.117187500000, 1490954090
-0.319091796875, -1.606445312500, 0.079101562500, 168.859375000000, 176.460937500000, 90.242187500000, 1490954090
-0.319091796875, -1.606445312500, 0.079101562500, 168.859375000000, 176.460937500000, 90.242187500000, 1490954090
-0.319091796875, -1.606445312500, 0.079101562500, 168.859375000000, 176.460937500000, 90.242187500000, 1490954090
-0.319091796875, -1.606445312500, 0.079101562500, 168.859375000000, 176.460937500000, 90.242187500000, 1490954090
-0.180419921875, -1.885253906250, 0.145507812500, 220.570312500000, 8.468750000000, 126.171875000000, 1490954090
-0.180419921875, -1.885253906250, 0.145507812500, 220.570312500000, 8.468750000000, 126.171875000000, 1490954090
-0.180419921875, -1.885253906250, 0.145507812500, 220.570312500000, 8.468750000000, 126.171875000000, 1490954090
-0.201171875000, -1.588623046875, 0.039794921875, 220.867187500000, -66.390625000000, 100.195312500000, 1490954090
-0.201171875000, -1.588623046875, 0.039794921875, 220.867187500000, -66.390625000000, 100.195312500000, 1490954090
-0.201171875000, -1.588623046875, 0.039794921875, 220.867187500000, -66.390625000000, 100.195312500000, 1490954090
-0.308105468750, -1.511718750000, 0.033691406250, 122.695312500000, -51.765625000000, 46.781250000000, 1490954090
-0.308105468750, -1.511718750000, 0.033691406250, 122.695312500000, -51.765625000000, 46.781250000000, 1490954090
-0.308105468750, -1.511718750000, 0.033691406250, 122.695312500000, -51.765625000000, 46.781250000000, 1490954090
-0.375000000000, -1.281494140625, -0.073730468750, 46.382812500000, 29.398437500000, 17.351562500000, 1490954090
-0.375000000000, -1.281494140625, -0.073730468750, 46.382812500000, 29.398437500000, 17.351562500000, 1490954090
-0.375000000000, -1.281494140625, -0.073730468750, 46.382812500000, 29.398437500000, 17.351562500000, 1490954090
-0.375000000000, -1.281494140625, -0.073730468750, 46.382812500000, 29.398437500000, 17.351562500000, 1490954090
-0.409912109375, -1.361328125000, 0.018798828125, -63.531250000000, 5.968750000000, -13.273437500000, 1490954090
-0.409912109375, -1.361328125000, 0.018798828125, -63.531250000000, 5.968750000000, -13.273437500000, 1490954090
-0.409912109375, -1.361328125000, 0.018798828125, -63.531250000000, 5.968750000000, -13.273437500000, 1490954090
-0.442871093750, -1.455566406250, 0.088623046875, -81.953125000000, 24.859375000000, -39.843750000000, 1490954090
-0.442871093750, -1.455566406250, 0.088623046875, -81.953125000000, 24.859375000000, -39.843750000000, 1490954090
-0.442871093750, -1.455566406250, 0.088623046875, -81.953125000000, 24.859375000000, -39.843750000000, 1490954090
-0.387207031250, -1.576660156250, 0.014160156250, -121.609375000000, 14.531250000000, -69.710937500000, 1490954090
-0.387207031250, -1.576660156250, 0.014160156250, -121.609375000000, 14.531250000000, -69.710937500000, 1490954090
-0.387207031250, -1.576660156250, 0.014160156250, -121.609375000000, 14.531250000000, -69.710937500000, 1490954090
-0.333984375000, -1.558105468750, -0.029785156250, -142.851562500000, 20.281250000000, -109.617187500000, 1490954090
-0.333984375000, -1.558105468750, -0.029785156250, -142.851562500000, 20.281250000000, -109.617187500000, 1490954090
-0.333984375000, -1.558105468750, -0.029785156250, -142.851562500000, 20.281250000000, -109.617187500000, 1490954090
-0.333984375000, -1.558105468750, -0.029785156250, -142.851562500000, 20.281250000000, -109.617187500000, 1490954090
-0.254638671875, -1.447753906250, 0.089111328125, -152.609375000000, -1.539062500000, -136.687500000000, 1490954090
-0.254638671875, -1.447753906250, 0.089111328125, -152.609375000000, -1.539062500000, -136.687500000000, 1490954090
-0.254638671875, -1.447753906250, 0.089111328125, -152.609375000000, -1.539062500000, -136.687500000000, 1490954090
-0.095703125000, -1.364013671875, -0.109375000000, -229.453125000000, -96.539062500000, -122.156250000000, 1490954090
-0.095703125000, -1.364013671875, -0.109375000000, -229.453125000000, -96.539062500000, -122.156250000000, 1490954090
-0.095703125000, -1.364013671875, -0.109375000000, -229.453125000000, -96.539062500000, -122.156250000000, 1490954090
-0.155029296875, -1.428222656250, 0.091308593750, -256.000000000000, -49.648437500000, -133.296875000000, 1490954090
-0.155029296875, -1.428222656250, 0.091308593750, -256.000000000000, -49.648437500000, -133.296875000000, 1490954090
-0.155029296875, -1.428222656250, 0.091308593750, -256.000000000000, -49.648437500000, -133.296875000000, 1490954090
-0.328369140625, -1.275878906250, 0.083496093750, -256.000000000000, 89.664062500000, -109.617187500000, 1490954090
-0.328369140625, -1.275878906250, 0.083496093750, -256.000000000000, 89.664062500000, -109.617187500000, 1490954090
-0.328369140625, -1.275878906250, 0.083496093750, -256.000000000000, 89.664062500000, -109.617187500000, 1490954090
-0.328369140625, -1.275878906250, 0.083496093750, -256.000000000000, 89.664062500000, -109.617187500000, 1490954090
-0.232177734375, -1.073730468750, 0.054687500000, -224.273437500000, 161.101562500000, -78.570312500000, 1490954090
-0.232177734375, -1.073730468750, 0.054687500000, -224.273437500000, 161.101562500000, -78.570312500000, 1490954091
-0.232177734375, -1.073730468750, 0.054687500000, -224.273437500000, 161.101562500000, -78.570312500000, 1490954091
-0.255126953125, -0.756591796875, -0.027832031250, -145.273437500000, 108.125000000000, -79.414062500000, 1490954091
-0.255126953125, -0.756591796875, -0.027832031250, -145.273437500000, 108.125000000000, -79.414062500000, 1490954091
-0.255126953125, -0.756591796875, -0.027832031250, -145.273437500000, 108.125000000000, -79.414062500000, 1490954091
-0.203125000000, -0.558593750000, 0.081298828125, -97.710937500000, 108.492187500000, -85.929687500000, 1490954091
-0.203125000000, -0.558593750000, 0.081298828125, -97.710937500000, 108.492187500000, -85.929687500000, 1490954091
-0.203125000000, -0.558593750000, 0.081298828125, -97.710937500000, 108.492187500000, -85.929687500000, 1490954091
0.017333984375, -0.426269531250, 0.033447265625, 26.132812500000, 71.945312500000, -46.781250000000, 1490954091
0.017333984375, -0.426269531250, 0.033447265625, 26.132812500000, 71.945312500000, -46.781250000000, 1490954091
0.017333984375, -0.426269531250, 0.033447265625, 26.132812500000, 71.945312500000, -46.781250000000, 1490954091
0.017333984375, -0.426269531250, 0.033447265625, 26.132812500000, 71.945312500000, -46.781250000000, 1490954091
0.000732421875, -0.530273437500, 0.132080078125, 122.007812500000, -90.585937500000, 9.453125000000, 1490954091
0.000732421875, -0.530273437500, 0.132080078125, 122.007812500000, -90.585937500000, 9.453125000000, 1490954091
0.000732421875, -0.530273437500, 0.132080078125, 122.007812500000, -90.585937500000, 9.453125000000, 1490954091
-0.032470703125, -0.369140625000, 0.156250000000, 87.320312500000, -180.773437500000, 110.609375000000, 1490954091
-0.032470703125, -0.369140625000, 0.156250000000, 87.320312500000, -180.773437500000, 110.609375000000, 1490954091
-0.032470703125, -0.369140625000, 0.156250000000, 87.320312500000, -180.773437500000, 110.609375000000, 1490954091
-0.029052734375, -0.417480468750, 0.177734375000, 81.398437500000, -244.054687500000, 224.023437500000, 1490954091
-0.029052734375, -0.417480468750, 0.177734375000, 81.398437500000, -244.054687500000, 224.023437500000, 1490954091
-0.029052734375, -0.417480468750, 0.177734375000, 81.398437500000, -244.054687500000, 224.023437500000, 1490954091
0.255615234375, -0.879882812500, 0.257080078125, 235.132812500000, -256.000000000000, 132.625000000000, 1490954091
0.255615234375, -0.879882812500, 0.257080078125, 235.132812500000, -256.000000000000, 132.625000000000, 1490954091
0.255615234375, -0.879882812500, 0.257080078125, 235.132812500000, -256.000000000000, 132.625000000000, 1490954091
0.255615234375, -0.879882812500, 0.257080078125, 235.132812500000, -256.000000000000, 132.625000000000, 1490954091
0.182617187500, -1.225830078125, 0.322753906250, 253.992187500000, -121.601562500000, 94.445312500000, 1490954091
0.182617187500, -1.225830078125, 0.322753906250, 253.992187500000, -121.601562500000, 94.445312500000, 1490954091
0.182617187500, -1.225830078125, 0.322753906250, 253.992187500000, -121.601562500000, 94.445312500000, 1490954091
0.141845703125, -1.657226562500, 0.263183593750, 240.312500000000, 122.117187500000, 79.281250000000, 1490954091
0.141845703125, -1.657226562500, 0.263183593750, 240.312500000000, 122.117187500000, 79.281250000000, 1490954091
0.141845703125, -1.657226562500, 0.263183593750, 240.312500000000, 122.117187500000, 79.281250000000, 1490954091
-1.321044921875, -2.516113281250, 3.264648437500, 253.992187500000, -256.000000000000, 211.828125000000, 1490954091
-1.321044921875, -2.516113281250, 3.264648437500, 253.992187500000, -256.000000000000, 211.828125000000, 1490954091
-1.321044921875, -2.516113281250, 3.264648437500, 253.992187500000, -256.000000000000, 211.828125000000, 1490954091
-0.051513671875, -0.725585937500, 0.183837890625, -256.000000000000, 191.257812500000, -32.531250000000, 1490954091
-0.051513671875, -0.725585937500, 0.183837890625, -256.000000000000, 191.257812500000, -32.531250000000, 1490954091
-0.051513671875, -0.725585937500, 0.183837890625, -256.000000000000, 191.257812500000, -32.531250000000, 1490954091
-0.051513671875, -0.725585937500, 0.183837890625, -256.000000000000, 191.257812500000, -32.531250000000, 1490954091
-0.279541015625, -1.177490234375, 0.257080078125, -256.000000000000, 253.992187500000, -224.273437500000, 1490954091
-0.279541015625, -1.177490234375, 0.257080078125, -256.000000000000, 253.992187500000, -224.273437500000, 1490954091
-0.279541015625, -1.177490234375, 0.257080078125, -256.000000000000, 253.992187500000, -224.273437500000, 1490954091
-0.148437500000, -0.820800781250, 0.167724609375, -131.585937500000, 253.992187500000, -21.296875000000, 1490954091
-0.148437500000, -0.820800781250, 0.167724609375, -131.585937500000, 253.992187500000, -21.296875000000, 1490954091
-0.148437500000, -0.820800781250, 0.167724609375, -131.585937500000, 253.992187500000, -21.296875000000, 1490954091
-0.039550781250, -0.805664062500, 0.094970703125, -16.195312500000, 39.382812500000, -45.960937500000, 1490954091
-0.039550781250, -0.805664062500, 0.094970703125, -16.195312500000, 39.382812500000, -45.960937500000, 1490954091
-0.039550781250, -0.805664062500, 0.094970703125, -16.195312500000, 39.382812500000, -45.960937500000, 1490954091
-0.397460937500, -0.795410156250, 0.134765625000, 128.828125000000, -256.000000000000, 35.390625000000, 1490954091
-0.397460937500, -0.795410156250, 0.134765625000, 128.828125000000, -256.000000000000, 35.390625000000, 1490954091
-0.397460937500, -0.795410156250, 0.134765625000, 128.828125000000, -256.000000000000, 35.390625000000, 1490954091
-0.397460937500, -0.795410156250, 0.134765625000, 128.828125000000, -256.000000000000, 35.390625000000, 1490954091
-0.198730468750, -0.938232421875, 0.318603515625, 155.914062500000, -256.000000000000, -1.195312500000, 1490954091
-0.198730468750, -0.938232421875, 0.318603515625, 155.914062500000, -256.000000000000, -1.195312500000, 1490954091
-0.198730468750, -0.938232421875, 0.318603515625, 155.914062500000, -256.000000000000, -1.195312500000, 1490954091
-0.014648437500, -0.940917968750, 0.840576171875, 43.007812500000, 143.289062500000, 19.289062500000, 1490954091
-0.014648437500, -0.940917968750, 0.840576171875, 43.007812500000, 143.289062500000, 19.289062500000, 1490954091
-0.014648437500, -0.940917968750, 0.840576171875, 43.007812500000, 143.289062500000, 19.289062500000, 1490954091
-0.254394531250, -1.073974609375, 0.252441406250, -95.226562500000, -49.796875000000, -34.062500000000, 1490954091
-0.254394531250, -1.073974609375, 0.252441406250, -95.226562500000, -49.796875000000, -34.062500000000, 1490954091
-0.254394531250, -1.073974609375, 0.252441406250, -95.226562500000, -49.796875000000, -34.062500000000, 1490954091
-0.222900390625, -0.947509765625, 0.317382812500, -0.250000000000, -43.585937500000, -19.156250000000, 1490954091
-0.222900390625, -0.947509765625, 0.317382812500, -0.250000000000, -43.585937500000, -19.156250000000, 1490954091
-0.222900390625, -0.947509765625, 0.317382812500, -0.250000000000, -43.585937500000, -19.156250000000, 1490954091
-0.222900390625, -0.947509765625, 0.317382812500, -0.250000000000, -43.585937500000, -19.156250000000, 1490954091
0.019287109375, -0.986328125000, 0.388916015625, 44.765625000000, -114.968750000000, -10.750000000000, 1490954091
0.019287109375, -0.986328125000, 0.388916015625, 44.765625000000, -114.968750000000, -10.750000000000, 1490954091
0.019287109375, -0.986328125000, 0.388916015625, 44.765625000000, -114.968750000000, -10.750000000000, 1490954091
-0.086669921875, -0.849609375000, 0.449707031250, -12.570312500000, 2.437500000000, 8.804687500000, 1490954092
-0.086669921875, -0.849609375000, 0.449707031250, -12.570312500000, 2.437500000000, 8.804687500000, 1490954092
-0.086669921875, -0.849609375000, 0.449707031250, -12.570312500000, 2.437500000000, 8.804687500000, 1490954092
-0.202148437500, -1.009033203125, 0.236816406250, -1.992187500000, -19.375000000000, -5.906250000000, 1490954092
-0.202148437500, -1.009033203125, 0.236816406250, -1.992187500000, -19.375000000000, -5.906250000000, 1490954092
-0.202148437500, -1.009033203125, 0.236816406250, -1.992187500000, -19.375000000000, -5.906250000000, 1490954092
-0.202148437500, -1.009033203125, 0.236816406250, -1.992187500000, -19.375000000000, -5.906250000000, 1490954092
-0.190673828125, -0.868408203125, 0.396972656250, -11.789062500000, -7.296875000000, -17.765625000000, 1490954092
-0.190673828125, -0.868408203125, 0.396972656250, -11.789062500000, -7.296875000000, -17.765625000000, 1490954092
-0.145507812500, -0.909423828125, 0.335937500000, -14.164062500000, -13.601562500000, -22.937500000000, 1490954092
