ACC_X,ACC_Y,ACC_Z,G_X,G_Y,G_Z,Unix Time
-0.037353515625, -1.070556640625, 0.009033203125, -247.851562500000, 79.218750000000, -64.445312500000, 1490953766
-0.037353515625, -1.070556640625, 0.009033203125, -247.851562500000, 79.218750000000, -64.445312500000, 1490953766
-0.037353515625, -1.070556640625, 0.009033203125, -247.851562500000, 79.218750000000, -64.445312500000, 1490953766
-0.027099609375, -0.944335937500, -0.141845703125, -131.023437500000, 253.992187500000, -14.914062500000, 1490953766
-0.027099609375, -0.944335937500, -0.141845703125, -131.023437500000, 253.992187500000, -14.914062500000, 1490953766
-0.027099609375, -0.944335937500, -0.141845703125, -131.023437500000, 253.992187500000, -14.914062500000, 1490953766
-0.277587890625, -1.132568359375, 0.013183593750, -135.523437500000, 240.945312500000, 14.648437500000, 1490953766
-0.277587890625, -1.132568359375, 0.013183593750, -135.523437500000, 240.945312500000, 14.648437500000, 1490953766
-0.277587890625, -1.132568359375, 0.013183593750, -135.523437500000, 240.945312500000, 14.648437500000, 1490953766
-0.277587890625, -1.132568359375, 0.013183593750, -135.523437500000, 240.945312500000, 14.648437500000, 1490953766
-0.293945312500, -0.845214843750, -0.048095703125, 21.632812500000, 76.476562500000, 48.890625000000, 1490953766
-0.293945312500, -0.845214843750, -0.048095703125, 21.632812500000, 76.476562500000, 48.890625000000, 1490953766
-0.293945312500, -0.845214843750, -0.048095703125, 21.632812500000, 76.476562500000, 48.890625000000, 1490953766
-0.313720703125, -0.954101562500, -0.026367187500, 161.281250000000, -239.718750000000, 79.812500000000, 1490953766
-0.313720703125, -0.954101562500, -0.026367187500, 161.281250000000, -239.718750000000, 79.812500000000, 1490953766
-0.313720703125, -0.954101562500, -0.026367187500, 161.281250000000, -239.718750000000, 79.812500000000, 1490953766
0.129150390625, -1.035156250000, 0.610351562500, 9.929687500000, 220.453125000000, -25.796875000000, 1490953766
0.129150390625, -1.035156250000, 0.610351562500, 9.929687500000, 220.453125000000, -25.796875000000, 1490953766
0.129150390625, -1.035156250000, 0.610351562500, 9.929687500000, 220.453125000000, -25.796875000000, 1490953766
0.129150390625, -1.035156250000, 0.610351562500, 9.929687500000, 220.453125000000, -25.796875000000, 1490953766
-0.319335937500, -0.895507812500, 0.065185546875, -196.765625000000, 160.007812500000, -20.687500000000, 1490953766
-0.319335937500, -0.895507812500, 0.065185546875, -196.765625000000, 160.007812500000, -20.687500000000, 1490953766
-0.319335937500, -0.895507812500, 0.065185546875, -196.765625000000, 160.007812500000, -20.687500000000, 1490953766
-0.389160156250, -0.798095703125, -0.065429687500, -47.398437500000, 119.578125000000, 22.070312500000, 1490953766
-0.389160156250, -0.798095703125, -0.065429687500, -47.398437500000, 119.578125000000, 22.070312500000, 1490953766
-0.389160156250, -0.798095703125, -0.065429687500, -47.398437500000, 119.578125000000, 22.070312500000, 1490953766
-0.632080078125, -1.000488281250, 0.049072265625, 10.335937500000, -18.984375000000, 37.429687500000, 1490953766
-0.632080078125, -1.000488281250, 0.049072265625, 10.335937500000, -18.984375000000, 37.429687500000, 1490953766
-0.632080078125, -1.000488281250, 0.049072265625, 10.335937500000, -18.984375000000, 37.429687500000, 1490953766
-0.621093750000, -1.060791015625, 0.502441406250, -96.515625000000, 110.585937500000, -26.890625000000, 1490953766
-0.621093750000, -1.060791015625, 0.502441406250, -96.515625000000, 110.585937500000, -26.890625000000, 1490953766
-0.621093750000, -1.060791015625, 0.502441406250, -96.515625000000, 110.585937500000, -26.890625000000, 1490953766
-0.621093750000, -1.060791015625, 0.502441406250, -96.515625000000, 110.585937500000, -26.890625000000, 1490953766
-0.500000000000, -1.129882812500, 0.116699218750, -121.281250000000, 79.476562500000, -29.062500000000, 1490953766
-0.500000000000, -1.129882812500, 0.116699218750, -121.281250000000, 79.476562500000, -29.062500000000, 1490953766
-0.500000000000, -1.129882812500, 0.116699218750, -121.281250000000, 79.476562500000, -29.062500000000, 1490953766
-0.105468750000, -0.927246093750, -0.011230468750, -54.156250000000, 70.460937500000, 1.554687500000, 1490953766
-0.105468750000, -0.927246093750, -0.011230468750, -54.156250000000, 70.460937500000, 1.554687500000, 1490953766
-0.105468750000, -0.927246093750, -0.011230468750, -54.156250000000, 70.460937500000, 1.554687500000, 1490953766
-0.025390625000, -0.955078125000, -0.029052734375, -48.609375000000, 140.960937500000, 4.625000000000, 1490953766
-0.025390625000, -0.955078125000, -0.029052734375, -48.609375000000, 140.960937500000, 4.625000000000, 1490953766
-0.025390625000, -0.955078125000, -0.029052734375, -48.609375000000, 140.960937500000, 4.625000000000, 1490953766
-0.108886718750, -0.875976562500, 0.084228515625, -30.203125000000, 30.656250000000, 59.421875000000, 1490953766
-0.108886718750, -0.875976562500, 0.084228515625, -30.203125000000, 30.656250000000, 59.421875000000, 1490953766
-0.108886718750, -0.875976562500, 0.084228515625, -30.203125000000, 30.656250000000, 59.421875000000, 1490953766
-0.108886718750, -0.875976562500, 0.084228515625, -30.203125000000, 30.656250000000, 59.421875000000, 1490953766
-0.467773437500, -0.914550781250, -0.037353515625, 8.718750000000, -39.265625000000, 57.812500000000, 1490953766
-0.467773437500, -0.914550781250, -0.037353515625, 8.718750000000, -39.265625000000, 57.812500000000, 1490953766
-0.467773437500, -0.914550781250, -0.037353515625, 8.718750000000, -39.265625000000, 57.812500000000, 1490953766
-0.561523437500, -0.755859375000, 0.044433593750, 33.273437500000, -33.078125000000, 50.437500000000, 1490953766
-0.561523437500, -0.755859375000, 0.044433593750, 33.273437500000, -33.078125000000, 50.437500000000, 1490953766
-0.561523437500, -0.755859375000, 0.044433593750, 33.273437500000, -33.078125000000, 50.437500000000, 1490953766
-0.501464843750, -0.825195312500, 0.193359375000, 61.281250000000, -104.914062500000, 19.117187500000, 1490953766
-0.501464843750, -0.825195312500, 0.193359375000, 61.281250000000, -104.914062500000, 19.117187500000, 1490953766
-0.501464843750, -0.825195312500, 0.193359375000, 61.281250000000, -104.914062500000, 19.117187500000, 1490953766
-0.030029296875, -1.081298828125, 0.453369140625, 22.804687500000, -91.992187500000, -36.203125000000, 1490953766
-0.030029296875, -1.081298828125, 0.453369140625, 22.804687500000, -91.992187500000, -36.203125000000, 1490953766
-0.030029296875, -1.081298828125, 0.453369140625, 22.804687500000, -91.992187500000, -36.203125000000, 1490953766
-0.030029296875, -1.081298828125, 0.453369140625, 22.804687500000, -91.992187500000, -36.203125000000, 1490953766
-0.067138671875, -1.014404296875, 0.297119140625, -42.914062500000, -71.554687500000, -4.210937500000, 1490953766
-0.067138671875, -1.014404296875, 0.297119140625, -42.914062500000, -71.554687500000, -4.210937500000, 1490953766
-0.067138671875, -1.014404296875, 0.297119140625, -42.914062500000, -71.554687500000, -4.210937500000, 1490953766
-0.058105468750, -1.015380859375, 0.222900390625, -2.500000000000, -58.304687500000, -12.710937500000, 1490953766
-0.058105468750, -1.015380859375, 0.222900390625, -2.500000000000, -58.304687500000, -12.710937500000, 1490953766
-0.058105468750, -1.015380859375, 0.222900390625, -2.500000000000, -58.304687500000, -12.710937500000, 1490953766
-0.190917968750, -1.181152343750, 0.355957031250, -36.531250000000, -30.039062500000, -29.976562500000, 1490953767
-0.190917968750, -1.181152343750, 0.355957031250, -36.531250000000, -30.039062500000, -29.976562500000, 1490953767
-0.190917968750, -1.181152343750, 0.355957031250, -36.531250000000, -30.039062500000, -29.976562500000, 1490953767
-0.188476562500, -1.087890625000, 0.140136718750, -35.171875000000, 18.335937500000, -33.015625000000, 1490953767
-0.188476562500, -1.087890625000, 0.140136718750, -35.171875000000, 18.335937500000, -33.015625000000, 1490953767
-0.188476562500, -1.087890625000, 0.140136718750, -35.171875000000, 18.335937500000, -33.015625000000, 1490953767
-0.188476562500, -1.087890625000, 0.140136718750, -35.171875000000, 18.335937500000, -33.015625000000, 1490953767
-0.239501953125, -0.875976562500, -0.074707031250, -56.609375000000, 28.406250000000, -25.679687500000, 1490953767
-0.239501953125, -0.875976562500, -0.074707031250, -56.609375000000, 28.406250000000, -25.679687500000, 1490953767
-0.239501953125, -0.875976562500, -0.074707031250, -56.609375000000, 28.406250000000, -25.679687500000, 1490953767
-0.247314453125, -0.841064453125, -0.057128906250, -2.804687500000, 20.484375000000, -18.171875000000, 1490953767
-0.247314453125, -0.841064453125, -0.057128906250, -2.804687500000, 20.484375000000, -18.171875000000, 1490953767
-0.247314453125, -0.841064453125, -0.057128906250, -2.804687500000, 20.484375000000, -18.171875000000, 1490953767
-0.132080078125, -0.788085937500, 0.055419921875, 65.085937500000, -94.296875000000, 10.765625000000, 1490953767
-0.132080078125, -0.788085937500, 0.055419921875, 65.085937500000, -94.296875000000, 10.765625000000, 1490953767
-0.132080078125, -0.788085937500, 0.055419921875, 65.085937500000, -94.296875000000, 10.765625000000, 1490953767
0.257080078125, -0.945556640625, 0.539306640625, 51.531250000000, 36.507812500000, 7.890625000000, 1490953767
0.257080078125, -0.945556640625, 0.539306640625, 51.531250000000, 36.507812500000, 7.890625000000, 1490953767
0.257080078125, -0.945556640625, 0.539306640625, 51.531250000000, 36.507812500000, 7.890625000000, 1490953767
0.257080078125, -0.945556640625, 0.539306640625, 51.531250000000, 36.507812500000, 7.890625000000, 1490953767
-0.216796875000, -0.891601562500, 0.276855468750, -54.859375000000, 11.445312500000, 14.726562500000, 1490953767
-0.216796875000, -0.891601562500, 0.276855468750, -54.859375000000, 11.445312500000, 14.726562500000, 1490953767
-0.216796875000, -0.891601562500, 0.276855468750, -54.859375000000, 11.445312500000, 14.726562500000, 1490953767
-0.318847656250, -0.952880859375, 0.253417968750, -24.179687500000, 28.187500000000, -10.578125000000, 1490953767
-0.318847656250, -0.952880859375, 0.253417968750, -24.179687500000, 28.187500000000, -10.578125000000, 1490953767
-0.318847656250, -0.952880859375, 0.253417968750, -24.179687500000, 28.187500000000, -10.578125000000, 1490953767
-0.330322265625, -0.864501953125, 0.224609375000, 5.968750000000, 33.835937500000, -39.023437500000, 1490953767
-0.330322265625, -0.864501953125, 0.224609375000, 5.968750000000, 33.835937500000, -39.023437500000, 1490953767
-0.330322265625, -0.864501953125, 0.224609375000, 5.968750000000, 33.835937500000, -39.023437500000, 1490953767
-0.317871093750, -1.077880859375, 0.565429687500, -71.195312500000, 11.812500000000, -9.640625000000, 1490953767
-0.317871093750, -1.077880859375, 0.565429687500, -71.195312500000, 11.812500000000, -9.640625000000, 1490953767
-0.317871093750, -1.077880859375, 0.565429687500, -71.195312500000, 11.812500000000, -9.640625000000, 1490953767
-0.317871093750, -1.077880859375, 0.565429687500, -71.195312500000, 11.812500000000, -9.640625000000, 1490953767
-0.558349609375, -0.945800781250, 0.259277343750, -53.835937500000, -10.039062500000, 9.468750000000, 1490953767
-0.558349609375, -0.945800781250, 0.259277343750, -53.835937500000, -10.039062500000, 9.468750000000, 1490953767
-0.558349609375, -0.945800781250, 0.259277343750, -53.835937500000, -10.039062500000, 9.468750000000, 1490953767
-0.195068359375, -0.868408203125, 0.316162109375, -18.359375000000, -55.546875000000, -16.632812500000, 1490953767
-0.195068359375, -0.868408203125, 0.316162109375, -18.359375000000, -55.546875000000, -16.632812500000, 1490953767
-0.195068359375, -0.868408203125, 0.316162109375, -18.359375000000, -55.546875000000, -16.632812500000, 1490953767
-0.027099609375, -1.002929687500, 0.125488281250, -36.578125000000, 44.765625000000, -9.656250000000, 1490953767
-0.027099609375, -1.002929687500, 0.125488281250, -36.578125000000, 44.765625000000, -9.656250000000, 1490953767
-0.027099609375, -1.002929687500, 0.125488281250, -36.578125000000, 44.765625000000, -9.656250000000, 1490953767
-0.108886718750, -1.142578125000, 0.350830078125, 28.421875000000, 56.460937500000, 18.570312500000, 1490953767
-0.108886718750, -1.142578125000, 0.350830078125, 28.421875000000, 56.460937500000, 18.570312500000, 1490953767
-0.108886718750, -1.142578125000, 0.350830078125, 28.421875000000, 56.460937500000, 18.570312500000, 1490953767
-0.108886718750, -1.142578125000, 0.350830078125, 28.421875000000, 56.460937500000, 18.570312500000, 1490953767
-0.353759765625, -0.957275390625, 0.208740234375, -24.257812500000, 35.031250000000, 20.890625000000, 1490953767
-0.353759765625, -0.957275390625, 0.208740234375, -24.257812500000, 35.031250000000, 20.890625000000, 1490953767
-0.353759765625, -0.957275390625, 0.208740234375, -24.257812500000, 35.031250000000, 20.890625000000, 1490953767
-0.502197265625, -0.707519531250, 0.131103515625, 5.398437500000, 13.070312500000, 8.914062500000, 1490953767
-0.502197265625, -0.707519531250, 0.131103515625, 5.398437500000, 13.070312500000, 8.914062500000, 1490953767
-0.502197265625, -0.707519531250, 0.131103515625, 5.398437500000, 13.070312500000, 8.914062500000, 1490953767
-0.510986328125, -0.640380859375, 0.140136718750, 45.148437500000, -63.218750000000, 13.648437500000, 1490953767
-0.510986328125, -0.640380859375, 0.140136718750, 45.148437500000, -63.218750000000, 13.648437500000, 1490953767
-0.510986328125, -0.640380859375, 0.140136718750, 45.148437500000, -63.218750000000, 13.648437500000, 1490953767
-0.149902343750, -0.830078125000, 0.396728515625, 27.617187500000, -64.539062500000, -15.640625000000, 1490953767
-0.149902343750, -0.830078125000, 0.396728515625, 27.617187500000, -64.539062500000, -15.640625000000, 1490953767
-0.149902343750, -0.830078125000, 0.396728515625, 27.617187500000, -64.539062500000, -15.640625000000, 1490953767
-0.149902343750, -0.830078125000, 0.396728515625, 27.617187500000, -64.539062500000, -15.640625000000, 1490953767
0.016357421875, -0.808105468750, 0.422851562500, -3.710937500000, -44.015625000000, 1.773437500000, 1490953767
0.016357421875, -0.808105468750, 0.422851562500, -3.710937500000, -44.015625000000, 1.773437500000, 1490953767
0.016357421875, -0.808105468750, 0.422851562500, -3.710937500000, -44.015625000000, 1.773437500000, 1490953767
-0.074218750000, -1.112304687500, 0.374755859375, -21.156250000000, -24.953125000000, 1.140625000000, 1490953767
-0.074218750000, -1.112304687500, 0.374755859375, -21.156250000000, -24.953125000000, 1.140625000000, 1490953767
-0.074218750000, -1.112304687500, 0.374755859375, -21.156250000000, -24.953125000000, 1.140625000000, 1490953767
-0.148925781250, -1.156494140625, 0.545410156250, -7.210937500000, 7.078125000000, -2.890625000000, 1490953767
-0.148925781250, -1.156494140625, 0.545410156250, -7.210937500000, 7.078125000000, -2.890625000000, 1490953767
-0.148925781250, -1.156494140625, 0.545410156250, -7.210937500000, 7.078125000000, -2.890625000000, 1490953767
-0.304199218750, -1.222167968750, 0.324707031250, -138.023437500000, 29.703125000000, -13.898437500000, 1490953768
-0.304199218750, -1.222167968750, 0.324707031250, -138.023437500000, 29.703125000000, -13.898437500000, 1490953768
-0.304199218750, -1.222167968750, 0.324707031250, -138.023437500000, 29.703125000000, -13.898437500000, 1490953768
-0.304199218750, -1.222167968750, 0.324707031250, -138.023437500000, 29.703125000000, -13.898437500000, 1490953768
-0.239990234375, -0.768310546875, 0.063232421875, -60.210937500000, 89.320312500000, -9.289062500000, 1490953768
-0.239990234375, -0.768310546875, 0.063232421875, -60.210937500000, 89.320312500000, -9.289062500000, 1490953768
-0.239990234375, -0.768310546875, 0.063232421875, -60.210937500000, 89.320312500000, -9.289062500000, 1490953768
-0.219238281250, -0.941894531250, -0.058349609375, -65.937500000000, 43.593750000000, 2.875000000000, 1490953768
-0.219238281250, -0.941894531250, -0.058349609375, -65.937500000000, 43.593750000000, 2.875000000000, 1490953768
-0.219238281250, -0.941894531250, -0.058349609375, -65.937500000000, 43.593750000000, 2.875000000000, 1490953768
-0.270507812500, -1.150878906250, 0.088378906250, 46.445312500000, -19.320312500000, 23.273437500000, 1490953768
-0.270507812500, -1.150878906250, 0.088378906250, 46.445312500000, -19.320312500000, 23.273437500000, 1490953768
-0.270507812500, -1.150878906250, 0.088378906250, 46.445312500000, -19.320312500000, 23.273437500000, 1490953768
0.354248046875, -1.224853515625, 0.735595703125, 86.007812500000, 150.000000000000, 34.507812500000, 1490953768
0.354248046875, -1.224853515625, 0.735595703125, 86.007812500000, 150.000000000000, 34.507812500000, 1490953768
0.109619140625, -0.863525390625, 0.430419921875, -93.328125000000, 123.828125000000, 36.156250000000, 1490953768
0.109619140625, -0.863525390625, 0.430419921875, -93.328125000000, 123.828125000000, 36.156250000000, 1490953768
0.109619140625, -0.863525390625, 0.430419921875, -93.328125000000, 123.828125000000, 36.156250000000, 1490953768
0.109619140625, -0.863525390625, 0.430419921875, -93.328125000000, 123.828125000000, 36.156250000000, 1490953768
0.059814453125, -0.851318359375, 0.241455078125, -108.710937500000, 131.664062500000, 32.617187500000, 1490953768
0.086181640625, -0.949218750000, 0.170410156250, -57.687500000000, 136.132812500000, 38.289062500000, 1490953768
0.086181640625, -0.949218750000, 0.170410156250, -57.687500000000, 136.132812500000, 38.289062500000, 1490953768
0.086181640625, -0.949218750000, 0.170410156250, -57.687500000000, 136.132812500000, 38.289062500000, 1490953768
-0.123046875000, -0.805908203125, 0.255615234375, -7.507812500000, 147.070312500000, 45.343750000000, 1490953768
-0.123046875000, -0.805908203125, 0.255615234375, -7.507812500000, 147.070312500000, 45.343750000000, 1490953768
-0.123046875000, -0.805908203125, 0.255615234375, -7.507812500000, 147.070312500000, 45.343750000000, 1490953768
-0.316406250000, -0.686035156250, 0.258544921875, -46.656250000000, 159.210937500000, 32.023437500000, 1490953768
-0.316406250000, -0.686035156250, 0.258544921875, -46.656250000000, 159.210937500000, 32.023437500000, 1490953768
-0.316406250000, -0.686035156250, 0.258544921875, -46.656250000000, 159.210937500000, 32.023437500000, 1490953768
-0.316406250000, -0.686035156250, 0.258544921875, -46.656250000000, 159.210937500000, 32.023437500000, 1490953768
-0.410400390625, -1.069580078125, 0.158203125000, -33.429687500000, 105.835937500000, 27.937500000000, 1490953768
-0.410400390625, -1.069580078125, 0.158203125000, -33.429687500000, 105.835937500000, 27.937500000000, 1490953768
-0.410400390625, -1.069580078125, 0.158203125000, -33.429687500000, 105.835937500000, 27.937500000000, 1490953768
-0.473876953125, -0.859863281250, 0.297119140625, -23.820312500000, 85.281250000000, 14.062500000000, 1490953768
-0.473876953125, -0.859863281250, 0.297119140625, -23.820312500000, 85.281250000000, 14.062500000000, 1490953768
-0.473876953125, -0.859863281250, 0.297119140625, -23.820312500000, 85.281250000000, 14.062500000000, 1490953768
-0.211669921875, -0.832275390625, 0.385009765625, -8.406250000000, 57.992187500000, 20.531250000000, 1490953768
-0.211669921875, -0.832275390625, 0.385009765625, -8.406250000000, 57.992187500000, 20.531250000000, 1490953768
-0.211669921875, -0.832275390625, 0.385009765625, -8.406250000000, 57.992187500000, 20.531250000000, 1490953768
-0.074951171875, -0.672851562500, 0.641845703125, -13.046875000000, 82.960937500000, 23.789062500000, 1490953768
-0.074951171875, -0.672851562500, 0.641845703125, -13.046875000000, 82.960937500000, 23.789062500000, 1490953768
-0.074951171875, -0.672851562500, 0.641845703125, -13.046875000000, 82.960937500000, 23.789062500000, 1490953768
-0.074951171875, -0.672851562500, 0.641845703125, -13.046875000000, 82.960937500000, 23.789062500000, 1490953768
0.181640625000, -0.296386718750, 0.206787109375, -78.515625000000, 156.781250000000, 6.343750000000, 1490953768
0.181640625000, -0.296386718750, 0.206787109375, -78.515625000000, 156.781250000000, 6.343750000000, 1490953768
0.181640625000, -0.296386718750, 0.206787109375, -78.515625000000, 156.781250000000, 6.343750000000, 1490953768
0.313476562500, -0.789550781250, 0.105712890625, -75.312500000000, 253.992187500000, -4.570312500000, 1490953768
0.313476562500, -0.789550781250, 0.105712890625, -75.312500000000, 253.992187500000, -4.570312500000, 1490953768
0.313476562500, -0.789550781250, 0.105712890625, -75.312500000000, 253.992187500000, -4.570312500000, 1490953768
0.658935546875, -1.697509765625, -0.011962890625, 23.992187500000, 254.203125000000, -24.117187500000, 1490953768
0.658935546875, -1.697509765625, -0.011962890625, 23.992187500000, 254.203125000000, -24.117187500000, 1490953768
0.658935546875, -1.697509765625, -0.011962890625, 23.992187500000, 254.203125000000, -24.117187500000, 1490953768
0.097412109375, -2.269287109375, 0.291503906250, -1.281250000000, -2.437500000000, 144.234375000000, 1490953768
0.097412109375, -2.269287109375, 0.291503906250, -1.281250000000, -2.437500000000, 144.234375000000, 1490953768
0.097412109375, -2.269287109375, 0.291503906250, -1.281250000000, -2.437500000000, 144.234375000000, 1490953768
-0.345458984375, -2.346191406250, 0.709228515625, 104.992187500000, 51.507812500000, 45.289062500000, 1490953768
-0.719482421875, -2.237304687500, 1.271972656250, 78.679687500000, 252.476562500000, -60.031250000000, 1490953768
-0.719482421875, -2.237304687500, 1.271972656250, 78.679687500000, 252.476562500000, -60.031250000000, 1490953768
-0.719482421875, -2.237304687500, 1.271972656250, 78.679687500000, 252.476562500000, -60.031250000000, 1490953768
0.377685546875, -1.364990234375, 0.420166015625, -149.492187500000, 253.992187500000, -102.187500000000, 1490953768
0.377685546875, -1.364990234375, 0.420166015625, -149.492187500000, 253.992187500000, -102.187500000000, 1490953768
0.377685546875, -1.364990234375, 0.420166015625, -149.492187500000, 253.992187500000, -102.187500000000, 1490953768
0.195312500000, -0.682617187500, -0.012207031250, -140.539062500000, 231.421875000000, -71.406250000000, 1490953768
0.195312500000, -0.682617187500, -0.012207031250, -140.539062500000, 231.421875000000, -71.406250000000, 1490953768
0.195312500000, -0.682617187500, -0.012207031250, -140.539062500000, 231.421875000000, -71.406250000000, 1490953768
-0.034423828125, -0.339599609375, -0.017333984375, -175.109375000000, 253.992187500000, -58.726562500000, 1490953769
-0.034423828125, -0.339599609375, -0.017333984375, -175.109375000000, 253.992187500000, -58.726562500000, 1490953769
-0.034423828125, -0.339599609375, -0.017333984375, -175.109375000000, 253.992187500000, -58.726562500000, 1490953769
-0.034423828125, -0.339599609375, -0.017333984375, -175.109375000000, 253.992187500000, -58.726562500000, 1490953769
0.001220703125, -0.069091796875, -0.008300781250, -88.585937500000, 253.992187500000, -17.734375000000, 1490953769
0.001220703125, -0.069091796875, -0.008300781250, -88.585937500000, 253.992187500000, -17.734375000000, 1490953769
0.001220703125, -0.069091796875, -0.008300781250, -88.585937500000, 253.992187500000, -17.734375000000, 1490953769
-0.073974609375, -0.067626953125, -0.051757812500, -86.687500000000, 151.609375000000, -34.851562500000, 1490953769
-0.073974609375, -0.067626953125, -0.051757812500, -86.687500000000, 151.609375000000, -34.851562500000, 1490953769
-0.073974609375, -0.067626953125, -0.051757812500, -86.687500000000, 151.609375000000, -34.851562500000, 1490953769
-0.016845703125, -0.683593750000, -0.132080078125, -161.500000000000, -110.906250000000, -189.296875000000, 1490953769
-0.016845703125, -0.683593750000, -0.132080078125, -161.500000000000, -110.906250000000, -189.296875000000, 1490953769
-0.016845703125, -0.683593750000, -0.132080078125, -161.500000000000, -110.906250000000, -189.296875000000, 1490953769
-0.520751953125, -1.310058593750, -0.022216796875, 7.546875000000, 191.593750000000, 143.531250000000, 1490953769
-0.520751953125, -1.310058593750, -0.022216796875, 7.546875000000, 191.593750000000, 143.531250000000, 1490953769
-0.520751953125, -1.310058593750, -0.022216796875, 7.546875000000, 191.593750000000, 143.531250000000, 1490953769
-0.520751953125, -1.310058593750, -0.022216796875, 7.546875000000, 191.593750000000, 143.531250000000, 1490953769
-0.540527343750, -1.959472656250, -0.295410156250, 194.281250000000, 206.140625000000, 66.296875000000, 1490953769
-0.540527343750, -1.959472656250, -0.295410156250, 194.281250000000, 206.140625000000, 66.296875000000, 1490953769
-0.540527343750, -1.959472656250, -0.295410156250, 194.281250000000, 206.140625000000, 66.296875000000, 1490953769
-1.567626953125, -2.899902343750, 0.249755859375, 253.992187500000, -256.000000000000, 253.992187500000, 1490953769
-1.567626953125, -2.899902343750, 0.249755859375, 253.992187500000, -256.000000000000, 253.992187500000, 1490953769
-1.567626953125, -2.899902343750, 0.249755859375, 253.992187500000, -256.000000000000, 253.992187500000, 1490953769
-0.087890625000, -1.162597656250, 0.213623046875, -256.000000000000, 121.492187500000, -58.898437500000, 1490953769
-0.087890625000, -1.162597656250, 0.213623046875, -256.000000000000, 121.492187500000, -58.898437500000, 1490953769
-0.087890625000, -1.162597656250, 0.213623046875, -256.000000000000, 121.492187500000, -58.898437500000, 1490953769
0.216796875000, -0.410156250000, 0.075927734375, -79.906250000000, 184.851562500000, -11.171875000000, 1490953769
0.216796875000, -0.410156250000, 0.075927734375, -79.906250000000, 184.851562500000, -11.171875000000, 1490953769
0.216796875000, -0.410156250000, 0.075927734375, -79.906250000000, 184.851562500000, -11.171875000000, 1490953769
0.216796875000, -0.410156250000, 0.075927734375, -79.906250000000, 184.851562500000, -11.171875000000, 1490953769
0.113281250000, -0.069091796875, 0.078857421875, -140.882812500000, 253.992187500000, 15.265625000000, 1490953769
0.113281250000, -0.069091796875, 0.078857421875, -140.882812500000, 253.992187500000, 15.265625000000, 1490953769
0.113281250000, -0.069091796875, 0.078857421875, -140.882812500000, 253.992187500000, 15.265625000000, 1490953769
0.153320312500, 0.050048828125, 0.089599609375, -105.156250000000, 253.992187500000, -98.492187500000, 1490953769
0.153320312500, 0.050048828125, 0.089599609375, -105.156250000000, 253.992187500000, -98.492187500000, 1490953769
0.153320312500, 0.050048828125, 0.089599609375, -105.156250000000, 253.992187500000, -98.492187500000, 1490953769
0.068115234375, -0.862060546875, -0.247070312500, -256.000000000000, 156.453125000000, -164.320312500000, 1490953769
0.068115234375, -0.862060546875, -0.247070312500, -256.000000000000, 156.453125000000, -164.320312500000, 1490953769
0.068115234375, -0.862060546875, -0.247070312500, -256.000000000000, 156.453125000000, -164.320312500000, 1490953769
-0.185058593750, -1.677734375000, 0.229736328125, 253.992187500000, -200.601562500000, 197.375000000000, 1490953769
-0.185058593750, -1.677734375000, 0.229736328125, 253.992187500000, -200.601562500000, 197.375000000000, 1490953769
-0.185058593750, -1.677734375000, 0.229736328125, 253.992187500000, -200.601562500000, 197.375000000000, 1490953769
-0.185058593750, -1.677734375000, 0.229736328125, 253.992187500000, -200.601562500000, 197.375000000000, 1490953769
-2.694824218750, -2.905029296875, 5.061279296875, 253.992187500000, -256.000000000000, 253.992187500000, 1490953769
-2.694824218750, -2.905029296875, 5.061279296875, 253.992187500000, -256.000000000000, 253.992187500000, 1490953769
-2.694824218750, -2.905029296875, 5.061279296875, 253.992187500000, -256.000000000000, 253.992187500000, 1490953769
-0.020751953125, -1.320068359375, 0.125000000000, -256.000000000000, 197.953125000000, -157.250000000000, 1490953769
-0.020751953125, -1.320068359375, 0.125000000000, -256.000000000000, 197.953125000000, -157.250000000000, 1490953769
-0.020751953125, -1.320068359375, 0.125000000000, -256.000000000000, 197.953125000000, -157.250000000000, 1490953769
-0.081298828125, -0.666015625000, 0.002197265625, -256.000000000000, 253.992187500000, -115.773437500000, 1490953769
-0.081298828125, -0.666015625000, 0.002197265625, -256.000000000000, 253.992187500000, -115.773437500000, 1490953769
-0.081298828125, -0.666015625000, 0.002197265625, -256.000000000000, 253.992187500000, -115.773437500000, 1490953769
0.105468750000, 0.019775390625, 0.090820312500, -101.156250000000, 253.992187500000, -65.546875000000, 1490953769
0.105468750000, 0.019775390625, 0.090820312500, -101.156250000000, 253.992187500000, -65.546875000000, 1490953769
0.105468750000, 0.019775390625, 0.090820312500, -101.156250000000, 253.992187500000, -65.546875000000, 1490953769
0.105468750000, 0.019775390625, 0.090820312500, -101.156250000000, 253.992187500000, -65.546875000000, 1490953769
0.045166015625, -0.078369140625, -0.055664062500, -70.617187500000, 139.101562500000, -227.843750000000, 1490953769
0.045166015625, -0.078369140625, -0.055664062500, -70.617187500000, 139.101562500000, -227.843750000000, 1490953769
0.045166015625, -0.078369140625, -0.055664062500, -70.617187500000, 139.101562500000, -227.843750000000, 1490953769
-0.083251953125, -0.156982421875, -0.038330078125, -143.625000000000, 28.468750000000, -161.718750000000, 1490953769
-0.083251953125, -0.156982421875, -0.038330078125, -143.625000000000, 28.468750000000, -161.718750000000, 1490953769
-0.083251953125, -0.156982421875, -0.038330078125, -143.625000000000, 28.468750000000, -161.718750000000, 1490953769
-0.779296875000, -1.415771484375, -0.113281250000, -256.000000000000, -256.000000000000, -225.320312500000, 1490953769
-0.779296875000, -1.415771484375, -0.113281250000, -256.000000000000, -256.000000000000, -225.320312500000, 1490953769
-0.779296875000, -1.415771484375, -0.113281250000, -256.000000000000, -256.000000000000, -225.320312500000, 1490953769
-0.542236328125, -1.766113281250, -0.540039062500, 215.148437500000, 229.820312500000, 141.515625000000, 1490953769
-0.542236328125, -1.766113281250, -0.540039062500, 215.148437500000, 229.820312500000, 141.515625000000, 1490953769
-0.542236328125, -1.766113281250, -0.540039062500, 215.148437500000, 229.820312500000, 141.515625000000, 1490953769
-0.542236328125, -1.766113281250, -0.540039062500, 215.148437500000, 229.820312500000, 141.515625000000, 1490953769
-7.937255859375, 3.404052734375, -0.727294921875, 253.992187500000, -256.000000000000, 253.992187500000, 1490953770
-7.937255859375, 3.404052734375, -0.727294921875, 253.992187500000, -256.000000000000, 253.992187500000, 1490953770
-7.937255859375, 3.404052734375, -0.727294921875, 253.992187500000, -256.000000000000, 253.992187500000, 1490953770
1.058837890625, -1.097656250000, -0.595214843750, -126.890625000000, -256.000000000000, 76.445312500000, 1490953770
1.058837890625, -1.097656250000, -0.595214843750, -126.890625000000, -256.000000000000, 76.445312500000, 1490953770
1.058837890625, -1.097656250000, -0.595214843750, -126.890625000000, -256.000000000000, 76.445312500000, 1490953770
0.085449218750, -0.535888671875, 0.237060546875, -256.000000000000, -256.000000000000, 102.867187500000, 1490953770
0.311279296875, -0.324218750000, 0.006103515625, 92.578125000000, 253.992187500000, -256.000000000000, 1490953770
0.311279296875, -0.324218750000, 0.006103515625, 92.578125000000, 253.992187500000, -256.000000000000, 1490953770
0.311279296875, -0.324218750000, 0.006103515625, 92.578125000000, 253.992187500000, -256.000000000000, 1490953770
0.311279296875, -0.324218750000, 0.006103515625, 92.578125000000, 253.992187500000, -256.000000000000, 1490953770
0.311279296875, -0.324218750000, 0.006103515625, 92.578125000000, 253.992187500000, -256.000000000000, 1490953770
0.193359375000, -0.050292968750, -0.204833984375, 197.609375000000, 253.992187500000, -256.000000000000, 1490953770
0.134521484375, -0.194824218750, 0.071777343750, 179.468750000000, 253.992187500000, -256.000000000000, 1490953770
0.134521484375, -0.194824218750, 0.071777343750, 179.468750000000, 253.992187500000, -256.000000000000, 1490953770
0.134521484375, -0.194824218750, 0.071777343750, 179.468750000000, 253.992187500000, -256.000000000000, 1490953770
0.029541015625, -0.359130859375, -0.030029296875, 171.531250000000, 117.250000000000, -256.000000000000, 1490953770
0.029541015625, -0.359130859375, -0.030029296875, 171.531250000000, 117.250000000000, -256.000000000000, 1490953770
0.029541015625, -0.359130859375, -0.030029296875, 171.531250000000, 117.250000000000, -256.000000000000, 1490953770
0.232910156250, -2.310546875000, -0.523437500000, -198.757812500000, -256.000000000000, 253.992187500000, 1490953770
0.232910156250, -2.310546875000, -0.523437500000, -198.757812500000, -256.000000000000, 253.992187500000, 1490953770
0.232910156250, -2.310546875000, -0.523437500000, -198.757812500000, -256.000000000000, 253.992187500000, 1490953770
-3.749267578125, -1.738037109375, 2.785400390625, 253.992187500000, -256.000000000000, 185.460937500000, 1490953770
-3.749267578125, -1.738037109375, 2.785400390625, 253.992187500000, -256.000000000000, 185.460937500000, 1490953770
-3.749267578125, -1.738037109375, 2.785400390625, 253.992187500000, -256.000000000000, 185.460937500000, 1490953770
-3.749267578125, -1.738037109375, 2.785400390625, 253.992187500000, -256.000000000000, 185.460937500000, 1490953770
1.305664062500, -1.210693359375, 3.204589843750, -36.914062500000, -225.156250000000, -115.710937500000, 1490953770
1.305664062500, -1.210693359375, 3.204589843750, -36.914062500000, -225.156250000000, -115.710937500000, 1490953770
1.305664062500, -1.210693359375, 3.204589843750, -36.914062500000, -225.156250000000, -115.710937500000, 1490953770
0.284667968750, -0.786376953125, 0.260742187500, -250.976562500000, 253.992187500000, -52.765625000000, 1490953770
0.284667968750, -0.786376953125, 0.260742187500, -250.976562500000, 253.992187500000, -52.765625000000, 1490953770
0.284667968750, -0.786376953125, 0.260742187500, -250.976562500000, 253.992187500000, -52.765625000000, 1490953770
0.047851562500, -0.389892578125, 0.017578125000, -256.000000000000, 253.992187500000, -48.812500000000, 1490953770
0.047851562500, -0.389892578125, 0.017578125000, -256.000000000000, 253.992187500000, -48.812500000000, 1490953770
0.047851562500, -0.389892578125, 0.017578125000, -256.000000000000, 253.992187500000, -48.812500000000, 1490953770
0.040039062500, -0.230468750000, 0.069580078125, -256.000000000000, 253.992187500000, -141.437500000000, 1490953770
0.040039062500, -0.230468750000, 0.069580078125, -256.000000000000, 253.992187500000, -141.437500000000, 1490953770
0.040039062500, -0.230468750000, 0.069580078125, -256.000000000000, 253.992187500000, -141.437500000000, 1490953770
0.040039062500, -0.230468750000, 0.069580078125, -256.000000000000, 253.992187500000, -141.437500000000, 1490953770
0.206542968750, -0.385986328125, 0.015380859375, -137.507812500000, 98.445312500000, -202.367187500000, 1490953770
0.206542968750, -0.385986328125, 0.015380859375, -137.507812500000, 98.445312500000, -202.367187500000, 1490953770
0.206542968750, -0.385986328125, 0.015380859375, -137.507812500000, 98.445312500000, -202.367187500000, 1490953770
0.162353515625, -2.202636718750, -0.206542968750, -234.453125000000, -256.000000000000, -138.781250000000, 1490953770
0.162353515625, -2.202636718750, -0.206542968750, -234.453125000000, -256.000000000000, -138.781250000000, 1490953770
0.162353515625, -2.202636718750, -0.206542968750, -234.453125000000, -256.000000000000, -138.781250000000, 1490953770
-0.045166015625, -1.626464843750, 0.185058593750, -22.226562500000, -256.000000000000, 251.375000000000, 1490953770
-0.045166015625, -1.626464843750, 0.185058593750, -22.226562500000, -256.000000000000, 251.375000000000, 1490953770
-0.045166015625, -1.626464843750, 0.185058593750, -22.226562500000, -256.000000000000, 251.375000000000, 1490953770
-0.774169921875, -2.130371093750, -0.043457031250, 157.843750000000, 253.992187500000, 209.234375000000, 1490953770
-0.774169921875, -2.130371093750, -0.043457031250, 157.843750000000, 253.992187500000, 209.234375000000, 1490953770
-0.774169921875, -2.130371093750, -0.043457031250, 157.843750000000, 253.992187500000, 209.234375000000, 1490953770
-0.774169921875, -2.130371093750, -0.043457031250, 157.843750000000, 253.992187500000, 209.234375000000, 1490953770
-2.890136718750, -1.904296875000, 1.799804687500, 253.992187500000, -256.000000000000, 253.992187500000, 1490953770
-2.890136718750, -1.904296875000, 1.799804687500, 253.992187500000, -256.000000000000, 253.992187500000, 1490953770
-2.890136718750, -1.904296875000, 1.799804687500, 253.992187500000, -256.000000000000, 253.992187500000, 1490953770
-0.437011718750, -0.822753906250, 0.315429687500, -221.984375000000, 154.734375000000, -105.296875000000, 1490953770
-0.437011718750, -0.822753906250, 0.315429687500, -221.984375000000, 154.734375000000, -105.296875000000, 1490953770
-0.437011718750, -0.822753906250, 0.315429687500, -221.984375000000, 154.734375000000, -105.296875000000, 1490953770
0.061523437500, -0.396728515625, 0.082275390625, -118.031250000000, 253.992187500000, -149.453125000000, 1490953770
0.061523437500, -0.396728515625, 0.082275390625, -118.031250000000, 253.992187500000, -149.453125000000, 1490953770
0.061523437500, -0.396728515625, 0.082275390625, -118.031250000000, 253.992187500000, -149.453125000000, 1490953770
0.112792968750, -0.193603515625, 0.016113281250, -65.859375000000, 253.992187500000, -129.390625000000, 1490953770
0.112792968750, -0.193603515625, 0.016113281250, -65.859375000000, 253.992187500000, -129.390625000000, 1490953770
0.149902343750, -0.057861328125, -0.022949218750, -82.382812500000, 253.992187500000, -159.398437500000, 1490953770
0.149902343750, 0.030273437500, 0.085449218750, -95.421875000000, 253.992187500000, -165.320312500000, 1490953771
0.149902343750, 0.030273437500, 0.085449218750, -95.421875000000, 253.992187500000, -165.320312500000, 1490953771
0.149902343750, 0.030273437500, 0.085449218750, -95.421875000000, 253.992187500000, -165.320312500000, 1490953771
0.149902343750, 0.030273437500, 0.085449218750, -95.421875000000, 253.992187500000, -165.320312500000, 1490953771
0.109619140625, -0.196044921875, 0.087402343750, -135.765625000000, 253.992187500000, -204.046875000000, 1490953771
0.109619140625, -0.196044921875, 0.087402343750, -135.765625000000, 253.992187500000, -204.046875000000, 1490953771
0.109619140625, -0.196044921875, 0.087402343750, -135.765625000000, 253.992187500000, -204.046875000000, 1490953771
0.069335937500, -2.260742187500, -0.631835937500, -256.000000000000, -13.210937500000, -256.000000000000, 1490953771
0.069335937500, -2.260742187500, -0.631835937500, -256.000000000000, -13.210937500000, -256.000000000000, 1490953771
0.069335937500, -2.260742187500, -0.631835937500, -256.000000000000, -13.210937500000, -256.000000000000, 1490953771
-0.447265625000, -1.605468750000, -0.069580078125, 253.992187500000, -55.632812500000, 100.664062500000, 1490953771
-0.447265625000, -1.605468750000, -0.069580078125, 253.992187500000, -55.632812500000, 100.664062500000, 1490953771
-0.447265625000, -1.605468750000, -0.069580078125, 253.992187500000, -55.632812500000, 100.664062500000, 1490953771
-0.447265625000, -1.605468750000, -0.069580078125, 253.992187500000, -55.632812500000, 100.664062500000, 1490953771
-4.654052734375, -1.272949218750, 1.688964843750, 253.992187500000, -256.000000000000, 253.992187500000, 1490953771
-4.654052734375, -1.272949218750, 1.688964843750, 253.992187500000, -256.000000000000, 253.992187500000, 1490953771
-4.654052734375, -1.272949218750, 1.688964843750, 253.992187500000, -256.000000000000, 253.992187500000, 1490953771
1.081298828125, -2.090087890625, 1.888427734375, -28.757812500000, -256.000000000000, 149.679687500000, 1490953771
1.081298828125, -2.090087890625, 1.888427734375, -28.757812500000, -256.000000000000, 149.679687500000, 1490953771
1.081298828125, -2.090087890625, 1.888427734375, -28.757812500000, -256.000000000000, 149.679687500000, 1490953771
0.096679687500, -0.801513671875, -0.119384765625, -141.117187500000, 253.992187500000, -183.554687500000, 1490953771
0.031494140625, -0.373046875000, -0.160644531250, -256.000000000000, 253.992187500000, -199.070312500000, 1490953771
0.031494140625, -0.373046875000, -0.160644531250, -256.000000000000, 253.992187500000, -199.070312500000, 1490953771
0.031494140625, -0.373046875000, -0.160644531250, -256.000000000000, 253.992187500000, -199.070312500000, 1490953771
0.031494140625, -0.373046875000, -0.160644531250, -256.000000000000, 253.992187500000, -199.070312500000, 1490953771
0.155517578125, -0.314697265625, -0.066162109375, -256.000000000000, 253.992187500000, -256.000000000000, 1490953771
-0.047363281250, -0.067138671875, 0.022460937500, -206.343750000000, 253.992187500000, -245.882812500000, 1490953771
-0.047363281250, -0.067138671875, 0.022460937500, -206.343750000000, 253.992187500000, -245.882812500000, 1490953771
-0.047363281250, -0.067138671875, 0.022460937500, -206.343750000000, 253.992187500000, -245.882812500000, 1490953771
-0.047363281250, -0.067138671875, 0.022460937500, -206.343750000000, 253.992187500000, -245.882812500000, 1490953771
-0.000732421875, -0.140625000000, -0.089843750000, -132.031250000000, 82.570312500000, -230.664062500000, 1490953771
-0.000732421875, -0.140625000000, -0.089843750000, -132.031250000000, 82.570312500000, -230.664062500000, 1490953771
-0.000732421875, -0.140625000000, -0.089843750000, -132.031250000000, 82.570312500000, -230.664062500000, 1490953771
0.008789062500, -0.574707031250, -0.279541015625, -219.757812500000, -163.289062500000, -184.187500000000, 1490953771
0.008789062500, -0.574707031250, -0.279541015625, -219.757812500000, -163.289062500000, -184.187500000000, 1490953771
0.008789062500, -0.574707031250, -0.279541015625, -219.757812500000, -163.289062500000, -184.187500000000, 1490953771
-0.339843750000, -1.093994140625, -0.021484375000, -82.570312500000, -198.554687500000, 73.492187500000, 1490953771
-0.339843750000, -1.093994140625, -0.021484375000, -82.570312500000, -198.554687500000, 73.492187500000, 1490953771
-0.339843750000, -1.093994140625, -0.021484375000, -82.570312500000, -198.554687500000, 73.492187500000, 1490953771
-0.339843750000, -1.093994140625, -0.021484375000, -82.570312500000, -198.554687500000, 73.492187500000, 1490953771
-0.418457031250, -1.478271484375, -0.354248046875, 163.390625000000, 184.601562500000, 175.421875000000, 1490953771
-0.418457031250, -1.478271484375, -0.354248046875, 163.390625000000, 184.601562500000, 175.421875000000, 1490953771
-0.418457031250, -1.478271484375, -0.354248046875, 163.390625000000, 184.601562500000, 175.421875000000, 1490953771
-2.364257812500, -1.440429687500, -0.375244140625, 50.523437500000, 65.546875000000, 253.992187500000, 1490953771
-2.364257812500, -1.440429687500, -0.375244140625, 50.523437500000, 65.546875000000, 253.992187500000, 1490953771
-2.364257812500, -1.440429687500, -0.375244140625, 50.523437500000, 65.546875000000, 253.992187500000, 1490953771
-2.019531250000, -1.395751953125, 2.991699218750, 253.992187500000, -256.000000000000, 76.382812500000, 1490953771
-2.019531250000, -1.395751953125, 2.991699218750, 253.992187500000, -256.000000000000, 76.382812500000, 1490953771
-2.019531250000, -1.395751953125, 2.991699218750, 253.992187500000, -256.000000000000, 76.382812500000, 1490953771
-0.023193359375, -0.448730468750, -0.014892578125, -141.062500000000, -57.101562500000, 39.187500000000, 1490953771
-0.023193359375, -0.448730468750, -0.014892578125, -141.062500000000, -57.101562500000, 39.187500000000, 1490953771
-0.023193359375, -0.448730468750, -0.014892578125, -141.062500000000, -57.101562500000, 39.187500000000, 1490953771
-0.023193359375, -0.448730468750, -0.014892578125, -141.062500000000, -57.101562500000, 39.187500000000, 1490953771
-0.082763671875, -0.204833984375, 0.088134765625, -108.710937500000, 148.656250000000, 42.953125000000, 1490953771
-0.082763671875, -0.204833984375, 0.088134765625, -108.710937500000, 148.656250000000, 42.953125000000, 1490953771
-0.082763671875, -0.204833984375, 0.088134765625, -108.710937500000, 148.656250000000, 42.953125000000, 1490953771
0.067626953125, -0.119873046875, -0.088867187500, -96.570312500000, 205.562500000000, -63.273437500000, 1490953771
0.067626953125, -0.119873046875, -0.088867187500, -96.570312500000, 205.562500000000, -63.273437500000, 1490953771
0.067626953125, -0.119873046875, -0.088867187500, -96.570312500000, 205.562500000000, -63.273437500000, 1490953771
-0.086914062500, -0.346923828125, -0.259277343750, -173.640625000000, 195.492187500000, -119.187500000000, 1490953771
-0.086914062500, -0.346923828125, -0.259277343750, -173.640625000000, 195.492187500000, -119.187500000000, 1490953771
-0.086914062500, -0.346923828125, -0.259277343750, -173.640625000000, 195.492187500000, -119.187500000000, 1490953771
-0.623779296875, -1.562744140625, 0.138427734375, 75.765625000000, 236.921875000000, 5.109375000000, 1490953771
-0.623779296875, -1.562744140625, 0.138427734375, 75.765625000000, 236.921875000000, 5.109375000000, 1490953771
-0.623779296875, -1.562744140625, 0.138427734375, 75.765625000000, 236.921875000000, 5.109375000000, 1490953771
-0.680908203125, -2.450683593750, -0.369384765625, 242.164062500000, 253.992187500000, 25.367187500000, 1490953771
-0.713134765625, -1.703369140625, -0.449707031250, 39.507812500000, 253.992187500000, -27.812500000000, 1490953772
-0.366455078125, -1.055175781250, 0.764648437500, 253.992187500000, -256.000000000000, 253.750000000000, 1490953772
-0.366455078125, -1.055175781250, 0.764648437500, 253.992187500000, -256.000000000000, 253.750000000000, 1490953772
-0.366455078125, -1.055175781250, 0.764648437500, 253.992187500000, -256.000000000000, 253.750000000000, 1490953772
-0.366455078125, -1.055175781250, 0.764648437500, 253.992187500000, -256.000000000000, 253.750000000000, 1490953772
-0.366455078125, -1.055175781250, 0.764648437500, 253.992187500000, -256.000000000000, 253.750000000000, 1490953772
0.183105468750, -1.117187500000, 0.386962890625, 253.992187500000, -50.468750000000, -22.906250000000, 1490953772
0.183105468750, -1.117187500000, 0.386962890625, 253.992187500000, -50.468750000000, -22.906250000000, 1490953772
0.183105468750, -1.117187500000, 0.386962890625, 253.992187500000, -50.468750000000, -22.906250000000, 1490953772
-0.024414062500, -0.402343750000, 0.159179687500, -254.562500000000, 253.992187500000, -40.765625000000, 1490953772
-0.024414062500, -0.402343750000, 0.159179687500, -254.562500000000, 253.992187500000, -40.765625000000, 1490953772
-0.024414062500, -0.402343750000, 0.159179687500, -254.562500000000, 253.992187500000, -40.765625000000, 1490953772
-0.024414062500, -0.402343750000, 0.159179687500, -254.562500000000, 253.992187500000, -40.765625000000, 1490953772
-0.147216796875, -0.195800781250, -0.018310546875, -209.875000000000, 253.992187500000, -131.820312500000, 1490953772
-0.147216796875, -0.195800781250, -0.018310546875, -209.875000000000, 253.992187500000, -131.820312500000, 1490953772
-0.147216796875, -0.195800781250, -0.018310546875, -209.875000000000, 253.992187500000, -131.820312500000, 1490953772
