ACC_X,ACC_Y,ACC_Z,G_X,G_Y,G_Z,Unix Time
-0.280761718750, -0.860839843750, 0.061279296875, -6.070312500000, 4.664062500000, -2.656250000000, 1490952913
-0.280761718750, -0.860839843750, 0.061279296875, -6.070312500000, 4.664062500000, -2.656250000000, 1490952913
-0.280761718750, -0.860839843750, 0.061279296875, -6.070312500000, 4.664062500000, -2.656250000000, 1490952913
-0.107421875000, -0.967041015625, 0.080810546875, -3.734375000000, -1.851562500000, -1.648437500000, 1490952913
-0.107421875000, -0.967041015625, 0.080810546875, -3.734375000000, -1.851562500000, -1.648437500000, 1490952914
-0.107421875000, -0.967041015625, 0.080810546875, -3.734375000000, -1.851562500000, -1.648437500000, 1490952914
-0.101318359375, -0.994384765625, 0.042236328125, -5.179687500000, -6.968750000000, -4.148437500000, 1490952914
-0.101318359375, -0.994384765625, 0.042236328125, -5.179687500000, -6.968750000000, -4.148437500000, 1490952914
-0.101318359375, -0.994384765625, 0.042236328125, -5.179687500000, -6.968750000000, -4.148437500000, 1490952914
-0.167724609375, -0.963623046875, 0.146484375000, -3.812500000000, -3.328125000000, -4.093750000000, 1490952914
-0.167724609375, -0.963623046875, 0.146484375000, -3.812500000000, -3.328125000000, -4.093750000000, 1490952914
-0.167724609375, -0.963623046875, 0.146484375000, -3.812500000000, -3.328125000000, -4.093750000000, 1490952914
-0.167724609375, -0.963623046875, 0.146484375000, -6.304687500000, -1.679687500000, -6.273437500000, 1490952914
-0.132324218750, -0.947265625000, 0.100341796875, -3.640625000000, 0.273437500000, -0.789062500000, 1490952914
-0.132324218750, -0.947265625000, 0.100341796875, -3.640625000000, 0.273437500000, -0.789062500000, 1490952914
-0.132324218750, -0.947265625000, 0.100341796875, -3.640625000000, 0.273437500000, -0.789062500000, 1490952914
-0.250732421875, -0.865478515625, 0.096679687500, -6.906250000000, -2.023437500000, -3.429687500000, 1490952914
-0.250732421875, -0.865478515625, 0.096679687500, -6.906250000000, -2.023437500000, -3.429687500000, 1490952914
-0.250732421875, -0.865478515625, 0.096679687500, -6.906250000000, -2.023437500000, -3.429687500000, 1490952914
-0.265136718750, -0.975097656250, 0.187744140625, -5.523437500000, 3.515625000000, -3.406250000000, 1490952914
-0.265136718750, -0.975097656250, 0.187744140625, -5.523437500000, 3.515625000000, -3.406250000000, 1490952914
-0.265136718750, -0.975097656250, 0.187744140625, -5.523437500000, 3.515625000000, -3.406250000000, 1490952914
-0.265136718750, -0.975097656250, 0.187744140625, -5.523437500000, 3.515625000000, -3.406250000000, 1490952914
-0.189208984375, -1.005615234375, 0.106689453125, -5.484375000000, 3.898437500000, -4.765625000000, 1490952914
-0.189208984375, -1.005615234375, 0.106689453125, -5.484375000000, 3.898437500000, -4.765625000000, 1490952914
-0.189208984375, -1.005615234375, 0.106689453125, -5.484375000000, 3.898437500000, -4.765625000000, 1490952914
-0.159179687500, -0.934570312500, 0.146728515625, -5.375000000000, 1.781250000000, -1.687500000000, 1490952914
-0.159179687500, -0.934570312500, 0.146728515625, -5.375000000000, 1.781250000000, -1.687500000000, 1490952914
-0.159179687500, -0.934570312500, 0.146728515625, -5.375000000000, 1.781250000000, -1.687500000000, 1490952914
-0.100341796875, -1.072753906250, 0.195312500000, -1.695312500000, 0.750000000000, -4.562500000000, 1490952914
-0.100341796875, -1.072753906250, 0.195312500000, -1.695312500000, 0.750000000000, -4.562500000000, 1490952914
-0.100341796875, -1.072753906250, 0.195312500000, -1.695312500000, 0.750000000000, -4.562500000000, 1490952914
-0.104248046875, -0.911865234375, 0.155029296875, -1.296875000000, 2.687500000000, -2.203125000000, 1490952914
-0.104248046875, -0.911865234375, 0.155029296875, -1.296875000000, 2.687500000000, -2.203125000000, 1490952914
-0.104248046875, -0.911865234375, 0.155029296875, -1.296875000000, 2.687500000000, -2.203125000000, 1490952914
-0.104248046875, -0.911865234375, 0.155029296875, -1.296875000000, 2.687500000000, -2.203125000000, 1490952914
-0.157958984375, -1.011474609375, 0.198242187500, -4.414062500000, 1.304687500000, 0.109375000000, 1490952914
-0.157958984375, -1.011474609375, 0.198242187500, -4.414062500000, 1.304687500000, 0.109375000000, 1490952914
-0.157958984375, -1.011474609375, 0.198242187500, -4.414062500000, 1.304687500000, 0.109375000000, 1490952914
-0.157958984375, -1.011474609375, 0.198242187500, -4.414062500000, 1.304687500000, 0.109375000000, 1490952914
-0.175781250000, -0.954833984375, 0.192382812500, -6.148437500000, 2.210937500000, -2.710937500000, 1490952914
-0.175781250000, -0.954833984375, 0.192382812500, -6.148437500000, 2.210937500000, -2.710937500000, 1490952914
-0.175781250000, -0.954833984375, 0.192382812500, -6.148437500000, 2.210937500000, -2.710937500000, 1490952914
-0.175781250000, -0.954833984375, 0.192382812500, -6.148437500000, 2.210937500000, -2.710937500000, 1490952914
-0.175781250000, -0.954833984375, 0.192382812500, -6.148437500000, 2.210937500000, -2.710937500000, 1490952914
-0.233154296875, -0.855957031250, 0.151367187500, -3.882812500000, -0.257812500000, -1.195312500000, 1490952914
-0.233154296875, -0.855957031250, 0.151367187500, -3.882812500000, -0.257812500000, -1.195312500000, 1490952914
-0.233154296875, -0.855957031250, 0.151367187500, -3.882812500000, -0.257812500000, -1.195312500000, 1490952914
-0.233154296875, -0.855957031250, 0.151367187500, -3.882812500000, -0.257812500000, -1.195312500000, 1490952914
-0.261718750000, -0.921142578125, 0.193847656250, -3.429687500000, 1.140625000000, -3.109375000000, 1490952914
-0.261718750000, -0.921142578125, 0.193847656250, -3.429687500000, 1.140625000000, -3.109375000000, 1490952914
-0.261718750000, -0.921142578125, 0.193847656250, -3.429687500000, 1.140625000000, -3.109375000000, 1490952914
-0.190185546875, -0.990722656250, 0.153076171875, -5.328125000000, -0.195312500000, -4.804687500000, 1490952914
-0.190185546875, -0.990722656250, 0.153076171875, -5.328125000000, -0.195312500000, -4.804687500000, 1490952914
-0.190185546875, -0.990722656250, 0.153076171875, -5.328125000000, -0.195312500000, -4.804687500000, 1490952914
-0.168457031250, -0.918701171875, 0.143066406250, -7.335937500000, 0.015625000000, -3.234375000000, 1490952914
-0.168457031250, -0.918701171875, 0.143066406250, -7.335937500000, 0.015625000000, -3.234375000000, 1490952914
-0.104248046875, -0.915771484375, 0.201904296875, 0.335937500000, -6.390625000000, -1.296875000000, 1490952914
-0.104248046875, -0.915771484375, 0.201904296875, 0.335937500000, -6.390625000000, -1.296875000000, 1490952914
-0.104248046875, -0.915771484375, 0.201904296875, 0.335937500000, -6.390625000000, -1.296875000000, 1490952914
-0.104248046875, -0.915771484375, 0.201904296875, 0.335937500000, -6.390625000000, -1.296875000000, 1490952914
-0.218994140625, -0.953613281250, 0.194091796875, -2.054687500000, -1.953125000000, 2.187500000000, 1490952914
-0.188964843750, -0.975097656250, 0.199462890625, -2.054687500000, -1.953125000000, 2.187500000000, 1490952914
-0.259033203125, -0.902343750000, 0.208007812500, -1.109375000000, -1.125000000000, -0.468750000000, 1490952914
-0.199951171875, -0.955078125000, 0.218505859375, -4.867187500000, 2.359375000000, 2.242187500000, 1490952914
-0.199951171875, -0.955078125000, 0.218505859375, -4.867187500000, 2.359375000000, 2.242187500000, 1490952914
-0.199951171875, -0.955078125000, 0.218505859375, -4.867187500000, 2.359375000000, 2.242187500000, 1490952914
-0.199951171875, -0.955078125000, 0.218505859375, -4.867187500000, 2.359375000000, 2.242187500000, 1490952914
-0.159423828125, -1.063476562500, 0.106201171875, -4.320312500000, 2.242187500000, -0.390625000000, 1490952914
-0.159423828125, -1.063476562500, 0.106201171875, -4.320312500000, 2.242187500000, -0.390625000000, 1490952914
-0.207763671875, -0.867187500000, 0.112792968750, -6.593750000000, 0.242187500000, -1.523437500000, 1490952914
-0.207763671875, -0.867187500000, 0.112792968750, -6.593750000000, 0.242187500000, -1.523437500000, 1490952915
-0.207763671875, -0.867187500000, 0.112792968750, -6.593750000000, 0.242187500000, -1.523437500000, 1490952915
-0.207763671875, -0.867187500000, 0.112792968750, -6.593750000000, 0.242187500000, -1.523437500000, 1490952915
-0.207763671875, -0.867187500000, 0.112792968750, -6.593750000000, 0.242187500000, -1.523437500000, 1490952915
-0.176269531250, -0.993164062500, 0.103271484375, -3.484375000000, -0.375000000000, -1.828125000000, 1490952915
-0.176269531250, -0.993164062500, 0.103271484375, -3.484375000000, -0.375000000000, -1.828125000000, 1490952915
-0.176269531250, -0.993164062500, 0.103271484375, -3.484375000000, -0.375000000000, -1.828125000000, 1490952915
-0.197021484375, -0.984863281250, 0.147216796875, -6.656250000000, 0.046875000000, -2.914062500000, 1490952915
-0.197021484375, -0.984863281250, 0.147216796875, -6.656250000000, 0.046875000000, -2.914062500000, 1490952915
-0.197021484375, -0.984863281250, 0.147216796875, -6.656250000000, 0.046875000000, -2.914062500000, 1490952915
-0.208740234375, -1.014892578125, 0.111083984375, -6.187500000000, -0.281250000000, -2.796875000000, 1490952915
-0.208740234375, -1.014892578125, 0.111083984375, -6.187500000000, -0.281250000000, -2.796875000000, 1490952915
-0.170898437500, -0.910644531250, 0.108398437500, -3.710937500000, 2.804687500000, -4.640625000000, 1490952915
-0.170898437500, -0.910644531250, 0.108398437500, -3.710937500000, 2.804687500000, -4.640625000000, 1490952915
-0.170898437500, -0.910644531250, 0.108398437500, -3.710937500000, 2.804687500000, -4.640625000000, 1490952915
-0.150146484375, -0.935302734375, 0.136962890625, -5.765625000000, 0.070312500000, -4.148437500000, 1490952915
-0.150146484375, -0.935302734375, 0.136962890625, -5.765625000000, 0.070312500000, -4.148437500000, 1490952915
-0.150146484375, -0.935302734375, 0.136962890625, -5.765625000000, 0.070312500000, -4.148437500000, 1490952915
-0.150146484375, -0.935302734375, 0.136962890625, -5.765625000000, 0.070312500000, -4.148437500000, 1490952915
-0.182373046875, -1.026123046875, 0.099121093750, -6.398437500000, -2.351562500000, -2.562500000000, 1490952915
-0.182373046875, -1.026123046875, 0.099121093750, -6.398437500000, -2.351562500000, -2.562500000000, 1490952915
-0.182373046875, -1.026123046875, 0.099121093750, -6.398437500000, -2.351562500000, -2.562500000000, 1490952915
-0.182373046875, -1.026123046875, 0.099121093750, -6.398437500000, -2.351562500000, -2.562500000000, 1490952915
-0.173339843750, -0.845458984375, 0.210693359375, -6.054687500000, -1.875000000000, -4.687500000000, 1490952915
-0.173339843750, -0.845458984375, 0.210693359375, -6.054687500000, -1.875000000000, -4.687500000000, 1490952915
-0.173339843750, -0.845458984375, 0.210693359375, -6.054687500000, -1.875000000000, -4.687500000000, 1490952915
-0.212402343750, -0.970458984375, 0.204101562500, -6.953125000000, 0.328125000000, -2.773437500000, 1490952915
-0.212402343750, -0.970458984375, 0.204101562500, -6.953125000000, 0.328125000000, -2.773437500000, 1490952915
-0.212402343750, -0.970458984375, 0.204101562500, -6.953125000000, 0.328125000000, -2.773437500000, 1490952915
-0.176513671875, -0.980957031250, 0.135986328125, -5.437500000000, -0.953125000000, -1.164062500000, 1490952915
-0.176513671875, -0.980957031250, 0.135986328125, -5.437500000000, -0.953125000000, -1.164062500000, 1490952915
-0.176513671875, -0.980957031250, 0.135986328125, -5.437500000000, -0.953125000000, -1.164062500000, 1490952915
-0.176513671875, -0.980957031250, 0.135986328125, -5.437500000000, -0.953125000000, -1.164062500000, 1490952915
-0.212402343750, -0.916503906250, 0.055419921875, -6.609375000000, 0.929687500000, -1.554687500000, 1490952915
-0.212402343750, -0.916503906250, 0.055419921875, -6.609375000000, 0.929687500000, -1.554687500000, 1490952915
-0.212402343750, -0.916503906250, 0.055419921875, -6.609375000000, 0.929687500000, -1.554687500000, 1490952915
-0.167236328125, -0.933349609375, 0.155517578125, -3.156250000000, -3.000000000000, -4.367187500000, 1490952915
-0.167236328125, -0.933349609375, 0.155517578125, -3.156250000000, -3.000000000000, -4.367187500000, 1490952915
-0.167236328125, -0.933349609375, 0.155517578125, -3.156250000000, -3.000000000000, -4.367187500000, 1490952915
-0.208251953125, -0.908691406250, 0.114990234375, -5.132812500000, -0.890625000000, -1.406250000000, 1490952915
-0.208251953125, -0.908691406250, 0.114990234375, -5.132812500000, -0.890625000000, -1.406250000000, 1490952915
-0.208251953125, -0.908691406250, 0.114990234375, -5.132812500000, -0.890625000000, -1.406250000000, 1490952915
-0.208251953125, -0.908691406250, 0.114990234375, -5.132812500000, -0.890625000000, -1.406250000000, 1490952915
-0.254394531250, -1.024658203125, 0.125000000000, -1.156250000000, 0.773437500000, -4.656250000000, 1490952915
-0.254394531250, -1.024658203125, 0.125000000000, -1.156250000000, 0.773437500000, -4.656250000000, 1490952915
-0.254394531250, -1.024658203125, 0.125000000000, -1.156250000000, 0.773437500000, -4.656250000000, 1490952915
-0.258544921875, -0.929687500000, 0.055908203125, -3.976562500000, -1.570312500000, -4.820312500000, 1490952915
-0.258544921875, -0.929687500000, 0.055908203125, -3.976562500000, -1.570312500000, -4.820312500000, 1490952915
-0.258544921875, -0.929687500000, 0.055908203125, -3.976562500000, -1.570312500000, -4.820312500000, 1490952915
-0.169677734375, -0.951416015625, 0.149169921875, -1.546875000000, -2.484375000000, -4.617187500000, 1490952915
-0.169677734375, -0.951416015625, 0.149169921875, -1.546875000000, -2.484375000000, -4.617187500000, 1490952915
-0.169677734375, -0.951416015625, 0.149169921875, -1.546875000000, -2.484375000000, -4.617187500000, 1490952915
-0.116699218750, -0.935791015625, 0.139160156250, -2.984375000000, -0.921875000000, 0.906250000000, 1490952915
-0.116699218750, -0.935791015625, 0.139160156250, -2.984375000000, -0.921875000000, 0.906250000000, 1490952915
-0.116699218750, -0.935791015625, 0.139160156250, -2.984375000000, -0.921875000000, 0.906250000000, 1490952915
-0.116699218750, -0.935791015625, 0.139160156250, -2.984375000000, -0.921875000000, 0.906250000000, 1490952915
-0.188720703125, -0.988525390625, 0.197021484375, -1.695312500000, 0.054687500000, -2.664062500000, 1490952915
-0.188720703125, -0.988525390625, 0.197021484375, -1.695312500000, 0.054687500000, -2.664062500000, 1490952915
-0.188720703125, -0.988525390625, 0.197021484375, -1.695312500000, 0.054687500000, -2.664062500000, 1490952915
-0.204101562500, -0.923828125000, 0.110839843750, -2.828125000000, -2.531250000000, -4.390625000000, 1490952915
-0.204101562500, -0.923828125000, 0.110839843750, -2.828125000000, -2.531250000000, -4.390625000000, 1490952915
-0.204101562500, -0.923828125000, 0.110839843750, -4.703125000000, 0.515625000000, -2.906250000000, 1490952915
-0.190917968750, -0.943847656250, 0.188720703125, -3.054687500000, 0.929687500000, -2.289062500000, 1490952915
-0.190917968750, -0.943847656250, 0.188720703125, -3.054687500000, 0.929687500000, -2.289062500000, 1490952915
-0.156250000000, -0.923583984375, 0.113281250000, -3.203125000000, 0.765625000000, -4.328125000000, 1490952915
-0.156250000000, -0.923583984375, 0.113281250000, -3.203125000000, 0.765625000000, -4.328125000000, 1490952915
-0.156250000000, -0.923583984375, 0.113281250000, -3.203125000000, 0.765625000000, -4.328125000000, 1490952915
-0.156250000000, -0.923583984375, 0.113281250000, -3.203125000000, 0.765625000000, -4.328125000000, 1490952916
-0.156250000000, -0.923583984375, 0.113281250000, -3.203125000000, 0.765625000000, -4.328125000000, 1490952916
-0.168457031250, -0.936523437500, 0.114257812500, -3.312500000000, -0.578125000000, -3.718750000000, 1490952916
-0.168457031250, -0.936523437500, 0.114257812500, -3.312500000000, -0.578125000000, -3.718750000000, 1490952916
-0.168457031250, -0.936523437500, 0.114257812500, -3.312500000000, -0.578125000000, -3.718750000000, 1490952916
-0.178222656250, -0.908935546875, 0.112792968750, -3.515625000000, -0.929687500000, -1.414062500000, 1490952916
-0.178222656250, -0.908935546875, 0.112792968750, -3.515625000000, -0.929687500000, -1.414062500000, 1490952916
-0.178222656250, -0.908935546875, 0.112792968750, -3.515625000000, -0.929687500000, -1.414062500000, 1490952916
-0.231689453125, -0.941650390625, 0.125732421875, -3.117187500000, 0.812500000000, -6.039062500000, 1490952916
-0.231689453125, -0.941650390625, 0.125732421875, -3.117187500000, 0.812500000000, -6.039062500000, 1490952916
-0.231689453125, -0.941650390625, 0.125732421875, -3.117187500000, 0.812500000000, -6.039062500000, 1490952916
-0.158203125000, -0.974365234375, 0.203613281250, -3.132812500000, -0.851562500000, -0.929687500000, 1490952916
-0.158203125000, -0.974365234375, 0.203613281250, -3.132812500000, -0.851562500000, -0.929687500000, 1490952916
-0.158203125000, -0.974365234375, 0.203613281250, -3.132812500000, -0.851562500000, -0.929687500000, 1490952916
-0.158203125000, -0.974365234375, 0.203613281250, -3.132812500000, -0.851562500000, -0.929687500000, 1490952916
-0.196777343750, -1.008300781250, 0.099121093750, -2.000000000000, 0.789062500000, -4.351562500000, 1490952916
-0.196777343750, -1.008300781250, 0.099121093750, -2.000000000000, 0.789062500000, -4.351562500000, 1490952916
-0.196777343750, -1.008300781250, 0.099121093750, -2.000000000000, 0.789062500000, -4.351562500000, 1490952916
-0.165039062500, -1.019042968750, 0.140625000000, -3.203125000000, 2.281250000000, -3.148437500000, 1490952916
-0.165039062500, -1.019042968750, 0.140625000000, -3.203125000000, 2.281250000000, -3.148437500000, 1490952916
-0.165039062500, -1.019042968750, 0.140625000000, -3.203125000000, 2.281250000000, -3.148437500000, 1490952916
-0.192871093750, -0.968017578125, 0.117675781250, -3.203125000000, 0.703125000000, -4.039062500000, 1490952916
-0.192871093750, -0.968017578125, 0.117675781250, -3.203125000000, 0.703125000000, -4.039062500000, 1490952916
-0.192871093750, -0.968017578125, 0.117675781250, -3.203125000000, 0.703125000000, -4.039062500000, 1490952916
-0.163085937500, -0.960693359375, 0.101562500000, -6.156250000000, 2.914062500000, -3.187500000000, 1490952916
-0.163085937500, -0.960693359375, 0.101562500000, -6.156250000000, 2.914062500000, -3.187500000000, 1490952916
-0.163085937500, -0.960693359375, 0.101562500000, -6.156250000000, 2.914062500000, -3.187500000000, 1490952916
-0.163085937500, -0.960693359375, 0.101562500000, -6.156250000000, 2.914062500000, -3.187500000000, 1490952916
-0.217285156250, -0.956542968750, 0.141357421875, -4.531250000000, -0.875000000000, -3.617187500000, 1490952916
-0.217285156250, -0.956542968750, 0.141357421875, -4.531250000000, -0.875000000000, -3.617187500000, 1490952916
-0.217285156250, -0.956542968750, 0.141357421875, -4.531250000000, -0.875000000000, -3.617187500000, 1490952916
-0.215820312500, -0.943603515625, 0.041992187500, -4.320312500000, -0.875000000000, -1.828125000000, 1490952916
-0.215820312500, -0.943603515625, 0.041992187500, -4.320312500000, -0.875000000000, -1.828125000000, 1490952916
-0.215820312500, -0.943603515625, 0.041992187500, -4.320312500000, -0.875000000000, -1.828125000000, 1490952916
-0.183593750000, -1.003417968750, 0.154052734375, -1.750000000000, -0.421875000000, -3.171875000000, 1490952916
-0.183593750000, -1.003417968750, 0.154052734375, -1.750000000000, -0.421875000000, -3.171875000000, 1490952916
-0.183593750000, -1.003417968750, 0.154052734375, -1.750000000000, -0.421875000000, -3.171875000000, 1490952916
-0.183837890625, -1.011962890625, 0.194824218750, -3.648437500000, -2.101562500000, -4.304687500000, 1490952916
-0.183837890625, -1.011962890625, 0.194824218750, -3.648437500000, -2.101562500000, -4.304687500000, 1490952916
-0.183837890625, -1.011962890625, 0.194824218750, -3.648437500000, -2.101562500000, -4.304687500000, 1490952916
-0.183837890625, -1.011962890625, 0.194824218750, -3.648437500000, -2.101562500000, -4.304687500000, 1490952916
-0.229248046875, -0.927246093750, 0.149902343750, -3.296875000000, 2.437500000000, -4.875000000000, 1490952916
-0.229248046875, -0.927246093750, 0.149902343750, -3.296875000000, 2.437500000000, -4.875000000000, 1490952916
-0.229248046875, -0.927246093750, 0.149902343750, -3.296875000000, 2.437500000000, -4.875000000000, 1490952916
-0.186523437500, -1.072509765625, 0.149658203125, -6.101562500000, 2.570312500000, -4.492187500000, 1490952916
-0.186523437500, -1.072509765625, 0.149658203125, -6.101562500000, 2.570312500000, -4.492187500000, 1490952916
-0.186523437500, -1.072509765625, 0.149658203125, -6.101562500000, 2.570312500000, -4.492187500000, 1490952916
-0.115234375000, -1.070068359375, 0.129394531250, -3.250000000000, -0.257812500000, -8.265625000000, 1490952916
-0.115234375000, -1.070068359375, 0.129394531250, -3.250000000000, -0.257812500000, -8.265625000000, 1490952916
-0.278076171875, -0.916748046875, 0.147460937500, -6.437500000000, 2.656250000000, -3.203125000000, 1490952916
-0.278076171875, -0.916748046875, 0.147460937500, -6.437500000000, 2.656250000000, -3.203125000000, 1490952916
-0.111572265625, -0.921630859375, 0.103271484375, -4.710937500000, -2.015625000000, -3.148437500000, 1490952916
-0.212158203125, -0.975341796875, 0.053466796875, -4.015625000000, 0.000000000000, -2.070312500000, 1490952916
-0.212158203125, -0.975341796875, 0.053466796875, -4.015625000000, 0.000000000000, -2.070312500000, 1490952916
-0.115722656250, -1.005126953125, 0.159667968750, -4.726562500000, 2.937500000000, -0.781250000000, 1490952916
-0.115722656250, -1.005126953125, 0.159667968750, -4.726562500000, 2.937500000000, -0.781250000000, 1490952916
-0.115722656250, -1.005126953125, 0.159667968750, -4.726562500000, 2.937500000000, -0.781250000000, 1490952916
-0.115722656250, -1.005126953125, 0.159667968750, -4.726562500000, 2.937500000000, -0.781250000000, 1490952916
-0.165771484375, -0.909667968750, 0.211669921875, -6.578125000000, 2.640625000000, -2.812500000000, 1490952916
-0.163574218750, -0.919189453125, 0.059326171875, -3.960937500000, 0.921875000000, -4.914062500000, 1490952916
-0.163574218750, -0.919189453125, 0.059326171875, -3.960937500000, 0.921875000000, -4.914062500000, 1490952916
-0.163574218750, -0.919189453125, 0.059326171875, -3.960937500000, 0.921875000000, -4.914062500000, 1490952916
-0.156494140625, -0.919433593750, 0.119140625000, -3.890625000000, 0.554687500000, -3.148437500000, 1490952916
-0.156494140625, -0.919433593750, 0.119140625000, -3.890625000000, 0.554687500000, -3.148437500000, 1490952916
-0.156494140625, -0.919433593750, 0.119140625000, -3.890625000000, 0.554687500000, -3.148437500000, 1490952916
-0.156494140625, -0.919433593750, 0.119140625000, -3.890625000000, 0.554687500000, -3.148437500000, 1490952916
-0.156494140625, -0.919433593750, 0.119140625000, -3.890625000000, 0.554687500000, -3.148437500000, 1490952916
-0.167968750000, -0.942138671875, 0.211181640625, -3.132812500000, -0.632812500000, -6.359375000000, 1490952916
-0.167968750000, -0.942138671875, 0.211181640625, -3.132812500000, -0.632812500000, -6.359375000000, 1490952917
-0.167968750000, -0.942138671875, 0.211181640625, -3.132812500000, -0.632812500000, -6.359375000000, 1490952917
-0.139404296875, -0.982177734375, 0.208984375000, -3.992187500000, 0.492187500000, -4.476562500000, 1490952917
-0.139404296875, -0.982177734375, 0.208984375000, -3.992187500000, 0.492187500000, -4.476562500000, 1490952917
-0.139404296875, -0.982177734375, 0.208984375000, -3.992187500000, 0.492187500000, -4.476562500000, 1490952917
-0.216796875000, -0.959960937500, 0.103515625000, -6.539062500000, -0.398437500000, -1.359375000000, 1490952917
-0.216796875000, -0.959960937500, 0.103515625000, -6.539062500000, -0.398437500000, -1.359375000000, 1490952917
-0.216796875000, -0.959960937500, 0.103515625000, -6.539062500000, -0.398437500000, -1.359375000000, 1490952917
-0.165527343750, -0.922607421875, 0.206054687500, -3.210937500000, 2.320312500000, -2.875000000000, 1490952917
-0.165527343750, -0.922607421875, 0.206054687500, -3.210937500000, 2.320312500000, -2.875000000000, 1490952917
-0.165527343750, -0.922607421875, 0.206054687500, -3.210937500000, 2.320312500000, -2.875000000000, 1490952917
-0.165527343750, -0.922607421875, 0.206054687500, -3.210937500000, 2.320312500000, -2.875000000000, 1490952917
-0.209472656250, -0.931396484375, 0.050292968750, -6.085937500000, 2.648437500000, -1.867187500000, 1490952917
-0.209472656250, -0.931396484375, 0.050292968750, -6.085937500000, 2.648437500000, -1.867187500000, 1490952917
-0.209472656250, -0.931396484375, 0.050292968750, -6.085937500000, 2.648437500000, -1.867187500000, 1490952917
-0.195312500000, -0.968505859375, 0.195800781250, -3.078125000000, 0.656250000000, -2.539062500000, 1490952917
-0.195312500000, -0.968505859375, 0.195800781250, -3.078125000000, 0.656250000000, -2.539062500000, 1490952917
-0.195312500000, -0.968505859375, 0.195800781250, -3.078125000000, 0.656250000000, -2.539062500000, 1490952917
-0.104492187500, -1.009277343750, 0.200195312500, -6.039062500000, 0.953125000000, -1.054687500000, 1490952917
-0.104492187500, -1.009277343750, 0.200195312500, -6.039062500000, 0.953125000000, -1.054687500000, 1490952917
-0.104492187500, -1.009277343750, 0.200195312500, -6.039062500000, 0.953125000000, -1.054687500000, 1490952917
-0.196777343750, -0.902343750000, 0.123046875000, -4.593750000000, -2.593750000000, -1.687500000000, 1490952917
-0.196777343750, -0.902343750000, 0.123046875000, -4.593750000000, -2.593750000000, -1.687500000000, 1490952917
-0.196777343750, -0.902343750000, 0.123046875000, -4.593750000000, -2.593750000000, -1.687500000000, 1490952917
-0.196777343750, -0.902343750000, 0.123046875000, -4.593750000000, -2.593750000000, -1.687500000000, 1490952917
-0.119384765625, -0.962402343750, 0.128173828125, -6.007812500000, -2.656250000000, -3.289062500000, 1490952917
-0.119384765625, -0.962402343750, 0.128173828125, -6.007812500000, -2.656250000000, -3.289062500000, 1490952917
-0.119384765625, -0.962402343750, 0.128173828125, -6.007812500000, -2.656250000000, -3.289062500000, 1490952917
-0.139160156250, -1.012207031250, 0.105957031250, -1.656250000000, 0.179687500000, -1.179687500000, 1490952917
-0.139160156250, -1.012207031250, 0.105957031250, -1.656250000000, 0.179687500000, -1.179687500000, 1490952917
-0.139160156250, -1.012207031250, 0.105957031250, -1.656250000000, 0.179687500000, -1.179687500000, 1490952917
-0.115478515625, -0.909423828125, 0.130126953125, -4.742187500000, -0.015625000000, -2.507812500000, 1490952917
-0.115478515625, -0.909423828125, 0.130126953125, -4.742187500000, -0.015625000000, -2.507812500000, 1490952917
-0.115478515625, -0.909423828125, 0.130126953125, -4.742187500000, -0.015625000000, -2.507812500000, 1490952917
-0.236083984375, -1.031005859375, 0.112548828125, -1.664062500000, 1.453125000000, -1.554687500000, 1490952917
-0.236083984375, -1.031005859375, 0.112548828125, -1.664062500000, 1.453125000000, -1.554687500000, 1490952917
-0.236083984375, -1.031005859375, 0.112548828125, -1.664062500000, 1.453125000000, -1.554687500000, 1490952917
-0.236083984375, -1.031005859375, 0.112548828125, -1.664062500000, 1.453125000000, -1.554687500000, 1490952917
-0.100830078125, -0.972167968750, 0.107421875000, -1.968750000000, -2.046875000000, -2.882812500000, 1490952917
-0.100830078125, -0.972167968750, 0.107421875000, -1.968750000000, -2.046875000000, -2.882812500000, 1490952917
-0.100830078125, -0.972167968750, 0.107421875000, -1.968750000000, -2.046875000000, -2.882812500000, 1490952917
-0.272705078125, -0.925537109375, 0.082763671875, -4.351562500000, -0.265625000000, -0.593750000000, 1490952917
-0.272705078125, -0.925537109375, 0.082763671875, -4.351562500000, -0.265625000000, -0.593750000000, 1490952917
-0.272705078125, -0.925537109375, 0.082763671875, -4.351562500000, -0.265625000000, -0.593750000000, 1490952917
