ACC_X,ACC_Y,ACC_Z,G_X,G_Y,G_Z,Unix Time
0.228515625000, 0.086669921875, 1.016357421875, -2.750000000000, -6.648437500000, -11.484375000000, 1490952820
0.228515625000, 0.086669921875, 1.016357421875, -2.750000000000, -6.648437500000, -11.484375000000, 1490952820
0.228515625000, 0.086669921875, 1.016357421875, -2.750000000000, -6.648437500000, -11.484375000000, 1490952820
0.332031250000, 0.131591796875, 0.949218750000, -11.289062500000, -11.601562500000, -13.718750000000, 1490952820
0.332031250000, 0.131591796875, 0.949218750000, -11.289062500000, -11.601562500000, -13.718750000000, 1490952820
0.332031250000, 0.131591796875, 0.949218750000, -11.289062500000, -11.601562500000, -13.718750000000, 1490952820
0.281494140625, 0.198730468750, 1.000000000000, -7.429687500000, -5.382812500000, -16.156250000000, 1490952820
0.281494140625, 0.198730468750, 1.000000000000, -7.429687500000, -5.382812500000, -16.156250000000, 1490952820
0.281494140625, 0.198730468750, 1.000000000000, -7.429687500000, -5.382812500000, -16.156250000000, 1490952820
0.281494140625, 0.198730468750, 1.000000000000, -7.429687500000, -5.382812500000, -16.156250000000, 1490952820
0.281494140625, 0.198730468750, 1.000000000000, -7.429687500000, -5.382812500000, -16.156250000000, 1490952820
0.281494140625, 0.198730468750, 1.000000000000, -7.429687500000, -5.382812500000, -16.156250000000, 1490952820
0.383056640625, 0.045654296875, 0.860351562500, -5.078125000000, 6.421875000000, -5.796875000000, 1490952820
0.383056640625, 0.045654296875, 0.860351562500, -5.078125000000, 6.421875000000, -5.796875000000, 1490952820
0.383056640625, 0.045654296875, 0.860351562500, -5.078125000000, 6.421875000000, -5.796875000000, 1490952820
0.383056640625, 0.045654296875, 0.860351562500, -5.078125000000, 6.421875000000, -5.796875000000, 1490952820
0.307617187500, 0.035400390625, 1.000244140625, 4.203125000000, 9.007812500000, -14.093750000000, 1490952820
0.307617187500, 0.035400390625, 1.000244140625, 4.203125000000, 9.007812500000, -14.093750000000, 1490952820
0.307617187500, 0.035400390625, 1.000244140625, 4.203125000000, 9.007812500000, -14.093750000000, 1490952820
0.386230468750, 0.148925781250, 1.011230468750, -14.976562500000, -0.789062500000, -6.171875000000, 1490952820
0.386230468750, 0.148925781250, 1.011230468750, -14.976562500000, -0.789062500000, -6.171875000000, 1490952820
0.386230468750, 0.148925781250, 1.011230468750, -14.976562500000, -0.789062500000, -6.171875000000, 1490952820
0.312011718750, 0.119628906250, 0.912841796875, -0.406250000000, -1.046875000000, -8.492187500000, 1490952821
0.312011718750, 0.119628906250, 0.912841796875, -0.406250000000, -1.046875000000, -8.492187500000, 1490952821
0.312011718750, 0.119628906250, 0.912841796875, -0.406250000000, -1.046875000000, -8.492187500000, 1490952821
0.357910156250, 0.105468750000, 0.945800781250, -8.328125000000, -12.726562500000, -3.406250000000, 1490952821
0.357910156250, 0.105468750000, 0.945800781250, -8.328125000000, -12.726562500000, -3.406250000000, 1490952821
0.357910156250, 0.105468750000, 0.945800781250, -8.328125000000, -12.726562500000, -3.406250000000, 1490952821
0.357910156250, 0.105468750000, 0.945800781250, -8.328125000000, -12.726562500000, -3.406250000000, 1490952821
0.296875000000, 0.095947265625, 0.882568359375, 2.804687500000, -12.593750000000, 2.890625000000, 1490952821
0.296875000000, 0.095947265625, 0.882568359375, 2.804687500000, -12.593750000000, 2.890625000000, 1490952821
0.296875000000, 0.095947265625, 0.882568359375, 2.804687500000, -12.593750000000, 2.890625000000, 1490952821
0.463134765625, 0.137207031250, 0.971679687500, 23.156250000000, -9.625000000000, 5.312500000000, 1490952821
0.463134765625, 0.137207031250, 0.971679687500, 23.156250000000, -9.625000000000, 5.312500000000, 1490952821
0.463134765625, 0.137207031250, 0.971679687500, 23.156250000000, -9.625000000000, 5.312500000000, 1490952821
0.288330078125, -0.011718750000, 1.006103515625, 20.234375000000, -12.164062500000, 19.343750000000, 1490952821
0.288330078125, -0.011718750000, 1.006103515625, 20.234375000000, -12.164062500000, 19.343750000000, 1490952821
0.288330078125, -0.011718750000, 1.006103515625, 20.234375000000, -12.164062500000, 19.343750000000, 1490952821
0.305175781250, 0.053466796875, 1.129638671875, 5.898437500000, -37.007812500000, 48.531250000000, 1490952821
0.305175781250, 0.053466796875, 1.129638671875, 5.898437500000, -37.007812500000, 48.531250000000, 1490952821
0.305175781250, 0.053466796875, 1.129638671875, 5.898437500000, -37.007812500000, 48.531250000000, 1490952821
0.305175781250, 0.053466796875, 1.129638671875, 5.898437500000, -37.007812500000, 48.531250000000, 1490952821
0.305175781250, 0.053466796875, 1.129638671875, 5.898437500000, -37.007812500000, 48.531250000000, 1490952821
0.390625000000, 0.112304687500, 0.937011718750, 5.562500000000, -40.695312500000, 47.460937500000, 1490952821
0.463867187500, 0.055419921875, 0.948486328125, 22.093750000000, -28.390625000000, 48.101562500000, 1490952821
0.463867187500, 0.055419921875, 0.948486328125, 22.093750000000, -28.390625000000, 48.101562500000, 1490952821
0.463867187500, 0.055419921875, 0.948486328125, 22.093750000000, -28.390625000000, 48.101562500000, 1490952821
0.463867187500, 0.055419921875, 0.948486328125, 22.093750000000, -28.390625000000, 48.101562500000, 1490952821
0.424804687500, 0.147460937500, 0.932128906250, 21.867187500000, -30.531250000000, 25.015625000000, 1490952821
0.424804687500, 0.147460937500, 0.932128906250, 21.867187500000, -30.531250000000, 25.015625000000, 1490952821
0.424804687500, 0.147460937500, 0.932128906250, 21.867187500000, -30.531250000000, 25.015625000000, 1490952821
0.366699218750, -0.079101562500, 0.896484375000, -8.429687500000, -20.375000000000, -16.171875000000, 1490952821
0.366699218750, -0.079101562500, 0.896484375000, -8.429687500000, -20.375000000000, -16.171875000000, 1490952821
0.366699218750, -0.079101562500, 0.896484375000, -8.429687500000, -20.375000000000, -16.171875000000, 1490952821
0.366699218750, -0.079101562500, 0.896484375000, -8.429687500000, -20.375000000000, -16.171875000000, 1490952821
0.557617187500, 0.071777343750, 0.841308593750, 1.445312500000, 16.531250000000, -10.523437500000, 1490952821
0.557617187500, 0.071777343750, 0.841308593750, 1.445312500000, 16.531250000000, -10.523437500000, 1490952821
0.557617187500, 0.071777343750, 0.841308593750, 1.445312500000, 16.531250000000, -10.523437500000, 1490952821
0.424804687500, -0.028564453125, 0.819091796875, -16.343750000000, 34.273437500000, 3.609375000000, 1490952821
0.424804687500, -0.028564453125, 0.819091796875, -16.343750000000, 34.273437500000, 3.609375000000, 1490952821
0.424804687500, -0.028564453125, 0.819091796875, -16.343750000000, 34.273437500000, 3.609375000000, 1490952821
0.512451171875, -0.003662109375, 0.858398437500, -10.343750000000, 42.515625000000, 7.601562500000, 1490952821
0.579833984375, -0.024658203125, 1.116210937500, 1.046875000000, 92.546875000000, 14.578125000000, 1490952821
0.579833984375, -0.024658203125, 1.116210937500, 1.046875000000, 92.546875000000, 14.578125000000, 1490952821
0.579833984375, -0.024658203125, 1.116210937500, 1.046875000000, 92.546875000000, 14.578125000000, 1490952821
0.579833984375, -0.024658203125, 1.116210937500, 1.046875000000, 92.546875000000, 14.578125000000, 1490952821
0.446289062500, 0.146728515625, 1.155029296875, -40.304687500000, 104.125000000000, 31.507812500000, 1490952821
0.446289062500, 0.146728515625, 1.155029296875, -40.304687500000, 104.125000000000, 31.507812500000, 1490952821
0.446289062500, 0.146728515625, 1.155029296875, -40.304687500000, 104.125000000000, 31.507812500000, 1490952821
0.446289062500, 0.146728515625, 1.155029296875, -40.304687500000, 104.125000000000, 31.507812500000, 1490952821
0.446289062500, 0.146728515625, 1.155029296875, -40.304687500000, 104.125000000000, 31.507812500000, 1490952821
0.174560546875, 0.375976562500, 1.066406250000, -19.789062500000, 107.593750000000, 32.921875000000, 1490952821
0.174560546875, 0.375976562500, 1.066406250000, -19.789062500000, 107.593750000000, 32.921875000000, 1490952821
0.174560546875, 0.375976562500, 1.066406250000, -19.789062500000, 107.593750000000, 32.921875000000, 1490952821
0.169189453125, 0.160888671875, 0.873779296875, -3.492187500000, 78.703125000000, 13.875000000000, 1490952821
0.169189453125, 0.160888671875, 0.873779296875, -3.492187500000, 78.703125000000, 13.875000000000, 1490952821
0.169189453125, 0.160888671875, 0.873779296875, -3.492187500000, 78.703125000000, 13.875000000000, 1490952821
0.139648437500, 0.022705078125, 0.970458984375, -33.921875000000, 120.460937500000, -1.648437500000, 1490952821
0.139648437500, 0.022705078125, 0.970458984375, -33.921875000000, 120.460937500000, -1.648437500000, 1490952821
0.139648437500, 0.022705078125, 0.970458984375, -33.921875000000, 120.460937500000, -1.648437500000, 1490952821
0.139648437500, 0.022705078125, 0.970458984375, -33.921875000000, 120.460937500000, -1.648437500000, 1490952821
-0.224121093750, 0.021484375000, 0.987792968750, 0.242187500000, 122.625000000000, -1.210937500000, 1490952821
-0.224121093750, 0.021484375000, 0.987792968750, 0.242187500000, 122.625000000000, -1.210937500000, 1490952821
-0.224121093750, 0.021484375000, 0.987792968750, 0.242187500000, 122.625000000000, -1.210937500000, 1490952821
-0.374511718750, 0.140869140625, 1.068603515625, 7.382812500000, 74.320312500000, -44.578125000000, 1490952821
-0.374511718750, 0.140869140625, 1.068603515625, 7.382812500000, 74.320312500000, -44.578125000000, 1490952821
-0.374511718750, 0.140869140625, 1.068603515625, 7.382812500000, 74.320312500000, -44.578125000000, 1490952821
-0.449707031250, 0.152832031250, 0.949462890625, 22.156250000000, 80.265625000000, -42.164062500000, 1490952821
-0.449707031250, 0.152832031250, 0.949462890625, 22.156250000000, 80.265625000000, -42.164062500000, 1490952821
-0.457763671875, 0.102050781250, 0.989013671875, -32.710937500000, 54.882812500000, -64.906250000000, 1490952822
-0.457763671875, 0.102050781250, 0.989013671875, -32.710937500000, 54.882812500000, -64.906250000000, 1490952822
-0.457763671875, 0.102050781250, 0.989013671875, -32.710937500000, 54.882812500000, -64.906250000000, 1490952822
-0.457763671875, 0.102050781250, 0.989013671875, -32.710937500000, 54.882812500000, -64.906250000000, 1490952822
-0.525634765625, 0.167968750000, 0.922851562500, -35.710937500000, 61.437500000000, -61.664062500000, 1490952822
-0.592773437500, 0.220703125000, 0.932128906250, -44.070312500000, 52.500000000000, -68.484375000000, 1490952822
-0.592773437500, 0.220703125000, 0.932128906250, -44.070312500000, 52.500000000000, -68.484375000000, 1490952822
-0.592773437500, 0.220703125000, 0.932128906250, -44.070312500000, 52.500000000000, -68.484375000000, 1490952822
-0.475341796875, 0.281250000000, 0.891601562500, -23.054687500000, 45.937500000000, -74.437500000000, 1490952822
-0.475341796875, 0.281250000000, 0.891601562500, -23.054687500000, 45.937500000000, -74.437500000000, 1490952822
-0.475341796875, 0.281250000000, 0.891601562500, -23.054687500000, 45.937500000000, -74.437500000000, 1490952822
-0.437744140625, 0.434082031250, 0.757324218750, -6.640625000000, 30.851562500000, -80.953125000000, 1490952822
-0.437744140625, 0.434082031250, 0.757324218750, -6.640625000000, 30.851562500000, -80.953125000000, 1490952822
-0.437744140625, 0.434082031250, 0.757324218750, -6.640625000000, 30.851562500000, -80.953125000000, 1490952822
-0.389648437500, 0.363037109375, 0.743896484375, 17.695312500000, -1.921875000000, -73.656250000000, 1490952822
-0.389648437500, 0.363037109375, 0.743896484375, 17.695312500000, -1.921875000000, -73.656250000000, 1490952822
-0.389648437500, 0.363037109375, 0.743896484375, 17.695312500000, -1.921875000000, -73.656250000000, 1490952822
-0.389648437500, 0.363037109375, 0.743896484375, 17.695312500000, -1.921875000000, -73.656250000000, 1490952822
-0.448486328125, 0.336669921875, 0.893310546875, 21.710937500000, -27.414062500000, -72.945312500000, 1490952822
-0.448486328125, 0.336669921875, 0.893310546875, 21.710937500000, -27.414062500000, -72.945312500000, 1490952822
-0.448486328125, 0.336669921875, 0.893310546875, 21.710937500000, -27.414062500000, -72.945312500000, 1490952822
-0.248291015625, 0.435302734375, 0.735595703125, 26.937500000000, -63.250000000000, -46.195312500000, 1490952822
-0.248291015625, 0.435302734375, 0.735595703125, 26.937500000000, -63.250000000000, -46.195312500000, 1490952822
-0.248291015625, 0.435302734375, 0.735595703125, 26.937500000000, -63.250000000000, -46.195312500000, 1490952822
-0.138427734375, 0.389404296875, 0.730957031250, 47.039062500000, -123.539062500000, -29.359375000000, 1490952822
-0.138427734375, 0.389404296875, 0.730957031250, 47.039062500000, -123.539062500000, -29.359375000000, 1490952822
-0.138427734375, 0.389404296875, 0.730957031250, 47.039062500000, -123.539062500000, -29.359375000000, 1490952822
0.021728515625, 0.360351562500, 0.915283203125, 55.304687500000, -125.726562500000, 1.695312500000, 1490952822
0.021728515625, 0.360351562500, 0.915283203125, 55.304687500000, -125.726562500000, 1.695312500000, 1490952822
0.021728515625, 0.360351562500, 0.915283203125, 55.304687500000, -125.726562500000, 1.695312500000, 1490952822
0.021728515625, 0.360351562500, 0.915283203125, 55.304687500000, -125.726562500000, 1.695312500000, 1490952822
0.200439453125, 0.347656250000, 1.313964843750, -20.023437500000, -130.742187500000, 57.554687500000, 1490952822
0.139892578125, 0.333251953125, 1.234375000000, -20.023437500000, -130.742187500000, 57.554687500000, 1490952822
0.139892578125, 0.333251953125, 1.234375000000, -20.023437500000, -130.742187500000, 57.554687500000, 1490952822
0.139892578125, 0.333251953125, 1.234375000000, -20.023437500000, -130.742187500000, 57.554687500000, 1490952822
0.139892578125, 0.333251953125, 1.234375000000, -20.023437500000, -130.742187500000, 57.554687500000, 1490952822
0.139892578125, 0.333251953125, 1.234375000000, -20.023437500000, -130.742187500000, 57.554687500000, 1490952822
0.071777343750, 0.091552734375, 0.947021484375, -7.132812500000, -116.929687500000, 41.000000000000, 1490952822
0.071777343750, 0.091552734375, 0.947021484375, -7.132812500000, -116.929687500000, 41.000000000000, 1490952822
0.071777343750, 0.091552734375, 0.947021484375, -7.132812500000, -116.929687500000, 41.000000000000, 1490952822
0.071777343750, 0.091552734375, 0.947021484375, -7.132812500000, -116.929687500000, 41.000000000000, 1490952822
0.071777343750, 0.091552734375, 0.947021484375, -7.132812500000, -116.929687500000, 41.000000000000, 1490952822
0.071777343750, 0.091552734375, 0.947021484375, -7.132812500000, -116.929687500000, 41.000000000000, 1490952822
0.239257812500, -0.013183593750, 0.796386718750, 6.218750000000, -168.421875000000, 35.390625000000, 1490952822
0.429443359375, 0.150634765625, 0.841552734375, 28.000000000000, -159.343750000000, 29.000000000000, 1490952822
0.429443359375, 0.150634765625, 0.841552734375, 28.000000000000, -159.343750000000, 29.000000000000, 1490952822
0.429443359375, 0.150634765625, 0.841552734375, 28.000000000000, -159.343750000000, 29.000000000000, 1490952822
0.721923828125, 0.015380859375, 0.855468750000, 30.343750000000, -100.960937500000, 51.554687500000, 1490952822
0.721923828125, 0.015380859375, 0.855468750000, 30.343750000000, -100.960937500000, 51.554687500000, 1490952822
0.721923828125, 0.015380859375, 0.855468750000, 30.343750000000, -100.960937500000, 51.554687500000, 1490952822
0.741455078125, 0.451660156250, 0.593017578125, 20.898437500000, 65.359375000000, -20.398437500000, 1490952822
0.599365234375, 0.354492187500, 0.643066406250, 32.093750000000, 72.843750000000, -24.835937500000, 1490952822
0.599365234375, 0.354492187500, 0.643066406250, 32.093750000000, 72.843750000000, -24.835937500000, 1490952822
0.599365234375, 0.354492187500, 0.643066406250, 32.093750000000, 72.843750000000, -24.835937500000, 1490952822
0.815185546875, 0.493408203125, 0.772949218750, 38.007812500000, 83.226562500000, -1.539062500000, 1490952822
0.815185546875, 0.493408203125, 0.772949218750, 38.007812500000, 83.226562500000, -1.539062500000, 1490952822
0.815185546875, 0.493408203125, 0.772949218750, 38.007812500000, 83.226562500000, -1.539062500000, 1490952822
0.815185546875, 0.493408203125, 0.772949218750, 38.007812500000, 83.226562500000, -1.539062500000, 1490952822
0.815185546875, 0.493408203125, 0.772949218750, 38.007812500000, 83.226562500000, -1.539062500000, 1490952822
0.815185546875, 0.493408203125, 0.772949218750, 38.007812500000, 83.226562500000, -1.539062500000, 1490952822
0.836669921875, 0.519287109375, 0.724365234375, 46.687500000000, 113.945312500000, 2.578125000000, 1490952822
0.696044921875, 0.563964843750, 0.884277343750, 12.101562500000, 95.812500000000, -6.984375000000, 1490952822
0.696044921875, 0.563964843750, 0.884277343750, 12.101562500000, 95.812500000000, -6.984375000000, 1490952822
0.696044921875, 0.563964843750, 0.884277343750, 12.101562500000, 95.812500000000, -6.984375000000, 1490952822
0.696044921875, 0.563964843750, 0.884277343750, 12.101562500000, 95.812500000000, -6.984375000000, 1490952822
0.696044921875, 0.563964843750, 0.884277343750, 12.101562500000, 95.812500000000, -6.984375000000, 1490952822
0.182128906250, 0.201416015625, 0.855468750000, 16.781250000000, 104.156250000000, -14.375000000000, 1490952823
0.182128906250, 0.201416015625, 0.855468750000, 16.781250000000, 104.156250000000, -14.375000000000, 1490952823
0.182128906250, 0.201416015625, 0.855468750000, 16.781250000000, 104.156250000000, -14.375000000000, 1490952823
0.182128906250, 0.201416015625, 0.855468750000, 16.781250000000, 104.156250000000, -14.375000000000, 1490952823
-0.086914062500, 0.125244140625, 1.268554687500, 28.773437500000, 94.648437500000, -4.835937500000, 1490952823
-0.086914062500, 0.125244140625, 1.268554687500, 28.773437500000, 94.648437500000, -4.835937500000, 1490952823
-0.086914062500, 0.125244140625, 1.268554687500, 28.773437500000, 94.648437500000, -4.835937500000, 1490952823
0.066406250000, 0.174316406250, 0.876953125000, -0.125000000000, 93.851562500000, -58.539062500000, 1490952823
0.066406250000, 0.174316406250, 0.876953125000, -0.125000000000, 93.851562500000, -58.539062500000, 1490952823
0.066406250000, 0.174316406250, 0.876953125000, -0.125000000000, 93.851562500000, -58.539062500000, 1490952823
0.066406250000, 0.174316406250, 0.876953125000, -0.125000000000, 93.851562500000, -58.539062500000, 1490952823
0.194091796875, 0.152587890625, 0.797607421875, 16.828125000000, 92.843750000000, -43.632812500000, 1490952823
-0.085449218750, 0.097167968750, 0.950195312500, 20.421875000000, 111.671875000000, -28.859375000000, 1490952823
-0.085449218750, 0.097167968750, 0.950195312500, 20.421875000000, 111.671875000000, -28.859375000000, 1490952823
-0.085449218750, 0.097167968750, 0.950195312500, 20.421875000000, 111.671875000000, -28.859375000000, 1490952823
-0.085449218750, 0.097167968750, 0.950195312500, 20.421875000000, 111.671875000000, -28.859375000000, 1490952823
-0.177734375000, -0.004882812500, 0.983398437500, 19.226562500000, 64.515625000000, -10.773437500000, 1490952823
-0.177734375000, -0.004882812500, 0.983398437500, 19.226562500000, 64.515625000000, -10.773437500000, 1490952823
-0.177734375000, -0.004882812500, 0.983398437500, 19.226562500000, 64.515625000000, -10.773437500000, 1490952823
-0.177734375000, -0.004882812500, 0.983398437500, 19.226562500000, 64.515625000000, -10.773437500000, 1490952823
-0.299560546875, 0.034179687500, 1.153564453125, -18.718750000000, 19.843750000000, 4.023437500000, 1490952823
-0.299560546875, 0.034179687500, 1.153564453125, -18.718750000000, 19.843750000000, 4.023437500000, 1490952823
-0.299560546875, 0.034179687500, 1.153564453125, -18.718750000000, 19.843750000000, 4.023437500000, 1490952823
-0.187255859375, 0.208740234375, 1.056884765625, -40.609375000000, -29.367187500000, 23.039062500000, 1490952823
-0.187255859375, 0.208740234375, 1.056884765625, -40.609375000000, -29.367187500000, 23.039062500000, 1490952823
-0.187255859375, 0.208740234375, 1.056884765625, -40.609375000000, -29.367187500000, 23.039062500000, 1490952823
-0.213378906250, 0.312255859375, 1.093505859375, -48.164062500000, -39.835937500000, 35.007812500000, 1490952823
0.042236328125, 0.051513671875, 0.991210937500, -9.453125000000, 12.554687500000, 8.718750000000, 1490952823
0.042236328125, 0.051513671875, 0.991210937500, -9.453125000000, 12.554687500000, 8.718750000000, 1490952823
-0.212158203125, 0.213623046875, 1.103271484375, -26.960937500000, 11.953125000000, -7.507812500000, 1490952823
-0.212158203125, 0.213623046875, 1.103271484375, -26.960937500000, 11.953125000000, -7.507812500000, 1490952823
-0.212158203125, 0.213623046875, 1.103271484375, -26.960937500000, 11.953125000000, -7.507812500000, 1490952823
-0.212158203125, 0.213623046875, 1.103271484375, -26.960937500000, 11.953125000000, -7.507812500000, 1490952823
-0.212158203125, 0.213623046875, 1.103271484375, -26.960937500000, 11.953125000000, -7.507812500000, 1490952823
-0.212158203125, 0.213623046875, 1.103271484375, -26.960937500000, 11.953125000000, -7.507812500000, 1490952823
-0.212158203125, 0.213623046875, 1.103271484375, -26.960937500000, 11.953125000000, -7.507812500000, 1490952823
-0.212158203125, 0.213623046875, 1.103271484375, -26.960937500000, 11.953125000000, -7.507812500000, 1490952823
-0.214843750000, 0.213623046875, 1.030761718750, -35.109375000000, -20.976562500000, -1.531250000000, 1490952823
-0.214843750000, 0.213623046875, 1.030761718750, -35.109375000000, -20.976562500000, -1.531250000000, 1490952823
-0.214843750000, 0.213623046875, 1.030761718750, -35.109375000000, -20.976562500000, -1.531250000000, 1490952823
-0.214843750000, 0.213623046875, 1.030761718750, -35.109375000000, -20.976562500000, -1.531250000000, 1490952823
-0.214843750000, 0.213623046875, 1.030761718750, -35.109375000000, -20.976562500000, -1.531250000000, 1490952823
0.015625000000, 0.293457031250, 0.864990234375, -5.531250000000, -44.617187500000, 11.648437500000, 1490952823
0.015625000000, 0.293457031250, 0.864990234375, -5.531250000000, -44.617187500000, 11.648437500000, 1490952823
0.015625000000, 0.293457031250, 0.864990234375, -5.531250000000, -44.617187500000, 11.648437500000, 1490952823
0.015625000000, 0.293457031250, 0.864990234375, -5.531250000000, -44.617187500000, 11.648437500000, 1490952823
-0.098144531250, 0.380126953125, 0.962158203125, 2.320312500000, -31.351562500000, 22.304687500000, 1490952823
-0.098144531250, 0.380126953125, 0.962158203125, 2.320312500000, -31.351562500000, 22.304687500000, 1490952823
-0.098144531250, 0.380126953125, 0.962158203125, 2.320312500000, -31.351562500000, 22.304687500000, 1490952823
-0.252685546875, 0.282958984375, 1.050781250000, -9.453125000000, -14.968750000000, 19.484375000000, 1490952823
-0.252685546875, 0.282958984375, 1.050781250000, -9.453125000000, -14.968750000000, 19.484375000000, 1490952823
-0.252685546875, 0.282958984375, 1.050781250000, -9.453125000000, -14.968750000000, 19.484375000000, 1490952823
-0.025634765625, 0.286621093750, 0.986816406250, 17.039062500000, 1.187500000000, 44.585937500000, 1490952823
-0.025634765625, 0.286621093750, 0.986816406250, 17.039062500000, 1.187500000000, 44.585937500000, 1490952823
-0.025634765625, 0.286621093750, 0.986816406250, 17.039062500000, 1.187500000000, 44.585937500000, 1490952823
-0.025634765625, 0.286621093750, 0.986816406250, 17.039062500000, 1.187500000000, 44.585937500000, 1490952823
-0.089843750000, 0.165283203125, 0.988037109375, 16.179687500000, -16.843750000000, 38.617187500000, 1490952823
-0.089843750000, 0.165283203125, 0.988037109375, 16.179687500000, -16.843750000000, 38.617187500000, 1490952823
-0.089843750000, 0.165283203125, 0.988037109375, 16.179687500000, -16.843750000000, 38.617187500000, 1490952823
-0.078613281250, 0.320800781250, 0.987304687500, -2.585937500000, -18.140625000000, 21.046875000000, 1490952823
-0.078613281250, 0.320800781250, 0.987304687500, -2.585937500000, -18.140625000000, 21.046875000000, 1490952823
-0.078613281250, 0.320800781250, 0.987304687500, -2.585937500000, -18.140625000000, 21.046875000000, 1490952823
0.043457031250, 0.167724609375, 0.962402343750, -10.164062500000, -19.773437500000, 5.500000000000, 1490952823
0.043457031250, 0.167724609375, 0.962402343750, -10.164062500000, -19.773437500000, 5.500000000000, 1490952823
0.043457031250, 0.167724609375, 0.962402343750, -10.164062500000, -19.773437500000, 5.500000000000, 1490952823
0.180419921875, 0.160156250000, 1.072753906250, -7.492187500000, 9.820312500000, -14.367187500000, 1490952824
0.180419921875, 0.160156250000, 1.072753906250, -7.492187500000, 9.820312500000, -14.367187500000, 1490952824
0.180419921875, 0.160156250000, 1.072753906250, -7.492187500000, 9.820312500000, -14.367187500000, 1490952824
0.180419921875, 0.160156250000, 1.072753906250, -7.492187500000, 9.820312500000, -14.367187500000, 1490952824
0.137939453125, 0.195800781250, 1.007324218750, -9.593750000000, 26.000000000000, -5.867187500000, 1490952824
0.137939453125, 0.195800781250, 1.007324218750, -9.593750000000, 26.000000000000, -5.867187500000, 1490952824
0.137939453125, 0.195800781250, 1.007324218750, -9.593750000000, 26.000000000000, -5.867187500000, 1490952824
0.137939453125, 0.195800781250, 1.007324218750, -9.593750000000, 26.000000000000, -5.867187500000, 1490952824
0.137939453125, 0.195800781250, 1.007324218750, -9.593750000000, 26.000000000000, -5.867187500000, 1490952824
0.064697265625, 0.172119140625, 1.017333984375, -2.000000000000, 39.570312500000, 4.546875000000, 1490952824
0.064697265625, 0.172119140625, 1.017333984375, -2.000000000000, 39.570312500000, 4.546875000000, 1490952824
0.064697265625, 0.172119140625, 1.017333984375, -2.000000000000, 39.570312500000, 4.546875000000, 1490952824
0.064697265625, 0.172119140625, 1.017333984375, -2.000000000000, 39.570312500000, 4.546875000000, 1490952824
-0.106689453125, 0.234619140625, 1.066650390625, -2.492187500000, 20.257812500000, 6.578125000000, 1490952824
-0.106689453125, 0.234619140625, 1.066650390625, -2.492187500000, 20.257812500000, 6.578125000000, 1490952824
-0.106689453125, 0.234619140625, 1.066650390625, -2.492187500000, 20.257812500000, 6.578125000000, 1490952824
-0.106689453125, 0.234619140625, 1.066650390625, -2.492187500000, 20.257812500000, 6.578125000000, 1490952824
-0.125976562500, 0.251464843750, 0.949218750000, -6.812500000000, 6.148437500000, -0.437500000000, 1490952824
-0.125976562500, 0.251464843750, 0.949218750000, -6.812500000000, 6.148437500000, -0.437500000000, 1490952824
-0.125976562500, 0.251464843750, 0.949218750000, -6.812500000000, 6.148437500000, -0.437500000000, 1490952824
-0.206298828125, 0.206054687500, 0.968994140625, -7.187500000000, 0.132812500000, -2.953125000000, 1490952824
-0.206298828125, 0.206054687500, 0.968994140625, -7.187500000000, 0.132812500000, -2.953125000000, 1490952824
-0.206298828125, 0.206054687500, 0.968994140625, -7.187500000000, 0.132812500000, -2.953125000000, 1490952824
-0.206298828125, 0.206054687500, 0.968994140625, -7.187500000000, 0.132812500000, -2.953125000000, 1490952824
-0.206298828125, 0.206054687500, 0.968994140625, -7.187500000000, 0.132812500000, -2.953125000000, 1490952824
-0.194335937500, 0.341064453125, 0.930664062500, -8.625000000000, -6.921875000000, -8.414062500000, 1490952824
-0.194335937500, 0.341064453125, 0.930664062500, -8.625000000000, -6.921875000000, -8.414062500000, 1490952824
-0.194335937500, 0.341064453125, 0.930664062500, -8.625000000000, -6.921875000000, -8.414062500000, 1490952824
-0.194335937500, 0.341064453125, 0.930664062500, -8.625000000000, -6.921875000000, -8.414062500000, 1490952824
-0.194335937500, 0.341064453125, 0.930664062500, -8.625000000000, -6.921875000000, -8.414062500000, 1490952824
-0.134521484375, 0.233886718750, 0.969970703125, -6.773437500000, -10.812500000000, -12.218750000000, 1490952824
-0.134521484375, 0.233886718750, 0.969970703125, -6.773437500000, -10.812500000000, -12.218750000000, 1490952824
-0.134521484375, 0.233886718750, 0.969970703125, -6.773437500000, -10.812500000000, -12.218750000000, 1490952824
-0.126220703125, 0.227050781250, 0.960205078125, -4.835937500000, -12.578125000000, -9.304687500000, 1490952824
0.074218750000, 0.255126953125, 1.067871093750, -6.335937500000, -13.460937500000, -7.664062500000, 1490952824
0.074218750000, 0.255126953125, 1.067871093750, -6.335937500000, -13.460937500000, -7.664062500000, 1490952824
0.074218750000, 0.255126953125, 1.067871093750, -6.335937500000, -13.460937500000, -7.664062500000, 1490952824
0.074218750000, 0.255126953125, 1.067871093750, -6.335937500000, -13.460937500000, -7.664062500000, 1490952824
0.074218750000, 0.255126953125, 1.067871093750, -6.335937500000, -13.460937500000, -7.664062500000, 1490952824
0.039550781250, 0.174804687500, 0.981933593750, -7.656250000000, -1.296875000000, -4.335937500000, 1490952824
0.039550781250, 0.174804687500, 0.981933593750, -7.656250000000, -1.296875000000, -4.335937500000, 1490952824
0.039550781250, 0.174804687500, 0.981933593750, -7.656250000000, -1.296875000000, -4.335937500000, 1490952824
0.039550781250, 0.174804687500, 0.981933593750, -7.656250000000, -1.296875000000, -4.335937500000, 1490952824
0.039550781250, 0.174804687500, 0.981933593750, -7.656250000000, -1.296875000000, -4.335937500000, 1490952824
0.039550781250, 0.174804687500, 0.981933593750, -7.656250000000, -1.296875000000, -4.335937500000, 1490952824
-0.018554687500, 0.202392578125, 1.009033203125, -6.851562500000, 6.375000000000, 0.085937500000, 1490952824
-0.018554687500, 0.202392578125, 1.009033203125, -6.851562500000, 6.375000000000, 0.085937500000, 1490952824
-0.018554687500, 0.202392578125, 1.009033203125, -6.851562500000, 6.375000000000, 0.085937500000, 1490952824
-0.018554687500, 0.202392578125, 1.009033203125, -6.851562500000, 6.375000000000, 0.085937500000, 1490952824
-0.093017578125, 0.172851562500, 0.995361328125, -3.945312500000, 1.664062500000, -0.515625000000, 1490952824
-0.093017578125, 0.172851562500, 0.995361328125, -3.945312500000, 1.664062500000, -0.515625000000, 1490952824
-0.093017578125, 0.172851562500, 0.995361328125, -3.945312500000, 1.664062500000, -0.515625000000, 1490952824
-0.073486328125, 0.232910156250, 0.943847656250, -6.492187500000, -2.960937500000, -1.117187500000, 1490952824
-0.057128906250, 0.226562500000, 1.005615234375, -6.898437500000, -8.335937500000, -2.835937500000, 1490952824
-0.057128906250, 0.226562500000, 1.005615234375, -6.898437500000, -8.335937500000, -2.835937500000, 1490952824
-0.057128906250, 0.226562500000, 1.005615234375, -6.898437500000, -8.335937500000, -2.835937500000, 1490952824
-0.057128906250, 0.226562500000, 1.005615234375, -6.898437500000, -8.335937500000, -2.835937500000, 1490952824
-0.057128906250, 0.226562500000, 1.005615234375, -6.898437500000, -8.335937500000, -2.835937500000, 1490952824
-0.057128906250, 0.226562500000, 1.005615234375, -6.898437500000, -8.335937500000, -2.835937500000, 1490952824
0.086181640625, 0.278564453125, 1.014892578125, -6.500000000000, -2.070312500000, 2.164062500000, 1490952824
0.086181640625, 0.278564453125, 1.014892578125, -6.500000000000, -2.070312500000, 2.164062500000, 1490952824
0.086181640625, 0.278564453125, 1.014892578125, -6.500000000000, -2.070312500000, 2.164062500000, 1490952824
-0.006103515625, 0.233886718750, 0.973388671875, -10.242187500000, -2.664062500000, -4.539062500000, 1490952824
-0.006103515625, 0.233886718750, 0.973388671875, -10.242187500000, -2.664062500000, -4.539062500000, 1490952824
-0.006103515625, 0.233886718750, 0.973388671875, -10.242187500000, -2.664062500000, -4.539062500000, 1490952824
-0.090820312500, 0.340576171875, 0.984619140625, -3.468750000000, 1.312500000000, -2.226562500000, 1490952824
-0.090820312500, 0.340576171875, 0.984619140625, -3.468750000000, 1.312500000000, -2.226562500000, 1490952824
-0.090820312500, 0.340576171875, 0.984619140625, -3.468750000000, 1.312500000000, -2.226562500000, 1490952824
-0.090820312500, 0.340576171875, 0.984619140625, -3.468750000000, 1.312500000000, -2.226562500000, 1490952824
0.015869140625, 0.272216796875, 1.024169921875, -2.468750000000, 4.343750000000, 0.507812500000, 1490952825
0.015869140625, 0.272216796875, 1.024169921875, -2.468750000000, 4.343750000000, 0.507812500000, 1490952825
0.015869140625, 0.272216796875, 1.024169921875, -2.468750000000, 4.343750000000, 0.507812500000, 1490952825
-0.030029296875, 0.260253906250, 1.018798828125, -4.890625000000, 6.781250000000, 0.023437500000, 1490952825
-0.030029296875, 0.260253906250, 1.018798828125, -4.890625000000, 6.781250000000, 0.023437500000, 1490952825
-0.030029296875, 0.260253906250, 1.018798828125, -4.890625000000, 6.781250000000, 0.023437500000, 1490952825
-0.091064453125, 0.184814453125, 0.984619140625, -4.960937500000, 5.250000000000, -1.187500000000, 1490952825
-0.091064453125, 0.184814453125, 0.984619140625, -4.960937500000, 5.250000000000, -1.187500000000, 1490952825
-0.091064453125, 0.184814453125, 0.984619140625, -4.960937500000, 5.250000000000, -1.187500000000, 1490952825
-0.138916015625, 0.220947265625, 1.020996093750, -1.265625000000, 1.289062500000, -4.289062500000, 1490952825
-0.138916015625, 0.220947265625, 1.020996093750, -1.265625000000, 1.289062500000, -4.289062500000, 1490952825
-0.138916015625, 0.220947265625, 1.020996093750, -1.265625000000, 1.289062500000, -4.289062500000, 1490952825
-0.004882812500, 0.267333984375, 0.990722656250, -4.890625000000, 0.507812500000, -5.781250000000, 1490952825
-0.004882812500, 0.267333984375, 0.990722656250, -4.890625000000, 0.507812500000, -5.781250000000, 1490952825
-0.004882812500, 0.267333984375, 0.990722656250, -4.890625000000, 0.507812500000, -5.781250000000, 1490952825
0.015136718750, 0.279785156250, 0.974121093750, -3.109375000000, -4.429687500000, -2.937500000000, 1490952825
0.015136718750, 0.279785156250, 0.974121093750, -3.109375000000, -4.429687500000, -2.937500000000, 1490952825
0.015136718750, 0.279785156250, 0.974121093750, -3.109375000000, -4.429687500000, -2.937500000000, 1490952825
0.015136718750, 0.279785156250, 0.974121093750, -3.109375000000, -4.429687500000, -2.937500000000, 1490952825
0.021484375000, 0.183593750000, 0.907470703125, -4.835937500000, -1.476562500000, -4.046875000000, 1490952825
0.021484375000, 0.183593750000, 0.907470703125, -4.835937500000, -1.476562500000, -4.046875000000, 1490952825
0.021484375000, 0.183593750000, 0.907470703125, -4.835937500000, -1.476562500000, -4.046875000000, 1490952825
0.093261718750, 0.291259765625, 0.978027343750, -2.828125000000, 0.078125000000, -4.242187500000, 1490952825
0.093261718750, 0.291259765625, 0.978027343750, -2.828125000000, 0.078125000000, -4.242187500000, 1490952825
0.093261718750, 0.291259765625, 0.978027343750, -2.828125000000, 0.078125000000, -4.242187500000, 1490952825
0.093261718750, 0.291259765625, 0.978027343750, -2.828125000000, 0.078125000000, -4.242187500000, 1490952825
-0.071044921875, 0.266357421875, 1.002197265625, -1.328125000000, -1.359375000000, -3.992187500000, 1490952825
-0.071044921875, 0.266357421875, 1.002197265625, -1.328125000000, -1.359375000000, -3.992187500000, 1490952825
-0.071044921875, 0.266357421875, 1.002197265625, -1.328125000000, -1.359375000000, -3.992187500000, 1490952825
-0.065917968750, 0.170166015625, 0.977783203125, 0.304687500000, -0.031250000000, -1.476562500000, 1490952825
-0.065917968750, 0.170166015625, 0.977783203125, 0.304687500000, -0.031250000000, -1.476562500000, 1490952825
-0.065917968750, 0.170166015625, 0.977783203125, 0.304687500000, -0.031250000000, -1.476562500000, 1490952825
0.001220703125, 0.278564453125, 1.009521484375, -1.734375000000, -4.156250000000, 0.789062500000, 1490952825
0.001220703125, 0.278564453125, 1.009521484375, -1.734375000000, -4.156250000000, 0.789062500000, 1490952825
0.001220703125, 0.278564453125, 1.009521484375, -1.734375000000, -4.156250000000, 0.789062500000, 1490952825
0.020507812500, 0.279296875000, 1.081787109375, -10.195312500000, 0.515625000000, -3.867187500000, 1490952825
0.020507812500, 0.279296875000, 1.081787109375, -10.195312500000, 0.515625000000, -3.867187500000, 1490952825
0.020507812500, 0.279296875000, 1.081787109375, -10.195312500000, 0.515625000000, -3.867187500000, 1490952825
0.020507812500, 0.279296875000, 1.081787109375, -10.195312500000, 0.515625000000, -3.867187500000, 1490952825
-0.030517578125, 0.333740234375, 1.000488281250, -5.414062500000, 4.367187500000, -4.015625000000, 1490952825
-0.030517578125, 0.333740234375, 1.000488281250, -5.414062500000, 4.367187500000, -4.015625000000, 1490952825
-0.030517578125, 0.333740234375, 1.000488281250, -5.414062500000, 4.367187500000, -4.015625000000, 1490952825
-0.044433593750, 0.179687500000, 0.934082031250, -6.429687500000, 6.250000000000, 0.421875000000, 1490952825
-0.044433593750, 0.179687500000, 0.934082031250, -6.429687500000, 6.250000000000, 0.421875000000, 1490952825
-0.044433593750, 0.179687500000, 0.934082031250, -6.429687500000, 6.250000000000, 0.421875000000, 1490952825
-0.065917968750, 0.243896484375, 1.015869140625, -6.554687500000, 2.484375000000, -1.539062500000, 1490952825
-0.065917968750, 0.243896484375, 1.015869140625, -6.554687500000, 2.484375000000, -1.539062500000, 1490952825
-0.065917968750, 0.243896484375, 1.015869140625, -6.554687500000, 2.484375000000, -1.539062500000, 1490952825
0.023437500000, 0.273681640625, 1.029296875000, -4.562500000000, -1.117187500000, -2.507812500000, 1490952825
0.023437500000, 0.273681640625, 1.029296875000, -4.562500000000, -1.117187500000, -2.507812500000, 1490952825
0.023437500000, 0.273681640625, 1.029296875000, -4.562500000000, -1.117187500000, -2.507812500000, 1490952825
0.023437500000, 0.273681640625, 1.029296875000, -4.562500000000, -1.117187500000, -2.507812500000, 1490952825
-0.125488281250, 0.159912109375, 0.980712890625, -8.445312500000, 2.054687500000, -2.445312500000, 1490952825
-0.125488281250, 0.159912109375, 0.980712890625, -8.445312500000, 2.054687500000, -2.445312500000, 1490952825
-0.125488281250, 0.159912109375, 0.980712890625, -8.445312500000, 2.054687500000, -2.445312500000, 1490952825
-0.093261718750, 0.264404296875, 1.043945312500, -9.546875000000, 1.437500000000, -0.710937500000, 1490952825
-0.129638671875, 0.338378906250, 1.019287109375, -7.726562500000, -0.367187500000, -3.195312500000, 1490952825
-0.129638671875, 0.338378906250, 1.019287109375, -7.726562500000, -0.367187500000, -3.195312500000, 1490952825
