ACC_X,ACC_Y,ACC_Z,G_X,G_Y,G_Z,Unix Time
0.145263671875, -1.389648437500, -0.074707031250, -256.000000000000, 5.570312500000, -71.382812500000, 1490952274
0.145263671875, -1.389648437500, -0.074707031250, -256.000000000000, 5.570312500000, -71.382812500000, 1490952274
0.145263671875, -1.389648437500, -0.074707031250, -256.000000000000, 5.570312500000, -71.382812500000, 1490952274
0.145263671875, -1.389648437500, -0.074707031250, -256.000000000000, 5.570312500000, -71.382812500000, 1490952274
0.332275390625, -1.131103515625, 0.438720703125, -103.859375000000, -256.000000000000, 78.664062500000, 1490952274
0.332275390625, -1.131103515625, 0.438720703125, -103.859375000000, -256.000000000000, 78.664062500000, 1490952274
0.332275390625, -1.131103515625, 0.438720703125, -103.859375000000, -256.000000000000, 78.664062500000, 1490952274
0.541259765625, -1.743896484375, 0.609619140625, 199.476562500000, -256.000000000000, -136.570312500000, 1490952274
0.541259765625, -1.743896484375, 0.609619140625, 199.476562500000, -256.000000000000, -136.570312500000, 1490952274
0.541259765625, -1.743896484375, 0.609619140625, 199.476562500000, -256.000000000000, -136.570312500000, 1490952274
0.339111328125, -1.883056640625, 0.907226562500, 188.203125000000, 101.359375000000, 40.773437500000, 1490952274
0.339111328125, -1.883056640625, 0.907226562500, 188.203125000000, 101.359375000000, 40.773437500000, 1490952274
0.339111328125, -1.883056640625, 0.907226562500, 188.203125000000, 101.359375000000, 40.773437500000, 1490952274
0.103759765625, -1.232910156250, 0.710693359375, -256.000000000000, -86.906250000000, -60.359375000000, 1490952274
0.103759765625, -1.232910156250, 0.710693359375, -256.000000000000, -86.906250000000, -60.359375000000, 1490952274
0.103759765625, -1.232910156250, 0.710693359375, -256.000000000000, -86.906250000000, -60.359375000000, 1490952274
0.103759765625, -1.232910156250, 0.710693359375, -256.000000000000, -86.906250000000, -60.359375000000, 1490952274
0.083251953125, -0.811279296875, 0.320556640625, -256.000000000000, 35.835937500000, -112.406250000000, 1490952274
0.083251953125, -0.811279296875, 0.320556640625, -256.000000000000, 35.835937500000, -112.406250000000, 1490952274
0.083251953125, -0.811279296875, 0.320556640625, -256.000000000000, 35.835937500000, -112.406250000000, 1490952274
-0.012207031250, -0.564697265625, 0.195068359375, -162.335937500000, 253.992187500000, -52.851562500000, 1490952274
-0.012207031250, -0.564697265625, 0.195068359375, -162.335937500000, 253.992187500000, -52.851562500000, 1490952274
-0.012207031250, -0.564697265625, 0.195068359375, -162.335937500000, 253.992187500000, -52.851562500000, 1490952274
-0.033203125000, -0.096435546875, 0.188232421875, -15.179687500000, 253.992187500000, 42.851562500000, 1490952275
-0.033203125000, -0.096435546875, 0.188232421875, -15.179687500000, 253.992187500000, 42.851562500000, 1490952275
0.071289062500, -0.267822265625, -0.087646484375, 31.757812500000, 176.875000000000, -24.156250000000, 1490952275
0.071289062500, -0.267822265625, -0.087646484375, 31.757812500000, 176.875000000000, -24.156250000000, 1490952275
0.071289062500, -0.267822265625, -0.087646484375, 31.757812500000, 176.875000000000, -24.156250000000, 1490952275
0.071289062500, -0.267822265625, -0.087646484375, 31.757812500000, 176.875000000000, -24.156250000000, 1490952275
0.071289062500, -0.267822265625, -0.087646484375, 31.757812500000, 176.875000000000, -24.156250000000, 1490952275
-0.148437500000, -0.936035156250, -0.322509765625, -204.625000000000, -256.000000000000, -153.250000000000, 1490952275
-0.148437500000, -0.936035156250, -0.322509765625, -204.625000000000, -256.000000000000, -153.250000000000, 1490952275
-0.148437500000, -0.936035156250, -0.322509765625, -204.625000000000, -256.000000000000, -153.250000000000, 1490952275
-0.394287109375, -1.938720703125, 0.599609375000, -256.000000000000, -256.000000000000, -42.921875000000, 1490952275
-0.394287109375, -1.938720703125, 0.599609375000, -256.000000000000, -256.000000000000, -42.921875000000, 1490952275
-0.394287109375, -1.938720703125, 0.599609375000, -256.000000000000, -256.000000000000, -42.921875000000, 1490952275
-0.482177734375, -2.399169921875, 0.649169921875, 253.992187500000, -236.000000000000, -20.546875000000, 1490952275
-0.482177734375, -2.399169921875, 0.649169921875, 253.992187500000, -236.000000000000, -20.546875000000, 1490952275
-0.482177734375, -2.399169921875, 0.649169921875, 253.992187500000, -236.000000000000, -20.546875000000, 1490952275
-0.482177734375, -2.399169921875, 0.649169921875, 253.992187500000, -236.000000000000, -20.546875000000, 1490952275
-0.482177734375, -2.399169921875, 0.649169921875, 253.992187500000, -236.000000000000, -20.546875000000, 1490952275
0.218261718750, -1.056640625000, 0.598388671875, -240.914062500000, 253.992187500000, 13.734375000000, 1490952275
0.218261718750, -1.056640625000, 0.598388671875, -240.914062500000, 253.992187500000, 13.734375000000, 1490952275
0.218261718750, -1.056640625000, 0.598388671875, -240.914062500000, 253.992187500000, 13.734375000000, 1490952275
0.218261718750, -1.056640625000, 0.598388671875, -240.914062500000, 253.992187500000, 13.734375000000, 1490952275
0.218261718750, -1.056640625000, 0.598388671875, -240.914062500000, 253.992187500000, 13.734375000000, 1490952275
-0.029052734375, -0.781494140625, -0.137207031250, -205.007812500000, 81.164062500000, -9.906250000000, 1490952275
-0.029052734375, -0.781494140625, -0.137207031250, -205.007812500000, 81.164062500000, -9.906250000000, 1490952275
-0.029052734375, -0.781494140625, -0.137207031250, -205.007812500000, 81.164062500000, -9.906250000000, 1490952275
0.153076171875, -0.291259765625, 0.076904296875, -143.382812500000, 232.804687500000, -8.460937500000, 1490952275
0.153076171875, -0.291259765625, 0.076904296875, -143.382812500000, 232.804687500000, -8.460937500000, 1490952275
0.153076171875, -0.291259765625, 0.076904296875, -143.382812500000, 232.804687500000, -8.460937500000, 1490952275
0.079345703125, -0.073730468750, 0.070068359375, 50.242187500000, 253.992187500000, 3.343750000000, 1490952275
0.079345703125, -0.073730468750, 0.070068359375, 50.242187500000, 253.992187500000, 3.343750000000, 1490952275
0.079345703125, -0.073730468750, 0.070068359375, 50.242187500000, 253.992187500000, 3.343750000000, 1490952275
0.079345703125, -0.073730468750, 0.070068359375, 50.242187500000, 253.992187500000, 3.343750000000, 1490952275
0.108154296875, -0.475585937500, -0.048583984375, -18.578125000000, 220.429687500000, -104.593750000000, 1490952275
0.108154296875, -0.475585937500, -0.048583984375, -18.578125000000, 220.429687500000, -104.593750000000, 1490952275
0.108154296875, -0.475585937500, -0.048583984375, -18.578125000000, 220.429687500000, -104.593750000000, 1490952275
0.382324218750, -1.310791015625, 0.096435546875, -256.000000000000, -151.382812500000, -137.703125000000, 1490952275
0.382324218750, -1.310791015625, 0.096435546875, -256.000000000000, -151.382812500000, -137.703125000000, 1490952275
0.382324218750, -1.310791015625, 0.096435546875, -256.000000000000, -151.382812500000, -137.703125000000, 1490952275
0.221191406250, -1.350341796875, 0.173583984375, 61.031250000000, -256.000000000000, 48.796875000000, 1490952275
0.221191406250, -1.350341796875, 0.173583984375, 61.031250000000, -256.000000000000, 48.796875000000, 1490952275
0.221191406250, -1.350341796875, 0.173583984375, 61.031250000000, -256.000000000000, 48.796875000000, 1490952275
0.114746093750, -1.558837890625, 0.517333984375, 96.367187500000, -256.000000000000, -66.593750000000, 1490952275
0.114746093750, -1.558837890625, 0.517333984375, 96.367187500000, -256.000000000000, -66.593750000000, 1490952275
0.114746093750, -1.558837890625, 0.517333984375, 96.367187500000, -256.000000000000, -66.593750000000, 1490952275
0.114746093750, -1.558837890625, 0.517333984375, 96.367187500000, -256.000000000000, -66.593750000000, 1490952275
0.385009765625, -2.775634765625, 1.257080078125, 253.992187500000, 253.992187500000, 57.664062500000, 1490952275
0.385009765625, -2.775634765625, 1.257080078125, 253.992187500000, 253.992187500000, 57.664062500000, 1490952275
0.385009765625, -2.775634765625, 1.257080078125, 253.992187500000, 253.992187500000, 57.664062500000, 1490952275
0.108154296875, -1.318359375000, 0.577392578125, -256.000000000000, 2.984375000000, -80.453125000000, 1490952275
0.108154296875, -1.318359375000, 0.577392578125, -256.000000000000, 2.984375000000, -80.453125000000, 1490952275
0.108154296875, -1.318359375000, 0.577392578125, -256.000000000000, 2.984375000000, -80.453125000000, 1490952275
0.028808593750, -0.820800781250, 0.100830078125, -245.828125000000, 117.289062500000, -33.859375000000, 1490952275
0.028808593750, -0.820800781250, 0.100830078125, -245.828125000000, 117.289062500000, -33.859375000000, 1490952275
0.028808593750, -0.820800781250, 0.100830078125, -245.828125000000, 117.289062500000, -33.859375000000, 1490952275
0.012451171875, -0.060058593750, 0.170166015625, -11.460937500000, 253.992187500000, -11.039062500000, 1490952275
0.012451171875, -0.060058593750, 0.170166015625, -11.460937500000, 253.992187500000, -11.039062500000, 1490952275
0.012451171875, -0.060058593750, 0.170166015625, -11.460937500000, 253.992187500000, -11.039062500000, 1490952275
0.012451171875, -0.060058593750, 0.170166015625, -11.460937500000, 253.992187500000, -11.039062500000, 1490952275
0.032714843750, -0.029052734375, 0.068115234375, 132.531250000000, 253.992187500000, 30.851562500000, 1490952275
0.032714843750, -0.029052734375, 0.068115234375, 132.531250000000, 253.992187500000, 30.851562500000, 1490952275
0.032714843750, -0.029052734375, 0.068115234375, 132.531250000000, 253.992187500000, 30.851562500000, 1490952275
-0.009521484375, -0.518554687500, -0.239013671875, -103.054687500000, 89.695312500000, -43.695312500000, 1490952275
-0.009521484375, -0.518554687500, -0.239013671875, -103.054687500000, 89.695312500000, -43.695312500000, 1490952275
-0.009521484375, -0.518554687500, -0.239013671875, -103.054687500000, 89.695312500000, -43.695312500000, 1490952275
-0.070312500000, -1.198242187500, -0.019042968750, -256.000000000000, -256.000000000000, -256.000000000000, 1490952275
-0.070312500000, -1.198242187500, -0.019042968750, -256.000000000000, -256.000000000000, -256.000000000000, 1490952275
-0.070312500000, -1.198242187500, -0.019042968750, -256.000000000000, -256.000000000000, -256.000000000000, 1490952275
-0.112060546875, -0.931640625000, 0.553222656250, 253.992187500000, -256.000000000000, -93.757812500000, 1490952276
-0.112060546875, -0.931640625000, 0.553222656250, 253.992187500000, -256.000000000000, -93.757812500000, 1490952276
-0.112060546875, -0.931640625000, 0.553222656250, 253.992187500000, -256.000000000000, -93.757812500000, 1490952276
-0.112060546875, -0.931640625000, 0.553222656250, 253.992187500000, -256.000000000000, -93.757812500000, 1490952276
-0.011230468750, -1.644287109375, 0.243164062500, 64.421875000000, 220.398437500000, 98.882812500000, 1490952276
-0.011230468750, -1.644287109375, 0.243164062500, 64.421875000000, 220.398437500000, 98.882812500000, 1490952276
-0.011230468750, -1.644287109375, 0.243164062500, 64.421875000000, 220.398437500000, 98.882812500000, 1490952276
-0.450195312500, -2.126464843750, 0.755859375000, 253.992187500000, -154.273437500000, 40.992187500000, 1490952276
-0.450195312500, -2.126464843750, 0.755859375000, 253.992187500000, -154.273437500000, 40.992187500000, 1490952276
-0.450195312500, -2.126464843750, 0.755859375000, 253.992187500000, -154.273437500000, 40.992187500000, 1490952276
0.136962890625, -0.909423828125, 1.258544921875, -171.578125000000, -27.171875000000, -2.898437500000, 1490952276
0.136962890625, -0.909423828125, 1.258544921875, -171.578125000000, -27.171875000000, -2.898437500000, 1490952276
0.136962890625, -0.909423828125, 1.258544921875, -171.578125000000, -27.171875000000, -2.898437500000, 1490952276
0.046386718750, -0.960449218750, 0.224365234375, -234.007812500000, -17.593750000000, -16.484375000000, 1490952276
0.046386718750, -0.960449218750, 0.224365234375, -234.007812500000, -17.593750000000, -16.484375000000, 1490952276
0.046386718750, -0.960449218750, 0.224365234375, -234.007812500000, -17.593750000000, -16.484375000000, 1490952276
0.046386718750, -0.960449218750, 0.224365234375, -234.007812500000, -17.593750000000, -16.484375000000, 1490952276
0.041503906250, -0.272949218750, 0.187744140625, -92.195312500000, 119.484375000000, -9.335937500000, 1490952276
0.041503906250, -0.272949218750, 0.187744140625, -92.195312500000, 119.484375000000, -9.335937500000, 1490952276
0.041503906250, -0.272949218750, 0.187744140625, -92.195312500000, 119.484375000000, -9.335937500000, 1490952276
0.198974609375, -0.041503906250, 0.056640625000, 64.023437500000, 253.992187500000, 0.734375000000, 1490952276
0.198974609375, -0.041503906250, 0.056640625000, 64.023437500000, 253.992187500000, 0.734375000000, 1490952276
0.198974609375, -0.041503906250, 0.056640625000, 64.023437500000, 253.992187500000, 0.734375000000, 1490952276
0.138671875000, -0.474365234375, -0.204589843750, 25.117187500000, 253.992187500000, -90.812500000000, 1490952276
0.138671875000, -0.474365234375, -0.204589843750, 25.117187500000, 253.992187500000, -90.812500000000, 1490952276
0.138671875000, -0.474365234375, -0.204589843750, 25.117187500000, 253.992187500000, -90.812500000000, 1490952276
0.384277343750, -1.266357421875, 0.587402343750, -256.000000000000, 42.289062500000, -53.656250000000, 1490952276
0.384277343750, -1.266357421875, 0.587402343750, -256.000000000000, 42.289062500000, -53.656250000000, 1490952276
0.384277343750, -1.266357421875, 0.587402343750, -256.000000000000, 42.289062500000, -53.656250000000, 1490952276
0.384277343750, -1.266357421875, 0.587402343750, -256.000000000000, 42.289062500000, -53.656250000000, 1490952276
0.518798828125, -1.352294921875, 0.249511718750, 105.625000000000, -256.000000000000, 83.843750000000, 1490952276
0.518798828125, -1.352294921875, 0.249511718750, 105.625000000000, -256.000000000000, 83.843750000000, 1490952276
0.518798828125, -1.352294921875, 0.249511718750, 105.625000000000, -256.000000000000, 83.843750000000, 1490952276
0.244873046875, -1.576416015625, 0.179443359375, 122.750000000000, -256.000000000000, -44.101562500000, 1490952276
0.244873046875, -1.576416015625, 0.179443359375, 122.750000000000, -256.000000000000, -44.101562500000, 1490952276
-0.079589843750, -2.315429687500, 0.511474609375, 253.992187500000, 240.101562500000, 117.234375000000, 1490952276
-0.079589843750, -2.315429687500, 0.511474609375, 253.992187500000, 240.101562500000, 117.234375000000, 1490952276
-0.079589843750, -2.315429687500, 0.511474609375, 253.992187500000, 240.101562500000, 117.234375000000, 1490952276
-0.079589843750, -2.315429687500, 0.511474609375, 253.992187500000, 240.101562500000, 117.234375000000, 1490952276
-0.079589843750, -2.315429687500, 0.511474609375, 253.992187500000, 240.101562500000, 117.234375000000, 1490952276
-0.018066406250, -1.018066406250, 0.585449218750, -256.000000000000, -104.093750000000, -104.343750000000, 1490952276
-0.018066406250, -1.018066406250, 0.585449218750, -256.000000000000, -104.093750000000, -104.343750000000, 1490952276
-0.018066406250, -1.018066406250, 0.585449218750, -256.000000000000, -104.093750000000, -104.343750000000, 1490952276
-0.010742187500, -0.922607421875, 0.185058593750, -242.031250000000, 69.484375000000, -96.593750000000, 1490952276
-0.010742187500, -0.922607421875, 0.185058593750, -242.031250000000, 69.484375000000, -96.593750000000, 1490952276
-0.010742187500, -0.922607421875, 0.185058593750, -242.031250000000, 69.484375000000, -96.593750000000, 1490952276
0.020996093750, -0.402099609375, 0.218261718750, -102.609375000000, 253.992187500000, -80.234375000000, 1490952276
0.020996093750, -0.402099609375, 0.218261718750, -102.609375000000, 253.992187500000, -80.234375000000, 1490952276
0.020996093750, -0.402099609375, 0.218261718750, -102.609375000000, 253.992187500000, -80.234375000000, 1490952276
0.072021484375, -0.081787109375, 0.024902343750, 38.843750000000, 253.992187500000, -10.015625000000, 1490952276
0.072021484375, -0.081787109375, 0.024902343750, 38.843750000000, 253.992187500000, -10.015625000000, 1490952276
0.072021484375, -0.081787109375, 0.024902343750, 38.843750000000, 253.992187500000, -10.015625000000, 1490952276
-0.067138671875, -0.419921875000, -0.329833984375, -146.453125000000, 43.289062500000, -119.000000000000, 1490952276
-0.067138671875, -0.419921875000, -0.329833984375, -146.453125000000, 43.289062500000, -119.000000000000, 1490952276
-0.067138671875, -0.419921875000, -0.329833984375, -146.453125000000, 43.289062500000, -119.000000000000, 1490952276
-0.067138671875, -0.419921875000, -0.329833984375, -146.453125000000, 43.289062500000, -119.000000000000, 1490952276
-0.079345703125, -1.464843750000, -0.064208984375, -256.000000000000, -256.000000000000, -165.960937500000, 1490952276
-0.079345703125, -1.464843750000, -0.064208984375, -256.000000000000, -256.000000000000, -165.960937500000, 1490952276
-0.079345703125, -1.464843750000, -0.064208984375, -256.000000000000, -256.000000000000, -165.960937500000, 1490952276
-0.111328125000, -1.234619140625, 0.866210937500, 253.992187500000, -256.000000000000, -153.289062500000, 1490952276
-0.111328125000, -1.234619140625, 0.866210937500, 253.992187500000, -256.000000000000, -153.289062500000, 1490952276
-0.111328125000, -1.234619140625, 0.866210937500, 253.992187500000, -256.000000000000, -153.289062500000, 1490952276
0.036132812500, -1.677734375000, 0.238281250000, 253.992187500000, 21.695312500000, 58.250000000000, 1490952276
0.036132812500, -1.677734375000, 0.238281250000, 253.992187500000, 21.695312500000, 58.250000000000, 1490952276
0.036132812500, -1.677734375000, 0.238281250000, 253.992187500000, 21.695312500000, 58.250000000000, 1490952276
0.263916015625, -0.319335937500, 5.184326171875, 253.992187500000, -5.570312500000, -34.507812500000, 1490952277
0.263916015625, -0.319335937500, 5.184326171875, 253.992187500000, -5.570312500000, -34.507812500000, 1490952277
0.263916015625, -0.319335937500, 5.184326171875, 253.992187500000, -5.570312500000, -34.507812500000, 1490952277
0.263916015625, -0.319335937500, 5.184326171875, 253.992187500000, -5.570312500000, -34.507812500000, 1490952277
0.087402343750, -1.051757812500, 0.059326171875, -256.000000000000, -68.695312500000, -13.140625000000, 1490952277
0.087402343750, -1.051757812500, 0.059326171875, -256.000000000000, -68.695312500000, -13.140625000000, 1490952277
0.087402343750, -1.051757812500, 0.059326171875, -256.000000000000, -68.695312500000, -13.140625000000, 1490952277
0.148925781250, -0.614013671875, 0.205566406250, -172.757812500000, 175.382812500000, 6.656250000000, 1490952277
0.148925781250, -0.614013671875, 0.205566406250, -172.757812500000, 175.382812500000, 6.656250000000, 1490952277
0.148925781250, -0.614013671875, 0.205566406250, -172.757812500000, 175.382812500000, 6.656250000000, 1490952277
0.197753906250, -0.247802734375, 0.071777343750, -107.554687500000, 250.531250000000, 56.085937500000, 1490952277
0.197753906250, -0.247802734375, 0.071777343750, -107.554687500000, 250.531250000000, 56.085937500000, 1490952277
0.197753906250, -0.247802734375, 0.071777343750, -107.554687500000, 250.531250000000, 56.085937500000, 1490952277
0.098388671875, -0.202392578125, 0.010009765625, 39.117187500000, 253.992187500000, 0.460937500000, 1490952277
0.098388671875, -0.202392578125, 0.010009765625, 39.117187500000, 253.992187500000, 0.460937500000, 1490952277
0.098388671875, -0.202392578125, 0.010009765625, 39.117187500000, 253.992187500000, 0.460937500000, 1490952277
0.098388671875, -0.202392578125, 0.010009765625, 39.117187500000, 253.992187500000, 0.460937500000, 1490952277
0.258056640625, -1.169189453125, -0.201171875000, -97.640625000000, 152.937500000000, -185.007812500000, 1490952277
0.258056640625, -1.169189453125, -0.201171875000, -97.640625000000, 152.937500000000, -185.007812500000, 1490952277
0.258056640625, -1.169189453125, -0.201171875000, -97.640625000000, 152.937500000000, -185.007812500000, 1490952277
0.205078125000, -1.087158203125, 0.361328125000, -126.507812500000, -130.859375000000, 13.992187500000, 1490952277
0.205078125000, -1.087158203125, 0.361328125000, -126.507812500000, -130.859375000000, 13.992187500000, 1490952277
0.205078125000, -1.087158203125, 0.361328125000, -126.507812500000, -130.859375000000, 13.992187500000, 1490952277
0.338378906250, -1.830566406250, 0.422607421875, 182.250000000000, -256.000000000000, -9.132812500000, 1490952277
0.338378906250, -1.830566406250, 0.422607421875, 182.250000000000, -256.000000000000, -9.132812500000, 1490952277
0.338378906250, -1.830566406250, 0.422607421875, 182.250000000000, -256.000000000000, -9.132812500000, 1490952277
-0.133544921875, -2.745361328125, 2.597167968750, 253.992187500000, 124.335937500000, 103.867187500000, 1490952277
-0.133544921875, -2.745361328125, 2.597167968750, 253.992187500000, 124.335937500000, 103.867187500000, 1490952277
-0.133544921875, -2.745361328125, 2.597167968750, 253.992187500000, 124.335937500000, 103.867187500000, 1490952277
-0.133544921875, -2.745361328125, 2.597167968750, 253.992187500000, 124.335937500000, 103.867187500000, 1490952277
-0.023193359375, -1.335449218750, 0.691406250000, -256.000000000000, -20.578125000000, -84.460937500000, 1490952277
-0.023193359375, -1.335449218750, 0.691406250000, -256.000000000000, -20.578125000000, -84.460937500000, 1490952277
-0.023193359375, -1.335449218750, 0.691406250000, -256.000000000000, -20.578125000000, -84.460937500000, 1490952277
0.043457031250, -1.079833984375, 0.199462890625, -235.398437500000, 23.875000000000, -141.750000000000, 1490952277
0.043457031250, -1.079833984375, 0.199462890625, -235.398437500000, 23.875000000000, -141.750000000000, 1490952277
0.043457031250, -1.079833984375, 0.199462890625, -235.398437500000, 23.875000000000, -141.750000000000, 1490952277
-0.031005859375, -0.591308593750, 0.212890625000, -109.554687500000, 214.039062500000, -49.742187500000, 1490952277
-0.031005859375, -0.591308593750, 0.212890625000, -109.554687500000, 214.039062500000, -49.742187500000, 1490952277
-0.031005859375, -0.591308593750, 0.212890625000, -109.554687500000, 214.039062500000, -49.742187500000, 1490952277
-0.135253906250, -0.118408203125, 0.024169921875, 59.835937500000, 221.171875000000, -22.218750000000, 1490952277
-0.135253906250, -0.118408203125, 0.024169921875, 59.835937500000, 221.171875000000, -22.218750000000, 1490952277
-0.135253906250, -0.118408203125, 0.024169921875, 59.835937500000, 221.171875000000, -22.218750000000, 1490952277
-0.135253906250, -0.118408203125, 0.024169921875, 59.835937500000, 221.171875000000, -22.218750000000, 1490952277
0.007812500000, 0.070556640625, -0.074951171875, 55.000000000000, 152.500000000000, -0.414062500000, 1490952277
0.007812500000, 0.070556640625, -0.074951171875, 55.000000000000, 152.500000000000, -0.414062500000, 1490952277
0.007812500000, 0.070556640625, -0.074951171875, 55.000000000000, 152.500000000000, -0.414062500000, 1490952277
-0.074707031250, -0.431884765625, -0.335449218750, -149.296875000000, -105.101562500000, -20.000000000000, 1490952277
-0.074707031250, -0.431884765625, -0.335449218750, -149.296875000000, -105.101562500000, -20.000000000000, 1490952277
-0.074707031250, -0.431884765625, -0.335449218750, -149.296875000000, -105.101562500000, -20.000000000000, 1490952277
-0.358642578125, -2.322509765625, 0.883300781250, -85.093750000000, -256.000000000000, -105.523437500000, 1490952277
0.025146484375, -1.209472656250, 0.557617187500, 253.992187500000, -137.414062500000, -5.023437500000, 1490952277
0.025146484375, -1.209472656250, 0.557617187500, 253.992187500000, -137.414062500000, -5.023437500000, 1490952277
0.025146484375, -1.209472656250, 0.557617187500, 253.992187500000, -137.414062500000, -5.023437500000, 1490952277
0.185791015625, -1.945312500000, 0.492187500000, 253.992187500000, 18.476562500000, 119.031250000000, 1490952277
0.873535156250, -2.472412109375, 3.693603515625, 253.992187500000, 153.164062500000, -8.523437500000, 1490952277
0.873535156250, -2.472412109375, 3.693603515625, 253.992187500000, 153.164062500000, -8.523437500000, 1490952277
0.873535156250, -2.472412109375, 3.693603515625, 253.992187500000, 153.164062500000, -8.523437500000, 1490952277
0.873535156250, -2.472412109375, 3.693603515625, 253.992187500000, 153.164062500000, -8.523437500000, 1490952277
-0.003417968750, -0.861083984375, 1.922607421875, -59.304687500000, -69.695312500000, -6.445312500000, 1490952277
-0.003417968750, -0.861083984375, 1.922607421875, -59.304687500000, -69.695312500000, -6.445312500000, 1490952277
-0.003417968750, -0.861083984375, 1.922607421875, -59.304687500000, -69.695312500000, -6.445312500000, 1490952277
-0.003417968750, -0.861083984375, 1.922607421875, -59.304687500000, -69.695312500000, -6.445312500000, 1490952277
0.129394531250, -1.364257812500, 0.501953125000, -256.000000000000, -61.078125000000, -7.554687500000, 1490952277
0.129394531250, -1.364257812500, 0.501953125000, -256.000000000000, -61.078125000000, -7.554687500000, 1490952277
0.129394531250, -1.364257812500, 0.501953125000, -256.000000000000, -61.078125000000, -7.554687500000, 1490952277
-0.021484375000, -0.624267578125, 0.145263671875, -62.187500000000, 106.382812500000, -0.320312500000, 1490952277
-0.021484375000, -0.624267578125, 0.145263671875, -62.187500000000, 106.382812500000, -0.320312500000, 1490952277
-0.021484375000, -0.624267578125, 0.145263671875, -62.187500000000, 106.382812500000, -0.320312500000, 1490952277
-0.021484375000, -0.624267578125, 0.145263671875, -62.187500000000, 106.382812500000, -0.320312500000, 1490952278
0.058105468750, -0.393066406250, 0.144287109375, 27.179687500000, 231.398437500000, -14.960937500000, 1490952278
0.058105468750, -0.393066406250, 0.144287109375, 27.179687500000, 231.398437500000, -14.960937500000, 1490952278
0.058105468750, -0.393066406250, 0.144287109375, 27.179687500000, 231.398437500000, -14.960937500000, 1490952278
-0.009277343750, -0.125976562500, 0.081298828125, 92.148437500000, 253.992187500000, -23.789062500000, 1490952278
-0.009277343750, -0.125976562500, 0.081298828125, 92.148437500000, 253.992187500000, -23.789062500000, 1490952278
-0.009277343750, -0.125976562500, 0.081298828125, 92.148437500000, 253.992187500000, -23.789062500000, 1490952278
0.142089843750, -0.038330078125, 0.011962890625, 63.460937500000, 253.992187500000, -47.007812500000, 1490952278
0.142089843750, -0.038330078125, 0.011962890625, 63.460937500000, 253.992187500000, -47.007812500000, 1490952278
0.142089843750, -0.038330078125, 0.011962890625, 63.460937500000, 253.992187500000, -47.007812500000, 1490952278
0.456542968750, -1.500732421875, 0.405273437500, -29.828125000000, -256.000000000000, 158.132812500000, 1490952278
0.456542968750, -1.500732421875, 0.405273437500, -29.828125000000, -256.000000000000, 158.132812500000, 1490952278
0.456542968750, -1.500732421875, 0.405273437500, -29.828125000000, -256.000000000000, 158.132812500000, 1490952278
0.094238281250, -1.900390625000, 0.633300781250, 182.320312500000, -256.000000000000, -126.382812500000, 1490952278
0.094238281250, -1.900390625000, 0.633300781250, 182.320312500000, -256.000000000000, -126.382812500000, 1490952278
0.094238281250, -1.900390625000, 0.633300781250, 182.320312500000, -256.000000000000, -126.382812500000, 1490952278
0.094238281250, -1.900390625000, 0.633300781250, 182.320312500000, -256.000000000000, -126.382812500000, 1490952278
-0.002685546875, -0.832763671875, 3.323730468750, 178.429687500000, 169.250000000000, 1.023437500000, 1490952278
-0.002685546875, -0.832763671875, 3.323730468750, 178.429687500000, 169.250000000000, 1.023437500000, 1490952278
-0.002685546875, -0.832763671875, 3.323730468750, 178.429687500000, 169.250000000000, 1.023437500000, 1490952278
-0.002685546875, -0.832763671875, 3.323730468750, 178.429687500000, 169.250000000000, 1.023437500000, 1490952278
0.060058593750, -1.220458984375, 0.327148437500, -203.546875000000, 79.031250000000, -115.179687500000, 1490952278
0.060058593750, -1.220458984375, 0.327148437500, -203.546875000000, 79.031250000000, -115.179687500000, 1490952278
0.060058593750, -1.220458984375, 0.327148437500, -203.546875000000, 79.031250000000, -115.179687500000, 1490952278
0.060058593750, -1.220458984375, 0.327148437500, -203.546875000000, 79.031250000000, -115.179687500000, 1490952278
0.060058593750, -1.220458984375, 0.327148437500, -203.546875000000, 79.031250000000, -115.179687500000, 1490952278
0.060058593750, -1.220458984375, 0.327148437500, -203.546875000000, 79.031250000000, -115.179687500000, 1490952278
-0.074951171875, -0.660156250000, 0.279785156250, -155.109375000000, 253.992187500000, -44.765625000000, 1490952278
-0.074951171875, -0.660156250000, 0.279785156250, -155.109375000000, 253.992187500000, -44.765625000000, 1490952278
-0.074951171875, -0.660156250000, 0.279785156250, -155.109375000000, 253.992187500000, -44.765625000000, 1490952278
-0.218505859375, -0.084960937500, -0.841796875000, 34.656250000000, 253.992187500000, 18.453125000000, 1490952278
-0.218505859375, -0.084960937500, -0.841796875000, 34.656250000000, 253.992187500000, 18.453125000000, 1490952278
-0.218505859375, -0.084960937500, -0.841796875000, 34.656250000000, 253.992187500000, 18.453125000000, 1490952278
0.072998046875, -0.041259765625, -0.070312500000, 69.070312500000, 248.078125000000, -31.945312500000, 1490952278
0.072998046875, -0.041259765625, -0.070312500000, 69.070312500000, 248.078125000000, -31.945312500000, 1490952278
0.072998046875, -0.041259765625, -0.070312500000, 69.070312500000, 248.078125000000, -31.945312500000, 1490952278
-0.069580078125, -0.331298828125, -0.210449218750, -79.664062500000, -71.679687500000, -46.289062500000, 1490952278
-0.069580078125, -0.331298828125, -0.210449218750, -79.664062500000, -71.679687500000, -46.289062500000, 1490952278
-0.069580078125, -0.331298828125, -0.210449218750, -79.664062500000, -71.679687500000, -46.289062500000, 1490952278
-0.069580078125, -0.331298828125, -0.210449218750, -79.664062500000, -71.679687500000, -46.289062500000, 1490952278
0.022216796875, -1.153808593750, 0.009521484375, -256.000000000000, -256.000000000000, -154.601562500000, 1490952278
0.022216796875, -1.153808593750, 0.009521484375, -256.000000000000, -256.000000000000, -154.601562500000, 1490952278
0.022216796875, -1.153808593750, 0.009521484375, -256.000000000000, -256.000000000000, -154.601562500000, 1490952278
-0.040039062500, -1.702880859375, 0.315185546875, -256.000000000000, -256.000000000000, -133.632812500000, 1490952278
0.073242187500, -2.065429687500, 0.318115234375, 253.992187500000, 253.992187500000, 109.960937500000, 1490952278
0.073242187500, -2.065429687500, 0.318115234375, 253.992187500000, 253.992187500000, 109.960937500000, 1490952278
0.073242187500, -2.065429687500, 0.318115234375, 253.992187500000, 253.992187500000, 109.960937500000, 1490952278
0.073242187500, -2.065429687500, 0.318115234375, 253.992187500000, 253.992187500000, 109.960937500000, 1490952278
0.073242187500, -2.065429687500, 0.318115234375, 253.992187500000, 253.992187500000, 109.960937500000, 1490952278
0.073242187500, -2.065429687500, 0.318115234375, 253.992187500000, 253.992187500000, 109.960937500000, 1490952278
-0.054443359375, -0.644531250000, 4.338623046875, -10.367187500000, -256.000000000000, -31.578125000000, 1490952278
-0.054443359375, -0.644531250000, 4.338623046875, -10.367187500000, -256.000000000000, -31.578125000000, 1490952278
-0.054443359375, -0.644531250000, 4.338623046875, -10.367187500000, -256.000000000000, -31.578125000000, 1490952278
-0.049072265625, -1.320312500000, 0.099121093750, -244.679687500000, -6.171875000000, 17.062500000000, 1490952278
-0.049072265625, -1.320312500000, 0.099121093750, -244.679687500000, -6.171875000000, 17.062500000000, 1490952278
-0.049072265625, -1.320312500000, 0.099121093750, -244.679687500000, -6.171875000000, 17.062500000000, 1490952278
0.091064453125, -0.781005859375, 0.278808593750, -62.328125000000, 53.367187500000, 4.156250000000, 1490952278
0.091064453125, -0.781005859375, 0.278808593750, -62.328125000000, 53.367187500000, 4.156250000000, 1490952278
0.091064453125, -0.781005859375, 0.278808593750, -62.328125000000, 53.367187500000, 4.156250000000, 1490952278
0.065673828125, -0.399658203125, 0.136962890625, 13.195312500000, 190.390625000000, -11.468750000000, 1490952278
0.065673828125, -0.399658203125, 0.136962890625, 13.195312500000, 190.390625000000, -11.468750000000, 1490952278
0.065673828125, -0.399658203125, 0.136962890625, 13.195312500000, 190.390625000000, -11.468750000000, 1490952278
0.126953125000, -0.127685546875, 0.043701171875, 102.117187500000, 253.992187500000, -10.750000000000, 1490952278
0.126953125000, -0.127685546875, 0.043701171875, 102.117187500000, 253.992187500000, -10.750000000000, 1490952278
0.126953125000, -0.127685546875, 0.043701171875, 102.117187500000, 253.992187500000, -10.750000000000, 1490952278
0.126953125000, -0.127685546875, 0.043701171875, 102.117187500000, 253.992187500000, -10.750000000000, 1490952278
0.125488281250, -0.377929687500, -0.127685546875, 4.468750000000, 245.640625000000, -95.906250000000, 1490952279
0.125488281250, -0.377929687500, -0.127685546875, 4.468750000000, 245.640625000000, -95.906250000000, 1490952279
0.125488281250, -0.377929687500, -0.127685546875, 4.468750000000, 245.640625000000, -95.906250000000, 1490952279
0.391357421875, -1.509521484375, -0.023681640625, -256.000000000000, 7.039062500000, -64.718750000000, 1490952279
0.391357421875, -1.509521484375, -0.023681640625, -256.000000000000, 7.039062500000, -64.718750000000, 1490952279
0.391357421875, -1.509521484375, -0.023681640625, -256.000000000000, 7.039062500000, -64.718750000000, 1490952279
0.427978515625, -1.171875000000, 0.255371093750, 9.789062500000, -256.000000000000, 116.820312500000, 1490952279
0.427978515625, -1.171875000000, 0.255371093750, 9.789062500000, -256.000000000000, 116.820312500000, 1490952279
0.427978515625, -1.171875000000, 0.255371093750, 9.789062500000, -256.000000000000, 116.820312500000, 1490952279
-0.169433593750, -1.391601562500, 0.888916015625, 34.164062500000, -256.000000000000, -4.265625000000, 1490952279
-0.169433593750, -1.391601562500, 0.888916015625, 34.164062500000, -256.000000000000, -4.265625000000, 1490952279
-0.169433593750, -1.391601562500, 0.888916015625, 34.164062500000, -256.000000000000, -4.265625000000, 1490952279
-0.169433593750, -1.391601562500, 0.888916015625, 34.164062500000, -256.000000000000, -4.265625000000, 1490952279
0.014160156250, -1.825927734375, 1.334960937500, 253.992187500000, 229.187500000000, 25.937500000000, 1490952279
0.014160156250, -1.825927734375, 1.334960937500, 253.992187500000, 229.187500000000, 25.937500000000, 1490952279
0.014160156250, -1.825927734375, 1.334960937500, 253.992187500000, 229.187500000000, 25.937500000000, 1490952279
0.270751953125, -1.302734375000, 0.563476562500, -222.351562500000, 99.789062500000, -44.187500000000, 1490952279
0.270751953125, -1.302734375000, 0.563476562500, -222.351562500000, 99.789062500000, -44.187500000000, 1490952279
0.270751953125, -1.302734375000, 0.563476562500, -222.351562500000, 99.789062500000, -44.187500000000, 1490952279
0.071289062500, -1.044433593750, 0.230712890625, -177.148437500000, -16.867187500000, -74.421875000000, 1490952279
0.071289062500, -1.044433593750, 0.230712890625, -177.148437500000, -16.867187500000, -74.421875000000, 1490952279
0.071289062500, -1.044433593750, 0.230712890625, -177.148437500000, -16.867187500000, -74.421875000000, 1490952279
0.137451171875, -0.645751953125, 0.257812500000, 17.023437500000, 190.867187500000, -30.585937500000, 1490952279
0.137451171875, -0.645751953125, 0.257812500000, 17.023437500000, 190.867187500000, -30.585937500000, 1490952279
0.137451171875, -0.645751953125, 0.257812500000, 17.023437500000, 190.867187500000, -30.585937500000, 1490952279
0.137451171875, -0.645751953125, 0.257812500000, 17.023437500000, 190.867187500000, -30.585937500000, 1490952279
-0.090087890625, -0.246582031250, 0.080810546875, 67.140625000000, 194.054687500000, -25.375000000000, 1490952279
-0.090087890625, -0.246582031250, 0.080810546875, 67.140625000000, 194.054687500000, -25.375000000000, 1490952279
-0.090087890625, -0.246582031250, 0.080810546875, 67.140625000000, 194.054687500000, -25.375000000000, 1490952279
-0.036865234375, -0.086425781250, 0.044921875000, 11.468750000000, 146.820312500000, -19.914062500000, 1490952279
-0.036865234375, -0.086425781250, 0.044921875000, 11.468750000000, 146.820312500000, -19.914062500000, 1490952279
-0.036865234375, -0.086425781250, 0.044921875000, 11.468750000000, 146.820312500000, -19.914062500000, 1490952279
0.003662109375, -0.150878906250, -0.078125000000, -26.601562500000, 14.781250000000, -8.039062500000, 1490952279
0.003662109375, -0.150878906250, -0.078125000000, -26.601562500000, 14.781250000000, -8.039062500000, 1490952279
0.003662109375, -0.150878906250, -0.078125000000, -26.601562500000, 14.781250000000, -8.039062500000, 1490952279
-0.033691406250, -1.521484375000, 0.011474609375, -256.000000000000, -256.000000000000, -163.398437500000, 1490952279
-0.033691406250, -1.521484375000, 0.011474609375, -256.000000000000, -256.000000000000, -163.398437500000, 1490952279
-0.033691406250, -1.521484375000, 0.011474609375, -256.000000000000, -256.000000000000, -163.398437500000, 1490952279
-0.033691406250, -1.521484375000, 0.011474609375, -256.000000000000, -256.000000000000, -163.398437500000, 1490952279
0.033935546875, -1.412109375000, 0.756591796875, 253.992187500000, -256.000000000000, -68.406250000000, 1490952279
0.033935546875, -1.412109375000, 0.756591796875, 253.992187500000, -256.000000000000, -68.406250000000, 1490952279
0.033935546875, -1.412109375000, 0.756591796875, 253.992187500000, -256.000000000000, -68.406250000000, 1490952279
0.605957031250, -1.719970703125, 1.142333984375, 99.445312500000, 253.992187500000, 16.898437500000, 1490952279
0.605957031250, -1.719970703125, 1.142333984375, 99.445312500000, 253.992187500000, 16.898437500000, 1490952279
0.605957031250, -1.719970703125, 1.142333984375, 99.445312500000, 253.992187500000, 16.898437500000, 1490952279
-0.290527343750, -1.312744140625, 0.950195312500, 162.875000000000, -256.000000000000, 3.390625000000, 1490952279
-0.290527343750, -1.312744140625, 0.950195312500, 162.875000000000, -256.000000000000, 3.390625000000, 1490952279
-0.290527343750, -1.312744140625, 0.950195312500, 162.875000000000, -256.000000000000, 3.390625000000, 1490952279
0.055664062500, -1.032958984375, 0.511718750000, -166.515625000000, -42.960937500000, -23.578125000000, 1490952279
0.055664062500, -1.032958984375, 0.511718750000, -166.515625000000, -42.960937500000, -23.578125000000, 1490952279
0.055664062500, -1.032958984375, 0.511718750000, -166.515625000000, -42.960937500000, -23.578125000000, 1490952279
0.055664062500, -1.032958984375, 0.511718750000, -166.515625000000, -42.960937500000, -23.578125000000, 1490952279
0.067626953125, -0.617675781250, 0.113037109375, -110.492187500000, 98.078125000000, 1.507812500000, 1490952279
0.067626953125, -0.617675781250, 0.113037109375, -110.492187500000, 98.078125000000, 1.507812500000, 1490952279
0.067626953125, -0.617675781250, 0.113037109375, -110.492187500000, 98.078125000000, 1.507812500000, 1490952279
0.012939453125, -0.363037109375, 0.148681640625, -68.593750000000, 156.976562500000, 11.109375000000, 1490952279
0.012939453125, -0.363037109375, 0.148681640625, -68.593750000000, 156.976562500000, 11.109375000000, 1490952279
0.012939453125, -0.363037109375, 0.148681640625, -68.593750000000, 156.976562500000, 11.109375000000, 1490952279
0.049072265625, -0.168457031250, 0.043701171875, -12.664062500000, 212.406250000000, 3.085937500000, 1490952279
0.049072265625, -0.168457031250, 0.043701171875, -12.664062500000, 212.406250000000, 3.085937500000, 1490952279
0.049072265625, -0.168457031250, 0.043701171875, -12.664062500000, 212.406250000000, 3.085937500000, 1490952279
0.097412109375, -0.116210937500, 0.019042968750, 49.289062500000, 251.718750000000, -58.039062500000, 1490952279
0.097412109375, -0.116210937500, 0.019042968750, 49.289062500000, 251.718750000000, -58.039062500000, 1490952279
0.097412109375, -0.116210937500, 0.019042968750, 49.289062500000, 251.718750000000, -58.039062500000, 1490952279
0.097412109375, -0.116210937500, 0.019042968750, 49.289062500000, 251.718750000000, -58.039062500000, 1490952279
0.382324218750, -1.733398437500, -0.329833984375, -256.000000000000, -26.679687500000, -139.382812500000, 1490952279
0.382324218750, -1.733398437500, -0.329833984375, -256.000000000000, -26.679687500000, -139.382812500000, 1490952280
0.382324218750, -1.733398437500, -0.329833984375, -256.000000000000, -26.679687500000, -139.382812500000, 1490952280
0.249023437500, -1.272705078125, 0.307373046875, -47.414062500000, -256.000000000000, 100.976562500000, 1490952280
0.249023437500, -1.272705078125, 0.307373046875, -47.414062500000, -256.000000000000, 100.976562500000, 1490952280
0.249023437500, -1.272705078125, 0.307373046875, -47.414062500000, -256.000000000000, 100.976562500000, 1490952280
0.403076171875, -1.968505859375, 0.699218750000, 253.992187500000, -256.000000000000, -174.890625000000, 1490952280
0.403076171875, -1.968505859375, 0.699218750000, 253.992187500000, -256.000000000000, -174.890625000000, 1490952280
-0.046875000000, -1.598632812500, 1.279052734375, 253.992187500000, 147.007812500000, 20.601562500000, 1490952280
-0.046875000000, -1.598632812500, 1.279052734375, 253.992187500000, 147.007812500000, 20.601562500000, 1490952280
-0.046875000000, -1.598632812500, 1.279052734375, 253.992187500000, 147.007812500000, 20.601562500000, 1490952280
-0.046875000000, -1.598632812500, 1.279052734375, 253.992187500000, 147.007812500000, 20.601562500000, 1490952280
-0.046875000000, -1.598632812500, 1.279052734375, 253.992187500000, 147.007812500000, 20.601562500000, 1490952280
0.103271484375, -1.267822265625, 0.399902343750, -256.000000000000, -87.734375000000, -77.890625000000, 1490952280
0.103271484375, -1.267822265625, 0.399902343750, -256.000000000000, -87.734375000000, -77.890625000000, 1490952280
0.103271484375, -1.267822265625, 0.399902343750, -256.000000000000, -87.734375000000, -77.890625000000, 1490952280
-0.052246093750, -0.867675781250, 0.263183593750, -256.000000000000, 122.531250000000, -27.601562500000, 1490952280
-0.052246093750, -0.867675781250, 0.263183593750, -256.000000000000, 122.531250000000, -27.601562500000, 1490952280
-0.052246093750, -0.867675781250, 0.263183593750, -256.000000000000, 122.531250000000, -27.601562500000, 1490952280
-0.142089843750, -0.752929687500, 0.112548828125, -244.664062500000, 174.742187500000, 1.101562500000, 1490952280
-0.068847656250, -0.049804687500, -0.081787109375, 72.570312500000, 241.539062500000, -28.820312500000, 1490952280
-0.068847656250, -0.049804687500, -0.081787109375, 72.570312500000, 241.539062500000, -28.820312500000, 1490952280
-0.068847656250, -0.049804687500, -0.081787109375, 72.570312500000, 241.539062500000, -28.820312500000, 1490952280
-0.068847656250, -0.049804687500, -0.081787109375, 72.570312500000, 241.539062500000, -28.820312500000, 1490952280
-0.068847656250, -0.049804687500, -0.081787109375, 72.570312500000, 241.539062500000, -28.820312500000, 1490952280
-0.063476562500, -0.113525390625, 0.009521484375, 78.468750000000, 197.359375000000, -42.789062500000, 1490952280
0.063720703125, -0.102294921875, -0.139160156250, -4.273437500000, 47.062500000000, -44.117187500000, 1490952280
0.063720703125, -0.102294921875, -0.139160156250, -4.273437500000, 47.062500000000, -44.117187500000, 1490952280
0.063720703125, -0.102294921875, -0.139160156250, -4.273437500000, 47.062500000000, -44.117187500000, 1490952280
-0.112792968750, -0.596435546875, -0.288085937500, -256.000000000000, -256.000000000000, -94.664062500000, 1490952280
-0.112792968750, -0.596435546875, -0.288085937500, -256.000000000000, -256.000000000000, -94.664062500000, 1490952280
-0.112792968750, -0.596435546875, -0.288085937500, -256.000000000000, -256.000000000000, -94.664062500000, 1490952280
-0.512695312500, -2.398437500000, 0.793212890625, -256.000000000000, -256.000000000000, -120.984375000000, 1490952280
-0.512695312500, -2.398437500000, 0.793212890625, -256.000000000000, -256.000000000000, -120.984375000000, 1490952280
-0.512695312500, -2.398437500000, 0.793212890625, -256.000000000000, -256.000000000000, -120.984375000000, 1490952280
0.097167968750, -2.003173828125, 0.447021484375, 253.992187500000, 59.062500000000, 143.765625000000, 1490952280
0.097167968750, -2.003173828125, 0.447021484375, 253.992187500000, 59.062500000000, 143.765625000000, 1490952280
0.097167968750, -2.003173828125, 0.447021484375, 253.992187500000, 59.062500000000, 143.765625000000, 1490952280
0.097167968750, -2.003173828125, 0.447021484375, 253.992187500000, 59.062500000000, 143.765625000000, 1490952280
0.069824218750, -2.397705078125, 2.385253906250, 253.992187500000, 141.414062500000, -88.593750000000, 1490952280
0.069824218750, -2.397705078125, 2.385253906250, 253.992187500000, 141.414062500000, -88.593750000000, 1490952280
0.069824218750, -2.397705078125, 2.385253906250, 253.992187500000, 141.414062500000, -88.593750000000, 1490952280
0.313476562500, -1.323242187500, 0.359375000000, -225.070312500000, 1.585937500000, 48.617187500000, 1490952280
0.313476562500, -1.323242187500, 0.359375000000, -225.070312500000, 1.585937500000, 48.617187500000, 1490952280
0.313476562500, -1.323242187500, 0.359375000000, -225.070312500000, 1.585937500000, 48.617187500000, 1490952280
-0.108642578125, -1.114746093750, 0.368408203125, -235.242187500000, 33.554687500000, 17.429687500000, 1490952280
-0.108642578125, -1.114746093750, 0.368408203125, -235.242187500000, 33.554687500000, 17.429687500000, 1490952280
0.039550781250, -0.315917968750, 0.103759765625, -50.289062500000, 253.992187500000, -0.031250000000, 1490952280
0.039550781250, -0.315917968750, 0.103759765625, -50.289062500000, 253.992187500000, -0.031250000000, 1490952280
0.039550781250, -0.315917968750, 0.103759765625, -50.289062500000, 253.992187500000, -0.031250000000, 1490952280
0.039550781250, -0.315917968750, 0.103759765625, -50.289062500000, 253.992187500000, -0.031250000000, 1490952280
0.082275390625, -0.129394531250, 0.148681640625, 10.609375000000, 253.992187500000, 25.742187500000, 1490952280
0.070800781250, -0.191894531250, 0.076416015625, 46.304687500000, 253.992187500000, 20.414062500000, 1490952280
0.070800781250, -0.191894531250, 0.076416015625, 46.304687500000, 253.992187500000, 20.414062500000, 1490952280
0.070800781250, -0.191894531250, 0.076416015625, 46.304687500000, 253.992187500000, 20.414062500000, 1490952280
0.103515625000, -0.159423828125, -0.054199218750, -28.203125000000, 253.992187500000, -71.015625000000, 1490952280
0.103515625000, -0.159423828125, -0.054199218750, -28.203125000000, 253.992187500000, -71.015625000000, 1490952280
0.103515625000, -0.159423828125, -0.054199218750, -28.203125000000, 253.992187500000, -71.015625000000, 1490952280
0.179199218750, -1.309570312500, -0.197509765625, -256.000000000000, -40.890625000000, -180.296875000000, 1490952280
0.179199218750, -1.309570312500, -0.197509765625, -256.000000000000, -40.890625000000, -180.296875000000, 1490952280
0.179199218750, -1.309570312500, -0.197509765625, -256.000000000000, -40.890625000000, -180.296875000000, 1490952280
0.234130859375, -1.379394531250, 0.385009765625, 92.976562500000, -256.000000000000, 43.796875000000, 1490952280
0.234130859375, -1.379394531250, 0.385009765625, 92.976562500000, -256.000000000000, 43.796875000000, 1490952280
0.234130859375, -1.379394531250, 0.385009765625, 92.976562500000, -256.000000000000, 43.796875000000, 1490952280
0.234130859375, -1.379394531250, 0.385009765625, 92.976562500000, -256.000000000000, 43.796875000000, 1490952280
0.291015625000, -1.757812500000, 0.335205078125, 217.023437500000, -256.000000000000, -48.015625000000, 1490952280
0.291015625000, -1.757812500000, 0.335205078125, 217.023437500000, -256.000000000000, -48.015625000000, 1490952280
0.291015625000, -1.757812500000, 0.335205078125, 217.023437500000, -256.000000000000, -48.015625000000, 1490952280
0.451904296875, -2.497314453125, 0.806640625000, 253.992187500000, 253.992187500000, 109.781250000000, 1490952281
0.451904296875, -2.497314453125, 0.806640625000, 253.992187500000, 253.992187500000, 109.781250000000, 1490952281
0.451904296875, -2.497314453125, 0.806640625000, 253.992187500000, 253.992187500000, 109.781250000000, 1490952281
0.191650390625, -1.302734375000, 0.427001953125, -256.000000000000, -163.812500000000, -102.148437500000, 1490952281
0.191650390625, -1.302734375000, 0.427001953125, -256.000000000000, -163.812500000000, -102.148437500000, 1490952281
0.191650390625, -1.302734375000, 0.427001953125, -256.000000000000, -163.812500000000, -102.148437500000, 1490952281
-0.128173828125, -0.898437500000, 0.372314453125, -228.867187500000, 240.968750000000, -23.171875000000, 1490952281
-0.128173828125, -0.898437500000, 0.372314453125, -228.867187500000, 240.968750000000, -23.171875000000, 1490952281
-0.128173828125, -0.898437500000, 0.372314453125, -228.867187500000, 240.968750000000, -23.171875000000, 1490952281
-0.128173828125, -0.898437500000, 0.372314453125, -228.867187500000, 240.968750000000, -23.171875000000, 1490952281
-0.055664062500, -0.389648437500, 0.136718750000, -67.304687500000, 253.992187500000, 39.000000000000, 1490952281
-0.055664062500, -0.389648437500, 0.136718750000, -67.304687500000, 253.992187500000, 39.000000000000, 1490952281
-0.055664062500, -0.389648437500, 0.136718750000, -67.304687500000, 253.992187500000, 39.000000000000, 1490952281
-0.018798828125, -0.022216796875, -0.071044921875, 68.734375000000, 253.992187500000, 3.492187500000, 1490952281
-0.018798828125, -0.022216796875, -0.071044921875, 68.734375000000, 253.992187500000, 3.492187500000, 1490952281
-0.018798828125, -0.022216796875, -0.071044921875, 68.734375000000, 253.992187500000, 3.492187500000, 1490952281
0.066650390625, -0.263427734375, -0.104736328125, 38.390625000000, 34.914062500000, -84.132812500000, 1490952281
0.066650390625, -0.263427734375, -0.104736328125, 38.390625000000, 34.914062500000, -84.132812500000, 1490952281
0.066650390625, -0.263427734375, -0.104736328125, 38.390625000000, 34.914062500000, -84.132812500000, 1490952281
-0.087402343750, -0.821044921875, -0.018554687500, -256.000000000000, -256.000000000000, -189.101562500000, 1490952281
-0.087402343750, -0.821044921875, -0.018554687500, -256.000000000000, -256.000000000000, -189.101562500000, 1490952281
-0.087402343750, -0.821044921875, -0.018554687500, -256.000000000000, -256.000000000000, -189.101562500000, 1490952281
-0.087402343750, -0.821044921875, -0.018554687500, -256.000000000000, -256.000000000000, -189.101562500000, 1490952281
-0.244873046875, -1.995605468750, 1.315185546875, 151.375000000000, -256.000000000000, -123.375000000000, 1490952281
-0.244873046875, -1.995605468750, 1.315185546875, 151.375000000000, -256.000000000000, -123.375000000000, 1490952281
-0.244873046875, -1.995605468750, 1.315185546875, 151.375000000000, -256.000000000000, -123.375000000000, 1490952281
0.136962890625, -1.888671875000, 0.458007812500, 253.992187500000, 117.789062500000, 45.609375000000, 1490952281
0.136962890625, -1.888671875000, 0.458007812500, 253.992187500000, 117.789062500000, 45.609375000000, 1490952281
0.136962890625, -1.888671875000, 0.458007812500, 253.992187500000, 117.789062500000, 45.609375000000, 1490952281
0.288085937500, -2.597412109375, 2.544921875000, 253.992187500000, -86.960937500000, -95.187500000000, 1490952281
0.288085937500, -2.597412109375, 2.544921875000, 253.992187500000, -86.960937500000, -95.187500000000, 1490952281
0.288085937500, -2.597412109375, 2.544921875000, 253.992187500000, -86.960937500000, -95.187500000000, 1490952281
-0.122314453125, -0.988525390625, 0.263183593750, -255.476562500000, -93.453125000000, 39.031250000000, 1490952281
-0.122314453125, -0.988525390625, 0.263183593750, -255.476562500000, -93.453125000000, 39.031250000000, 1490952281
-0.122314453125, -0.988525390625, 0.263183593750, -255.476562500000, -93.453125000000, 39.031250000000, 1490952281
-0.122314453125, -0.988525390625, 0.263183593750, -255.476562500000, -93.453125000000, 39.031250000000, 1490952281
0.063964843750, -0.565429687500, 0.203613281250, -176.039062500000, 103.437500000000, 18.898437500000, 1490952281
0.063964843750, -0.565429687500, 0.203613281250, -176.039062500000, 103.437500000000, 18.898437500000, 1490952281
0.063964843750, -0.565429687500, 0.203613281250, -176.039062500000, 103.437500000000, 18.898437500000, 1490952281
0.107910156250, -0.113037109375, 0.033447265625, -76.437500000000, 246.156250000000, -8.812500000000, 1490952281
0.107910156250, -0.113037109375, 0.033447265625, -76.437500000000, 246.156250000000, -8.812500000000, 1490952281
0.107910156250, -0.113037109375, 0.033447265625, -76.437500000000, 246.156250000000, -8.812500000000, 1490952281
0.057373046875, -0.043945312500, 0.144287109375, 28.867187500000, 253.992187500000, -27.234375000000, 1490952281
0.057373046875, -0.043945312500, 0.144287109375, 28.867187500000, 253.992187500000, -27.234375000000, 1490952281
0.057373046875, -0.043945312500, 0.144287109375, 28.867187500000, 253.992187500000, -27.234375000000, 1490952281
0.245117187500, -1.261718750000, -0.171630859375, -156.539062500000, 154.070312500000, -129.320312500000, 1490952281
0.245117187500, -1.261718750000, -0.171630859375, -156.539062500000, 154.070312500000, -129.320312500000, 1490952281
0.245117187500, -1.261718750000, -0.171630859375, -156.539062500000, 154.070312500000, -129.320312500000, 1490952281
0.245117187500, -1.261718750000, -0.171630859375, -156.539062500000, 154.070312500000, -129.320312500000, 1490952281
0.240478515625, -1.030761718750, 0.504150390625, -256.000000000000, -126.828125000000, -73.289062500000, 1490952281
0.240478515625, -1.030761718750, 0.504150390625, -256.000000000000, -126.828125000000, -73.289062500000, 1490952281
0.240478515625, -1.030761718750, 0.504150390625, -256.000000000000, -126.828125000000, -73.289062500000, 1490952281
0.385986328125, -1.709228515625, 0.500488281250, 211.015625000000, -256.000000000000, -42.187500000000, 1490952281
0.385986328125, -1.709228515625, 0.500488281250, 211.015625000000, -256.000000000000, -42.187500000000, 1490952281
0.385986328125, -1.709228515625, 0.500488281250, 211.015625000000, -256.000000000000, -42.187500000000, 1490952281
0.236328125000, -1.760986328125, 0.349121093750, 179.554687500000, -256.000000000000, -32.062500000000, 1490952281
0.236328125000, -1.760986328125, 0.349121093750, 179.554687500000, -256.000000000000, -32.062500000000, 1490952281
0.236328125000, -1.760986328125, 0.349121093750, 179.554687500000, -256.000000000000, -32.062500000000, 1490952281
-0.858886718750, -1.165527343750, 3.890136718750, -170.859375000000, -182.429687500000, -42.328125000000, 1490952281
-0.858886718750, -1.165527343750, 3.890136718750, -170.859375000000, -182.429687500000, -42.328125000000, 1490952281
-0.858886718750, -1.165527343750, 3.890136718750, -170.859375000000, -182.429687500000, -42.328125000000, 1490952281
-0.858886718750, -1.165527343750, 3.890136718750, -170.859375000000, -182.429687500000, -42.328125000000, 1490952281
0.132568359375, -1.038818359375, 0.169189453125, -256.000000000000, -61.265625000000, -76.148437500000, 1490952281
0.132568359375, -1.038818359375, 0.169189453125, -256.000000000000, -61.265625000000, -76.148437500000, 1490952281
0.132568359375, -1.038818359375, 0.169189453125, -256.000000000000, -61.265625000000, -76.148437500000, 1490952281
0.017333984375, -0.744628906250, 0.197265625000, -203.359375000000, 103.078125000000, -19.218750000000, 1490952281
0.017333984375, -0.744628906250, 0.197265625000, -203.359375000000, 103.078125000000, -19.218750000000, 1490952281
0.017333984375, -0.744628906250, 0.197265625000, -203.359375000000, 103.078125000000, -19.218750000000, 1490952281
-0.032958984375, -0.315429687500, 0.192626953125, -38.023437500000, 253.992187500000, -2.390625000000, 1490952282
-0.032958984375, -0.315429687500, 0.192626953125, -38.023437500000, 253.992187500000, -2.390625000000, 1490952282
-0.032958984375, -0.315429687500, 0.192626953125, -38.023437500000, 253.992187500000, -2.390625000000, 1490952282
0.026123046875, -0.019042968750, -0.087646484375, 103.429687500000, 247.867187500000, -3.000000000000, 1490952282
0.026123046875, -0.019042968750, -0.087646484375, 103.429687500000, 247.867187500000, -3.000000000000, 1490952282
0.026123046875, -0.019042968750, -0.087646484375, 103.429687500000, 247.867187500000, -3.000000000000, 1490952282
0.026123046875, -0.019042968750, -0.087646484375, 103.429687500000, 247.867187500000, -3.000000000000, 1490952282
0.005859375000, -0.635986328125, -0.380371093750, -134.125000000000, -100.195312500000, -61.296875000000, 1490952282
0.005859375000, -0.635986328125, -0.380371093750, -134.125000000000, -100.195312500000, -61.296875000000, 1490952282
0.005859375000, -0.635986328125, -0.380371093750, -134.125000000000, -100.195312500000, -61.296875000000, 1490952282
-0.273193359375, -1.275390625000, 0.214843750000, -256.000000000000, -256.000000000000, -205.007812500000, 1490952282
-0.273193359375, -1.275390625000, 0.214843750000, -256.000000000000, -256.000000000000, -205.007812500000, 1490952282
-0.273193359375, -1.275390625000, 0.214843750000, -256.000000000000, -256.000000000000, -205.007812500000, 1490952282
-0.230224609375, -0.980224609375, 0.806884765625, 253.992187500000, -181.437500000000, -123.851562500000, 1490952282
-0.230224609375, -0.980224609375, 0.806884765625, 253.992187500000, -181.437500000000, -123.851562500000, 1490952282
-0.230224609375, -0.980224609375, 0.806884765625, 253.992187500000, -181.437500000000, -123.851562500000, 1490952282
0.484863281250, -2.704101562500, 3.161621093750, 253.992187500000, 246.609375000000, -56.851562500000, 1490952282
0.484863281250, -2.704101562500, 3.161621093750, 253.992187500000, 246.609375000000, -56.851562500000, 1490952282
0.484863281250, -2.704101562500, 3.161621093750, 253.992187500000, 246.609375000000, -56.851562500000, 1490952282
0.484863281250, -2.704101562500, 3.161621093750, 253.992187500000, 246.609375000000, -56.851562500000, 1490952282
0.273681640625, -1.134521484375, 1.464843750000, -171.328125000000, 60.976562500000, 6.492187500000, 1490952282
0.273681640625, -1.134521484375, 1.464843750000, -171.328125000000, 60.976562500000, 6.492187500000, 1490952282
0.273681640625, -1.134521484375, 1.464843750000, -171.328125000000, 60.976562500000, 6.492187500000, 1490952282
-0.044189453125, -1.315917968750, 0.476562500000, -248.195312500000, 110.570312500000, 55.343750000000, 1490952282
-0.016113281250, -0.394531250000, 0.210205078125, -76.203125000000, 219.632812500000, 9.101562500000, 1490952282
-0.016113281250, -0.394531250000, 0.210205078125, -76.203125000000, 219.632812500000, 9.101562500000, 1490952282
-0.016113281250, -0.394531250000, 0.210205078125, -76.203125000000, 219.632812500000, 9.101562500000, 1490952282
-0.016113281250, -0.394531250000, 0.210205078125, -76.203125000000, 219.632812500000, 9.101562500000, 1490952282
-0.016113281250, -0.394531250000, 0.210205078125, -76.203125000000, 219.632812500000, 9.101562500000, 1490952282
-0.016113281250, -0.394531250000, 0.210205078125, -76.203125000000, 219.632812500000, 9.101562500000, 1490952282
0.112548828125, -0.028320312500, 0.041992187500, 56.492187500000, 253.992187500000, 1.695312500000, 1490952282
0.112548828125, -0.028320312500, 0.041992187500, 56.492187500000, 253.992187500000, 1.695312500000, 1490952282
0.112548828125, -0.028320312500, 0.041992187500, 56.492187500000, 253.992187500000, 1.695312500000, 1490952282
0.030517578125, -0.350097656250, -0.144775390625, 23.929687500000, 253.992187500000, -65.015625000000, 1490952282
0.030517578125, -0.350097656250, -0.144775390625, 23.929687500000, 253.992187500000, -65.015625000000, 1490952282
0.030517578125, -0.350097656250, -0.144775390625, 23.929687500000, 253.992187500000, -65.015625000000, 1490952282
0.260498046875, -1.102294921875, -0.163085937500, -256.000000000000, -118.382812500000, -171.429687500000, 1490952282
0.260498046875, -1.102294921875, -0.163085937500, -256.000000000000, -118.382812500000, -171.429687500000, 1490952282
0.260498046875, -1.102294921875, -0.163085937500, -256.000000000000, -118.382812500000, -171.429687500000, 1490952282
0.169677734375, -1.216552734375, -0.036865234375, -256.000000000000, -203.289062500000, -121.265625000000, 1490952282
0.229248046875, -1.231689453125, 0.384765625000, 106.906250000000, -256.000000000000, -137.796875000000, 1490952282
0.229248046875, -1.231689453125, 0.384765625000, 106.906250000000, -256.000000000000, -137.796875000000, 1490952282
0.229248046875, -1.231689453125, 0.384765625000, 106.906250000000, -256.000000000000, -137.796875000000, 1490952282
0.229248046875, -1.231689453125, 0.384765625000, 106.906250000000, -256.000000000000, -137.796875000000, 1490952282
0.229248046875, -1.231689453125, 0.384765625000, 106.906250000000, -256.000000000000, -137.796875000000, 1490952282
0.229248046875, -1.231689453125, 0.384765625000, 106.906250000000, -256.000000000000, -137.796875000000, 1490952282
0.451904296875, -1.874511718750, 2.901611328125, 251.156250000000, 253.992187500000, -17.078125000000, 1490952282
0.451904296875, -1.874511718750, 2.901611328125, 251.156250000000, 253.992187500000, -17.078125000000, 1490952282
0.451904296875, -1.874511718750, 2.901611328125, 251.156250000000, 253.992187500000, -17.078125000000, 1490952282
-0.553222656250, -1.393310546875, 2.212402343750, 27.234375000000, 63.960937500000, 27.828125000000, 1490952282
-0.553222656250, -1.393310546875, 2.212402343750, 27.234375000000, 63.960937500000, 27.828125000000, 1490952282
-0.553222656250, -1.393310546875, 2.212402343750, 27.234375000000, 63.960937500000, 27.828125000000, 1490952282
-0.212890625000, -1.158203125000, 0.829589843750, -256.000000000000, -97.828125000000, -112.648437500000, 1490952282
0.059082031250, -0.639892578125, 0.334716796875, -65.117187500000, 253.992187500000, -7.414062500000, 1490952282
0.059082031250, -0.639892578125, 0.334716796875, -65.117187500000, 253.992187500000, -7.414062500000, 1490952282
0.059082031250, -0.639892578125, 0.334716796875, -65.117187500000, 253.992187500000, -7.414062500000, 1490952282
0.059082031250, -0.639892578125, 0.334716796875, -65.117187500000, 253.992187500000, -7.414062500000, 1490952282
0.059082031250, -0.639892578125, 0.334716796875, -65.117187500000, 253.992187500000, -7.414062500000, 1490952282
-0.071533203125, -0.135986328125, 0.035644531250, -22.078125000000, 253.992187500000, -12.335937500000, 1490952282
-0.071533203125, -0.135986328125, 0.035644531250, -22.078125000000, 253.992187500000, -12.335937500000, 1490952282
-0.071533203125, -0.135986328125, 0.035644531250, -22.078125000000, 253.992187500000, -12.335937500000, 1490952282
-0.071533203125, -0.135986328125, 0.035644531250, -22.078125000000, 253.992187500000, -12.335937500000, 1490952282
-0.050048828125, -0.114746093750, 0.006103515625, -21.078125000000, 240.250000000000, -26.507812500000, 1490952282
-0.050048828125, -0.114746093750, 0.006103515625, -21.078125000000, 240.250000000000, -26.507812500000, 1490952282
-0.050048828125, -0.114746093750, 0.006103515625, -21.078125000000, 240.250000000000, -26.507812500000, 1490952282
0.008056640625, -0.348388671875, -0.133544921875, -75.226562500000, 0.210937500000, -51.882812500000, 1490952283
0.008056640625, -0.348388671875, -0.133544921875, -75.226562500000, 0.210937500000, -51.882812500000, 1490952283
0.008056640625, -0.348388671875, -0.133544921875, -75.226562500000, 0.210937500000, -51.882812500000, 1490952283
0.273925781250, -1.412841796875, 0.474121093750, -256.000000000000, -256.000000000000, -35.226562500000, 1490952283
0.273925781250, -1.412841796875, 0.474121093750, -256.000000000000, -256.000000000000, -35.226562500000, 1490952283
0.273925781250, -1.412841796875, 0.474121093750, -256.000000000000, -256.000000000000, -35.226562500000, 1490952283
0.273925781250, -1.412841796875, 0.474121093750, -256.000000000000, -256.000000000000, -35.226562500000, 1490952283
0.107421875000, -1.818115234375, 0.701904296875, 253.992187500000, -256.000000000000, -256.000000000000, 1490952283
0.107421875000, -1.818115234375, 0.701904296875, 253.992187500000, -256.000000000000, -256.000000000000, 1490952283
0.107421875000, -1.818115234375, 0.701904296875, 253.992187500000, -256.000000000000, -256.000000000000, 1490952283
-0.146484375000, -1.586914062500, 1.626464843750, 253.992187500000, 254.929687500000, -10.906250000000, 1490952283
-0.146484375000, -1.586914062500, 1.626464843750, 253.992187500000, 254.929687500000, -10.906250000000, 1490952283
-0.146484375000, -1.586914062500, 1.626464843750, 253.992187500000, 254.929687500000, -10.906250000000, 1490952283
0.268798828125, -0.432861328125, 5.387451171875, 141.671875000000, -256.000000000000, -93.328125000000, 1490952283
0.268798828125, -0.432861328125, 5.387451171875, 141.671875000000, -256.000000000000, -93.328125000000, 1490952283
0.268798828125, -0.432861328125, 5.387451171875, 141.671875000000, -256.000000000000, -93.328125000000, 1490952283
0.062011718750, -1.050537109375, 0.448730468750, -185.062500000000, 51.656250000000, 23.585937500000, 1490952283
0.062011718750, -1.050537109375, 0.448730468750, -185.062500000000, 51.656250000000, 23.585937500000, 1490952283
0.062011718750, -1.050537109375, 0.448730468750, -185.062500000000, 51.656250000000, 23.585937500000, 1490952283
0.062011718750, -1.050537109375, 0.448730468750, -185.062500000000, 51.656250000000, 23.585937500000, 1490952283
0.088134765625, -0.638671875000, 0.217529296875, -28.585937500000, 220.289062500000, 68.359375000000, 1490952283
0.088134765625, -0.638671875000, 0.217529296875, -28.585937500000, 220.289062500000, 68.359375000000, 1490952283
0.088134765625, -0.638671875000, 0.217529296875, -28.585937500000, 220.289062500000, 68.359375000000, 1490952283
0.054687500000, -0.139160156250, 0.153320312500, 89.585937500000, 253.992187500000, 18.460937500000, 1490952283
0.054687500000, -0.139160156250, 0.153320312500, 89.585937500000, 253.992187500000, 18.460937500000, 1490952283
0.054687500000, -0.139160156250, 0.153320312500, 89.585937500000, 253.992187500000, 18.460937500000, 1490952283
0.140380859375, -0.088867187500, -0.064941406250, 110.234375000000, 253.992187500000, -15.078125000000, 1490952283
0.140380859375, -0.088867187500, -0.064941406250, 110.234375000000, 253.992187500000, -15.078125000000, 1490952283
0.140380859375, -0.088867187500, -0.064941406250, 110.234375000000, 253.992187500000, -15.078125000000, 1490952283
0.233398437500, -0.925537109375, -0.223876953125, -256.000000000000, -11.921875000000, -134.156250000000, 1490952283
0.233398437500, -0.925537109375, -0.223876953125, -256.000000000000, -11.921875000000, -134.156250000000, 1490952283
0.233398437500, -0.925537109375, -0.223876953125, -256.000000000000, -11.921875000000, -134.156250000000, 1490952283
0.233398437500, -0.925537109375, -0.223876953125, -256.000000000000, -11.921875000000, -134.156250000000, 1490952283
0.315429687500, -1.533935546875, 0.698242187500, -256.000000000000, -246.007812500000, 52.296875000000, 1490952283
0.315429687500, -1.533935546875, 0.698242187500, -256.000000000000, -246.007812500000, 52.296875000000, 1490952283
0.315429687500, -1.533935546875, 0.698242187500, -256.000000000000, -246.007812500000, 52.296875000000, 1490952283
0.483398437500, -1.494140625000, 0.441894531250, 161.695312500000, -256.000000000000, -150.109375000000, 1490952283
0.483398437500, -1.494140625000, 0.441894531250, 161.695312500000, -256.000000000000, -150.109375000000, 1490952283
0.483398437500, -1.494140625000, 0.441894531250, 161.695312500000, -256.000000000000, -150.109375000000, 1490952283
0.333984375000, -1.646240234375, 0.596923828125, 37.875000000000, -113.640625000000, 41.601562500000, 1490952283
0.333984375000, -1.646240234375, 0.596923828125, 37.875000000000, -113.640625000000, 41.601562500000, 1490952283
0.333984375000, -1.646240234375, 0.596923828125, 37.875000000000, -113.640625000000, 41.601562500000, 1490952283
-0.111083984375, -0.865722656250, 2.255126953125, 253.992187500000, 253.992187500000, 87.039062500000, 1490952283
-0.111083984375, -0.865722656250, 2.255126953125, 253.992187500000, 253.992187500000, 87.039062500000, 1490952283
-0.111083984375, -0.865722656250, 2.255126953125, 253.992187500000, 253.992187500000, 87.039062500000, 1490952283
-0.111083984375, -0.865722656250, 2.255126953125, 253.992187500000, 253.992187500000, 87.039062500000, 1490952283
0.187500000000, -0.956054687500, 0.561279296875, -256.000000000000, -53.648437500000, -71.671875000000, 1490952283
0.187500000000, -0.956054687500, 0.561279296875, -256.000000000000, -53.648437500000, -71.671875000000, 1490952283
0.187500000000, -0.956054687500, 0.561279296875, -256.000000000000, -53.648437500000, -71.671875000000, 1490952283
0.135253906250, -0.835449218750, 0.280761718750, -170.929687500000, 167.031250000000, -45.445312500000, 1490952283
0.135253906250, -0.835449218750, 0.280761718750, -170.929687500000, 167.031250000000, -45.445312500000, 1490952283
0.135253906250, -0.835449218750, 0.280761718750, -170.929687500000, 167.031250000000, -45.445312500000, 1490952283
0.052001953125, -0.568603515625, 0.239990234375, -17.226562500000, 241.234375000000, 0.039062500000, 1490952283
0.052001953125, -0.568603515625, 0.239990234375, -17.226562500000, 241.234375000000, 0.039062500000, 1490952283
0.021972656250, -0.210937500000, 0.093505859375, 49.945312500000, 253.992187500000, -23.117187500000, 1490952283
-0.005371093750, -0.048339843750, 0.020019531250, 2.343750000000, 253.992187500000, -26.562500000000, 1490952283
-0.019042968750, -0.081298828125, 0.026123046875, -19.078125000000, 161.046875000000, -27.125000000000, 1490952283
0.050781250000, -0.169921875000, -0.137207031250, -52.710937500000, 97.710937500000, -35.156250000000, 1490952283
0.050781250000, -0.169921875000, -0.137207031250, -52.710937500000, 97.710937500000, -35.156250000000, 1490952283
0.050781250000, -0.169921875000, -0.137207031250, -52.710937500000, 97.710937500000, -35.156250000000, 1490952283
0.050781250000, -0.169921875000, -0.137207031250, -52.710937500000, 97.710937500000, -35.156250000000, 1490952283
0.050781250000, -0.169921875000, -0.137207031250, -52.710937500000, 97.710937500000, -35.156250000000, 1490952283
0.144287109375, -1.264892578125, -0.073242187500, -256.000000000000, -256.000000000000, -147.632812500000, 1490952283
0.144287109375, -1.264892578125, -0.073242187500, -256.000000000000, -256.000000000000, -147.632812500000, 1490952283
0.144287109375, -1.264892578125, -0.073242187500, -256.000000000000, -256.000000000000, -147.632812500000, 1490952283
0.257568359375, -1.524169921875, 0.972656250000, 25.617187500000, -256.000000000000, -74.617187500000, 1490952283
0.257568359375, -1.524169921875, 0.972656250000, 25.617187500000, -256.000000000000, -74.617187500000, 1490952283
0.257568359375, -1.524169921875, 0.972656250000, 25.617187500000, -256.000000000000, -74.617187500000, 1490952283
-0.270751953125, -1.290039062500, 1.219482421875, 244.187500000000, -13.039062500000, -86.601562500000, 1490952284
-0.270751953125, -1.290039062500, 1.219482421875, 244.187500000000, -13.039062500000, -86.601562500000, 1490952284
-0.270751953125, -1.290039062500, 1.219482421875, 244.187500000000, -13.039062500000, -86.601562500000, 1490952284
-0.270751953125, -1.290039062500, 1.219482421875, 244.187500000000, -13.039062500000, -86.601562500000, 1490952284
0.456542968750, -0.572509765625, 4.144775390625, 204.218750000000, -165.890625000000, -87.234375000000, 1490952284
0.456542968750, -0.572509765625, 4.144775390625, 204.218750000000, -165.890625000000, -87.234375000000, 1490952284
0.456542968750, -0.572509765625, 4.144775390625, 204.218750000000, -165.890625000000, -87.234375000000, 1490952284
-0.006591796875, -1.164794921875, 0.591552734375, -256.000000000000, -40.859375000000, -12.804687500000, 1490952284
-0.006591796875, -1.164794921875, 0.591552734375, -256.000000000000, -40.859375000000, -12.804687500000, 1490952284
-0.006591796875, -1.164794921875, 0.591552734375, -256.000000000000, -40.859375000000, -12.804687500000, 1490952284
0.044677734375, -0.900390625000, 0.372558593750, -124.921875000000, 173.265625000000, 57.773437500000, 1490952284
0.044677734375, -0.900390625000, 0.372558593750, -124.921875000000, 173.265625000000, 57.773437500000, 1490952284
0.044677734375, -0.900390625000, 0.372558593750, -124.921875000000, 173.265625000000, 57.773437500000, 1490952284
0.141601562500, -0.290283203125, 0.067382812500, 57.882812500000, 238.742187500000, 19.984375000000, 1490952284
0.141601562500, -0.290283203125, 0.067382812500, 57.882812500000, 238.742187500000, 19.984375000000, 1490952284
0.141601562500, -0.290283203125, 0.067382812500, 57.882812500000, 238.742187500000, 19.984375000000, 1490952284
0.141601562500, -0.290283203125, 0.067382812500, 57.882812500000, 238.742187500000, 19.984375000000, 1490952284
0.047607421875, -0.159423828125, 0.020996093750, 23.109375000000, 253.992187500000, 37.515625000000, 1490952284
0.047607421875, -0.159423828125, 0.020996093750, 23.109375000000, 253.992187500000, 37.515625000000, 1490952284
0.047607421875, -0.159423828125, 0.020996093750, 23.109375000000, 253.992187500000, 37.515625000000, 1490952284
-0.023925781250, -0.150146484375, 0.031005859375, 13.687500000000, 219.929687500000, -49.359375000000, 1490952284
-0.023925781250, -0.150146484375, 0.031005859375, 13.687500000000, 219.929687500000, -49.359375000000, 1490952284
-0.023925781250, -0.150146484375, 0.031005859375, 13.687500000000, 219.929687500000, -49.359375000000, 1490952284
0.251708984375, -1.156738281250, -0.214355468750, -256.000000000000, -42.257812500000, -101.953125000000, 1490952284
0.251708984375, -1.156738281250, -0.214355468750, -256.000000000000, -42.257812500000, -101.953125000000, 1490952284
0.251708984375, -1.156738281250, -0.214355468750, -256.000000000000, -42.257812500000, -101.953125000000, 1490952284
0.485595703125, -1.523437500000, 0.461181640625, 137.257812500000, -256.000000000000, 67.375000000000, 1490952284
0.485595703125, -1.523437500000, 0.461181640625, 137.257812500000, -256.000000000000, 67.375000000000, 1490952284
0.485595703125, -1.523437500000, 0.461181640625, 137.257812500000, -256.000000000000, 67.375000000000, 1490952284
0.393066406250, -1.340332031250, 0.593017578125, 61.382812500000, -220.039062500000, -100.515625000000, 1490952284
0.393066406250, -1.340332031250, 0.593017578125, 61.382812500000, -220.039062500000, -100.515625000000, 1490952284
0.393066406250, -1.340332031250, 0.593017578125, 61.382812500000, -220.039062500000, -100.515625000000, 1490952284
0.393066406250, -1.340332031250, 0.593017578125, 61.382812500000, -220.039062500000, -100.515625000000, 1490952284
0.419921875000, -2.432617187500, 0.787109375000, 253.992187500000, 253.992187500000, 253.992187500000, 1490952284
0.419921875000, -2.432617187500, 0.787109375000, 253.992187500000, 253.992187500000, 253.992187500000, 1490952284
0.419921875000, -2.432617187500, 0.787109375000, 253.992187500000, 253.992187500000, 253.992187500000, 1490952284
0.143066406250, -1.324462890625, 0.766357421875, -256.000000000000, -86.632812500000, -125.523437500000, 1490952284
0.143066406250, -1.324462890625, 0.766357421875, -256.000000000000, -86.632812500000, -125.523437500000, 1490952284
0.143066406250, -1.324462890625, 0.766357421875, -256.000000000000, -86.632812500000, -125.523437500000, 1490952284
0.121582031250, -0.903564453125, 0.273925781250, -133.812500000000, 154.242187500000, -29.289062500000, 1490952284
0.121582031250, -0.903564453125, 0.273925781250, -133.812500000000, 154.242187500000, -29.289062500000, 1490952284
0.121582031250, -0.903564453125, 0.273925781250, -133.812500000000, 154.242187500000, -29.289062500000, 1490952284
0.121582031250, -0.903564453125, 0.273925781250, -133.812500000000, 154.242187500000, -29.289062500000, 1490952284
0.128906250000, -0.403808593750, 0.114746093750, 40.343750000000, 253.992187500000, 26.343750000000, 1490952284
0.128906250000, -0.403808593750, 0.114746093750, 40.343750000000, 253.992187500000, 26.343750000000, 1490952284
0.128906250000, -0.403808593750, 0.114746093750, 60.953125000000, 253.992187500000, 21.046875000000, 1490952284
0.049316406250, -0.087158203125, 0.031982421875, 68.101562500000, 253.992187500000, -3.000000000000, 1490952284
0.049316406250, -0.087158203125, 0.031982421875, 68.101562500000, 253.992187500000, -3.000000000000, 1490952284
0.049316406250, -0.087158203125, 0.031982421875, 68.101562500000, 253.992187500000, -3.000000000000, 1490952284
0.093505859375, -0.159179687500, -0.078125000000, 22.335937500000, 218.375000000000, -22.796875000000, 1490952284
0.093505859375, -0.159179687500, -0.078125000000, 22.335937500000, 218.375000000000, -22.796875000000, 1490952284
0.093505859375, -0.159179687500, -0.078125000000, 22.335937500000, 218.375000000000, -22.796875000000, 1490952284
0.159423828125, -1.411376953125, -0.167968750000, -256.000000000000, -256.000000000000, -228.398437500000, 1490952284
0.159423828125, -1.411376953125, -0.167968750000, -256.000000000000, -256.000000000000, -228.398437500000, 1490952284
0.159423828125, -1.411376953125, -0.167968750000, -256.000000000000, -256.000000000000, -228.398437500000, 1490952284
0.159423828125, -1.411376953125, -0.167968750000, -256.000000000000, -256.000000000000, -228.398437500000, 1490952284
0.466064453125, -1.483398437500, 0.948486328125, 18.179687500000, -256.000000000000, -31.695312500000, 1490952284
0.466064453125, -1.483398437500, 0.948486328125, 18.179687500000, -256.000000000000, -31.695312500000, 1490952284
0.466064453125, -1.483398437500, 0.948486328125, 18.179687500000, -256.000000000000, -31.695312500000, 1490952284
0.208740234375, -1.266601562500, 0.522949218750, 156.867187500000, -216.921875000000, -203.500000000000, 1490952284
0.208740234375, -1.266601562500, 0.522949218750, 156.867187500000, -216.921875000000, -203.500000000000, 1490952284
0.208740234375, -1.266601562500, 0.522949218750, 156.867187500000, -216.921875000000, -203.500000000000, 1490952284
0.271972656250, -1.664306640625, 1.317138671875, 253.992187500000, 253.992187500000, 73.492187500000, 1490952284
0.271972656250, -1.664306640625, 1.317138671875, 253.992187500000, 253.992187500000, 73.492187500000, 1490952284
0.271972656250, -1.664306640625, 1.317138671875, 253.992187500000, 253.992187500000, 73.492187500000, 1490952284
-0.021240234375, -0.601806640625, 2.831054687500, 68.054687500000, -256.000000000000, -182.914062500000, 1490952285
-0.021240234375, -0.601806640625, 2.831054687500, 68.054687500000, -256.000000000000, -182.914062500000, 1490952285
-0.021240234375, -0.601806640625, 2.831054687500, 68.054687500000, -256.000000000000, -182.914062500000, 1490952285
-0.021240234375, -0.601806640625, 2.831054687500, 68.054687500000, -256.000000000000, -182.914062500000, 1490952285
0.316406250000, -0.993652343750, 0.374267578125, -246.695312500000, 1.937500000000, -3.195312500000, 1490952285
0.316406250000, -0.993652343750, 0.374267578125, -246.695312500000, 1.937500000000, -3.195312500000, 1490952285
0.316406250000, -0.993652343750, 0.374267578125, -246.695312500000, 1.937500000000, -3.195312500000, 1490952285
0.115966796875, -0.765869140625, 0.196289062500, -149.656250000000, 46.726562500000, 42.453125000000, 1490952285
0.115966796875, -0.765869140625, 0.196289062500, -149.656250000000, 46.726562500000, 42.453125000000, 1490952285
0.115966796875, -0.765869140625, 0.196289062500, -149.656250000000, 46.726562500000, 42.453125000000, 1490952285
0.101806640625, -0.451171875000, 0.128417968750, -49.359375000000, 142.054687500000, -5.054687500000, 1490952285
0.101806640625, -0.451171875000, 0.128417968750, -49.359375000000, 142.054687500000, -5.054687500000, 1490952285
0.101806640625, -0.451171875000, 0.128417968750, -49.359375000000, 142.054687500000, -5.054687500000, 1490952285
0.109619140625, -0.176025390625, -0.029785156250, 27.703125000000, 243.570312500000, -45.414062500000, 1490952285
0.109619140625, -0.176025390625, -0.029785156250, 27.703125000000, 243.570312500000, -45.414062500000, 1490952285
0.109619140625, -0.176025390625, -0.029785156250, 27.703125000000, 243.570312500000, -45.414062500000, 1490952285
0.109619140625, -0.176025390625, -0.029785156250, 27.703125000000, 243.570312500000, -45.414062500000, 1490952285
0.130126953125, -0.300048828125, -0.075439453125, 8.062500000000, 223.875000000000, -45.406250000000, 1490952285
0.130126953125, -0.300048828125, -0.075439453125, 8.062500000000, 223.875000000000, -45.406250000000, 1490952285
0.130126953125, -0.300048828125, -0.075439453125, 8.062500000000, 223.875000000000, -45.406250000000, 1490952285
0.337890625000, -1.437744140625, -0.038085937500, -256.000000000000, 39.000000000000, 0.953125000000, 1490952285
0.337890625000, -1.437744140625, -0.038085937500, -256.000000000000, 39.000000000000, 0.953125000000, 1490952285
0.337890625000, -1.437744140625, -0.038085937500, -256.000000000000, 39.000000000000, 0.953125000000, 1490952285
0.691162109375, -1.571533203125, 0.271972656250, 127.054687500000, -256.000000000000, -29.992187500000, 1490952285
0.691162109375, -1.571533203125, 0.271972656250, 127.054687500000, -256.000000000000, -29.992187500000, 1490952285
0.691162109375, -1.571533203125, 0.271972656250, 127.054687500000, -256.000000000000, -29.992187500000, 1490952285
0.691162109375, -1.571533203125, 0.271972656250, 127.054687500000, -256.000000000000, -29.992187500000, 1490952285
0.345458984375, -1.372070312500, 0.433349609375, 90.507812500000, -222.390625000000, -23.757812500000, 1490952285
0.345458984375, -1.372070312500, 0.433349609375, 90.507812500000, -222.390625000000, -23.757812500000, 1490952285
0.345458984375, -1.372070312500, 0.433349609375, 90.507812500000, -222.390625000000, -23.757812500000, 1490952285
-0.025878906250, -1.912109375000, 1.848388671875, 253.992187500000, 253.992187500000, 107.312500000000, 1490952285
-0.025878906250, -1.912109375000, 1.848388671875, 253.992187500000, 253.992187500000, 107.312500000000, 1490952285
-0.025878906250, -1.912109375000, 1.848388671875, 253.992187500000, 253.992187500000, 107.312500000000, 1490952285
0.049804687500, -1.109130859375, 0.502929687500, -256.000000000000, -130.414062500000, -121.382812500000, 1490952285
0.049804687500, -1.109130859375, 0.502929687500, -256.000000000000, -130.414062500000, -121.382812500000, 1490952285
0.049804687500, -1.109130859375, 0.502929687500, -256.000000000000, -130.414062500000, -121.382812500000, 1490952285
0.187744140625, -0.594726562500, 0.260253906250, -133.296875000000, 248.984375000000, -72.257812500000, 1490952285
0.187744140625, -0.594726562500, 0.260253906250, -133.296875000000, 248.984375000000, -72.257812500000, 1490952285
0.187744140625, -0.594726562500, 0.260253906250, -133.296875000000, 248.984375000000, -72.257812500000, 1490952285
0.187744140625, -0.594726562500, 0.260253906250, -133.296875000000, 248.984375000000, -72.257812500000, 1490952285
0.088623046875, -0.221679687500, 0.122558593750, 20.695312500000, 253.992187500000, 30.046875000000, 1490952285
0.088623046875, -0.221679687500, 0.122558593750, 20.695312500000, 253.992187500000, 30.046875000000, 1490952285
0.088623046875, -0.221679687500, 0.122558593750, 20.695312500000, 253.992187500000, 30.046875000000, 1490952285
0.072021484375, -0.054687500000, -0.002197265625, 18.625000000000, 253.992187500000, 1.398437500000, 1490952285
0.072021484375, -0.054687500000, -0.002197265625, 18.625000000000, 253.992187500000, 1.398437500000, 1490952285
0.072021484375, -0.054687500000, -0.002197265625, 18.625000000000, 253.992187500000, 1.398437500000, 1490952285
0.155273437500, -0.116943359375, -0.297363281250, 91.289062500000, -151.640625000000, 195.398437500000, 1490952285
0.155273437500, -0.116943359375, -0.297363281250, 91.289062500000, -151.640625000000, 195.398437500000, 1490952285
0.155273437500, -0.116943359375, -0.297363281250, 91.289062500000, -151.640625000000, 195.398437500000, 1490952285
0.149169921875, -0.867675781250, 0.052246093750, -256.000000000000, -256.000000000000, -254.203125000000, 1490952285
0.149169921875, -0.867675781250, 0.052246093750, -256.000000000000, -256.000000000000, -254.203125000000, 1490952285
0.149169921875, -0.867675781250, 0.052246093750, -256.000000000000, -256.000000000000, -254.203125000000, 1490952285
0.149169921875, -0.867675781250, 0.052246093750, -256.000000000000, -256.000000000000, -254.203125000000, 1490952285
0.365966796875, -1.854980468750, 1.222900390625, 46.687500000000, -256.000000000000, -159.781250000000, 1490952285
0.365966796875, -1.854980468750, 1.222900390625, 46.687500000000, -256.000000000000, -159.781250000000, 1490952285
0.365966796875, -1.854980468750, 1.222900390625, 46.687500000000, -256.000000000000, -159.781250000000, 1490952285
0.233154296875, -1.415283203125, 0.842285156250, 253.992187500000, 206.976562500000, -98.085937500000, 1490952285
0.233154296875, -1.415283203125, 0.842285156250, 253.992187500000, 206.976562500000, -98.085937500000, 1490952285
0.233154296875, -1.415283203125, 0.842285156250, 253.992187500000, 206.976562500000, -98.085937500000, 1490952285
-0.240966796875, -1.207763671875, 1.781250000000, 253.992187500000, -96.656250000000, 35.992187500000, 1490952285
-0.240966796875, -1.207763671875, 1.781250000000, 253.992187500000, -96.656250000000, 35.992187500000, 1490952285
-0.240966796875, -1.207763671875, 1.781250000000, 253.992187500000, -96.656250000000, 35.992187500000, 1490952285
0.199951171875, -1.178222656250, 0.462890625000, -256.000000000000, -113.328125000000, -17.257812500000, 1490952285
0.199951171875, -1.178222656250, 0.462890625000, -256.000000000000, -113.328125000000, -17.257812500000, 1490952285
0.199951171875, -1.178222656250, 0.462890625000, -256.000000000000, -113.328125000000, -17.257812500000, 1490952285
0.199951171875, -1.178222656250, 0.462890625000, -256.000000000000, -113.328125000000, -17.257812500000, 1490952285
0.058349609375, -0.756591796875, 0.246337890625, -70.679687500000, 147.101562500000, 48.117187500000, 1490952285
0.058349609375, -0.756591796875, 0.246337890625, -70.679687500000, 147.101562500000, 48.117187500000, 1490952285
0.058349609375, -0.756591796875, 0.246337890625, -70.679687500000, 147.101562500000, 48.117187500000, 1490952285
0.166259765625, -0.296875000000, 0.212646484375, 39.164062500000, 253.992187500000, 34.375000000000, 1490952286
0.166259765625, -0.296875000000, 0.212646484375, 39.164062500000, 253.992187500000, 34.375000000000, 1490952286
0.166259765625, -0.296875000000, 0.212646484375, 39.164062500000, 253.992187500000, 34.375000000000, 1490952286
0.162841796875, -0.314208984375, 0.061035156250, 87.601562500000, 253.992187500000, 25.773437500000, 1490952286
0.064697265625, -0.202148437500, 0.069580078125, 106.570312500000, 253.992187500000, -17.250000000000, 1490952286
0.064697265625, -0.202148437500, 0.069580078125, 106.570312500000, 253.992187500000, -17.250000000000, 1490952286
0.064697265625, -0.202148437500, 0.069580078125, 106.570312500000, 253.992187500000, -17.250000000000, 1490952286
0.122802734375, -0.877441406250, -0.106201171875, -141.781250000000, 99.085937500000, -63.257812500000, 1490952286
0.122802734375, -0.877441406250, -0.106201171875, -141.781250000000, 99.085937500000, -63.257812500000, 1490952286
0.122802734375, -0.877441406250, -0.106201171875, -141.781250000000, 99.085937500000, -63.257812500000, 1490952286
0.122802734375, -0.877441406250, -0.106201171875, -141.781250000000, 99.085937500000, -63.257812500000, 1490952286
0.122802734375, -0.877441406250, -0.106201171875, -141.781250000000, 99.085937500000, -63.257812500000, 1490952286
0.432128906250, -1.509033203125, 0.282470703125, -235.351562500000, -256.000000000000, 105.945312500000, 1490952286
0.432128906250, -1.509033203125, 0.282470703125, -235.351562500000, -256.000000000000, 105.945312500000, 1490952286
0.432128906250, -1.509033203125, 0.282470703125, -235.351562500000, -256.000000000000, 105.945312500000, 1490952286
0.432128906250, -1.509033203125, 0.282470703125, -235.351562500000, -256.000000000000, 105.945312500000, 1490952286
0.716552734375, -1.969238281250, 0.592773437500, -57.960937500000, -256.000000000000, -121.257812500000, 1490952286
0.716552734375, -1.969238281250, 0.592773437500, -57.960937500000, -256.000000000000, -121.257812500000, 1490952286
0.716552734375, -1.969238281250, 0.592773437500, -57.960937500000, -256.000000000000, -121.257812500000, 1490952286
0.388427734375, -1.921630859375, 1.372802734375, 253.992187500000, 253.992187500000, 160.757812500000, 1490952286
0.388427734375, -1.921630859375, 1.372802734375, 253.992187500000, 253.992187500000, 160.757812500000, 1490952286
0.388427734375, -1.921630859375, 1.372802734375, 253.992187500000, 253.992187500000, 160.757812500000, 1490952286
0.050781250000, -1.312988281250, 0.715820312500, -241.296875000000, -13.171875000000, -60.500000000000, 1490952286
0.050781250000, -1.312988281250, 0.715820312500, -241.296875000000, -13.171875000000, -60.500000000000, 1490952286
0.050781250000, -1.312988281250, 0.715820312500, -241.296875000000, -13.171875000000, -60.500000000000, 1490952286
0.050781250000, -1.312988281250, 0.715820312500, -241.296875000000, -13.171875000000, -60.500000000000, 1490952286
0.172363281250, -1.005371093750, 0.449462890625, -185.492187500000, 6.617187500000, -94.632812500000, 1490952286
0.172363281250, -1.005371093750, 0.449462890625, -185.492187500000, 6.617187500000, -94.632812500000, 1490952286
0.003662109375, -0.299316406250, 0.163818359375, -84.648437500000, 224.734375000000, -24.843750000000, 1490952286
0.003662109375, -0.299316406250, 0.163818359375, -84.648437500000, 224.734375000000, -24.843750000000, 1490952286
0.003662109375, -0.299316406250, 0.163818359375, -84.648437500000, 224.734375000000, -24.843750000000, 1490952286
0.003662109375, -0.299316406250, 0.163818359375, -84.648437500000, 224.734375000000, -24.843750000000, 1490952286
-0.014648437500, -0.222656250000, 0.182617187500, -25.476562500000, 253.992187500000, -15.007812500000, 1490952286
-0.014648437500, -0.222656250000, 0.182617187500, -25.476562500000, 253.992187500000, -15.007812500000, 1490952286
-0.014648437500, -0.222656250000, 0.182617187500, -25.476562500000, 253.992187500000, -15.007812500000, 1490952286
0.025146484375, -0.104492187500, 0.005615234375, -20.273437500000, 107.757812500000, -13.570312500000, 1490952286
0.025146484375, -0.104492187500, 0.005615234375, -20.273437500000, 107.757812500000, -13.570312500000, 1490952286
0.025146484375, -0.104492187500, 0.005615234375, -20.273437500000, 107.757812500000, -13.570312500000, 1490952286
0.025146484375, -0.104492187500, 0.005615234375, -20.273437500000, 107.757812500000, -13.570312500000, 1490952286
0.016357421875, -0.197021484375, -0.015136718750, -31.695312500000, -51.843750000000, -34.460937500000, 1490952286
0.016357421875, -0.197021484375, -0.015136718750, -31.695312500000, -51.843750000000, -34.460937500000, 1490952286
0.016357421875, -0.197021484375, -0.015136718750, -31.695312500000, -51.843750000000, -34.460937500000, 1490952286
0.059814453125, -1.145263671875, 0.021240234375, -241.234375000000, -256.000000000000, -68.320312500000, 1490952286
0.059814453125, -1.145263671875, 0.021240234375, -241.234375000000, -256.000000000000, -68.320312500000, 1490952286
0.059814453125, -1.145263671875, 0.021240234375, -241.234375000000, -256.000000000000, -68.320312500000, 1490952286
0.086914062500, -1.750976562500, 0.960937500000, 252.101562500000, -256.000000000000, -194.289062500000, 1490952286
0.086914062500, -1.750976562500, 0.960937500000, 252.101562500000, -256.000000000000, -194.289062500000, 1490952286
0.086914062500, -1.750976562500, 0.960937500000, 252.101562500000, -256.000000000000, -194.289062500000, 1490952286
0.086914062500, -1.750976562500, 0.960937500000, 252.101562500000, -256.000000000000, -194.289062500000, 1490952286
0.377929687500, -1.642578125000, 1.013671875000, 220.960937500000, 121.625000000000, 33.335937500000, 1490952286
0.377929687500, -1.642578125000, 1.013671875000, 220.960937500000, 121.625000000000, 33.335937500000, 1490952286
0.377929687500, -1.642578125000, 1.013671875000, 220.960937500000, 121.625000000000, 33.335937500000, 1490952286
0.395996093750, -1.012695312500, 2.169921875000, 253.992187500000, -232.031250000000, -60.687500000000, 1490952286
0.395996093750, -1.012695312500, 2.169921875000, 253.992187500000, -232.031250000000, -60.687500000000, 1490952286
0.395996093750, -1.012695312500, 2.169921875000, 253.992187500000, -232.031250000000, -60.687500000000, 1490952286
0.078613281250, -1.061279296875, 0.468017578125, -256.000000000000, -63.921875000000, 51.804687500000, 1490952286
0.078613281250, -1.061279296875, 0.468017578125, -256.000000000000, -63.921875000000, 51.804687500000, 1490952286
0.078613281250, -1.061279296875, 0.468017578125, -256.000000000000, -63.921875000000, 51.804687500000, 1490952286
0.126220703125, -0.761962890625, 0.215332031250, -96.078125000000, 98.679687500000, 33.656250000000, 1490952286
0.126220703125, -0.761962890625, 0.215332031250, -96.078125000000, 98.679687500000, 33.656250000000, 1490952286
0.126220703125, -0.761962890625, 0.215332031250, -96.078125000000, 98.679687500000, 33.656250000000, 1490952286
0.126220703125, -0.761962890625, 0.215332031250, -96.078125000000, 98.679687500000, 33.656250000000, 1490952286
0.140869140625, -0.540283203125, 0.168212890625, 32.882812500000, 233.000000000000, 1.585937500000, 1490952286
0.140869140625, -0.540283203125, 0.168212890625, 32.882812500000, 233.000000000000, 1.585937500000, 1490952286
0.140869140625, -0.540283203125, 0.168212890625, 32.882812500000, 233.000000000000, 1.585937500000, 1490952286
0.117431640625, -0.369628906250, 0.096435546875, 69.117187500000, 201.906250000000, -15.867187500000, 1490952287
0.117431640625, -0.369628906250, 0.096435546875, 69.117187500000, 201.906250000000, -15.867187500000, 1490952287
0.117431640625, -0.369628906250, 0.096435546875, 69.117187500000, 201.906250000000, -15.867187500000, 1490952287
0.045898437500, -0.451660156250, 0.085693359375, 57.492187500000, 6.781250000000, 9.570312500000, 1490952287
0.045898437500, -0.451660156250, 0.085693359375, 57.492187500000, 6.781250000000, 9.570312500000, 1490952287
0.045898437500, -0.451660156250, 0.085693359375, 57.492187500000, 6.781250000000, 9.570312500000, 1490952287
-0.029785156250, -0.095947265625, 0.097412109375, 9.125000000000, -47.953125000000, 13.343750000000, 1490952287
-0.029785156250, -0.095947265625, 0.097412109375, 9.125000000000, -47.953125000000, 13.343750000000, 1490952287
-0.029785156250, -0.095947265625, 0.097412109375, 9.125000000000, -47.953125000000, 13.343750000000, 1490952287
-0.029785156250, -0.095947265625, 0.097412109375, 9.125000000000, -47.953125000000, 13.343750000000, 1490952287
0.580322265625, -1.537109375000, 0.243408203125, -221.500000000000, -60.562500000000, 12.976562500000, 1490952287
0.580322265625, -1.537109375000, 0.243408203125, -221.500000000000, -60.562500000000, 12.976562500000, 1490952287
0.580322265625, -1.537109375000, 0.243408203125, -221.500000000000, -60.562500000000, 12.976562500000, 1490952287
0.020019531250, -1.473632812500, 0.590332031250, -28.906250000000, -186.023437500000, 111.507812500000, 1490952287
0.020019531250, -1.473632812500, 0.590332031250, -28.906250000000, -186.023437500000, 111.507812500000, 1490952287
0.020019531250, -1.473632812500, 0.590332031250, -28.906250000000, -186.023437500000, 111.507812500000, 1490952287
0.177734375000, -1.509277343750, 0.756103515625, 81.484375000000, 24.398437500000, 8.820312500000, 1490952287
0.177734375000, -1.509277343750, 0.756103515625, 81.484375000000, 24.398437500000, 8.820312500000, 1490952287
0.177734375000, -1.509277343750, 0.756103515625, 81.484375000000, 24.398437500000, 8.820312500000, 1490952287
0.392822265625, -1.464599609375, 0.720947265625, 68.359375000000, 74.585937500000, -19.765625000000, 1490952287
0.392822265625, -1.464599609375, 0.720947265625, 68.359375000000, 74.585937500000, -19.765625000000, 1490952287
0.392822265625, -1.464599609375, 0.720947265625, 68.359375000000, 74.585937500000, -19.765625000000, 1490952287
0.392822265625, -1.464599609375, 0.720947265625, 68.359375000000, 74.585937500000, -19.765625000000, 1490952287
0.252685546875, -1.267089843750, 0.614746093750, -47.648437500000, 88.984375000000, 24.718750000000, 1490952287
0.252685546875, -1.267089843750, 0.614746093750, -47.648437500000, 88.984375000000, 24.718750000000, 1490952287
0.252685546875, -1.267089843750, 0.614746093750, -47.648437500000, 88.984375000000, 24.718750000000, 1490952287
0.090576171875, -0.916748046875, 0.303710937500, -41.343750000000, 42.859375000000, 0.804687500000, 1490952287
0.090576171875, -0.916748046875, 0.303710937500, -41.343750000000, 42.859375000000, 0.804687500000, 1490952287
0.090576171875, -0.916748046875, 0.303710937500, -41.343750000000, 42.859375000000, 0.804687500000, 1490952287
0.064208984375, -0.552978515625, 0.239501953125, -3.882812500000, 48.656250000000, -26.125000000000, 1490952287
0.064208984375, -0.552978515625, 0.239501953125, -3.882812500000, 48.656250000000, -26.125000000000, 1490952287
0.064208984375, -0.552978515625, 0.239501953125, -3.882812500000, 48.656250000000, -26.125000000000, 1490952287
-0.085693359375, -0.444824218750, 0.279052734375, 14.757812500000, 37.601562500000, -19.835937500000, 1490952287
0.130371093750, -0.007568359375, 0.067138671875, 122.156250000000, 147.273437500000, -54.515625000000, 1490952287
0.130371093750, -0.007568359375, 0.067138671875, 122.156250000000, 147.273437500000, -54.515625000000, 1490952287
0.130371093750, -0.007568359375, 0.067138671875, 122.156250000000, 147.273437500000, -54.515625000000, 1490952287
0.130371093750, -0.007568359375, 0.067138671875, 122.156250000000, 147.273437500000, -54.515625000000, 1490952287
0.130371093750, -0.007568359375, 0.067138671875, 122.156250000000, 147.273437500000, -54.515625000000, 1490952287
0.130371093750, -0.007568359375, 0.067138671875, 122.156250000000, 147.273437500000, -54.515625000000, 1490952287
0.132568359375, -1.199462890625, -0.102050781250, -256.000000000000, -256.000000000000, -117.164062500000, 1490952287
0.132568359375, -1.199462890625, -0.102050781250, -256.000000000000, -256.000000000000, -117.164062500000, 1490952287
0.132568359375, -1.199462890625, -0.102050781250, -256.000000000000, -256.000000000000, -117.164062500000, 1490952287
0.132568359375, -1.199462890625, -0.102050781250, -256.000000000000, -256.000000000000, -117.164062500000, 1490952287
0.290039062500, -0.799560546875, 0.767578125000, 231.179687500000, -62.984375000000, -208.015625000000, 1490952287
0.290039062500, -0.799560546875, 0.767578125000, 231.179687500000, -62.984375000000, -208.015625000000, 1490952287
0.290039062500, -0.799560546875, 0.767578125000, 231.179687500000, -62.984375000000, -208.015625000000, 1490952287
0.290039062500, -0.799560546875, 0.767578125000, 231.179687500000, -62.984375000000, -208.015625000000, 1490952287
0.422119140625, -1.567871093750, 1.050048828125, 253.992187500000, 33.750000000000, -56.265625000000, 1490952287
0.422119140625, -1.567871093750, 1.050048828125, 253.992187500000, 33.750000000000, -56.265625000000, 1490952287
0.422119140625, -1.567871093750, 1.050048828125, 253.992187500000, 33.750000000000, -56.265625000000, 1490952287
0.422119140625, -1.567871093750, 1.050048828125, 253.992187500000, 33.750000000000, -56.265625000000, 1490952287
0.422119140625, -1.567871093750, 1.050048828125, 253.992187500000, 33.750000000000, -56.265625000000, 1490952287
0.127197265625, -1.133300781250, 1.081054687500, -135.992187500000, -32.539062500000, 7.945312500000, 1490952287
0.127197265625, -1.133300781250, 1.081054687500, -135.992187500000, -32.539062500000, 7.945312500000, 1490952287
0.127197265625, -1.133300781250, 1.081054687500, -135.992187500000, -32.539062500000, 7.945312500000, 1490952287
-0.004394531250, -0.821044921875, 0.264648437500, -98.015625000000, 18.773437500000, 22.367187500000, 1490952287
-0.004394531250, -0.821044921875, 0.264648437500, -98.015625000000, 18.773437500000, 22.367187500000, 1490952287
-0.004394531250, -0.821044921875, 0.264648437500, -98.015625000000, 18.773437500000, 22.367187500000, 1490952287
0.128417968750, -0.397949218750, 0.094482421875, -32.085937500000, 134.164062500000, -10.492187500000, 1490952287
0.128417968750, -0.397949218750, 0.094482421875, -32.085937500000, 134.164062500000, -10.492187500000, 1490952287
0.128417968750, -0.397949218750, 0.094482421875, -32.085937500000, 134.164062500000, -10.492187500000, 1490952287
0.128417968750, -0.397949218750, 0.094482421875, -32.085937500000, 134.164062500000, -10.492187500000, 1490952287
0.154785156250, -0.122802734375, 0.236572265625, 58.781250000000, 253.992187500000, -15.671875000000, 1490952287
0.154785156250, -0.122802734375, 0.236572265625, 58.781250000000, 253.992187500000, -15.671875000000, 1490952287
0.154785156250, -0.122802734375, 0.236572265625, 58.781250000000, 253.992187500000, -15.671875000000, 1490952287
0.086914062500, -0.132324218750, 0.082519531250, 67.898437500000, 253.992187500000, -27.156250000000, 1490952287
0.086914062500, -0.132324218750, 0.082519531250, 67.898437500000, 253.992187500000, -27.156250000000, 1490952287
0.086914062500, -0.132324218750, 0.082519531250, 67.898437500000, 253.992187500000, -27.156250000000, 1490952287
0.093994140625, -0.506103515625, -0.113037109375, -61.906250000000, 101.359375000000, -73.031250000000, 1490952288
0.093994140625, -0.506103515625, -0.113037109375, -61.906250000000, 101.359375000000, -73.031250000000, 1490952288
0.093994140625, -0.506103515625, -0.113037109375, -61.906250000000, 101.359375000000, -73.031250000000, 1490952288
0.722412109375, -1.649658203125, 0.712402343750, -191.328125000000, -256.000000000000, 128.273437500000, 1490952288
0.722412109375, -1.649658203125, 0.712402343750, -191.328125000000, -256.000000000000, 128.273437500000, 1490952288
0.722412109375, -1.649658203125, 0.712402343750, -191.328125000000, -256.000000000000, 128.273437500000, 1490952288
0.722412109375, -1.649658203125, 0.712402343750, -191.328125000000, -256.000000000000, 128.273437500000, 1490952288
0.527343750000, -1.222167968750, 0.460449218750, 82.750000000000, -256.000000000000, -219.156250000000, 1490952288
0.527343750000, -1.222167968750, 0.460449218750, 82.750000000000, -256.000000000000, -219.156250000000, 1490952288
0.527343750000, -1.222167968750, 0.460449218750, 82.750000000000, -256.000000000000, -219.156250000000, 1490952288
0.755859375000, -2.044433593750, 1.654541015625, 253.992187500000, -50.984375000000, -44.062500000000, 1490952288
0.755859375000, -2.044433593750, 1.654541015625, 253.992187500000, -50.984375000000, -44.062500000000, 1490952288
0.755859375000, -2.044433593750, 1.654541015625, 253.992187500000, -50.984375000000, -44.062500000000, 1490952288
0.303710937500, -1.250000000000, 0.929443359375, -144.359375000000, 87.031250000000, -9.710937500000, 1490952288
0.303710937500, -1.250000000000, 0.929443359375, -144.359375000000, 87.031250000000, -9.710937500000, 1490952288
0.303710937500, -1.250000000000, 0.929443359375, -144.359375000000, 87.031250000000, -9.710937500000, 1490952288
0.253662109375, -1.176513671875, 0.380859375000, -110.421875000000, 223.093750000000, 19.960937500000, 1490952288
0.253662109375, -1.176513671875, 0.380859375000, -110.421875000000, 223.093750000000, 19.960937500000, 1490952288
0.253662109375, -1.176513671875, 0.380859375000, -110.421875000000, 223.093750000000, 19.960937500000, 1490952288
0.253662109375, -1.176513671875, 0.380859375000, -110.421875000000, 223.093750000000, 19.960937500000, 1490952288
0.077148437500, -0.804687500000, 0.102294921875, -38.890625000000, 199.117187500000, -15.742187500000, 1490952288
0.077148437500, -0.804687500000, 0.102294921875, -38.890625000000, 199.117187500000, -15.742187500000, 1490952288
0.077148437500, -0.804687500000, 0.102294921875, -38.890625000000, 199.117187500000, -15.742187500000, 1490952288
-0.084472656250, -0.294433593750, 0.107666015625, 44.953125000000, 174.875000000000, 15.421875000000, 1490952288
-0.084472656250, -0.294433593750, 0.107666015625, 44.953125000000, 174.875000000000, 15.421875000000, 1490952288
-0.084472656250, -0.294433593750, 0.107666015625, 44.953125000000, 174.875000000000, 15.421875000000, 1490952288
0.064208984375, -0.095703125000, -0.003906250000, -14.187500000000, 124.906250000000, -55.453125000000, 1490952288
0.064208984375, -0.095703125000, -0.003906250000, -14.187500000000, 124.906250000000, -55.453125000000, 1490952288
0.064208984375, -0.095703125000, -0.003906250000, -14.187500000000, 124.906250000000, -55.453125000000, 1490952288
0.019531250000, -0.003173828125, 0.019775390625, 24.312500000000, 41.929687500000, -31.273437500000, 1490952288
0.019531250000, -0.003173828125, 0.019775390625, 24.312500000000, 41.929687500000, -31.273437500000, 1490952288
0.019531250000, -0.003173828125, 0.019775390625, 24.312500000000, 41.929687500000, -31.273437500000, 1490952288
0.019531250000, -0.003173828125, 0.019775390625, 24.312500000000, 41.929687500000, -31.273437500000, 1490952288
0.003906250000, -0.176513671875, -0.130859375000, -114.000000000000, -30.750000000000, 2.171875000000, 1490952288
0.003906250000, -0.176513671875, -0.130859375000, -114.000000000000, -30.750000000000, 2.171875000000, 1490952288
0.003906250000, -0.176513671875, -0.130859375000, -114.000000000000, -30.750000000000, 2.171875000000, 1490952288
-0.021728515625, -2.399658203125, 0.317626953125, -256.000000000000, -256.000000000000, -194.781250000000, 1490952288
-0.021728515625, -2.399658203125, 0.317626953125, -256.000000000000, -256.000000000000, -194.781250000000, 1490952288
-0.021728515625, -2.399658203125, 0.317626953125, -256.000000000000, -256.000000000000, -194.781250000000, 1490952288
0.126953125000, -1.650878906250, 0.992431640625, 253.992187500000, -256.000000000000, -256.000000000000, 1490952288
0.126953125000, -1.650878906250, 0.992431640625, 253.992187500000, -256.000000000000, -256.000000000000, 1490952288
0.126953125000, -1.650878906250, 0.992431640625, 253.992187500000, -256.000000000000, -256.000000000000, 1490952288
0.150634765625, -1.562255859375, 1.009765625000, 253.992187500000, -122.039062500000, -99.335937500000, 1490952288
0.150634765625, -1.562255859375, 1.009765625000, 253.992187500000, -122.039062500000, -99.335937500000, 1490952288
0.150634765625, -1.562255859375, 1.009765625000, 253.992187500000, -122.039062500000, -99.335937500000, 1490952288
0.150634765625, -1.562255859375, 1.009765625000, 253.992187500000, -122.039062500000, -99.335937500000, 1490952288
-0.038818359375, -1.277832031250, 0.683105468750, -256.000000000000, -31.265625000000, 33.109375000000, 1490952288
-0.038818359375, -1.277832031250, 0.683105468750, -256.000000000000, -31.265625000000, 33.109375000000, 1490952288
-0.038818359375, -1.277832031250, 0.683105468750, -256.000000000000, -31.265625000000, 33.109375000000, 1490952288
-0.005859375000, -0.927001953125, 0.192138671875, -104.664062500000, 47.093750000000, -17.164062500000, 1490952288
-0.005859375000, -0.927001953125, 0.192138671875, -104.664062500000, 47.093750000000, -17.164062500000, 1490952288
-0.005859375000, -0.927001953125, 0.192138671875, -104.664062500000, 47.093750000000, -17.164062500000, 1490952288
0.047363281250, -0.437744140625, 0.202636718750, -26.437500000000, 165.726562500000, 29.273437500000, 1490952288
0.047363281250, -0.437744140625, 0.202636718750, -26.437500000000, 165.726562500000, 29.273437500000, 1490952288
0.047363281250, -0.437744140625, 0.202636718750, -26.437500000000, 165.726562500000, 29.273437500000, 1490952288
0.128906250000, -0.321533203125, 0.005126953125, -33.859375000000, 253.992187500000, 45.937500000000, 1490952288
0.128906250000, -0.321533203125, 0.005126953125, -33.859375000000, 253.992187500000, 45.937500000000, 1490952288
0.128906250000, -0.321533203125, 0.005126953125, -33.859375000000, 253.992187500000, 45.937500000000, 1490952288
0.128906250000, -0.321533203125, 0.005126953125, -33.859375000000, 253.992187500000, 45.937500000000, 1490952288
0.200683593750, -0.329589843750, 0.085205078125, -1.546875000000, 253.992187500000, 35.835937500000, 1490952288
0.200683593750, -0.329589843750, 0.085205078125, -1.546875000000, 253.992187500000, 35.835937500000, 1490952288
0.200683593750, -0.329589843750, 0.085205078125, -1.546875000000, 253.992187500000, 35.835937500000, 1490952288
0.177490234375, -0.366699218750, 0.153076171875, 57.250000000000, 134.046875000000, 5.156250000000, 1490952288
0.177490234375, -0.366699218750, 0.153076171875, 57.250000000000, 134.046875000000, 5.156250000000, 1490952288
0.177490234375, -0.366699218750, 0.153076171875, 57.250000000000, 134.046875000000, 5.156250000000, 1490952288
0.476318359375, -1.212402343750, 0.121582031250, -192.804687500000, -126.859375000000, 79.554687500000, 1490952288
0.476318359375, -1.212402343750, 0.121582031250, -192.804687500000, -126.859375000000, 79.554687500000, 1490952289
0.476318359375, -1.212402343750, 0.121582031250, -192.804687500000, -126.859375000000, 79.554687500000, 1490952289
0.354003906250, -1.558593750000, 0.599609375000, 17.585937500000, -252.851562500000, 39.265625000000, 1490952289
0.354003906250, -1.558593750000, 0.599609375000, 17.585937500000, -252.851562500000, 39.265625000000, 1490952289
0.354003906250, -1.558593750000, 0.599609375000, 17.585937500000, -252.851562500000, 39.265625000000, 1490952289
0.354003906250, -1.558593750000, 0.599609375000, 17.585937500000, -252.851562500000, 39.265625000000, 1490952289
0.270263671875, -1.580078125000, 1.666259765625, 246.187500000000, 252.351562500000, 33.343750000000, 1490952289
0.270263671875, -1.580078125000, 1.666259765625, 246.187500000000, 252.351562500000, 33.343750000000, 1490952289
0.270263671875, -1.580078125000, 1.666259765625, 246.187500000000, 252.351562500000, 33.343750000000, 1490952289
0.366455078125, -1.501220703125, 0.763183593750, -220.992187500000, 81.250000000000, -40.625000000000, 1490952289
0.366455078125, -1.501220703125, 0.763183593750, -220.992187500000, 81.250000000000, -40.625000000000, 1490952289
0.366455078125, -1.501220703125, 0.763183593750, -220.992187500000, 81.250000000000, -40.625000000000, 1490952289
0.294433593750, -1.105468750000, 0.372802734375, -79.875000000000, 176.929687500000, -14.945312500000, 1490952289
0.294433593750, -1.105468750000, 0.372802734375, -79.875000000000, 176.929687500000, -14.945312500000, 1490952289
0.294433593750, -1.105468750000, 0.372802734375, -79.875000000000, 176.929687500000, -14.945312500000, 1490952289
-0.052978515625, -0.680419921875, 0.280761718750, 5.242187500000, 89.109375000000, -15.093750000000, 1490952289
-0.052978515625, -0.680419921875, 0.280761718750, 5.242187500000, 89.109375000000, -15.093750000000, 1490952289
-0.052978515625, -0.680419921875, 0.280761718750, 5.242187500000, 89.109375000000, -15.093750000000, 1490952289
-0.052978515625, -0.680419921875, 0.280761718750, 5.242187500000, 89.109375000000, -15.093750000000, 1490952289
0.034667968750, -0.271240234375, 0.141113281250, 41.226562500000, 22.328125000000, -22.632812500000, 1490952289
0.034667968750, -0.271240234375, 0.141113281250, 41.226562500000, 22.328125000000, -22.632812500000, 1490952289
0.034667968750, -0.271240234375, 0.141113281250, 41.226562500000, 22.328125000000, -22.632812500000, 1490952289
-0.070312500000, -0.050781250000, 0.128417968750, 79.820312500000, 77.546875000000, -44.296875000000, 1490952289
-0.070312500000, -0.050781250000, 0.128417968750, 79.820312500000, 77.546875000000, -44.296875000000, 1490952289
-0.070312500000, -0.050781250000, 0.128417968750, 79.820312500000, 77.546875000000, -44.296875000000, 1490952289
0.019531250000, 0.020019531250, -0.014892578125, 77.320312500000, 94.726562500000, -18.859375000000, 1490952289
0.019531250000, 0.020019531250, -0.014892578125, 77.320312500000, 94.726562500000, -18.859375000000, 1490952289
0.019531250000, 0.020019531250, -0.014892578125, 77.320312500000, 94.726562500000, -18.859375000000, 1490952289
-0.081054687500, -0.943847656250, -0.277343750000, -256.000000000000, -137.312500000000, -41.570312500000, 1490952289
-0.081054687500, -0.943847656250, -0.277343750000, -256.000000000000, -137.312500000000, -41.570312500000, 1490952289
-0.081054687500, -0.943847656250, -0.277343750000, -256.000000000000, -137.312500000000, -41.570312500000, 1490952289
-0.081054687500, -0.943847656250, -0.277343750000, -256.000000000000, -137.312500000000, -41.570312500000, 1490952289
0.229980468750, -2.288085937500, 1.907714843750, -14.976562500000, -256.000000000000, -69.601562500000, 1490952289
0.229980468750, -2.288085937500, 1.907714843750, -14.976562500000, -256.000000000000, -69.601562500000, 1490952289
0.229980468750, -2.288085937500, 1.907714843750, -14.976562500000, -256.000000000000, -69.601562500000, 1490952289
0.172851562500, -1.040527343750, 0.821289062500, 68.718750000000, 79.445312500000, -141.898437500000, 1490952289
0.172851562500, -1.040527343750, 0.821289062500, 68.718750000000, 79.445312500000, -141.898437500000, 1490952289
0.172851562500, -1.040527343750, 0.821289062500, 68.718750000000, 79.445312500000, -141.898437500000, 1490952289
0.091796875000, -1.764892578125, 0.418701171875, 253.992187500000, 59.429687500000, -52.890625000000, 1490952289
0.091796875000, -1.764892578125, 0.418701171875, 253.992187500000, 59.429687500000, -52.890625000000, 1490952289
0.091796875000, -1.764892578125, 0.418701171875, 253.992187500000, 59.429687500000, -52.890625000000, 1490952289
0.160156250000, -1.188720703125, 0.942382812500, -113.765625000000, -67.250000000000, -47.750000000000, 1490952289
0.160156250000, -1.188720703125, 0.942382812500, -113.765625000000, -67.250000000000, -47.750000000000, 1490952289
0.160156250000, -1.188720703125, 0.942382812500, -113.765625000000, -67.250000000000, -47.750000000000, 1490952289
0.160156250000, -1.188720703125, 0.942382812500, -113.765625000000, -67.250000000000, -47.750000000000, 1490952289
0.159423828125, -0.899414062500, 0.338134765625, -119.765625000000, 19.812500000000, -5.367187500000, 1490952289
0.159423828125, -0.899414062500, 0.338134765625, -119.765625000000, 19.812500000000, -5.367187500000, 1490952289
0.159423828125, -0.899414062500, 0.338134765625, -119.765625000000, 19.812500000000, -5.367187500000, 1490952289
0.104980468750, -0.691162109375, 0.100585937500, -61.453125000000, 91.578125000000, 41.257812500000, 1490952289
0.104980468750, -0.691162109375, 0.100585937500, -61.453125000000, 91.578125000000, 41.257812500000, 1490952289
0.104980468750, -0.691162109375, 0.100585937500, -61.453125000000, 91.578125000000, 41.257812500000, 1490952289
0.134277343750, -0.655029296875, 0.156738281250, 18.554687500000, 105.585937500000, 33.992187500000, 1490952289
0.134277343750, -0.655029296875, 0.156738281250, 18.554687500000, 105.585937500000, 33.992187500000, 1490952289
0.134277343750, -0.655029296875, 0.156738281250, 18.554687500000, 105.585937500000, 33.992187500000, 1490952289
0.039794921875, -0.282226562500, 0.142333984375, 48.375000000000, 97.773437500000, -5.500000000000, 1490952289
0.039794921875, -0.282226562500, 0.142333984375, 48.375000000000, 97.773437500000, -5.500000000000, 1490952289
0.039794921875, -0.282226562500, 0.142333984375, 48.375000000000, 97.773437500000, -5.500000000000, 1490952289
0.039794921875, -0.282226562500, 0.142333984375, 48.375000000000, 97.773437500000, -5.500000000000, 1490952289
0.045166015625, -0.257568359375, 0.140869140625, 49.757812500000, 103.523437500000, -11.367187500000, 1490952289
0.045166015625, -0.257568359375, 0.140869140625, 49.757812500000, 103.523437500000, -11.367187500000, 1490952289
0.045166015625, -0.257568359375, 0.140869140625, 49.757812500000, 103.523437500000, -11.367187500000, 1490952289
0.339843750000, -1.390625000000, 0.009521484375, -115.929687500000, -1.796875000000, 24.031250000000, 1490952289
0.339843750000, -1.390625000000, 0.009521484375, -115.929687500000, -1.796875000000, 24.031250000000, 1490952289
0.339843750000, -1.390625000000, 0.009521484375, -115.929687500000, -1.796875000000, 24.031250000000, 1490952289
0.097167968750, -1.267089843750, 0.532470703125, -9.906250000000, -256.000000000000, 26.054687500000, 1490952289
0.097167968750, -1.267089843750, 0.532470703125, -9.906250000000, -256.000000000000, 26.054687500000, 1490952289
0.097167968750, -1.267089843750, 0.532470703125, -9.906250000000, -256.000000000000, 26.054687500000, 1490952289
0.287353515625, -1.577148437500, 0.760742187500, 180.929687500000, 81.523437500000, -34.343750000000, 1490952290
0.287353515625, -1.577148437500, 0.760742187500, 180.929687500000, 81.523437500000, -34.343750000000, 1490952290
0.287353515625, -1.577148437500, 0.760742187500, 180.929687500000, 81.523437500000, -34.343750000000, 1490952290
0.287353515625, -1.577148437500, 0.760742187500, 180.929687500000, 81.523437500000, -34.343750000000, 1490952290
0.408203125000, -1.264404296875, 0.864746093750, 48.859375000000, 96.890625000000, -5.734375000000, 1490952290
0.408203125000, -1.264404296875, 0.864746093750, 48.859375000000, 96.890625000000, -5.734375000000, 1490952290
0.408203125000, -1.264404296875, 0.864746093750, 48.859375000000, 96.890625000000, -5.734375000000, 1490952290
0.166259765625, -1.257812500000, 0.426513671875, -71.671875000000, 90.015625000000, 3.804687500000, 1490952290
0.166259765625, -1.257812500000, 0.426513671875, -71.671875000000, 90.015625000000, 3.804687500000, 1490952290
0.166259765625, -1.257812500000, 0.426513671875, -71.671875000000, 90.015625000000, 3.804687500000, 1490952290
0.000488281250, -0.766601562500, 0.296386718750, -42.445312500000, 89.867187500000, -5.304687500000, 1490952290
0.000488281250, -0.766601562500, 0.296386718750, -42.445312500000, 89.867187500000, -5.304687500000, 1490952290
0.000488281250, -0.766601562500, 0.296386718750, -42.445312500000, 89.867187500000, -5.304687500000, 1490952290
0.000488281250, -0.526611328125, 0.098144531250, 1.859375000000, 68.281250000000, -15.148437500000, 1490952290
0.000488281250, -0.526611328125, 0.098144531250, 1.859375000000, 68.281250000000, -15.148437500000, 1490952290
0.000488281250, -0.526611328125, 0.098144531250, 1.859375000000, 68.281250000000, -15.148437500000, 1490952290
0.000488281250, -0.526611328125, 0.098144531250, 1.859375000000, 68.281250000000, -15.148437500000, 1490952290
0.093505859375, -0.209228515625, 0.204345703125, 2.101562500000, 68.796875000000, -16.531250000000, 1490952290
0.093505859375, -0.209228515625, 0.204345703125, 2.101562500000, 68.796875000000, -16.531250000000, 1490952290
0.093505859375, -0.209228515625, 0.204345703125, 2.101562500000, 68.796875000000, -16.531250000000, 1490952290
0.142822265625, -0.089111328125, 0.120849609375, 45.328125000000, 137.195312500000, -56.117187500000, 1490952290
0.142822265625, -0.089111328125, 0.120849609375, 45.328125000000, 137.195312500000, -56.117187500000, 1490952290
0.142822265625, -0.089111328125, 0.120849609375, 45.328125000000, 137.195312500000, -56.117187500000, 1490952290
0.027343750000, -0.415283203125, -0.069824218750, -63.703125000000, 129.101562500000, 5.984375000000, 1490952290
0.027343750000, -0.415283203125, -0.069824218750, -63.703125000000, 129.101562500000, 5.984375000000, 1490952290
0.027343750000, -0.415283203125, -0.069824218750, -63.703125000000, 129.101562500000, 5.984375000000, 1490952290
