ACC_X,ACC_Y,ACC_Z,G_X,G_Y,G_Z,Unix Time
-0.190429687500, -0.930908203125, -0.015136718750, -5.625000000000, 3.812500000000, 11.203125000000, 1490953124
-0.190429687500, -0.930908203125, -0.015136718750, -5.625000000000, 3.812500000000, 11.203125000000, 1490953124
-0.190429687500, -0.930908203125, -0.015136718750, -5.625000000000, 3.812500000000, 11.203125000000, 1490953124
-0.039306640625, -0.733154296875, 0.201660156250, 5.445312500000, -29.093750000000, -3.671875000000, 1490953124
-0.039306640625, -0.733154296875, 0.201660156250, 5.445312500000, -29.093750000000, -3.671875000000, 1490953124
-0.039306640625, -0.733154296875, 0.201660156250, 5.445312500000, -29.093750000000, -3.671875000000, 1490953124
-0.053710937500, -0.062255859375, 0.213378906250, -27.765625000000, 11.125000000000, -17.468750000000, 1490953124
-0.053710937500, -0.062255859375, 0.213378906250, -27.765625000000, 11.125000000000, -17.468750000000, 1490953124
-0.053710937500, -0.062255859375, 0.213378906250, -27.765625000000, 11.125000000000, -17.468750000000, 1490953124
-0.144287109375, 0.025146484375, 0.203857421875, 31.835937500000, 32.437500000000, -2.515625000000, 1490953124
-0.144287109375, 0.025146484375, 0.203857421875, 31.835937500000, 32.437500000000, -2.515625000000, 1490953124
-0.144287109375, 0.025146484375, 0.203857421875, 31.835937500000, 32.437500000000, -2.515625000000, 1490953124
-0.144287109375, 0.025146484375, 0.203857421875, 31.835937500000, 32.437500000000, -2.515625000000, 1490953124
-0.032714843750, -0.849853515625, -0.246826171875, -161.445312500000, -170.234375000000, -38.523437500000, 1490953124
-0.032714843750, -0.849853515625, -0.246826171875, -161.445312500000, -170.234375000000, -38.523437500000, 1490953124
0.086669921875, -1.929931640625, 1.148681640625, -106.343750000000, -256.000000000000, -26.890625000000, 1490953124
0.273925781250, -2.068603515625, 0.228515625000, 253.992187500000, 18.156250000000, 0.046875000000, 1490953124
0.273925781250, -2.068603515625, 0.228515625000, 253.992187500000, 18.156250000000, 0.046875000000, 1490953124
0.273925781250, -2.068603515625, 0.228515625000, 253.992187500000, 18.156250000000, 0.046875000000, 1490953124
-0.519775390625, -1.411376953125, 0.324951171875, -63.664062500000, 108.609375000000, 8.492187500000, 1490953124
-0.519775390625, -1.411376953125, 0.324951171875, -63.664062500000, 108.609375000000, 8.492187500000, 1490953124
-0.519775390625, -1.411376953125, 0.324951171875, -63.664062500000, 108.609375000000, 8.492187500000, 1490953124
-0.519775390625, -1.411376953125, 0.324951171875, -63.664062500000, 108.609375000000, 8.492187500000, 1490953124
-0.687744140625, -1.624511718750, 0.114990234375, -15.093750000000, 37.007812500000, 5.007812500000, 1490953124
-0.687744140625, -1.624511718750, 0.114990234375, -15.093750000000, 37.007812500000, 5.007812500000, 1490953124
-0.687744140625, -1.624511718750, 0.114990234375, -15.093750000000, 37.007812500000, 5.007812500000, 1490953124
-0.351806640625, -1.188964843750, 0.382812500000, 7.343750000000, 2.882812500000, -10.414062500000, 1490953124
-0.351806640625, -1.188964843750, 0.382812500000, 7.343750000000, 2.882812500000, -10.414062500000, 1490953124
-0.351806640625, -1.188964843750, 0.382812500000, 7.343750000000, 2.882812500000, -10.414062500000, 1490953124
-0.264404296875, -0.868896484375, 0.118896484375, -33.343750000000, -15.937500000000, -14.492187500000, 1490953124
-0.264404296875, -0.868896484375, 0.118896484375, -33.343750000000, -15.937500000000, -14.492187500000, 1490953124
0.042236328125, -0.260986328125, 0.117919921875, 28.148437500000, 16.289062500000, -38.632812500000, 1490953124
0.042236328125, -0.260986328125, 0.117919921875, 28.148437500000, 16.289062500000, -38.632812500000, 1490953124
0.042236328125, -0.260986328125, 0.117919921875, 28.148437500000, 16.289062500000, -38.632812500000, 1490953124
0.042236328125, -0.260986328125, 0.117919921875, 28.148437500000, 16.289062500000, -38.632812500000, 1490953124
-0.016845703125, -0.083496093750, 0.102783203125, 15.921875000000, 50.335937500000, -39.570312500000, 1490953124
-0.024658203125, 0.005371093750, 0.076416015625, 24.484375000000, 109.523437500000, -46.484375000000, 1490953124
-0.024658203125, 0.005371093750, 0.076416015625, 24.484375000000, 109.523437500000, -46.484375000000, 1490953124
-0.024658203125, 0.005371093750, 0.076416015625, 24.484375000000, 109.523437500000, -46.484375000000, 1490953124
0.005126953125, -0.945556640625, -0.183105468750, -183.234375000000, 56.953125000000, -55.851562500000, 1490953125
0.005126953125, -0.945556640625, -0.183105468750, -183.234375000000, 56.953125000000, -55.851562500000, 1490953125
0.005126953125, -0.945556640625, -0.183105468750, -183.234375000000, 56.953125000000, -55.851562500000, 1490953125
-0.441406250000, -1.598144531250, 0.096435546875, -98.851562500000, -44.882812500000, -10.070312500000, 1490953125
-0.441406250000, -1.598144531250, 0.096435546875, -98.851562500000, -44.882812500000, -10.070312500000, 1490953125
-0.306884765625, -1.865234375000, 0.661376953125, 185.632812500000, -165.179687500000, 38.773437500000, 1490953125
-0.306884765625, -1.865234375000, 0.661376953125, 185.632812500000, -165.179687500000, 38.773437500000, 1490953125
-0.306884765625, -1.865234375000, 0.661376953125, 185.632812500000, -165.179687500000, 38.773437500000, 1490953125
-0.306884765625, -1.865234375000, 0.661376953125, 185.632812500000, -165.179687500000, 38.773437500000, 1490953125
-0.306884765625, -1.865234375000, 0.661376953125, 185.632812500000, -165.179687500000, 38.773437500000, 1490953125
-0.117919921875, -1.335937500000, 0.574462890625, -56.234375000000, 19.015625000000, 0.382812500000, 1490953125
-0.117919921875, -1.335937500000, 0.574462890625, -56.234375000000, 19.015625000000, 0.382812500000, 1490953125
-0.117919921875, -1.335937500000, 0.574462890625, -56.234375000000, 19.015625000000, 0.382812500000, 1490953125
-0.235351562500, -0.871093750000, 0.220458984375, -103.031250000000, -81.250000000000, 8.085937500000, 1490953125
-0.235351562500, -0.871093750000, 0.220458984375, -103.031250000000, -81.250000000000, 8.085937500000, 1490953125
-0.235351562500, -0.871093750000, 0.220458984375, -103.031250000000, -81.250000000000, 8.085937500000, 1490953125
-0.137939453125, -0.651611328125, 0.124267578125, -12.007812500000, -76.898437500000, -4.156250000000, 1490953125
-0.137939453125, -0.651611328125, 0.124267578125, -12.007812500000, -76.898437500000, -4.156250000000, 1490953125
-0.075195312500, 0.050537109375, 0.154785156250, 92.148437500000, -2.523437500000, -28.984375000000, 1490953125
-0.075195312500, 0.050537109375, 0.154785156250, 92.148437500000, -2.523437500000, -28.984375000000, 1490953125
-0.075195312500, 0.050537109375, 0.154785156250, 92.148437500000, -2.523437500000, -28.984375000000, 1490953125
-0.075195312500, 0.050537109375, 0.154785156250, 92.148437500000, -2.523437500000, -28.984375000000, 1490953125
-0.075195312500, 0.050537109375, 0.154785156250, 92.148437500000, -2.523437500000, -28.984375000000, 1490953125
-0.009277343750, 0.070800781250, 0.031250000000, 74.070312500000, 79.320312500000, -47.851562500000, 1490953125
-0.009277343750, 0.070800781250, 0.031250000000, 74.070312500000, 79.320312500000, -47.851562500000, 1490953125
-0.009277343750, 0.070800781250, 0.031250000000, 74.070312500000, 79.320312500000, -47.851562500000, 1490953125
0.065429687500, -0.833251953125, -0.228515625000, -256.000000000000, -55.812500000000, -51.976562500000, 1490953125
0.065429687500, -0.833251953125, -0.228515625000, -256.000000000000, -55.812500000000, -51.976562500000, 1490953125
0.065429687500, -0.833251953125, -0.228515625000, -256.000000000000, -55.812500000000, -51.976562500000, 1490953125
0.058105468750, -2.139404296875, 0.922851562500, 144.132812500000, -79.468750000000, 74.554687500000, 1490953125
0.058105468750, -2.139404296875, 0.922851562500, 144.132812500000, -79.468750000000, 74.554687500000, 1490953125
0.058105468750, -2.139404296875, 0.922851562500, 144.132812500000, -79.468750000000, 74.554687500000, 1490953125
-0.064208984375, -1.684082031250, -0.029785156250, 253.992187500000, -57.281250000000, 98.210937500000, 1490953125
-0.064208984375, -1.684082031250, -0.029785156250, 253.992187500000, -57.281250000000, 98.210937500000, 1490953125
-0.232910156250, -1.082763671875, -0.017822265625, -239.390625000000, 69.546875000000, -20.398437500000, 1490953125
-0.232910156250, -1.082763671875, -0.017822265625, -239.390625000000, 69.546875000000, -20.398437500000, 1490953125
-0.232910156250, -1.082763671875, -0.017822265625, -239.390625000000, 69.546875000000, -20.398437500000, 1490953125
-0.232910156250, -1.082763671875, -0.017822265625, -239.390625000000, 69.546875000000, -20.398437500000, 1490953125
-0.232910156250, -1.082763671875, -0.017822265625, -239.390625000000, 69.546875000000, -20.398437500000, 1490953125
-0.249511718750, -0.939941406250, -0.004394531250, 27.664062500000, 2.632812500000, 12.523437500000, 1490953125
-0.249511718750, -0.939941406250, -0.004394531250, 27.664062500000, 2.632812500000, 12.523437500000, 1490953125
-0.249511718750, -0.939941406250, -0.004394531250, 27.664062500000, 2.632812500000, 12.523437500000, 1490953125
-0.047607421875, -0.285644531250, 0.200439453125, 86.265625000000, 42.617187500000, 3.859375000000, 1490953125
-0.047607421875, -0.285644531250, 0.200439453125, 86.265625000000, 42.617187500000, 3.859375000000, 1490953125
-0.047607421875, -0.285644531250, 0.200439453125, 86.265625000000, 42.617187500000, 3.859375000000, 1490953125
0.088623046875, -0.079345703125, 0.189697265625, 57.179687500000, 154.968750000000, -31.148437500000, 1490953125
0.088623046875, -0.079345703125, 0.189697265625, 57.179687500000, 154.968750000000, -31.148437500000, 1490953125
0.088623046875, -0.079345703125, 0.189697265625, 57.179687500000, 154.968750000000, -31.148437500000, 1490953125
0.088623046875, -0.079345703125, 0.189697265625, 57.179687500000, 154.968750000000, -31.148437500000, 1490953125
-0.029541015625, -0.020507812500, -0.025634765625, -25.609375000000, 118.945312500000, -92.382812500000, 1490953125
-0.029541015625, -0.020507812500, -0.025634765625, -25.609375000000, 118.945312500000, -92.382812500000, 1490953125
-0.029541015625, -0.020507812500, -0.025634765625, -25.609375000000, 118.945312500000, -92.382812500000, 1490953125
-0.396728515625, -1.944091796875, -0.448486328125, -256.000000000000, -5.031250000000, -101.765625000000, 1490953125
-0.396728515625, -1.944091796875, -0.448486328125, -256.000000000000, -5.031250000000, -101.765625000000, 1490953125
-0.396728515625, -1.944091796875, -0.448486328125, -256.000000000000, -5.031250000000, -101.765625000000, 1490953125
-0.717285156250, -1.562500000000, -0.308837890625, 253.992187500000, -54.554687500000, 83.773437500000, 1490953125
-0.717285156250, -1.562500000000, -0.308837890625, 253.992187500000, -54.554687500000, 83.773437500000, 1490953125
-0.717285156250, -1.562500000000, -0.308837890625, 253.992187500000, -54.554687500000, 83.773437500000, 1490953125
0.818115234375, -2.443603515625, 1.684326171875, 253.992187500000, -256.000000000000, -36.757812500000, 1490953125
0.818115234375, -2.443603515625, 1.684326171875, 253.992187500000, -256.000000000000, -36.757812500000, 1490953125
0.818115234375, -2.443603515625, 1.684326171875, 253.992187500000, -256.000000000000, -36.757812500000, 1490953125
0.818115234375, -2.443603515625, 1.684326171875, 253.992187500000, -256.000000000000, -36.757812500000, 1490953125
-0.063232421875, -1.478515625000, 0.791992187500, -151.843750000000, -28.851562500000, -0.921875000000, 1490953125
-0.063232421875, -1.478515625000, 0.791992187500, -151.843750000000, -28.851562500000, -0.921875000000, 1490953125
-0.063232421875, -1.478515625000, 0.791992187500, -151.843750000000, -28.851562500000, -0.921875000000, 1490953125
-0.051269531250, -0.955078125000, 0.059082031250, -154.757812500000, 47.718750000000, -51.554687500000, 1490953125
-0.051269531250, -0.955078125000, 0.059082031250, -154.757812500000, 47.718750000000, -51.554687500000, 1490953126
-0.051269531250, -0.955078125000, 0.059082031250, -154.757812500000, 47.718750000000, -51.554687500000, 1490953126
-0.055175781250, -0.452880859375, 0.069824218750, -50.320312500000, 122.875000000000, -52.093750000000, 1490953126
-0.055175781250, -0.452880859375, 0.069824218750, -50.320312500000, 122.875000000000, -52.093750000000, 1490953126
-0.055175781250, -0.452880859375, 0.069824218750, -50.320312500000, 122.875000000000, -52.093750000000, 1490953126
-0.105712890625, 0.091308593750, 0.048095703125, 24.343750000000, 96.687500000000, -35.968750000000, 1490953126
-0.105712890625, 0.091308593750, 0.048095703125, 24.343750000000, 96.687500000000, -35.968750000000, 1490953126
-0.105712890625, 0.091308593750, 0.048095703125, 24.343750000000, 96.687500000000, -35.968750000000, 1490953126
-0.105712890625, 0.091308593750, 0.048095703125, 24.343750000000, 96.687500000000, -35.968750000000, 1490953126
0.035644531250, 0.001464843750, -0.041503906250, 4.289062500000, 70.046875000000, -5.375000000000, 1490953126
0.035644531250, 0.001464843750, -0.041503906250, 4.289062500000, 70.046875000000, -5.375000000000, 1490953126
0.035644531250, 0.001464843750, -0.041503906250, 4.289062500000, 70.046875000000, -5.375000000000, 1490953126
-0.002685546875, -0.289306640625, 0.018310546875, -110.328125000000, -71.765625000000, -26.593750000000, 1490953126
-0.002685546875, -0.289306640625, 0.018310546875, -110.328125000000, -71.765625000000, -26.593750000000, 1490953126
-0.002685546875, -0.289306640625, 0.018310546875, -110.328125000000, -71.765625000000, -26.593750000000, 1490953126
0.283203125000, -2.185302734375, -0.047363281250, -256.000000000000, -175.289062500000, 98.812500000000, 1490953126
0.283203125000, -2.185302734375, -0.047363281250, -256.000000000000, -175.289062500000, 98.812500000000, 1490953126
0.283203125000, -2.185302734375, -0.047363281250, -256.000000000000, -175.289062500000, 98.812500000000, 1490953126
-0.420410156250, -3.081054687500, 2.683593750000, 253.992187500000, 253.992187500000, 35.187500000000, 1490953126
-0.420410156250, -3.081054687500, 2.683593750000, 253.992187500000, 253.992187500000, 35.187500000000, 1490953126
-0.420410156250, -3.081054687500, 2.683593750000, 253.992187500000, 253.992187500000, 35.187500000000, 1490953126
-0.420410156250, -3.081054687500, 2.683593750000, 253.992187500000, 253.992187500000, 35.187500000000, 1490953126
0.037353515625, -1.431640625000, 0.185546875000, -256.000000000000, 79.187500000000, -61.257812500000, 1490953126
0.037353515625, -1.431640625000, 0.185546875000, -256.000000000000, 79.187500000000, -61.257812500000, 1490953126
0.037353515625, -1.431640625000, 0.185546875000, -256.000000000000, 79.187500000000, -61.257812500000, 1490953126
-0.417968750000, -1.299072265625, 0.134033203125, -117.765625000000, 208.492187500000, -1.281250000000, 1490953126
-0.417968750000, -1.299072265625, 0.134033203125, -117.765625000000, 208.492187500000, -1.281250000000, 1490953126
-0.417968750000, -1.299072265625, 0.134033203125, -117.765625000000, 208.492187500000, -1.281250000000, 1490953126
-0.712158203125, -0.536132812500, -0.055664062500, 34.695312500000, -97.367187500000, 13.101562500000, 1490953126
-0.712158203125, -0.536132812500, -0.055664062500, 34.695312500000, -97.367187500000, 13.101562500000, 1490953126
-0.712158203125, -0.536132812500, -0.055664062500, 34.695312500000, -97.367187500000, 13.101562500000, 1490953126
0.123535156250, -0.182373046875, 0.195068359375, 85.734375000000, -32.632812500000, -57.531250000000, 1490953126
0.123535156250, -0.182373046875, 0.195068359375, 85.734375000000, -32.632812500000, -57.531250000000, 1490953126
0.123535156250, -0.182373046875, 0.195068359375, 85.734375000000, -32.632812500000, -57.531250000000, 1490953126
0.123535156250, -0.182373046875, 0.195068359375, 85.734375000000, -32.632812500000, -57.531250000000, 1490953126
0.181152343750, -0.034179687500, 0.321044921875, 80.101562500000, 253.992187500000, -71.585937500000, 1490953126
0.181152343750, -0.034179687500, 0.321044921875, 80.101562500000, 253.992187500000, -71.585937500000, 1490953126
0.181152343750, -0.034179687500, 0.321044921875, 80.101562500000, 253.992187500000, -71.585937500000, 1490953126
0.088134765625, -0.077636718750, 0.134033203125, -25.031250000000, 174.835937500000, -104.867187500000, 1490953126
0.088134765625, -0.077636718750, 0.134033203125, -25.031250000000, 174.835937500000, -104.867187500000, 1490953126
0.088134765625, -0.077636718750, 0.134033203125, -25.031250000000, 174.835937500000, -104.867187500000, 1490953126
0.065673828125, -0.393310546875, -0.018798828125, -188.117187500000, 109.132812500000, -76.750000000000, 1490953126
0.065673828125, -0.393310546875, -0.018798828125, -188.117187500000, 109.132812500000, -76.750000000000, 1490953126
-0.303710937500, -2.103515625000, 0.325439453125, 253.992187500000, -136.648437500000, 33.484375000000, 1490953126
-0.303710937500, -2.103515625000, 0.325439453125, 253.992187500000, -136.648437500000, 33.484375000000, 1490953126
-0.303710937500, -2.103515625000, 0.325439453125, 253.992187500000, -136.648437500000, 33.484375000000, 1490953126
-0.303710937500, -2.103515625000, 0.325439453125, 253.992187500000, -136.648437500000, 33.484375000000, 1490953126
-0.303710937500, -2.103515625000, 0.325439453125, 253.992187500000, -136.648437500000, 33.484375000000, 1490953126
-0.092773437500, -1.995605468750, 1.326416015625, -65.132812500000, -35.601562500000, -15.898437500000, 1490953126
-0.092773437500, -1.995605468750, 1.326416015625, -65.132812500000, -35.601562500000, -15.898437500000, 1490953126
-0.092773437500, -1.995605468750, 1.326416015625, -65.132812500000, -35.601562500000, -15.898437500000, 1490953126
-0.192871093750, -1.439941406250, 0.348388671875, -55.804687500000, 24.976562500000, -33.382812500000, 1490953126
-0.192871093750, -1.439941406250, 0.348388671875, -55.804687500000, 24.976562500000, -33.382812500000, 1490953126
-0.192871093750, -1.439941406250, 0.348388671875, -55.804687500000, 24.976562500000, -33.382812500000, 1490953126
-0.205566406250, -1.158203125000, 0.359130859375, -40.554687500000, 19.820312500000, -39.992187500000, 1490953126
-0.197509765625, -0.312011718750, 0.046142578125, 6.148437500000, 35.148437500000, -41.867187500000, 1490953126
-0.197509765625, -0.312011718750, 0.046142578125, 6.148437500000, 35.148437500000, -41.867187500000, 1490953126
-0.197509765625, -0.312011718750, 0.046142578125, 6.148437500000, 35.148437500000, -41.867187500000, 1490953126
-0.197509765625, -0.312011718750, 0.046142578125, 6.148437500000, 35.148437500000, -41.867187500000, 1490953126
-0.197509765625, -0.312011718750, 0.046142578125, 6.148437500000, 35.148437500000, -41.867187500000, 1490953126
-0.197509765625, -0.312011718750, 0.046142578125, 6.148437500000, 35.148437500000, -41.867187500000, 1490953126
0.153076171875, -0.380615234375, 0.195312500000, 21.960937500000, 8.406250000000, -31.648437500000, 1490953126
0.153076171875, -0.380615234375, 0.195312500000, 21.960937500000, 8.406250000000, -31.648437500000, 1490953126
0.153076171875, -0.380615234375, 0.195312500000, 21.960937500000, 8.406250000000, -31.648437500000, 1490953126
0.039550781250, -0.614501953125, -0.065673828125, -35.687500000000, 10.226562500000, 4.625000000000, 1490953126
0.039550781250, -0.614501953125, -0.065673828125, -35.687500000000, 10.226562500000, 4.625000000000, 1490953126
0.039550781250, -0.614501953125, -0.065673828125, -35.687500000000, 10.226562500000, 4.625000000000, 1490953126
-0.258056640625, -1.452880859375, 0.153076171875, -98.492187500000, -136.609375000000, 91.703125000000, 1490953127
-0.258056640625, -1.452880859375, 0.153076171875, -98.492187500000, -136.609375000000, 91.703125000000, 1490953127
-0.258056640625, -1.452880859375, 0.153076171875, -98.492187500000, -136.609375000000, 91.703125000000, 1490953127
-0.193359375000, -1.558593750000, 0.024902343750, 187.328125000000, -187.390625000000, 58.656250000000, 1490953127
-0.193359375000, -1.558593750000, 0.024902343750, 187.328125000000, -187.390625000000, 58.656250000000, 1490953127
-0.193359375000, -1.558593750000, 0.024902343750, 187.328125000000, -187.390625000000, 58.656250000000, 1490953127
-0.193359375000, -1.558593750000, 0.024902343750, 187.328125000000, -187.390625000000, 58.656250000000, 1490953127
0.109863281250, -1.528320312500, 0.839111328125, 60.835937500000, 78.125000000000, 28.992187500000, 1490953127
0.109863281250, -1.528320312500, 0.839111328125, 60.835937500000, 78.125000000000, 28.992187500000, 1490953127
0.109863281250, -1.528320312500, 0.839111328125, 60.835937500000, 78.125000000000, 28.992187500000, 1490953127
0.000244140625, -1.073242187500, 0.111572265625, -113.453125000000, 5.765625000000, 29.015625000000, 1490953127
0.000244140625, -1.073242187500, 0.111572265625, -113.453125000000, 5.765625000000, 29.015625000000, 1490953127
0.000244140625, -1.073242187500, 0.111572265625, -113.453125000000, 5.765625000000, 29.015625000000, 1490953127
