ACC_X,ACC_Y,ACC_Z,G_X,G_Y,G_Z,Unix Time
-0.047607421875, -1.031005859375, 0.138183593750, -1.890625000000, -2.679687500000, -5.289062500000, 1490953215
-0.047607421875, -1.031005859375, 0.138183593750, -1.890625000000, -2.679687500000, -5.289062500000, 1490953215
-0.047607421875, -1.031005859375, 0.138183593750, -1.890625000000, -2.679687500000, -5.289062500000, 1490953215
-0.077392578125, -0.986328125000, 0.141601562500, -6.968750000000, -0.484375000000, -10.718750000000, 1490953215
-0.077392578125, -0.986328125000, 0.141601562500, -6.968750000000, -0.484375000000, -10.718750000000, 1490953215
-0.077392578125, -0.986328125000, 0.141601562500, -6.968750000000, -0.484375000000, -10.718750000000, 1490953215
0.018310546875, -0.950439453125, 0.203613281250, 5.726562500000, -12.351562500000, -11.906250000000, 1490953215
0.018310546875, -0.950439453125, 0.203613281250, 5.726562500000, -12.351562500000, -11.906250000000, 1490953215
0.018310546875, -0.950439453125, 0.203613281250, 5.726562500000, -12.351562500000, -11.906250000000, 1490953215
-0.052978515625, -0.924560546875, 0.154052734375, 4.203125000000, -5.695312500000, -11.117187500000, 1490953215
-0.052978515625, -0.924560546875, 0.154052734375, 4.203125000000, -5.695312500000, -11.117187500000, 1490953215
-0.052978515625, -0.924560546875, 0.154052734375, 4.203125000000, -5.695312500000, -11.117187500000, 1490953215
0.023437500000, -0.926025390625, 0.096435546875, -6.000000000000, 0.789062500000, -13.234375000000, 1490953215
-0.091308593750, -1.070556640625, 0.102783203125, -6.000000000000, 0.789062500000, -13.234375000000, 1490953215
-0.091308593750, -1.070556640625, 0.102783203125, -6.000000000000, 0.789062500000, -13.234375000000, 1490953215
-0.091308593750, -1.070556640625, 0.102783203125, -6.000000000000, 0.789062500000, -13.234375000000, 1490953215
-0.028564453125, -1.024658203125, 0.142822265625, -10.375000000000, 6.484375000000, -13.882812500000, 1490953215
-0.028564453125, -1.024658203125, 0.142822265625, -10.375000000000, 6.484375000000, -13.882812500000, 1490953215
-0.028564453125, -1.024658203125, 0.142822265625, -10.375000000000, 6.484375000000, -13.882812500000, 1490953215
-0.129150390625, -1.027832031250, 0.218261718750, 0.578125000000, 8.632812500000, -12.023437500000, 1490953215
-0.129150390625, -1.027832031250, 0.218261718750, 0.578125000000, 8.632812500000, -12.023437500000, 1490953215
-0.129150390625, -1.027832031250, 0.218261718750, 0.578125000000, 8.632812500000, -12.023437500000, 1490953215
-0.129150390625, -1.027832031250, 0.218261718750, 0.578125000000, 8.632812500000, -12.023437500000, 1490953215
-0.051025390625, -0.991943359375, 0.146484375000, -10.968750000000, 21.242187500000, -5.015625000000, 1490953215
-0.051025390625, -0.991943359375, 0.146484375000, -10.968750000000, 21.242187500000, -5.015625000000, 1490953215
-0.051025390625, -0.991943359375, 0.146484375000, -10.968750000000, 21.242187500000, -5.015625000000, 1490953215
-0.190185546875, -0.968261718750, 0.052001953125, -9.734375000000, 23.148437500000, -3.000000000000, 1490953215
-0.190185546875, -0.968261718750, 0.052001953125, -9.734375000000, 23.148437500000, -3.000000000000, 1490953215
-0.190185546875, -0.968261718750, 0.052001953125, -9.734375000000, 23.148437500000, -3.000000000000, 1490953215
-0.141113281250, -0.987792968750, 0.211425781250, 0.023437500000, 10.203125000000, 2.570312500000, 1490953215
-0.141113281250, -0.987792968750, 0.211425781250, 0.023437500000, 10.203125000000, 2.570312500000, 1490953215
-0.141113281250, -0.987792968750, 0.211425781250, 0.023437500000, 10.203125000000, 2.570312500000, 1490953215
-0.134033203125, -0.958984375000, 0.210205078125, 11.710937500000, 2.914062500000, -4.562500000000, 1490953215
-0.134033203125, -0.958984375000, 0.210205078125, 11.710937500000, 2.914062500000, -4.562500000000, 1490953215
-0.134033203125, -0.958984375000, 0.210205078125, 11.710937500000, 2.914062500000, -4.562500000000, 1490953215
-0.134033203125, -0.958984375000, 0.210205078125, 11.710937500000, 2.914062500000, -4.562500000000, 1490953215
-0.103271484375, -0.862792968750, 0.192382812500, 11.250000000000, 19.062500000000, -4.273437500000, 1490953215
-0.103271484375, -0.862792968750, 0.192382812500, 11.250000000000, 19.062500000000, -4.273437500000, 1490953215
-0.103271484375, -0.862792968750, 0.192382812500, 11.250000000000, 19.062500000000, -4.273437500000, 1490953216
-0.037597656250, -0.703857421875, 0.076171875000, 25.500000000000, 44.210937500000, -8.296875000000, 1490953216
-0.037597656250, -0.703857421875, 0.076171875000, 25.500000000000, 44.210937500000, -8.296875000000, 1490953216
-0.037597656250, -0.703857421875, 0.076171875000, 25.500000000000, 44.210937500000, -8.296875000000, 1490953216
0.047119140625, -0.300537109375, 0.116699218750, 59.093750000000, 71.453125000000, -8.109375000000, 1490953216
-0.005371093750, -0.180175781250, 0.103027343750, 75.507812500000, 76.796875000000, -1.484375000000, 1490953216
-0.005371093750, -0.180175781250, 0.103027343750, 75.507812500000, 76.796875000000, -1.484375000000, 1490953216
0.023193359375, -0.034179687500, 0.035156250000, 37.804687500000, 128.562500000000, -33.210937500000, 1490953216
0.023193359375, -0.034179687500, 0.035156250000, 37.804687500000, 128.562500000000, -33.210937500000, 1490953216
0.023193359375, -0.034179687500, 0.035156250000, 37.804687500000, 128.562500000000, -33.210937500000, 1490953216
0.023193359375, -0.034179687500, 0.035156250000, 37.804687500000, 128.562500000000, -33.210937500000, 1490953216
-0.110595703125, -0.918701171875, -0.144042968750, -193.882812500000, 26.562500000000, -7.398437500000, 1490953216
-0.110595703125, -0.918701171875, -0.144042968750, -193.882812500000, 26.562500000000, -7.398437500000, 1490953216
-0.110595703125, -0.918701171875, -0.144042968750, -193.882812500000, 26.562500000000, -7.398437500000, 1490953216
-0.160888671875, -1.856689453125, 0.016357421875, -53.164062500000, -58.492187500000, 26.539062500000, 1490953216
-0.160888671875, -1.856689453125, 0.016357421875, -53.164062500000, -58.492187500000, 26.539062500000, 1490953216
-0.160888671875, -1.856689453125, 0.016357421875, -53.164062500000, -58.492187500000, 26.539062500000, 1490953216
-0.174072265625, -1.938720703125, -0.145751953125, 36.625000000000, 56.039062500000, 0.570312500000, 1490953216
-0.174072265625, -1.938720703125, -0.145751953125, 36.625000000000, 56.039062500000, 0.570312500000, 1490953216
-0.174072265625, -1.938720703125, -0.145751953125, 36.625000000000, 56.039062500000, 0.570312500000, 1490953216
-0.120849609375, -2.480224609375, -0.082763671875, 94.039062500000, -256.000000000000, 61.679687500000, 1490953216
-0.120849609375, -2.480224609375, -0.082763671875, 94.039062500000, -256.000000000000, 61.679687500000, 1490953216
-0.120849609375, -2.480224609375, -0.082763671875, 94.039062500000, -256.000000000000, 61.679687500000, 1490953216
-0.120849609375, -2.480224609375, -0.082763671875, 94.039062500000, -256.000000000000, 61.679687500000, 1490953216
-0.632080078125, -2.345947265625, 0.219970703125, -40.000000000000, -19.578125000000, -19.273437500000, 1490953216
-0.632080078125, -2.345947265625, 0.219970703125, -40.000000000000, -19.578125000000, -19.273437500000, 1490953216
-0.632080078125, -2.345947265625, 0.219970703125, -40.000000000000, -19.578125000000, -19.273437500000, 1490953216
-0.105957031250, -2.343017578125, -0.066650390625, -168.625000000000, 34.632812500000, -64.703125000000, 1490953216
-0.105957031250, -2.343017578125, -0.066650390625, -168.625000000000, 34.632812500000, -64.703125000000, 1490953216
-0.105957031250, -2.343017578125, -0.066650390625, -168.625000000000, 34.632812500000, -64.703125000000, 1490953216
0.223144531250, -1.811035156250, 0.044433593750, -98.968750000000, 134.460937500000, -97.789062500000, 1490953216
0.223144531250, -1.811035156250, 0.044433593750, -98.968750000000, 134.460937500000, -97.789062500000, 1490953216
0.223144531250, -1.811035156250, 0.044433593750, -98.968750000000, 134.460937500000, -97.789062500000, 1490953216
0.167968750000, -0.311767578125, 0.153320312500, 20.718750000000, 99.468750000000, -43.289062500000, 1490953216
0.167968750000, -0.311767578125, 0.153320312500, 20.718750000000, 99.468750000000, -43.289062500000, 1490953216
0.167968750000, -0.311767578125, 0.153320312500, 20.718750000000, 99.468750000000, -43.289062500000, 1490953216
0.167968750000, -0.311767578125, 0.153320312500, 20.718750000000, 99.468750000000, -43.289062500000, 1490953216
-0.006591796875, 0.123535156250, 0.108642578125, 81.125000000000, 168.359375000000, -68.070312500000, 1490953216
-0.006591796875, 0.123535156250, 0.108642578125, 81.125000000000, 168.359375000000, -68.070312500000, 1490953216
-0.006591796875, 0.123535156250, 0.108642578125, 81.125000000000, 168.359375000000, -68.070312500000, 1490953216
0.030517578125, 0.099609375000, 0.209716796875, -94.390625000000, 198.820312500000, -102.242187500000, 1490953216
0.030517578125, 0.099609375000, 0.209716796875, -94.390625000000, 198.820312500000, -102.242187500000, 1490953216
0.030517578125, 0.099609375000, 0.209716796875, -94.390625000000, 198.820312500000, -102.242187500000, 1490953216
0.081787109375, 0.005615234375, -0.006103515625, -162.992187500000, 247.781250000000, -150.625000000000, 1490953216
0.081787109375, 0.005615234375, -0.006103515625, -162.992187500000, 247.781250000000, -150.625000000000, 1490953216
0.081787109375, 0.005615234375, -0.006103515625, -162.992187500000, 247.781250000000, -150.625000000000, 1490953216
0.090576171875, -0.070312500000, -0.022216796875, -202.406250000000, 213.523437500000, -128.687500000000, 1490953216
0.090576171875, -0.070312500000, -0.022216796875, -202.406250000000, 213.523437500000, -128.687500000000, 1490953216
0.090576171875, -0.070312500000, -0.022216796875, -202.406250000000, 213.523437500000, -128.687500000000, 1490953216
0.090576171875, -0.070312500000, -0.022216796875, -202.406250000000, 213.523437500000, -128.687500000000, 1490953216
-0.075439453125, 0.020019531250, 0.078613281250, -43.835937500000, 41.140625000000, -37.242187500000, 1490953216
-0.075439453125, 0.020019531250, 0.078613281250, -43.835937500000, 41.140625000000, -37.242187500000, 1490953216
-0.075439453125, 0.020019531250, 0.078613281250, -43.835937500000, 41.140625000000, -37.242187500000, 1490953216
-0.013183593750, -0.008300781250, 0.030273437500, -21.054687500000, -91.992187500000, -64.851562500000, 1490953216
-0.013183593750, -0.008300781250, 0.030273437500, -21.054687500000, -91.992187500000, -64.851562500000, 1490953216
-0.013183593750, -0.008300781250, 0.030273437500, -21.054687500000, -91.992187500000, -64.851562500000, 1490953216
0.088378906250, 0.059082031250, -0.010498046875, -106.218750000000, -26.226562500000, -54.625000000000, 1490953216
0.088378906250, 0.059082031250, -0.010498046875, -106.218750000000, -26.226562500000, -54.625000000000, 1490953216
0.088378906250, 0.059082031250, -0.010498046875, -106.218750000000, -26.226562500000, -54.625000000000, 1490953216
-0.029541015625, -0.057373046875, -0.068359375000, -109.796875000000, -9.453125000000, -53.406250000000, 1490953216
-0.029541015625, -0.057373046875, -0.068359375000, -109.796875000000, -9.453125000000, -53.406250000000, 1490953216
-0.029541015625, -0.057373046875, -0.068359375000, -109.796875000000, -9.453125000000, -53.406250000000, 1490953216
-0.029541015625, -0.057373046875, -0.068359375000, -109.796875000000, -9.453125000000, -53.406250000000, 1490953216
0.312255859375, -3.489990234375, 0.171875000000, 75.125000000000, -256.000000000000, 253.992187500000, 1490953216
0.312255859375, -3.489990234375, 0.171875000000, 75.125000000000, -256.000000000000, 253.992187500000, 1490953216
0.312255859375, -3.489990234375, 0.171875000000, 75.125000000000, -256.000000000000, 253.992187500000, 1490953216
1.213867187500, -2.310546875000, 0.010498046875, 0.539062500000, -256.000000000000, 253.992187500000, 1490953217
1.213867187500, -2.310546875000, 0.010498046875, 0.539062500000, -256.000000000000, 253.992187500000, 1490953217
1.213867187500, -2.310546875000, 0.010498046875, 0.539062500000, -256.000000000000, 253.992187500000, 1490953217
3.140136718750, -3.159423828125, 4.940185546875, 253.992187500000, 127.484375000000, -231.921875000000, 1490953217
3.140136718750, -3.159423828125, 4.940185546875, 253.992187500000, 127.484375000000, -231.921875000000, 1490953217
3.140136718750, -3.159423828125, 4.940185546875, 253.992187500000, 127.484375000000, -231.921875000000, 1490953217
0.437011718750, -1.784423828125, 0.127441406250, -248.570312500000, 253.992187500000, -97.679687500000, 1490953217
0.437011718750, -1.784423828125, 0.127441406250, -248.570312500000, 253.992187500000, -97.679687500000, 1490953217
0.437011718750, -1.784423828125, 0.127441406250, -248.570312500000, 253.992187500000, -97.679687500000, 1490953217
0.437011718750, -1.784423828125, 0.127441406250, -248.570312500000, 253.992187500000, -97.679687500000, 1490953217
0.180664062500, -0.634033203125, -0.018554687500, 132.007812500000, 253.992187500000, -144.656250000000, 1490953217
0.180664062500, -0.634033203125, -0.018554687500, 132.007812500000, 253.992187500000, -144.656250000000, 1490953217
0.180664062500, -0.634033203125, -0.018554687500, 132.007812500000, 253.992187500000, -144.656250000000, 1490953217
-0.008300781250, -0.373046875000, 0.088378906250, 150.531250000000, 173.289062500000, -114.375000000000, 1490953217
-0.008300781250, -0.373046875000, 0.088378906250, 150.531250000000, 173.289062500000, -114.375000000000, 1490953217
-0.008300781250, -0.373046875000, 0.088378906250, 150.531250000000, 173.289062500000, -114.375000000000, 1490953217
0.055175781250, -0.375488281250, -0.001464843750, 92.062500000000, -64.039062500000, 9.140625000000, 1490953217
0.055175781250, -0.375488281250, -0.001464843750, 92.062500000000, -64.039062500000, 9.140625000000, 1490953217
0.055175781250, -0.375488281250, -0.001464843750, 92.062500000000, -64.039062500000, 9.140625000000, 1490953217
0.326171875000, -0.926025390625, -0.083496093750, -48.171875000000, -218.367187500000, 141.546875000000, 1490953217
0.326171875000, -0.926025390625, -0.083496093750, -48.171875000000, -218.367187500000, 141.546875000000, 1490953217
0.326171875000, -0.926025390625, -0.083496093750, -48.171875000000, -218.367187500000, 141.546875000000, 1490953217
0.326171875000, -0.926025390625, -0.083496093750, -48.171875000000, -218.367187500000, 141.546875000000, 1490953217
0.279052734375, -0.972167968750, -0.009521484375, -78.835937500000, -256.000000000000, 121.257812500000, 1490953217
0.279052734375, -0.972167968750, -0.009521484375, -78.835937500000, -256.000000000000, 121.257812500000, 1490953217
0.279052734375, -0.972167968750, -0.009521484375, -78.835937500000, -256.000000000000, 121.257812500000, 1490953217
-0.312500000000, -1.569824218750, 0.391113281250, 48.539062500000, -256.000000000000, 105.078125000000, 1490953217
-0.312500000000, -1.569824218750, 0.391113281250, 48.539062500000, -256.000000000000, 105.078125000000, 1490953217
-0.312500000000, -1.569824218750, 0.391113281250, 48.539062500000, -256.000000000000, 105.078125000000, 1490953217
0.468261718750, -0.849121093750, 0.591552734375, -90.703125000000, -50.914062500000, -39.312500000000, 1490953217
0.468261718750, -0.849121093750, 0.591552734375, -90.703125000000, -50.914062500000, -39.312500000000, 1490953217
0.468261718750, -0.849121093750, 0.591552734375, -90.703125000000, -50.914062500000, -39.312500000000, 1490953217
0.325439453125, -0.935302734375, 0.191650390625, 58.609375000000, 253.992187500000, -65.039062500000, 1490953217
0.325439453125, -0.935302734375, 0.191650390625, 58.609375000000, 253.992187500000, -65.039062500000, 1490953217
0.325439453125, -0.935302734375, 0.191650390625, 58.609375000000, 253.992187500000, -65.039062500000, 1490953217
0.325439453125, -0.935302734375, 0.191650390625, 58.609375000000, 253.992187500000, -65.039062500000, 1490953217
0.138183593750, -0.973388671875, 0.091064453125, -44.929687500000, 112.335937500000, -36.859375000000, 1490953217
0.138183593750, -0.973388671875, 0.091064453125, -44.929687500000, 112.335937500000, -36.859375000000, 1490953217
0.075927734375, -0.946289062500, 0.134033203125, -47.203125000000, -1.570312500000, 24.242187500000, 1490953217
0.075927734375, -0.946289062500, 0.134033203125, -47.203125000000, -1.570312500000, 24.242187500000, 1490953217
0.075927734375, -0.946289062500, 0.134033203125, -47.203125000000, -1.570312500000, 24.242187500000, 1490953217
0.040527343750, -1.002929687500, 0.207519531250, 31.148437500000, -62.781250000000, 17.898437500000, 1490953217
0.040527343750, -1.002929687500, 0.207519531250, 31.148437500000, -62.781250000000, 17.898437500000, 1490953217
0.040527343750, -1.002929687500, 0.207519531250, 31.148437500000, -62.781250000000, 17.898437500000, 1490953217
0.040527343750, -1.002929687500, 0.207519531250, 31.148437500000, -62.781250000000, 17.898437500000, 1490953217
0.096191406250, -0.931152343750, 0.323730468750, -13.132812500000, -12.968750000000, 12.890625000000, 1490953217
0.096191406250, -0.931152343750, 0.323730468750, -13.132812500000, -12.968750000000, 12.890625000000, 1490953217
0.096191406250, -0.931152343750, 0.323730468750, -13.132812500000, -12.968750000000, 12.890625000000, 1490953217
0.096191406250, -0.931152343750, 0.323730468750, -13.132812500000, -12.968750000000, 12.890625000000, 1490953217
0.131347656250, -0.994384765625, 0.244384765625, -14.671875000000, 45.414062500000, -6.234375000000, 1490953217
0.131347656250, -0.994384765625, 0.244384765625, -14.671875000000, 45.414062500000, -6.234375000000, 1490953217
0.131347656250, -0.994384765625, 0.244384765625, -14.671875000000, 45.414062500000, -6.234375000000, 1490953217
0.082763671875, -1.070800781250, 0.146728515625, -16.640625000000, 21.609375000000, -1.859375000000, 1490953217
0.082763671875, -1.070800781250, 0.146728515625, -16.640625000000, 21.609375000000, -1.859375000000, 1490953217
0.082763671875, -1.070800781250, 0.146728515625, -16.640625000000, 21.609375000000, -1.859375000000, 1490953217
0.023193359375, -0.982421875000, 0.196777343750, -6.789062500000, -21.898437500000, 0.593750000000, 1490953217
0.023193359375, -0.982421875000, 0.196777343750, -6.789062500000, -21.898437500000, 0.593750000000, 1490953217
0.023193359375, -0.982421875000, 0.196777343750, -6.789062500000, -21.898437500000, 0.593750000000, 1490953217
0.133789062500, -1.002441406250, 0.238525390625, -7.992187500000, -40.765625000000, -2.328125000000, 1490953217
0.133789062500, -1.002441406250, 0.238525390625, -7.992187500000, -40.765625000000, -2.328125000000, 1490953217
0.133789062500, -1.002441406250, 0.238525390625, -7.992187500000, -40.765625000000, -2.328125000000, 1490953217
0.133789062500, -1.002441406250, 0.238525390625, -7.992187500000, -40.765625000000, -2.328125000000, 1490953217
