ACC_X,ACC_Y,ACC_Z,G_X,G_Y,G_Z,Unix Time
0.243164062500, -0.766357421875, 0.163574218750, -5.812500000000, -69.367187500000, -16.726562500000, 1490764334
0.243164062500, -0.766357421875, 0.163574218750, -5.812500000000, -69.367187500000, -16.726562500000, 1490764334
0.243164062500, -0.766357421875, 0.163574218750, -5.812500000000, -69.367187500000, -16.726562500000, 1490764334
0.279541015625, -0.660400390625, 0.194824218750, -7.679687500000, -45.335937500000, 0.421875000000, 1490764335
0.279541015625, -0.660400390625, 0.194824218750, -7.679687500000, -45.335937500000, 0.421875000000, 1490764335
0.163818359375, -0.733154296875, 0.118652343750, -20.914062500000, -24.039062500000, -12.945312500000, 1490764335
0.163818359375, -0.733154296875, 0.118652343750, -20.914062500000, -24.039062500000, -12.945312500000, 1490764335
0.321289062500, -0.901367187500, 0.712158203125, -1.132812500000, -42.359375000000, -28.375000000000, 1490764335
0.321289062500, -0.901367187500, 0.712158203125, -1.132812500000, -42.359375000000, -28.375000000000, 1490764335
0.321289062500, -0.901367187500, 0.712158203125, -1.132812500000, -42.359375000000, -28.375000000000, 1490764335
0.321289062500, -0.901367187500, 0.712158203125, -1.132812500000, -42.359375000000, -28.375000000000, 1490764335
0.199707031250, -1.010009765625, 0.390136718750, -43.109375000000, -69.398437500000, -17.375000000000, 1490764335
0.199707031250, -1.010009765625, 0.390136718750, -43.109375000000, -69.398437500000, -17.375000000000, 1490764335
0.199707031250, -1.010009765625, 0.390136718750, -43.109375000000, -69.398437500000, -17.375000000000, 1490764335
0.199707031250, -1.010009765625, 0.390136718750, -43.109375000000, -69.398437500000, -17.375000000000, 1490764335
0.160888671875, -0.947753906250, 0.284667968750, -9.281250000000, -111.656250000000, -25.164062500000, 1490764335
0.160888671875, -0.947753906250, 0.284667968750, -9.281250000000, -111.656250000000, -25.164062500000, 1490764335
0.160888671875, -0.947753906250, 0.284667968750, -9.281250000000, -111.656250000000, -25.164062500000, 1490764335
0.233154296875, -0.704345703125, 0.514648437500, -10.203125000000, -70.601562500000, -13.132812500000, 1490764335
0.233154296875, -0.704345703125, 0.514648437500, -10.203125000000, -70.601562500000, -13.132812500000, 1490764335
0.233154296875, -0.704345703125, 0.514648437500, -10.203125000000, -70.601562500000, -13.132812500000, 1490764335
0.233154296875, -0.704345703125, 0.514648437500, -10.203125000000, -70.601562500000, -13.132812500000, 1490764335
0.233154296875, -0.704345703125, 0.514648437500, -10.203125000000, -70.601562500000, -13.132812500000, 1490764335
0.414550781250, -0.757080078125, 0.323486328125, -51.906250000000, -50.242187500000, 6.500000000000, 1490764335
0.414550781250, -0.757080078125, 0.323486328125, -51.906250000000, -50.242187500000, 6.500000000000, 1490764335
0.414550781250, -0.757080078125, 0.323486328125, -51.906250000000, -50.242187500000, 6.500000000000, 1490764335
0.449707031250, -0.843505859375, 0.300292968750, 3.101562500000, 2.242187500000, -5.796875000000, 1490764335
0.449707031250, -0.843505859375, 0.300292968750, 3.101562500000, 2.242187500000, -5.796875000000, 1490764335
0.449707031250, -0.843505859375, 0.300292968750, 3.101562500000, 2.242187500000, -5.796875000000, 1490764335
0.465820312500, -0.798095703125, 0.385986328125, 23.914062500000, 2.671875000000, -15.906250000000, 1490764335
0.465820312500, -0.798095703125, 0.385986328125, 23.914062500000, 2.671875000000, -15.906250000000, 1490764335
0.368164062500, -0.675048828125, 0.473388671875, 14.093750000000, 16.984375000000, 0.468750000000, 1490764335
0.368164062500, -0.675048828125, 0.473388671875, 14.093750000000, 16.984375000000, 0.468750000000, 1490764335
0.368164062500, -0.675048828125, 0.473388671875, 14.093750000000, 16.984375000000, 0.468750000000, 1490764335
0.368164062500, -0.675048828125, 0.473388671875, 14.093750000000, 16.984375000000, 0.468750000000, 1490764335
0.368164062500, -0.675048828125, 0.473388671875, 14.093750000000, 16.984375000000, 0.468750000000, 1490764335
0.400146484375, -0.754638671875, 0.424560546875, -5.789062500000, 41.875000000000, 21.929687500000, 1490764335
0.400146484375, -0.754638671875, 0.424560546875, -5.789062500000, 41.875000000000, 21.929687500000, 1490764335
0.400146484375, -0.754638671875, 0.424560546875, -5.789062500000, 41.875000000000, 21.929687500000, 1490764335
0.398925781250, -0.797607421875, 0.425292968750, 7.687500000000, 41.546875000000, 17.335937500000, 1490764335
0.398925781250, -0.797607421875, 0.425292968750, 7.687500000000, 41.546875000000, 17.335937500000, 1490764335
0.398925781250, -0.797607421875, 0.425292968750, 7.687500000000, 41.546875000000, 17.335937500000, 1490764335
0.468750000000, -0.879638671875, 0.495361328125, 23.234375000000, 33.148437500000, 15.187500000000, 1490764335
0.468750000000, -0.879638671875, 0.495361328125, 23.234375000000, 33.148437500000, 15.187500000000, 1490764335
0.468750000000, -0.879638671875, 0.495361328125, 23.234375000000, 33.148437500000, 15.187500000000, 1490764335
0.365966796875, -0.980468750000, 0.515625000000, -20.914062500000, 55.992187500000, 22.117187500000, 1490764335
0.365966796875, -0.980468750000, 0.515625000000, -20.914062500000, 55.992187500000, 22.117187500000, 1490764335
0.365966796875, -0.980468750000, 0.515625000000, -20.914062500000, 55.992187500000, 22.117187500000, 1490764335
0.365966796875, -0.980468750000, 0.515625000000, -20.914062500000, 55.992187500000, 22.117187500000, 1490764335
0.328369140625, -1.084960937500, 0.367431640625, -27.234375000000, 70.179687500000, 28.539062500000, 1490764335
0.328369140625, -1.084960937500, 0.367431640625, -27.234375000000, 70.179687500000, 28.539062500000, 1490764335
0.328369140625, -1.084960937500, 0.367431640625, -27.234375000000, 70.179687500000, 28.539062500000, 1490764335
0.333496093750, -1.005371093750, 0.380126953125, 30.601562500000, 39.515625000000, 26.953125000000, 1490764335
0.333496093750, -1.005371093750, 0.380126953125, 30.601562500000, 39.515625000000, 26.953125000000, 1490764335
0.333496093750, -1.005371093750, 0.380126953125, 30.601562500000, 39.515625000000, 26.953125000000, 1490764335
0.367675781250, -0.803466796875, 0.220214843750, 45.726562500000, 4.867187500000, 40.828125000000, 1490764335
0.367675781250, -0.803466796875, 0.220214843750, 45.726562500000, 4.867187500000, 40.828125000000, 1490764335
0.367675781250, -0.803466796875, 0.220214843750, 45.726562500000, 4.867187500000, 40.828125000000, 1490764335
0.402343750000, -0.718750000000, 0.146972656250, 11.632812500000, 72.640625000000, 41.273437500000, 1490764335
0.402343750000, -0.718750000000, 0.146972656250, 11.632812500000, 72.640625000000, 41.273437500000, 1490764335
0.402343750000, -0.718750000000, 0.146972656250, 11.632812500000, 72.640625000000, 41.273437500000, 1490764335
0.402343750000, -0.718750000000, 0.146972656250, 11.632812500000, 72.640625000000, 41.273437500000, 1490764335
0.360107421875, -0.792480468750, 0.188964843750, -14.929687500000, 110.781250000000, 32.195312500000, 1490764335
0.360107421875, -0.792480468750, 0.188964843750, -14.929687500000, 110.781250000000, 32.195312500000, 1490764335
0.360107421875, -0.792480468750, 0.188964843750, -14.929687500000, 110.781250000000, 32.195312500000, 1490764335
0.461914062500, -0.867675781250, 0.430175781250, 44.765625000000, 82.726562500000, 10.976562500000, 1490764335
0.461914062500, -0.867675781250, 0.430175781250, 44.765625000000, 82.726562500000, 10.976562500000, 1490764335
0.461914062500, -0.867675781250, 0.430175781250, 44.765625000000, 82.726562500000, 10.976562500000, 1490764335
0.293457031250, -0.952392578125, 0.561767578125, 74.593750000000, 80.726562500000, 13.820312500000, 1490764335
0.293457031250, -0.952392578125, 0.561767578125, 74.593750000000, 80.726562500000, 13.820312500000, 1490764335
0.293457031250, -0.952392578125, 0.561767578125, 74.593750000000, 80.726562500000, 13.820312500000, 1490764335
0.260742187500, -0.775878906250, 0.447753906250, 32.289062500000, 5.023437500000, 1.242187500000, 1490764336
0.260742187500, -0.775878906250, 0.447753906250, 32.289062500000, 5.023437500000, 1.242187500000, 1490764336
0.260742187500, -0.775878906250, 0.447753906250, 32.289062500000, 5.023437500000, 1.242187500000, 1490764336
0.260742187500, -0.775878906250, 0.447753906250, 32.289062500000, 5.023437500000, 1.242187500000, 1490764336
0.124755859375, -0.697265625000, 0.342041015625, -6.101562500000, 30.289062500000, -0.937500000000, 1490764336
0.124755859375, -0.697265625000, 0.342041015625, -6.101562500000, 30.289062500000, -0.937500000000, 1490764336
0.124755859375, -0.697265625000, 0.342041015625, -6.101562500000, 30.289062500000, -0.937500000000, 1490764336
0.171875000000, -0.677246093750, 0.510498046875, 5.257812500000, -4.484375000000, -20.835937500000, 1490764336
0.171875000000, -0.677246093750, 0.510498046875, 5.257812500000, -4.484375000000, -20.835937500000, 1490764336
0.171875000000, -0.677246093750, 0.510498046875, 5.257812500000, -4.484375000000, -20.835937500000, 1490764336
0.380126953125, -0.776123046875, 0.491455078125, 2.835937500000, 9.859375000000, -12.093750000000, 1490764336
0.380126953125, -0.776123046875, 0.491455078125, 2.835937500000, 9.859375000000, -12.093750000000, 1490764336
0.380126953125, -0.776123046875, 0.491455078125, 2.835937500000, 9.859375000000, -12.093750000000, 1490764336
0.236328125000, -0.792968750000, 0.446289062500, 5.984375000000, -24.109375000000, -17.945312500000, 1490764336
0.236328125000, -0.792968750000, 0.446289062500, 5.984375000000, -24.109375000000, -17.945312500000, 1490764336
0.236328125000, -0.792968750000, 0.446289062500, 5.984375000000, -24.109375000000, -17.945312500000, 1490764336
0.236328125000, -0.792968750000, 0.446289062500, 5.984375000000, -24.109375000000, -17.945312500000, 1490764336
0.287353515625, -0.835937500000, 0.512695312500, 36.250000000000, -20.343750000000, -28.007812500000, 1490764336
0.287353515625, -0.835937500000, 0.512695312500, 36.250000000000, -20.343750000000, -28.007812500000, 1490764336
0.287353515625, -0.835937500000, 0.512695312500, 36.250000000000, -20.343750000000, -28.007812500000, 1490764336
0.242675781250, -0.817138671875, 0.591064453125, -13.835937500000, -13.812500000000, -16.453125000000, 1490764336
0.242675781250, -0.817138671875, 0.591064453125, -13.835937500000, -13.812500000000, -16.453125000000, 1490764336
0.242675781250, -0.817138671875, 0.591064453125, -13.835937500000, -13.812500000000, -16.453125000000, 1490764336
0.323974609375, -1.010498046875, 0.506591796875, -47.164062500000, -21.039062500000, -12.929687500000, 1490764336
0.323974609375, -1.010498046875, 0.506591796875, -47.164062500000, -21.039062500000, -12.929687500000, 1490764336
0.323974609375, -1.010498046875, 0.506591796875, -47.164062500000, -21.039062500000, -12.929687500000, 1490764336
0.458496093750, -1.316162109375, 0.505615234375, -70.398437500000, -1.921875000000, -16.187500000000, 1490764336
0.458496093750, -1.316162109375, 0.505615234375, -70.398437500000, -1.921875000000, -16.187500000000, 1490764336
0.458496093750, -1.316162109375, 0.505615234375, -70.398437500000, -1.921875000000, -16.187500000000, 1490764336
0.458496093750, -1.316162109375, 0.505615234375, -70.398437500000, -1.921875000000, -16.187500000000, 1490764336
0.508544921875, -1.260498046875, 0.234130859375, -40.648437500000, -34.523437500000, 6.234375000000, 1490764336
0.508544921875, -1.260498046875, 0.234130859375, -40.648437500000, -34.523437500000, 6.234375000000, 1490764336
0.508544921875, -1.260498046875, 0.234130859375, -40.648437500000, -34.523437500000, 6.234375000000, 1490764336
0.325195312500, -0.917968750000, 0.160156250000, 24.828125000000, -15.132812500000, 11.726562500000, 1490764336
0.325195312500, -0.917968750000, 0.160156250000, 24.828125000000, -15.132812500000, 11.726562500000, 1490764336
0.325195312500, -0.917968750000, 0.160156250000, 24.828125000000, -15.132812500000, 11.726562500000, 1490764336
0.234619140625, -0.722167968750, 0.045166015625, -0.148437500000, -71.726562500000, -9.906250000000, 1490764336
0.234619140625, -0.722167968750, 0.045166015625, -0.148437500000, -71.726562500000, -9.906250000000, 1490764336
0.234619140625, -0.722167968750, 0.045166015625, -0.148437500000, -71.726562500000, -9.906250000000, 1490764336
0.176025390625, -0.755859375000, 0.106689453125, -79.164062500000, -62.664062500000, -21.164062500000, 1490764336
0.176025390625, -0.755859375000, 0.106689453125, -79.164062500000, -62.664062500000, -21.164062500000, 1490764336
0.176025390625, -0.755859375000, 0.106689453125, -79.164062500000, -62.664062500000, -21.164062500000, 1490764336
0.176025390625, -0.755859375000, 0.106689453125, -79.164062500000, -62.664062500000, -21.164062500000, 1490764336
0.121826171875, -0.810546875000, 0.305419921875, -53.078125000000, -81.601562500000, -59.351562500000, 1490764336
0.121826171875, -0.810546875000, 0.305419921875, -53.078125000000, -81.601562500000, -59.351562500000, 1490764336
0.121826171875, -0.810546875000, 0.305419921875, -53.078125000000, -81.601562500000, -59.351562500000, 1490764336
0.167724609375, -0.811523437500, 0.673828125000, -7.054687500000, -38.351562500000, -73.570312500000, 1490764336
0.167724609375, -0.811523437500, 0.673828125000, -7.054687500000, -38.351562500000, -73.570312500000, 1490764336
0.167724609375, -0.811523437500, 0.673828125000, -7.054687500000, -38.351562500000, -73.570312500000, 1490764336
0.230224609375, -0.959960937500, 0.531494140625, -23.460937500000, -42.343750000000, -53.078125000000, 1490764336
0.507080078125, -0.752685546875, 0.341308593750, 43.281250000000, -142.718750000000, -26.851562500000, 1490764336
0.507080078125, -0.752685546875, 0.341308593750, 43.281250000000, -142.718750000000, -26.851562500000, 1490764336
0.507080078125, -0.752685546875, 0.341308593750, 43.281250000000, -142.718750000000, -26.851562500000, 1490764336
0.507080078125, -0.752685546875, 0.341308593750, 43.281250000000, -142.718750000000, -26.851562500000, 1490764336
0.407470703125, -0.607421875000, 0.356201171875, 15.468750000000, -86.101562500000, -21.390625000000, 1490764336
0.475585937500, -0.632324218750, 0.353759765625, -6.218750000000, -57.406250000000, -21.820312500000, 1490764336
0.475585937500, -0.632324218750, 0.353759765625, -6.218750000000, -57.406250000000, -21.820312500000, 1490764336
0.475585937500, -0.632324218750, 0.353759765625, -6.218750000000, -57.406250000000, -21.820312500000, 1490764336
0.475585937500, -0.632324218750, 0.353759765625, -6.218750000000, -57.406250000000, -21.820312500000, 1490764336
0.480468750000, -0.673095703125, 0.282470703125, -40.914062500000, 9.695312500000, -11.781250000000, 1490764336
0.480468750000, -0.673095703125, 0.282470703125, -40.914062500000, 9.695312500000, -11.781250000000, 1490764336
0.480468750000, -0.673095703125, 0.282470703125, -40.914062500000, 9.695312500000, -11.781250000000, 1490764336
0.464355468750, -0.747070312500, 0.355224609375, -27.859375000000, 7.070312500000, -14.148437500000, 1490764336
0.425048828125, -0.732666015625, 0.470458984375, 28.523437500000, 31.039062500000, -3.531250000000, 1490764337
0.425048828125, -0.732666015625, 0.470458984375, 28.523437500000, 31.039062500000, -3.531250000000, 1490764337
0.425048828125, -0.732666015625, 0.470458984375, 28.523437500000, 31.039062500000, -3.531250000000, 1490764337
0.425048828125, -0.732666015625, 0.470458984375, 28.523437500000, 31.039062500000, -3.531250000000, 1490764337
0.425048828125, -0.732666015625, 0.470458984375, 28.523437500000, 31.039062500000, -3.531250000000, 1490764337
0.475585937500, -0.783935546875, 0.485839843750, -0.968750000000, 14.109375000000, 12.156250000000, 1490764337
0.475585937500, -0.783935546875, 0.485839843750, -0.968750000000, 14.109375000000, 12.156250000000, 1490764337
0.475585937500, -0.783935546875, 0.485839843750, -0.968750000000, 14.109375000000, 12.156250000000, 1490764337
0.418701171875, -0.884765625000, 0.373046875000, -17.039062500000, 28.906250000000, 31.804687500000, 1490764337
0.418701171875, -0.884765625000, 0.373046875000, -17.039062500000, 28.906250000000, 31.804687500000, 1490764337
0.418701171875, -0.884765625000, 0.373046875000, -17.039062500000, 28.906250000000, 31.804687500000, 1490764337
0.469726562500, -1.088623046875, 0.435791015625, -22.632812500000, 89.976562500000, 45.734375000000, 1490764337
0.469726562500, -1.088623046875, 0.435791015625, -22.632812500000, 89.976562500000, 45.734375000000, 1490764337
0.469726562500, -1.088623046875, 0.435791015625, -22.632812500000, 89.976562500000, 45.734375000000, 1490764337
0.469726562500, -1.088623046875, 0.435791015625, -22.632812500000, 89.976562500000, 45.734375000000, 1490764337
0.361572265625, -1.160888671875, 0.281494140625, 2.898437500000, 40.375000000000, 66.476562500000, 1490764337
0.361572265625, -1.160888671875, 0.281494140625, 2.898437500000, 40.375000000000, 66.476562500000, 1490764337
0.361572265625, -1.160888671875, 0.281494140625, 2.898437500000, 40.375000000000, 66.476562500000, 1490764337
0.361572265625, -1.160888671875, 0.281494140625, 2.898437500000, 40.375000000000, 66.476562500000, 1490764337
0.371093750000, -0.998535156250, 0.183349609375, 23.960937500000, 21.757812500000, 20.085937500000, 1490764337
0.371093750000, -0.998535156250, 0.183349609375, 23.960937500000, 21.757812500000, 20.085937500000, 1490764337
0.371093750000, -0.998535156250, 0.183349609375, 23.960937500000, 21.757812500000, 20.085937500000, 1490764337
0.386474609375, -0.695556640625, 0.123046875000, 28.070312500000, 44.437500000000, -9.898437500000, 1490764337
0.386474609375, -0.695556640625, 0.123046875000, 28.070312500000, 44.437500000000, -9.898437500000, 1490764337
0.386474609375, -0.695556640625, 0.123046875000, 28.070312500000, 44.437500000000, -9.898437500000, 1490764337
0.377441406250, -0.760009765625, 0.155761718750, 10.148437500000, 57.359375000000, 35.257812500000, 1490764337
0.377441406250, -0.760009765625, 0.155761718750, 10.148437500000, 57.359375000000, 35.257812500000, 1490764337
0.377441406250, -0.760009765625, 0.155761718750, 10.148437500000, 57.359375000000, 35.257812500000, 1490764337
0.344726562500, -0.771484375000, 0.189453125000, 8.320312500000, 62.757812500000, -6.046875000000, 1490764337
0.344726562500, -0.771484375000, 0.189453125000, 8.320312500000, 62.757812500000, -6.046875000000, 1490764337
0.344726562500, -0.771484375000, 0.189453125000, 8.320312500000, 62.757812500000, -6.046875000000, 1490764337
0.344726562500, -0.771484375000, 0.189453125000, 8.320312500000, 62.757812500000, -6.046875000000, 1490764337
0.647216796875, -0.846191406250, 0.513183593750, 70.656250000000, 53.757812500000, -20.281250000000, 1490764337
0.647216796875, -0.846191406250, 0.513183593750, 70.656250000000, 53.757812500000, -20.281250000000, 1490764337
0.647216796875, -0.846191406250, 0.513183593750, 70.656250000000, 53.757812500000, -20.281250000000, 1490764337
0.426757812500, -0.848388671875, 0.421875000000, -12.945312500000, 45.875000000000, 27.421875000000, 1490764337
0.426757812500, -0.848388671875, 0.421875000000, -12.945312500000, 45.875000000000, 27.421875000000, 1490764337
0.426757812500, -0.848388671875, 0.421875000000, -12.945312500000, 45.875000000000, 27.421875000000, 1490764337
0.377197265625, -0.731445312500, 0.390380859375, 46.914062500000, 32.109375000000, -18.460937500000, 1490764337
0.377197265625, -0.731445312500, 0.390380859375, 46.914062500000, 32.109375000000, -18.460937500000, 1490764337
0.377197265625, -0.731445312500, 0.390380859375, 46.914062500000, 32.109375000000, -18.460937500000, 1490764337
0.247558593750, -0.697753906250, 0.460205078125, 43.140625000000, 19.773437500000, -5.359375000000, 1490764337
0.247558593750, -0.697753906250, 0.460205078125, 43.140625000000, 19.773437500000, -5.359375000000, 1490764337
0.247558593750, -0.697753906250, 0.460205078125, 43.140625000000, 19.773437500000, -5.359375000000, 1490764337
0.247558593750, -0.697753906250, 0.460205078125, 43.140625000000, 19.773437500000, -5.359375000000, 1490764337
0.402832031250, -0.642822265625, 0.423583984375, -16.937500000000, -34.132812500000, -18.460937500000, 1490764337
0.402832031250, -0.642822265625, 0.423583984375, -16.937500000000, -34.132812500000, -18.460937500000, 1490764337
0.402832031250, -0.642822265625, 0.423583984375, -16.937500000000, -34.132812500000, -18.460937500000, 1490764337
0.455566406250, -0.738525390625, 0.425537109375, -50.054687500000, -4.679687500000, 1.953125000000, 1490764337
0.455566406250, -0.738525390625, 0.425537109375, -50.054687500000, -4.679687500000, 1.953125000000, 1490764337
0.455566406250, -0.738525390625, 0.425537109375, -50.054687500000, -4.679687500000, 1.953125000000, 1490764337
0.361328125000, -0.863525390625, 0.462158203125, -1.742187500000, 17.523437500000, -8.921875000000, 1490764337
0.361328125000, -0.863525390625, 0.462158203125, -1.742187500000, 17.523437500000, -8.921875000000, 1490764337
0.361328125000, -0.863525390625, 0.462158203125, -1.742187500000, 17.523437500000, -8.921875000000, 1490764337
0.462402343750, -0.820800781250, 0.581787109375, 21.406250000000, -1.250000000000, -25.898437500000, 1490764337
0.462402343750, -0.820800781250, 0.581787109375, 21.406250000000, -1.250000000000, -25.898437500000, 1490764337
0.462402343750, -0.820800781250, 0.581787109375, 21.406250000000, -1.250000000000, -25.898437500000, 1490764337
0.462402343750, -0.820800781250, 0.581787109375, 21.406250000000, -1.250000000000, -25.898437500000, 1490764337
0.508300781250, -0.749755859375, 0.542236328125, -28.531250000000, -17.750000000000, -22.750000000000, 1490764337
0.508300781250, -0.749755859375, 0.542236328125, -28.531250000000, -17.750000000000, -22.750000000000, 1490764337
0.508300781250, -0.749755859375, 0.542236328125, -28.531250000000, -17.750000000000, -22.750000000000, 1490764337
0.567626953125, -1.188476562500, 0.652587890625, -111.164062500000, 15.914062500000, -16.453125000000, 1490764337
0.567626953125, -1.188476562500, 0.652587890625, -111.164062500000, 15.914062500000, -16.453125000000, 1490764337
0.567626953125, -1.188476562500, 0.652587890625, -111.164062500000, 15.914062500000, -16.453125000000, 1490764337
0.519531250000, -1.200195312500, 0.569091796875, -71.984375000000, -23.117187500000, -15.570312500000, 1490764337
0.519531250000, -1.200195312500, 0.569091796875, -71.984375000000, -23.117187500000, -15.570312500000, 1490764337
0.519531250000, -1.200195312500, 0.569091796875, -71.984375000000, -23.117187500000, -15.570312500000, 1490764337
0.450927734375, -0.861083984375, 0.158691406250, 11.671875000000, -60.664062500000, 12.421875000000, 1490764337
0.450927734375, -0.861083984375, 0.158691406250, 11.671875000000, -60.664062500000, 12.421875000000, 1490764337
0.450927734375, -0.861083984375, 0.158691406250, 11.671875000000, -60.664062500000, 12.421875000000, 1490764337
0.450927734375, -0.861083984375, 0.158691406250, 11.671875000000, -60.664062500000, 12.421875000000, 1490764337
0.185546875000, -0.776367187500, 0.096923828125, 15.953125000000, -27.312500000000, -2.218750000000, 1490764338
0.185546875000, -0.776367187500, 0.096923828125, 15.953125000000, -27.312500000000, -2.218750000000, 1490764338
0.185546875000, -0.776367187500, 0.096923828125, 15.953125000000, -27.312500000000, -2.218750000000, 1490764338
0.204345703125, -0.671142578125, 0.125488281250, -34.148437500000, -18.890625000000, -4.460937500000, 1490764338
0.204345703125, -0.671142578125, 0.125488281250, -34.148437500000, -18.890625000000, -4.460937500000, 1490764338
0.204345703125, -0.671142578125, 0.125488281250, -34.148437500000, -18.890625000000, -4.460937500000, 1490764338
0.253173828125, -0.822509765625, 0.228027343750, -28.726562500000, -30.242187500000, -31.773437500000, 1490764338
0.253173828125, -0.822509765625, 0.228027343750, -28.726562500000, -30.242187500000, -31.773437500000, 1490764338
0.253173828125, -0.822509765625, 0.228027343750, -28.726562500000, -30.242187500000, -31.773437500000, 1490764338
0.282958984375, -0.888183593750, 0.792724609375, -29.500000000000, -65.906250000000, -74.710937500000, 1490764338
0.282958984375, -0.888183593750, 0.792724609375, -29.500000000000, -65.906250000000, -74.710937500000, 1490764338
0.282958984375, -0.888183593750, 0.792724609375, -29.500000000000, -65.906250000000, -74.710937500000, 1490764338
0.282958984375, -0.888183593750, 0.792724609375, -29.500000000000, -65.906250000000, -74.710937500000, 1490764338
0.229736328125, -0.804687500000, 0.286621093750, -64.062500000000, -81.640625000000, -14.312500000000, 1490764338
0.229736328125, -0.804687500000, 0.286621093750, -64.062500000000, -81.640625000000, -14.312500000000, 1490764338
0.229736328125, -0.804687500000, 0.286621093750, -64.062500000000, -81.640625000000, -14.312500000000, 1490764338
0.238037109375, -0.860839843750, 0.362548828125, 35.242187500000, -104.125000000000, -43.031250000000, 1490764338
0.238037109375, -0.860839843750, 0.362548828125, 35.242187500000, -104.125000000000, -43.031250000000, 1490764338
0.238037109375, -0.860839843750, 0.362548828125, 35.242187500000, -104.125000000000, -43.031250000000, 1490764338
0.464111328125, -0.650146484375, 0.384765625000, 45.250000000000, -112.500000000000, -12.523437500000, 1490764338
0.464111328125, -0.650146484375, 0.384765625000, 45.250000000000, -112.500000000000, -12.523437500000, 1490764338
0.464111328125, -0.650146484375, 0.384765625000, 45.250000000000, -112.500000000000, -12.523437500000, 1490764338
0.494140625000, -0.681640625000, 0.397705078125, -45.101562500000, -4.710937500000, 11.195312500000, 1490764338
0.494140625000, -0.681640625000, 0.397705078125, -45.101562500000, -4.710937500000, 11.195312500000, 1490764338
0.494140625000, -0.681640625000, 0.397705078125, -45.101562500000, -4.710937500000, 11.195312500000, 1490764338
0.494140625000, -0.681640625000, 0.397705078125, -45.101562500000, -4.710937500000, 11.195312500000, 1490764338
0.474853515625, -0.831542968750, 0.320800781250, -3.117187500000, -4.640625000000, -10.304687500000, 1490764338
0.474853515625, -0.831542968750, 0.320800781250, -3.117187500000, -4.640625000000, -10.304687500000, 1490764338
0.474853515625, -0.831542968750, 0.320800781250, -3.117187500000, -4.640625000000, -10.304687500000, 1490764338
0.422607421875, -0.680664062500, 0.354003906250, 32.132812500000, 22.960937500000, -23.890625000000, 1490764338
0.422607421875, -0.680664062500, 0.354003906250, 32.132812500000, 22.960937500000, -23.890625000000, 1490764338
0.422607421875, -0.680664062500, 0.354003906250, 32.132812500000, 22.960937500000, -23.890625000000, 1490764338
0.414306640625, -0.742919921875, 0.421142578125, -11.242187500000, 5.984375000000, 6.710937500000, 1490764338
0.352783203125, -0.842285156250, 0.468750000000, -15.054687500000, 14.210937500000, 12.492187500000, 1490764338
0.352783203125, -0.842285156250, 0.468750000000, -15.054687500000, 14.210937500000, 12.492187500000, 1490764338
0.352783203125, -0.842285156250, 0.468750000000, -15.054687500000, 14.210937500000, 12.492187500000, 1490764338
0.352783203125, -0.842285156250, 0.468750000000, -15.054687500000, 14.210937500000, 12.492187500000, 1490764338
0.415771484375, -0.823974609375, 0.475097656250, 6.164062500000, 55.210937500000, 10.242187500000, 1490764338
0.415771484375, -0.823974609375, 0.475097656250, 6.164062500000, 55.210937500000, 10.242187500000, 1490764338
0.415771484375, -0.823974609375, 0.475097656250, 6.164062500000, 55.210937500000, 10.242187500000, 1490764338
0.415771484375, -0.823974609375, 0.475097656250, 6.164062500000, 55.210937500000, 10.242187500000, 1490764338
0.415771484375, -0.823974609375, 0.475097656250, 6.164062500000, 55.210937500000, 10.242187500000, 1490764338
0.420410156250, -1.030273437500, 0.475341796875, 11.539062500000, 68.828125000000, 25.640625000000, 1490764338
0.420410156250, -1.030273437500, 0.475341796875, 11.539062500000, 68.828125000000, 25.640625000000, 1490764338
0.420410156250, -1.030273437500, 0.475341796875, 11.539062500000, 68.828125000000, 25.640625000000, 1490764338
0.358154296875, -1.065917968750, 0.483398437500, -18.468750000000, 49.000000000000, 51.531250000000, 1490764338
0.358154296875, -1.065917968750, 0.483398437500, -18.468750000000, 49.000000000000, 51.531250000000, 1490764338
0.358154296875, -1.065917968750, 0.483398437500, -18.468750000000, 49.000000000000, 51.531250000000, 1490764338
0.397460937500, -0.915527343750, 0.334960937500, 1.015625000000, 55.671875000000, 40.945312500000, 1490764338
0.397460937500, -0.915527343750, 0.334960937500, 1.015625000000, 55.671875000000, 40.945312500000, 1490764338
0.397460937500, -0.915527343750, 0.334960937500, 1.015625000000, 55.671875000000, 40.945312500000, 1490764338
0.397460937500, -0.915527343750, 0.334960937500, 1.015625000000, 55.671875000000, 40.945312500000, 1490764338
0.304199218750, -0.780029296875, 0.216064453125, 41.218750000000, 17.742187500000, 32.351562500000, 1490764338
0.304199218750, -0.780029296875, 0.216064453125, 41.218750000000, 17.742187500000, 32.351562500000, 1490764338
0.304199218750, -0.780029296875, 0.216064453125, 41.218750000000, 17.742187500000, 32.351562500000, 1490764338
0.359619140625, -0.753417968750, 0.062255859375, 27.781250000000, 10.617187500000, 31.585937500000, 1490764338
0.359619140625, -0.753417968750, 0.062255859375, 27.781250000000, 10.617187500000, 31.585937500000, 1490764338
0.359619140625, -0.753417968750, 0.062255859375, 27.781250000000, 10.617187500000, 31.585937500000, 1490764338
0.469970703125, -0.624755859375, -0.006103515625, -3.843750000000, 57.906250000000, 7.734375000000, 1490764338
0.469970703125, -0.624755859375, -0.006103515625, -3.843750000000, 57.906250000000, 7.734375000000, 1490764338
0.469970703125, -0.624755859375, -0.006103515625, -3.843750000000, 57.906250000000, 7.734375000000, 1490764338
0.364257812500, -0.988281250000, 0.717285156250, 53.281250000000, 112.257812500000, -47.343750000000, 1490764338
0.364257812500, -0.988281250000, 0.717285156250, 53.281250000000, 112.257812500000, -47.343750000000, 1490764338
0.364257812500, -0.988281250000, 0.717285156250, 53.281250000000, 112.257812500000, -47.343750000000, 1490764338
0.364257812500, -0.988281250000, 0.717285156250, 53.281250000000, 112.257812500000, -47.343750000000, 1490764338
0.439453125000, -0.857421875000, 0.505126953125, -1.867187500000, -19.937500000000, 13.210937500000, 1490764338
0.439453125000, -0.857421875000, 0.505126953125, -1.867187500000, -19.937500000000, 13.210937500000, 1490764339
0.439453125000, -0.857421875000, 0.505126953125, -1.867187500000, -19.937500000000, 13.210937500000, 1490764339
0.178222656250, -0.748779296875, 0.389404296875, 43.015625000000, 0.921875000000, -2.031250000000, 1490764339
0.178222656250, -0.748779296875, 0.389404296875, 43.015625000000, 0.921875000000, -2.031250000000, 1490764339
0.178222656250, -0.748779296875, 0.389404296875, 43.015625000000, 0.921875000000, -2.031250000000, 1490764339
0.117187500000, -0.629150390625, 0.380126953125, 24.437500000000, 42.296875000000, -7.726562500000, 1490764339
0.117187500000, -0.629150390625, 0.380126953125, 24.437500000000, 42.296875000000, -7.726562500000, 1490764339
0.117187500000, -0.629150390625, 0.380126953125, 24.437500000000, 42.296875000000, -7.726562500000, 1490764339
0.332763671875, -0.679199218750, 0.510498046875, -32.507812500000, -54.031250000000, -11.843750000000, 1490764339
0.332763671875, -0.679199218750, 0.510498046875, -32.507812500000, -54.031250000000, -11.843750000000, 1490764339
0.332763671875, -0.679199218750, 0.510498046875, -32.507812500000, -54.031250000000, -11.843750000000, 1490764339
0.332763671875, -0.679199218750, 0.510498046875, -32.507812500000, -54.031250000000, -11.843750000000, 1490764339
0.449951171875, -0.827880859375, 0.430175781250, -51.093750000000, -34.242187500000, -9.203125000000, 1490764339
0.449951171875, -0.827880859375, 0.430175781250, -51.093750000000, -34.242187500000, -9.203125000000, 1490764339
0.449951171875, -0.827880859375, 0.430175781250, -51.093750000000, -34.242187500000, -9.203125000000, 1490764339
0.304199218750, -0.801513671875, 0.285156250000, -1.796875000000, -29.882812500000, -20.773437500000, 1490764339
0.304199218750, -0.801513671875, 0.285156250000, -1.796875000000, -29.882812500000, -20.773437500000, 1490764339
0.304199218750, -0.801513671875, 0.285156250000, -1.796875000000, -29.882812500000, -20.773437500000, 1490764339
0.451904296875, -0.821533203125, 0.531494140625, 15.664062500000, -46.570312500000, -25.359375000000, 1490764339
0.451904296875, -0.821533203125, 0.531494140625, 15.664062500000, -46.570312500000, -25.359375000000, 1490764339
0.451904296875, -0.821533203125, 0.531494140625, 15.664062500000, -46.570312500000, -25.359375000000, 1490764339
0.482910156250, -0.879394531250, 0.504394531250, -55.976562500000, -23.523437500000, -18.539062500000, 1490764339
0.482910156250, -0.879394531250, 0.504394531250, -55.976562500000, -23.523437500000, -18.539062500000, 1490764339
0.482910156250, -0.879394531250, 0.504394531250, -55.976562500000, -23.523437500000, -18.539062500000, 1490764339
0.482910156250, -0.879394531250, 0.504394531250, -55.976562500000, -23.523437500000, -18.539062500000, 1490764339
0.572998046875, -0.962646484375, 0.414306640625, -31.851562500000, -54.312500000000, -25.523437500000, 1490764339
0.572998046875, -0.962646484375, 0.414306640625, -31.851562500000, -54.312500000000, -25.523437500000, 1490764339
0.572998046875, -0.962646484375, 0.414306640625, -31.851562500000, -54.312500000000, -25.523437500000, 1490764339
0.537353515625, -1.008544921875, 0.526855468750, -47.078125000000, -16.203125000000, -27.289062500000, 1490764339
0.537353515625, -1.008544921875, 0.526855468750, -47.078125000000, -16.203125000000, -27.289062500000, 1490764339
0.537353515625, -1.008544921875, 0.526855468750, -47.078125000000, -16.203125000000, -27.289062500000, 1490764339
0.562500000000, -1.135498046875, 0.353027343750, -41.734375000000, -24.843750000000, -28.710937500000, 1490764339
0.562500000000, -1.135498046875, 0.353027343750, -41.734375000000, -24.843750000000, -28.710937500000, 1490764339
0.562500000000, -1.135498046875, 0.353027343750, -41.734375000000, -24.843750000000, -28.710937500000, 1490764339
0.352050781250, -0.815917968750, 0.167724609375, 32.804687500000, -19.718750000000, 9.617187500000, 1490764339
0.352050781250, -0.815917968750, 0.167724609375, 32.804687500000, -19.718750000000, 9.617187500000, 1490764339
0.352050781250, -0.815917968750, 0.167724609375, 32.804687500000, -19.718750000000, 9.617187500000, 1490764339
0.352050781250, -0.815917968750, 0.167724609375, 32.804687500000, -19.718750000000, 9.617187500000, 1490764339
0.284667968750, -0.655761718750, -0.004394531250, 20.562500000000, 4.031250000000, 36.765625000000, 1490764339
0.284667968750, -0.655761718750, -0.004394531250, 20.562500000000, 4.031250000000, 36.765625000000, 1490764339
0.284667968750, -0.655761718750, -0.004394531250, 20.562500000000, 4.031250000000, 36.765625000000, 1490764339
0.168212890625, -0.706054687500, 0.056152343750, -40.148437500000, 17.250000000000, -15.312500000000, 1490764339
0.168212890625, -0.706054687500, 0.056152343750, -40.148437500000, 17.250000000000, -15.312500000000, 1490764339
0.168212890625, -0.706054687500, 0.056152343750, -40.148437500000, 17.250000000000, -15.312500000000, 1490764339
0.288818359375, -0.882324218750, 0.352539062500, -42.125000000000, 2.171875000000, -56.187500000000, 1490764339
0.288818359375, -0.882324218750, 0.352539062500, -42.125000000000, 2.171875000000, -56.187500000000, 1490764339
0.288818359375, -0.882324218750, 0.352539062500, -42.125000000000, 2.171875000000, -56.187500000000, 1490764339
0.056396484375, -1.139160156250, 0.551757812500, -45.945312500000, 32.726562500000, -49.968750000000, 1490764339
0.056396484375, -1.139160156250, 0.551757812500, -45.945312500000, 32.726562500000, -49.968750000000, 1490764339
0.056396484375, -1.139160156250, 0.551757812500, -45.945312500000, 32.726562500000, -49.968750000000, 1490764339
0.056396484375, -1.139160156250, 0.551757812500, -45.945312500000, 32.726562500000, -49.968750000000, 1490764339
0.125488281250, -0.787841796875, 0.439208984375, 40.296875000000, -70.437500000000, -11.671875000000, 1490764339
0.125488281250, -0.787841796875, 0.439208984375, 40.296875000000, -70.437500000000, -11.671875000000, 1490764339
0.125488281250, -0.787841796875, 0.439208984375, 40.296875000000, -70.437500000000, -11.671875000000, 1490764339
0.383544921875, -0.765136718750, 0.295898437500, 87.312500000000, -114.671875000000, 1.179687500000, 1490764339
0.383544921875, -0.765136718750, 0.295898437500, 87.312500000000, -114.671875000000, 1.179687500000, 1490764339
0.383544921875, -0.765136718750, 0.295898437500, 87.312500000000, -114.671875000000, 1.179687500000, 1490764339
0.483398437500, -0.555908203125, 0.406250000000, -13.875000000000, -22.640625000000, 6.593750000000, 1490764339
0.483398437500, -0.555908203125, 0.406250000000, -13.875000000000, -22.640625000000, 6.593750000000, 1490764339
0.483398437500, -0.555908203125, 0.406250000000, -13.875000000000, -22.640625000000, 6.593750000000, 1490764339
0.358398437500, -0.769775390625, 0.437988281250, -21.562500000000, 80.757812500000, 15.789062500000, 1490764339
0.358398437500, -0.769775390625, 0.437988281250, -21.562500000000, 80.757812500000, 15.789062500000, 1490764339
0.358398437500, -0.769775390625, 0.437988281250, -21.562500000000, 80.757812500000, 15.789062500000, 1490764339
0.358398437500, -0.769775390625, 0.437988281250, -21.562500000000, 80.757812500000, 15.789062500000, 1490764339
0.240234375000, -0.839599609375, 0.346435546875, 6.851562500000, 37.617187500000, 10.851562500000, 1490764339
0.240234375000, -0.839599609375, 0.346435546875, 6.851562500000, 37.617187500000, 10.851562500000, 1490764339
0.240234375000, -0.839599609375, 0.346435546875, 6.851562500000, 37.617187500000, 10.851562500000, 1490764339
0.382080078125, -0.796630859375, 0.546875000000, 38.070312500000, 12.687500000000, 11.250000000000, 1490764340
0.382080078125, -0.796630859375, 0.546875000000, 38.070312500000, 12.687500000000, 11.250000000000, 1490764340
0.382080078125, -0.796630859375, 0.546875000000, 38.070312500000, 12.687500000000, 11.250000000000, 1490764340
0.344726562500, -0.778808593750, 0.556640625000, 9.625000000000, 33.437500000000, 30.375000000000, 1490764340
0.344726562500, -0.778808593750, 0.556640625000, 9.625000000000, 33.437500000000, 30.375000000000, 1490764340
0.344726562500, -0.778808593750, 0.556640625000, 9.625000000000, 33.437500000000, 30.375000000000, 1490764340
0.237060546875, -0.788818359375, 0.497070312500, -3.187500000000, 77.562500000000, 18.500000000000, 1490764340
0.237060546875, -0.788818359375, 0.497070312500, -3.187500000000, 77.562500000000, 18.500000000000, 1490764340
0.237060546875, -0.788818359375, 0.497070312500, -3.187500000000, 77.562500000000, 18.500000000000, 1490764340
0.237060546875, -0.788818359375, 0.497070312500, -3.187500000000, 77.562500000000, 18.500000000000, 1490764340
0.332275390625, -1.138183593750, 0.628906250000, -30.023437500000, 87.843750000000, 20.015625000000, 1490764340
0.332275390625, -1.138183593750, 0.628906250000, -30.023437500000, 87.843750000000, 20.015625000000, 1490764340
0.332275390625, -1.138183593750, 0.628906250000, -30.023437500000, 87.843750000000, 20.015625000000, 1490764340
0.371582031250, -1.265380859375, 0.677246093750, -22.578125000000, 51.375000000000, 42.265625000000, 1490764340
0.371582031250, -1.265380859375, 0.677246093750, -22.578125000000, 51.375000000000, 42.265625000000, 1490764340
0.371582031250, -1.265380859375, 0.677246093750, -22.578125000000, 51.375000000000, 42.265625000000, 1490764340
0.301513671875, -1.065429687500, 0.353027343750, 0.828125000000, -16.000000000000, 29.546875000000, 1490764340
0.301513671875, -1.065429687500, 0.353027343750, 0.828125000000, -16.000000000000, 29.546875000000, 1490764340
0.301513671875, -1.065429687500, 0.353027343750, 0.828125000000, -16.000000000000, 29.546875000000, 1490764340
0.398681640625, -0.765136718750, 0.052734375000, 41.539062500000, -36.671875000000, 26.562500000000, 1490764340
0.398681640625, -0.765136718750, 0.052734375000, 41.539062500000, -36.671875000000, 26.562500000000, 1490764340
0.398681640625, -0.765136718750, 0.052734375000, 41.539062500000, -36.671875000000, 26.562500000000, 1490764340
0.398681640625, -0.765136718750, 0.052734375000, 41.539062500000, -36.671875000000, 26.562500000000, 1490764340
0.306396484375, -0.698242187500, 0.046630859375, -4.664062500000, 86.734375000000, 26.179687500000, 1490764340
0.306396484375, -0.698242187500, 0.046630859375, -4.664062500000, 86.734375000000, 26.179687500000, 1490764340
0.306396484375, -0.698242187500, 0.046630859375, -4.664062500000, 86.734375000000, 26.179687500000, 1490764340
0.276367187500, -0.761718750000, 0.179687500000, -14.820312500000, 76.273437500000, 12.265625000000, 1490764340
0.276367187500, -0.761718750000, 0.179687500000, -14.820312500000, 76.273437500000, 12.265625000000, 1490764340
0.276367187500, -0.761718750000, 0.179687500000, -14.820312500000, 76.273437500000, 12.265625000000, 1490764340
0.236328125000, -0.955566406250, 0.653320312500, 64.406250000000, 36.000000000000, -30.593750000000, 1490764340
0.236328125000, -0.955566406250, 0.653320312500, 64.406250000000, 36.000000000000, -30.593750000000, 1490764340
0.236328125000, -0.955566406250, 0.653320312500, 64.406250000000, 36.000000000000, -30.593750000000, 1490764340
0.500244140625, -0.953125000000, 0.377929687500, -46.609375000000, -72.945312500000, 7.921875000000, 1490764340
0.500244140625, -0.953125000000, 0.377929687500, -46.609375000000, -72.945312500000, 7.921875000000, 1490764340
0.500244140625, -0.953125000000, 0.377929687500, -46.609375000000, -72.945312500000, 7.921875000000, 1490764340
0.500244140625, -0.953125000000, 0.377929687500, -46.609375000000, -72.945312500000, 7.921875000000, 1490764340
0.324462890625, -0.676513671875, 0.161132812500, 59.757812500000, -61.273437500000, -4.828125000000, 1490764340
0.324462890625, -0.676513671875, 0.161132812500, 59.757812500000, -61.273437500000, -4.828125000000, 1490764340
0.324462890625, -0.676513671875, 0.161132812500, 59.757812500000, -61.273437500000, -4.828125000000, 1490764340
0.261962890625, -0.693115234375, 0.293701171875, 34.429687500000, -17.500000000000, -25.695312500000, 1490764340
0.261962890625, -0.693115234375, 0.293701171875, 34.429687500000, -17.500000000000, -25.695312500000, 1490764340
0.261962890625, -0.693115234375, 0.293701171875, 34.429687500000, -17.500000000000, -25.695312500000, 1490764340
0.308105468750, -0.660644531250, 0.422363281250, -78.085937500000, -68.750000000000, -18.492187500000, 1490764340
0.308105468750, -0.660644531250, 0.422363281250, -78.085937500000, -68.750000000000, -18.492187500000, 1490764340
0.308105468750, -0.660644531250, 0.422363281250, -78.085937500000, -68.750000000000, -18.492187500000, 1490764340
0.391845703125, -0.802246093750, 0.335449218750, -51.484375000000, -54.734375000000, -36.703125000000, 1490764340
0.391845703125, -0.802246093750, 0.335449218750, -51.484375000000, -54.734375000000, -36.703125000000, 1490764340
0.391845703125, -0.802246093750, 0.335449218750, -51.484375000000, -54.734375000000, -36.703125000000, 1490764340
0.391845703125, -0.802246093750, 0.335449218750, -51.484375000000, -54.734375000000, -36.703125000000, 1490764340
0.488281250000, -0.775878906250, 0.446533203125, 2.726562500000, -77.882812500000, -58.492187500000, 1490764340
0.488281250000, -0.775878906250, 0.446533203125, 2.726562500000, -77.882812500000, -58.492187500000, 1490764340
0.488281250000, -0.775878906250, 0.446533203125, 2.726562500000, -77.882812500000, -58.492187500000, 1490764340
0.638916015625, -0.619628906250, 0.520751953125, -17.906250000000, -85.843750000000, -32.773437500000, 1490764340
0.638916015625, -0.619628906250, 0.520751953125, -17.906250000000, -85.843750000000, -32.773437500000, 1490764340
0.638916015625, -0.619628906250, 0.520751953125, -17.906250000000, -85.843750000000, -32.773437500000, 1490764340
0.714111328125, -0.760986328125, 0.396240234375, -9.460937500000, -32.476562500000, -0.117187500000, 1490764340
0.714111328125, -0.760986328125, 0.396240234375, -9.460937500000, -32.476562500000, -0.117187500000, 1490764340
0.714111328125, -0.760986328125, 0.396240234375, -9.460937500000, -32.476562500000, -0.117187500000, 1490764340
0.949218750000, -0.722900390625, 0.486572265625, -30.734375000000, 15.648437500000, 10.804687500000, 1490764340
0.949218750000, -0.722900390625, 0.486572265625, -30.734375000000, 15.648437500000, 10.804687500000, 1490764340
0.949218750000, -0.722900390625, 0.486572265625, -30.734375000000, 15.648437500000, 10.804687500000, 1490764340
0.949218750000, -0.722900390625, 0.486572265625, -30.734375000000, 15.648437500000, 10.804687500000, 1490764340
0.602539062500, -1.047851562500, 0.482421875000, -37.664062500000, 115.726562500000, 27.945312500000, 1490764340
0.602539062500, -1.047851562500, 0.482421875000, -37.664062500000, 115.726562500000, 27.945312500000, 1490764340
0.602539062500, -1.047851562500, 0.482421875000, -37.664062500000, 115.726562500000, 27.945312500000, 1490764340
0.418212890625, -0.980468750000, 0.513183593750, -15.562500000000, 89.632812500000, 12.468750000000, 1490764341
0.418212890625, -0.980468750000, 0.513183593750, -15.562500000000, 89.632812500000, 12.468750000000, 1490764341
0.418212890625, -0.980468750000, 0.513183593750, -15.562500000000, 89.632812500000, 12.468750000000, 1490764341
0.292968750000, -0.906494140625, 0.379638671875, 17.828125000000, 35.570312500000, 26.859375000000, 1490764341
0.292968750000, -0.906494140625, 0.379638671875, 17.828125000000, 35.570312500000, 26.859375000000, 1490764341
0.292968750000, -0.906494140625, 0.379638671875, 17.828125000000, 35.570312500000, 26.859375000000, 1490764341
0.247802734375, -0.672363281250, 0.124023437500, 34.531250000000, 16.656250000000, 26.570312500000, 1490764341
0.247802734375, -0.672363281250, 0.124023437500, 34.531250000000, 16.656250000000, 26.570312500000, 1490764341
0.247802734375, -0.672363281250, 0.124023437500, 34.531250000000, 16.656250000000, 26.570312500000, 1490764341
0.247802734375, -0.672363281250, 0.124023437500, 34.531250000000, 16.656250000000, 26.570312500000, 1490764341
0.204345703125, -0.622314453125, 0.153320312500, -11.406250000000, 50.101562500000, 11.195312500000, 1490764341
0.204345703125, -0.622314453125, 0.153320312500, -11.406250000000, 50.101562500000, 11.195312500000, 1490764341
0.204345703125, -0.622314453125, 0.153320312500, -11.406250000000, 50.101562500000, 11.195312500000, 1490764341
0.279296875000, -0.735595703125, 0.320800781250, -27.046875000000, 20.546875000000, -24.898437500000, 1490764341
0.279296875000, -0.735595703125, 0.320800781250, -27.046875000000, 20.546875000000, -24.898437500000, 1490764341
0.279296875000, -0.735595703125, 0.320800781250, -27.046875000000, 20.546875000000, -24.898437500000, 1490764341
0.449951171875, -1.005859375000, 0.650878906250, 26.914062500000, 42.164062500000, -39.671875000000, 1490764341
0.449951171875, -1.005859375000, 0.650878906250, 26.914062500000, 42.164062500000, -39.671875000000, 1490764341
0.449951171875, -1.005859375000, 0.650878906250, 26.914062500000, 42.164062500000, -39.671875000000, 1490764341
0.192382812500, -0.846923828125, 0.406738281250, -3.484375000000, -13.000000000000, -3.148437500000, 1490764341
0.192382812500, -0.846923828125, 0.406738281250, -3.484375000000, -13.000000000000, -3.148437500000, 1490764341
0.192382812500, -0.846923828125, 0.406738281250, -3.484375000000, -13.000000000000, -3.148437500000, 1490764341
0.192382812500, -0.846923828125, 0.406738281250, -3.484375000000, -13.000000000000, -3.148437500000, 1490764341
0.349609375000, -0.766357421875, 0.462890625000, 54.406250000000, -98.265625000000, -33.515625000000, 1490764341
0.349609375000, -0.766357421875, 0.462890625000, 54.406250000000, -98.265625000000, -33.515625000000, 1490764341
0.349609375000, -0.766357421875, 0.462890625000, 54.406250000000, -98.265625000000, -33.515625000000, 1490764341
0.515869140625, -0.691894531250, 0.459960937500, 21.156250000000, -90.992187500000, -16.671875000000, 1490764341
0.515869140625, -0.691894531250, 0.459960937500, 21.156250000000, -90.992187500000, -16.671875000000, 1490764341
0.515869140625, -0.691894531250, 0.459960937500, 21.156250000000, -90.992187500000, -16.671875000000, 1490764341
0.467041015625, -0.690185546875, 0.466308593750, -20.093750000000, 3.023437500000, -22.398437500000, 1490764341
0.467041015625, -0.690185546875, 0.466308593750, -20.093750000000, 3.023437500000, -22.398437500000, 1490764341
0.467041015625, -0.690185546875, 0.466308593750, -20.093750000000, 3.023437500000, -22.398437500000, 1490764341
0.281982421875, -0.719482421875, 0.406250000000, -10.937500000000, 40.929687500000, -18.968750000000, 1490764341
0.281982421875, -0.719482421875, 0.406250000000, -10.937500000000, 40.929687500000, -18.968750000000, 1490764341
0.281982421875, -0.719482421875, 0.406250000000, -10.937500000000, 40.929687500000, -18.968750000000, 1490764341
0.281982421875, -0.719482421875, 0.406250000000, -10.937500000000, 40.929687500000, -18.968750000000, 1490764341
0.326416015625, -0.728515625000, 0.448730468750, 33.578125000000, 52.765625000000, -11.210937500000, 1490764341
0.326416015625, -0.728515625000, 0.448730468750, 33.578125000000, 52.765625000000, -11.210937500000, 1490764341
0.326416015625, -0.728515625000, 0.448730468750, 33.578125000000, 52.765625000000, -11.210937500000, 1490764341
0.141357421875, -0.889160156250, 0.688232421875, 4.976562500000, 36.390625000000, 7.328125000000, 1490764341
0.141357421875, -0.889160156250, 0.688232421875, 4.976562500000, 36.390625000000, 7.328125000000, 1490764341
0.141357421875, -0.889160156250, 0.688232421875, 4.976562500000, 36.390625000000, 7.328125000000, 1490764341
0.195312500000, -0.954589843750, 0.583251953125, -32.968750000000, -27.203125000000, 5.312500000000, 1490764341
0.195312500000, -0.954589843750, 0.583251953125, -32.968750000000, -27.203125000000, 5.312500000000, 1490764341
0.195312500000, -0.954589843750, 0.583251953125, -32.968750000000, -27.203125000000, 5.312500000000, 1490764341
0.437744140625, -0.873291015625, 0.585205078125, 0.601562500000, -19.304687500000, -1.148437500000, 1490764341
0.437744140625, -0.873291015625, 0.585205078125, 0.601562500000, -19.304687500000, -1.148437500000, 1490764341
0.437744140625, -0.873291015625, 0.585205078125, 0.601562500000, -19.304687500000, -1.148437500000, 1490764341
0.437744140625, -0.873291015625, 0.585205078125, 0.601562500000, -19.304687500000, -1.148437500000, 1490764341
0.486083984375, -1.018798828125, 0.598876953125, -50.804687500000, -8.070312500000, 5.132812500000, 1490764341
0.486083984375, -1.018798828125, 0.598876953125, -50.804687500000, -8.070312500000, 5.132812500000, 1490764341
0.486083984375, -1.018798828125, 0.598876953125, -50.804687500000, -8.070312500000, 5.132812500000, 1490764341
0.464355468750, -0.961181640625, 0.414306640625, -58.000000000000, -26.843750000000, 25.562500000000, 1490764341
0.464355468750, -0.961181640625, 0.414306640625, -58.000000000000, -26.843750000000, 25.562500000000, 1490764341
0.464355468750, -0.961181640625, 0.414306640625, -58.000000000000, -26.843750000000, 25.562500000000, 1490764341
0.450683593750, -1.011474609375, 0.293212890625, -34.367187500000, -24.929687500000, 22.492187500000, 1490764341
0.450683593750, -1.011474609375, 0.293212890625, -34.367187500000, -24.929687500000, 22.492187500000, 1490764341
0.450683593750, -1.011474609375, 0.293212890625, -34.367187500000, -24.929687500000, 22.492187500000, 1490764341
0.424804687500, -0.701904296875, 0.230957031250, 56.335937500000, -2.007812500000, -7.375000000000, 1490764341
0.424804687500, -0.701904296875, 0.230957031250, 56.335937500000, -2.007812500000, -7.375000000000, 1490764341
0.424804687500, -0.701904296875, 0.230957031250, 56.335937500000, -2.007812500000, -7.375000000000, 1490764341
0.424804687500, -0.701904296875, 0.230957031250, 56.335937500000, -2.007812500000, -7.375000000000, 1490764341
0.345458984375, -0.701416015625, 0.185546875000, 42.679687500000, 31.953125000000, 18.992187500000, 1490764341
0.345458984375, -0.701416015625, 0.185546875000, 42.679687500000, 31.953125000000, 18.992187500000, 1490764341
0.345458984375, -0.701416015625, 0.185546875000, 42.679687500000, 31.953125000000, 18.992187500000, 1490764341
0.280273437500, -0.750488281250, 0.272705078125, -34.796875000000, 23.695312500000, -15.203125000000, 1490764341
0.280273437500, -0.750488281250, 0.272705078125, -34.796875000000, 23.695312500000, -15.203125000000, 1490764341
0.280273437500, -0.750488281250, 0.272705078125, -34.796875000000, 23.695312500000, -15.203125000000, 1490764341
0.511962890625, -0.839111328125, 0.305908203125, -51.257812500000, 7.218750000000, -18.859375000000, 1490764342
0.511962890625, -0.839111328125, 0.305908203125, -51.257812500000, 7.218750000000, -18.859375000000, 1490764342
0.511962890625, -0.839111328125, 0.305908203125, -51.257812500000, 7.218750000000, -18.859375000000, 1490764342
0.403076171875, -0.914062500000, 0.468261718750, 49.546875000000, 29.437500000000, -4.820312500000, 1490764342
0.403076171875, -0.914062500000, 0.468261718750, 49.546875000000, 29.437500000000, -4.820312500000, 1490764342
0.388916015625, -0.660644531250, 0.466796875000, 53.882812500000, -43.500000000000, -10.656250000000, 1490764342
0.388916015625, -0.660644531250, 0.466796875000, 53.882812500000, -43.500000000000, -10.656250000000, 1490764342
0.388916015625, -0.660644531250, 0.466796875000, 53.882812500000, -43.500000000000, -10.656250000000, 1490764342
0.388916015625, -0.660644531250, 0.466796875000, 42.585937500000, -50.609375000000, -10.070312500000, 1490764342
0.393310546875, -0.662597656250, 0.386230468750, 3.882812500000, -23.867187500000, 5.234375000000, 1490764342
0.393310546875, -0.662597656250, 0.386230468750, 3.882812500000, -23.867187500000, 5.234375000000, 1490764342
0.393310546875, -0.662597656250, 0.386230468750, 3.882812500000, -23.867187500000, 5.234375000000, 1490764342
0.393310546875, -0.662597656250, 0.386230468750, 3.882812500000, -23.867187500000, 5.234375000000, 1490764342
0.366455078125, -0.769531250000, 0.108398437500, -15.250000000000, -0.281250000000, 2.820312500000, 1490764342
0.366455078125, -0.769531250000, 0.108398437500, -15.250000000000, -0.281250000000, 2.820312500000, 1490764342
0.366455078125, -0.769531250000, 0.108398437500, -15.250000000000, -0.281250000000, 2.820312500000, 1490764342
0.356933593750, -0.821289062500, 0.436523437500, 18.789062500000, 6.906250000000, -13.218750000000, 1490764342
0.356933593750, -0.821289062500, 0.436523437500, 18.789062500000, 6.906250000000, -13.218750000000, 1490764342
0.356933593750, -0.821289062500, 0.436523437500, 18.789062500000, 6.906250000000, -13.218750000000, 1490764342
0.356933593750, -0.821289062500, 0.436523437500, 18.789062500000, 6.906250000000, -13.218750000000, 1490764342
0.396484375000, -0.818115234375, 0.506591796875, 24.835937500000, -12.179687500000, -21.046875000000, 1490764342
0.396484375000, -0.818115234375, 0.506591796875, 24.835937500000, -12.179687500000, -21.046875000000, 1490764342
0.396484375000, -0.818115234375, 0.506591796875, 24.835937500000, -12.179687500000, -21.046875000000, 1490764342
0.452636718750, -0.899658203125, 0.519531250000, 17.210937500000, -36.640625000000, -26.609375000000, 1490764342
0.452636718750, -0.899658203125, 0.519531250000, 17.210937500000, -36.640625000000, -26.609375000000, 1490764342
0.452636718750, -0.899658203125, 0.519531250000, 17.210937500000, -36.640625000000, -26.609375000000, 1490764342
0.477783203125, -0.866699218750, 0.573730468750, -19.789062500000, -31.101562500000, -29.804687500000, 1490764342
0.477783203125, -0.866699218750, 0.573730468750, -19.789062500000, -31.101562500000, -29.804687500000, 1490764342
0.477783203125, -0.866699218750, 0.573730468750, -19.789062500000, -31.101562500000, -29.804687500000, 1490764342
0.581787109375, -0.884765625000, 0.411376953125, -25.359375000000, -31.617187500000, -8.320312500000, 1490764342
0.581787109375, -0.884765625000, 0.411376953125, -25.359375000000, -31.617187500000, -8.320312500000, 1490764342
0.581787109375, -0.884765625000, 0.411376953125, -25.359375000000, -31.617187500000, -8.320312500000, 1490764342
0.581787109375, -0.884765625000, 0.411376953125, -25.359375000000, -31.617187500000, -8.320312500000, 1490764342
0.511962890625, -0.750488281250, 0.452148437500, 6.335937500000, -12.304687500000, -9.101562500000, 1490764342
0.511962890625, -0.750488281250, 0.452148437500, 6.335937500000, -12.304687500000, -9.101562500000, 1490764342
0.511962890625, -0.750488281250, 0.452148437500, 6.335937500000, -12.304687500000, -9.101562500000, 1490764342
0.371337890625, -0.942138671875, 0.435546875000, -46.101562500000, 9.257812500000, -6.054687500000, 1490764342
0.371337890625, -0.942138671875, 0.435546875000, -46.101562500000, 9.257812500000, -6.054687500000, 1490764342
0.371337890625, -0.942138671875, 0.435546875000, -46.101562500000, 9.257812500000, -6.054687500000, 1490764342
0.504882812500, -1.189941406250, 0.456787109375, -73.468750000000, 38.351562500000, -2.343750000000, 1490764342
0.504882812500, -1.189941406250, 0.456787109375, -73.468750000000, 38.351562500000, -2.343750000000, 1490764342
0.504882812500, -1.189941406250, 0.456787109375, -73.468750000000, 38.351562500000, -2.343750000000, 1490764342
0.444824218750, -0.934326171875, 0.258300781250, 9.562500000000, -1.257812500000, 6.257812500000, 1490764342
0.444824218750, -0.934326171875, 0.258300781250, 9.562500000000, -1.257812500000, 6.257812500000, 1490764342
0.444824218750, -0.934326171875, 0.258300781250, 9.562500000000, -1.257812500000, 6.257812500000, 1490764342
0.444824218750, -0.934326171875, 0.258300781250, 9.562500000000, -1.257812500000, 6.257812500000, 1490764342
0.205810546875, -0.679687500000, 0.131103515625, 37.781250000000, -2.078125000000, 10.929687500000, 1490764342
0.205810546875, -0.679687500000, 0.131103515625, 37.781250000000, -2.078125000000, 10.929687500000, 1490764342
0.205810546875, -0.679687500000, 0.131103515625, 37.781250000000, -2.078125000000, 10.929687500000, 1490764342
0.151855468750, -0.694580078125, 0.130615234375, -51.679687500000, 6.835937500000, -15.203125000000, 1490764342
0.151855468750, -0.694580078125, 0.130615234375, -51.679687500000, 6.835937500000, -15.203125000000, 1490764342
0.151855468750, -0.694580078125, 0.130615234375, -51.679687500000, 6.835937500000, -15.203125000000, 1490764342
0.204589843750, -0.951171875000, 0.270263671875, -62.390625000000, 31.015625000000, -54.515625000000, 1490764342
0.204589843750, -0.951171875000, 0.270263671875, -62.390625000000, 31.015625000000, -54.515625000000, 1490764342
0.204589843750, -0.951171875000, 0.270263671875, -62.390625000000, 31.015625000000, -54.515625000000, 1490764342
0.304687500000, -0.918945312500, 0.881103515625, -12.320312500000, -25.187500000000, -40.492187500000, 1490764342
0.304687500000, -0.918945312500, 0.881103515625, -12.320312500000, -25.187500000000, -40.492187500000, 1490764342
0.304687500000, -0.918945312500, 0.881103515625, -12.320312500000, -25.187500000000, -40.492187500000, 1490764342
0.304687500000, -0.918945312500, 0.881103515625, -12.320312500000, -25.187500000000, -40.492187500000, 1490764342
0.268310546875, -1.033203125000, 0.296142578125, -11.062500000000, -56.210937500000, -22.515625000000, 1490764342
0.268310546875, -1.033203125000, 0.296142578125, -11.062500000000, -56.210937500000, -22.515625000000, 1490764342
0.268310546875, -1.033203125000, 0.296142578125, -11.062500000000, -56.210937500000, -22.515625000000, 1490764342
0.308105468750, -0.904785156250, 0.559814453125, 94.007812500000, -40.335937500000, -31.968750000000, 1490764342
0.308105468750, -0.904785156250, 0.559814453125, 94.007812500000, -40.335937500000, -31.968750000000, 1490764342
0.308105468750, -0.904785156250, 0.559814453125, 94.007812500000, -40.335937500000, -31.968750000000, 1490764342
0.251953125000, -0.624023437500, 0.524169921875, -4.625000000000, -19.718750000000, -3.335937500000, 1490764342
0.251953125000, -0.624023437500, 0.524169921875, -4.625000000000, -19.718750000000, -3.335937500000, 1490764342
0.251953125000, -0.624023437500, 0.524169921875, -4.625000000000, -19.718750000000, -3.335937500000, 1490764343
0.266113281250, -0.745849609375, 0.324218750000, -22.359375000000, -26.781250000000, 9.406250000000, 1490764343
0.266113281250, -0.745849609375, 0.324218750000, -22.359375000000, -26.781250000000, 9.406250000000, 1490764343
0.266113281250, -0.745849609375, 0.324218750000, -22.359375000000, -26.781250000000, 9.406250000000, 1490764343
0.266113281250, -0.745849609375, 0.324218750000, -22.359375000000, -26.781250000000, 9.406250000000, 1490764343
0.282958984375, -0.740234375000, 0.367919921875, 5.007812500000, 3.078125000000, -8.468750000000, 1490764343
0.282958984375, -0.740234375000, 0.367919921875, 5.007812500000, 3.078125000000, -8.468750000000, 1490764343
0.282958984375, -0.740234375000, 0.367919921875, 5.007812500000, 3.078125000000, -8.468750000000, 1490764343
0.350097656250, -0.821044921875, 0.478515625000, 4.218750000000, 0.906250000000, -7.406250000000, 1490764343
0.350097656250, -0.821044921875, 0.478515625000, 4.218750000000, 0.906250000000, -7.406250000000, 1490764343
0.350097656250, -0.821044921875, 0.478515625000, 4.218750000000, 0.906250000000, -7.406250000000, 1490764343
0.290283203125, -0.832275390625, 0.415039062500, 1.898437500000, 10.179687500000, 3.914062500000, 1490764343
0.290283203125, -0.832275390625, 0.415039062500, 1.898437500000, 10.179687500000, 3.914062500000, 1490764343
0.290283203125, -0.832275390625, 0.415039062500, 1.898437500000, 10.179687500000, 3.914062500000, 1490764343
0.385742187500, -0.833496093750, 0.504150390625, 9.335937500000, 17.015625000000, 7.960937500000, 1490764343
0.385742187500, -0.833496093750, 0.504150390625, 9.335937500000, 17.015625000000, 7.960937500000, 1490764343
0.385742187500, -0.833496093750, 0.504150390625, 9.335937500000, 17.015625000000, 7.960937500000, 1490764343
0.385742187500, -0.833496093750, 0.504150390625, 9.335937500000, 17.015625000000, 7.960937500000, 1490764343
0.343017578125, -0.744873046875, 0.687744140625, 5.250000000000, 41.414062500000, 9.117187500000, 1490764343
0.343017578125, -0.744873046875, 0.687744140625, 5.250000000000, 41.414062500000, 9.117187500000, 1490764343
0.343017578125, -0.744873046875, 0.687744140625, 5.250000000000, 41.414062500000, 9.117187500000, 1490764343
0.398437500000, -1.022216796875, 0.485107421875, -10.515625000000, 47.710937500000, 34.351562500000, 1490764343
0.398437500000, -1.022216796875, 0.485107421875, -10.515625000000, 47.710937500000, 34.351562500000, 1490764343
0.398437500000, -1.022216796875, 0.485107421875, -10.515625000000, 47.710937500000, 34.351562500000, 1490764343
0.331054687500, -0.969726562500, 0.525390625000, -32.085937500000, 4.585937500000, 28.218750000000, 1490764343
0.331054687500, -0.969726562500, 0.525390625000, -32.085937500000, 4.585937500000, 28.218750000000, 1490764343
0.331054687500, -0.969726562500, 0.525390625000, -32.085937500000, 4.585937500000, 28.218750000000, 1490764343
0.366699218750, -1.015625000000, 0.403076171875, -0.531250000000, 22.171875000000, 21.367187500000, 1490764343
0.366699218750, -1.015625000000, 0.403076171875, -0.531250000000, 22.171875000000, 21.367187500000, 1490764343
0.366699218750, -1.015625000000, 0.403076171875, -0.531250000000, 22.171875000000, 21.367187500000, 1490764343
0.366699218750, -1.015625000000, 0.403076171875, -0.531250000000, 22.171875000000, 21.367187500000, 1490764343
0.181640625000, -0.886474609375, 0.177978515625, 29.078125000000, -4.007812500000, 22.726562500000, 1490764343
0.181640625000, -0.886474609375, 0.177978515625, 29.078125000000, -4.007812500000, 22.726562500000, 1490764343
0.181640625000, -0.886474609375, 0.177978515625, 29.078125000000, -4.007812500000, 22.726562500000, 1490764343
0.297363281250, -0.731201171875, 0.150878906250, 6.109375000000, 27.476562500000, 22.382812500000, 1490764343
0.297363281250, -0.731201171875, 0.150878906250, 6.109375000000, 27.476562500000, 22.382812500000, 1490764343
0.297363281250, -0.731201171875, 0.150878906250, 6.109375000000, 27.476562500000, 22.382812500000, 1490764343
0.419921875000, -0.759765625000, 0.049072265625, -1.703125000000, 83.023437500000, 11.179687500000, 1490764343
0.419921875000, -0.759765625000, 0.049072265625, -1.703125000000, 83.023437500000, 11.179687500000, 1490764343
0.419921875000, -0.759765625000, 0.049072265625, -1.703125000000, 83.023437500000, 11.179687500000, 1490764343
0.441162109375, -0.877685546875, 0.490966796875, 61.375000000000, 119.226562500000, 2.156250000000, 1490764343
0.441162109375, -0.877685546875, 0.490966796875, 61.375000000000, 119.226562500000, 2.156250000000, 1490764343
0.441162109375, -0.877685546875, 0.490966796875, 61.375000000000, 119.226562500000, 2.156250000000, 1490764343
0.441162109375, -0.877685546875, 0.490966796875, 61.375000000000, 119.226562500000, 2.156250000000, 1490764343
0.299560546875, -0.929443359375, 0.477783203125, 0.062500000000, -14.734375000000, 17.078125000000, 1490764343
0.299560546875, -0.929443359375, 0.477783203125, 0.062500000000, -14.734375000000, 17.078125000000, 1490764343
0.299560546875, -0.929443359375, 0.477783203125, 0.062500000000, -14.734375000000, 17.078125000000, 1490764343
0.286865234375, -0.835205078125, 0.289062500000, 40.906250000000, -24.000000000000, 20.281250000000, 1490764343
0.286865234375, -0.835205078125, 0.289062500000, 40.906250000000, -24.000000000000, 20.281250000000, 1490764343
0.286865234375, -0.835205078125, 0.289062500000, 40.906250000000, -24.000000000000, 20.281250000000, 1490764343
0.280273437500, -0.715820312500, 0.402099609375, 32.773437500000, 17.773437500000, -6.445312500000, 1490764343
0.280273437500, -0.715820312500, 0.402099609375, 32.773437500000, 17.773437500000, -6.445312500000, 1490764343
0.280273437500, -0.715820312500, 0.402099609375, 32.773437500000, 17.773437500000, -6.445312500000, 1490764343
0.447753906250, -0.664550781250, 0.307617187500, -35.898437500000, -30.132812500000, -6.156250000000, 1490764343
0.447753906250, -0.664550781250, 0.307617187500, -35.898437500000, -30.132812500000, -6.156250000000, 1490764343
0.447753906250, -0.664550781250, 0.307617187500, -35.898437500000, -30.132812500000, -6.156250000000, 1490764343
0.447753906250, -0.664550781250, 0.307617187500, -35.898437500000, -30.132812500000, -6.156250000000, 1490764343
0.462402343750, -0.769287109375, 0.333740234375, -27.007812500000, -1.796875000000, 1.125000000000, 1490764343
0.462402343750, -0.769287109375, 0.333740234375, -27.007812500000, -1.796875000000, 1.125000000000, 1490764343
0.462402343750, -0.769287109375, 0.333740234375, -27.007812500000, -1.796875000000, 1.125000000000, 1490764343
0.298339843750, -0.841552734375, 0.323486328125, 12.171875000000, 6.953125000000, -10.687500000000, 1490764343
0.298339843750, -0.841552734375, 0.323486328125, 12.171875000000, 6.953125000000, -10.687500000000, 1490764343
0.298339843750, -0.841552734375, 0.323486328125, 12.171875000000, 6.953125000000, -10.687500000000, 1490764343
0.419677734375, -0.739990234375, 0.518066406250, 8.007812500000, -6.835937500000, -14.570312500000, 1490764343
0.419677734375, -0.739990234375, 0.518066406250, 8.007812500000, -6.835937500000, -14.570312500000, 1490764343
0.419677734375, -0.739990234375, 0.518066406250, 8.007812500000, -6.835937500000, -14.570312500000, 1490764343
0.353271484375, -0.916748046875, 0.547363281250, -39.750000000000, 7.242187500000, -10.085937500000, 1490764344
0.353271484375, -0.916748046875, 0.547363281250, -39.750000000000, 7.242187500000, -10.085937500000, 1490764344
0.353271484375, -0.916748046875, 0.547363281250, -39.750000000000, 7.242187500000, -10.085937500000, 1490764344
0.353271484375, -0.916748046875, 0.547363281250, -39.750000000000, 7.242187500000, -10.085937500000, 1490764344
0.385742187500, -0.968261718750, 0.634277343750, -20.500000000000, -10.890625000000, -16.546875000000, 1490764344
0.385742187500, -0.968261718750, 0.634277343750, -20.500000000000, -10.890625000000, -16.546875000000, 1490764344
0.385742187500, -0.968261718750, 0.634277343750, -20.500000000000, -10.890625000000, -16.546875000000, 1490764344
0.467041015625, -1.085693359375, 0.695068359375, -54.671875000000, -9.929687500000, -3.703125000000, 1490764344
0.467041015625, -1.085693359375, 0.695068359375, -54.671875000000, -9.929687500000, -3.703125000000, 1490764344
0.467041015625, -1.085693359375, 0.695068359375, -54.671875000000, -9.929687500000, -3.703125000000, 1490764344
0.512207031250, -1.090576171875, 0.481201171875, -79.726562500000, -8.906250000000, 2.101562500000, 1490764344
0.512207031250, -1.090576171875, 0.481201171875, -79.726562500000, -8.906250000000, 2.101562500000, 1490764344
0.512207031250, -1.090576171875, 0.481201171875, -79.726562500000, -8.906250000000, 2.101562500000, 1490764344
0.372314453125, -0.822998046875, 0.085449218750, -4.500000000000, -61.929687500000, -10.492187500000, 1490764344
0.372314453125, -0.822998046875, 0.085449218750, -4.500000000000, -61.929687500000, -10.492187500000, 1490764344
0.372314453125, -0.822998046875, 0.085449218750, -4.500000000000, -61.929687500000, -10.492187500000, 1490764344
0.372314453125, -0.822998046875, 0.085449218750, -4.500000000000, -61.929687500000, -10.492187500000, 1490764344
0.177734375000, -0.702148437500, 0.062988281250, -0.015625000000, -85.726562500000, -8.632812500000, 1490764344
0.177734375000, -0.702148437500, 0.062988281250, -0.015625000000, -85.726562500000, -8.632812500000, 1490764344
0.262939453125, -0.761718750000, 0.438720703125, -11.726562500000, -30.000000000000, -41.359375000000, 1490764344
0.262939453125, -0.761718750000, 0.438720703125, -11.726562500000, -30.000000000000, -41.359375000000, 1490764344
0.262939453125, -0.761718750000, 0.438720703125, -11.726562500000, -30.000000000000, -41.359375000000, 1490764344
0.262939453125, -0.761718750000, 0.438720703125, -11.726562500000, -30.000000000000, -41.359375000000, 1490764344
0.336181640625, -0.790283203125, 0.537841796875, -42.109375000000, 25.117187500000, -55.835937500000, 1490764344
0.336181640625, -0.790283203125, 0.537841796875, -42.109375000000, 25.117187500000, -55.835937500000, 1490764344
0.336181640625, -0.790283203125, 0.537841796875, -42.109375000000, 25.117187500000, -55.835937500000, 1490764344
0.296875000000, -1.263183593750, 0.507324218750, -70.187500000000, -71.218750000000, -22.265625000000, 1490764344
0.296875000000, -1.263183593750, 0.507324218750, -70.187500000000, -71.218750000000, -22.265625000000, 1490764344
0.296875000000, -1.263183593750, 0.507324218750, -70.187500000000, -71.218750000000, -22.265625000000, 1490764344
0.296875000000, -1.263183593750, 0.507324218750, -70.187500000000, -71.218750000000, -22.265625000000, 1490764344
0.336914062500, -1.020263671875, 0.334472656250, 45.625000000000, -134.125000000000, -61.625000000000, 1490764344
0.336914062500, -1.020263671875, 0.334472656250, 45.625000000000, -134.125000000000, -61.625000000000, 1490764344
0.336914062500, -1.020263671875, 0.334472656250, 45.625000000000, -134.125000000000, -61.625000000000, 1490764344
0.595947265625, -0.674804687500, 0.540771484375, 84.312500000000, -75.257812500000, -62.429687500000, 1490764344
0.595947265625, -0.674804687500, 0.540771484375, 84.312500000000, -75.257812500000, -62.429687500000, 1490764344
0.595947265625, -0.674804687500, 0.540771484375, 84.312500000000, -75.257812500000, -62.429687500000, 1490764344
0.465576171875, -0.591308593750, 0.379394531250, -30.546875000000, -56.492187500000, 22.132812500000, 1490764344
0.465576171875, -0.591308593750, 0.379394531250, -30.546875000000, -56.492187500000, 22.132812500000, 1490764344
0.465576171875, -0.591308593750, 0.379394531250, -30.546875000000, -56.492187500000, 22.132812500000, 1490764344
0.303710937500, -0.645507812500, 0.108886718750, -18.140625000000, 11.242187500000, 12.828125000000, 1490764344
0.303710937500, -0.645507812500, 0.108886718750, -18.140625000000, 11.242187500000, 12.828125000000, 1490764344
0.303710937500, -0.645507812500, 0.108886718750, -18.140625000000, 11.242187500000, 12.828125000000, 1490764344
0.303710937500, -0.645507812500, 0.108886718750, -18.140625000000, 11.242187500000, 12.828125000000, 1490764344
0.282470703125, -0.664062500000, 0.309326171875, 40.250000000000, 60.726562500000, 4.601562500000, 1490764344
0.282470703125, -0.664062500000, 0.309326171875, 40.250000000000, 60.726562500000, 4.601562500000, 1490764344
0.282470703125, -0.664062500000, 0.309326171875, 40.250000000000, 60.726562500000, 4.601562500000, 1490764344
0.370117187500, -0.820556640625, 0.706298828125, 29.117187500000, 22.437500000000, -11.710937500000, 1490764344
0.370117187500, -0.820556640625, 0.706298828125, 29.117187500000, 22.437500000000, -11.710937500000, 1490764344
0.370117187500, -0.820556640625, 0.706298828125, 29.117187500000, 22.437500000000, -11.710937500000, 1490764344
0.421630859375, -0.862060546875, 0.478271484375, -21.468750000000, -19.726562500000, 6.953125000000, 1490764344
0.421630859375, -0.862060546875, 0.478271484375, -21.468750000000, -19.726562500000, 6.953125000000, 1490764344
0.421630859375, -0.862060546875, 0.478271484375, -21.468750000000, -19.726562500000, 6.953125000000, 1490764344
0.462890625000, -0.781494140625, 0.455566406250, 22.187500000000, 49.609375000000, 1.179687500000, 1490764344
0.462890625000, -0.781494140625, 0.455566406250, 22.187500000000, 49.609375000000, 1.179687500000, 1490764344
0.462890625000, -0.781494140625, 0.455566406250, 22.187500000000, 49.609375000000, 1.179687500000, 1490764344
0.462890625000, -0.781494140625, 0.455566406250, 22.187500000000, 49.609375000000, 1.179687500000, 1490764344
0.369140625000, -0.892333984375, 0.575683593750, 24.453125000000, 43.968750000000, 14.257812500000, 1490764344
0.369140625000, -0.892333984375, 0.575683593750, 24.453125000000, 43.968750000000, 14.257812500000, 1490764344
0.369140625000, -0.892333984375, 0.575683593750, 24.453125000000, 43.968750000000, 14.257812500000, 1490764344
0.364746093750, -0.979248046875, 0.511718750000, -41.226562500000, 0.492187500000, 10.695312500000, 1490764344
0.364746093750, -0.979248046875, 0.511718750000, -41.226562500000, 0.492187500000, 10.695312500000, 1490764344
0.364746093750, -0.979248046875, 0.511718750000, -41.226562500000, 0.492187500000, 10.695312500000, 1490764344
0.529785156250, -1.150634765625, 0.379882812500, -37.945312500000, 12.585937500000, 21.992187500000, 1490764344
0.529785156250, -1.150634765625, 0.379882812500, -37.945312500000, 12.585937500000, 21.992187500000, 1490764344
0.529785156250, -1.150634765625, 0.379882812500, -37.945312500000, 12.585937500000, 21.992187500000, 1490764344
0.482910156250, -0.931640625000, 0.339355468750, 46.546875000000, 41.851562500000, -8.867187500000, 1490764344
0.482910156250, -0.931640625000, 0.339355468750, 46.546875000000, 41.851562500000, -8.867187500000, 1490764345
0.482910156250, -0.931640625000, 0.339355468750, 46.546875000000, 41.851562500000, -8.867187500000, 1490764345
0.482910156250, -0.931640625000, 0.339355468750, 46.546875000000, 41.851562500000, -8.867187500000, 1490764345
0.434082031250, -0.669433593750, 0.167236328125, 67.742187500000, 62.429687500000, 19.812500000000, 1490764345
0.434082031250, -0.669433593750, 0.167236328125, 67.742187500000, 62.429687500000, 19.812500000000, 1490764345
0.434082031250, -0.669433593750, 0.167236328125, 67.742187500000, 62.429687500000, 19.812500000000, 1490764345
0.339355468750, -0.687744140625, 0.077636718750, 1.117187500000, 75.921875000000, 30.851562500000, 1490764345
0.339355468750, -0.687744140625, 0.077636718750, 1.117187500000, 75.921875000000, 30.851562500000, 1490764345
0.339355468750, -0.687744140625, 0.077636718750, 1.117187500000, 75.921875000000, 30.851562500000, 1490764345
0.301025390625, -0.686279296875, 0.032714843750, -14.945312500000, 108.257812500000, 4.171875000000, 1490764345
0.301025390625, -0.686279296875, 0.032714843750, -14.945312500000, 108.257812500000, 4.171875000000, 1490764345
0.301025390625, -0.686279296875, 0.032714843750, -14.945312500000, 108.257812500000, 4.171875000000, 1490764345
0.448974609375, -0.836181640625, 0.565429687500, 54.960937500000, 61.328125000000, -0.781250000000, 1490764345
0.448974609375, -0.836181640625, 0.565429687500, 54.960937500000, 61.328125000000, -0.781250000000, 1490764345
0.448974609375, -0.836181640625, 0.565429687500, 54.960937500000, 61.328125000000, -0.781250000000, 1490764345
0.448974609375, -0.836181640625, 0.565429687500, 54.960937500000, 61.328125000000, -0.781250000000, 1490764345
0.284912109375, -0.907470703125, 0.421630859375, 5.921875000000, 91.062500000000, 0.335937500000, 1490764345
0.284912109375, -0.907470703125, 0.421630859375, 5.921875000000, 91.062500000000, 0.335937500000, 1490764345
0.284912109375, -0.907470703125, 0.421630859375, 5.921875000000, 91.062500000000, 0.335937500000, 1490764345
0.223876953125, -0.808105468750, 0.408447265625, 42.171875000000, 36.867187500000, 1.085937500000, 1490764345
0.223876953125, -0.808105468750, 0.408447265625, 42.171875000000, 36.867187500000, 1.085937500000, 1490764345
0.223876953125, -0.808105468750, 0.408447265625, 42.171875000000, 36.867187500000, 1.085937500000, 1490764345
0.383056640625, -0.716308593750, 0.443115234375, 48.734375000000, -10.242187500000, -5.195312500000, 1490764345
0.383056640625, -0.716308593750, 0.443115234375, 48.734375000000, -10.242187500000, -5.195312500000, 1490764345
0.383056640625, -0.716308593750, 0.443115234375, 48.734375000000, -10.242187500000, -5.195312500000, 1490764345
0.308593750000, -0.777587890625, 0.364257812500, -25.156250000000, 0.718750000000, 2.828125000000, 1490764345
0.308593750000, -0.777587890625, 0.364257812500, -25.156250000000, 0.718750000000, 2.828125000000, 1490764345
0.308593750000, -0.777587890625, 0.364257812500, -25.156250000000, 0.718750000000, 2.828125000000, 1490764345
0.308593750000, -0.777587890625, 0.364257812500, -25.156250000000, 0.718750000000, 2.828125000000, 1490764345
0.321044921875, -0.810302734375, 0.337402343750, -11.140625000000, 39.796875000000, 1.578125000000, 1490764345
0.321044921875, -0.810302734375, 0.337402343750, -11.140625000000, 39.796875000000, 1.578125000000, 1490764345
0.321044921875, -0.810302734375, 0.337402343750, -11.140625000000, 39.796875000000, 1.578125000000, 1490764345
0.303710937500, -0.866699218750, 0.403320312500, 20.578125000000, 24.812500000000, -8.507812500000, 1490764345
0.303710937500, -0.866699218750, 0.403320312500, 20.578125000000, 24.812500000000, -8.507812500000, 1490764345
0.303710937500, -0.866699218750, 0.403320312500, 20.578125000000, 24.812500000000, -8.507812500000, 1490764345
0.363525390625, -1.028808593750, 0.548339843750, -3.890625000000, 1.414062500000, -20.289062500000, 1490764345
0.363525390625, -1.028808593750, 0.548339843750, -3.890625000000, 1.414062500000, -20.289062500000, 1490764345
0.363525390625, -1.028808593750, 0.548339843750, -3.890625000000, 1.414062500000, -20.289062500000, 1490764345
0.248291015625, -1.068115234375, 0.646240234375, -33.398437500000, -8.648437500000, -16.109375000000, 1490764345
0.248291015625, -1.068115234375, 0.646240234375, -33.398437500000, -8.648437500000, -16.109375000000, 1490764345
0.248291015625, -1.068115234375, 0.646240234375, -33.398437500000, -8.648437500000, -16.109375000000, 1490764345
0.248291015625, -1.068115234375, 0.646240234375, -33.398437500000, -8.648437500000, -16.109375000000, 1490764345
0.406250000000, -1.138183593750, 0.471435546875, -43.304687500000, 2.773437500000, -15.898437500000, 1490764345
0.406250000000, -1.138183593750, 0.471435546875, -43.304687500000, 2.773437500000, -15.898437500000, 1490764345
0.406250000000, -1.138183593750, 0.471435546875, -43.304687500000, 2.773437500000, -15.898437500000, 1490764345
0.417236328125, -1.082275390625, 0.568115234375, -46.835937500000, 1.039062500000, -22.039062500000, 1490764345
0.417236328125, -1.082275390625, 0.568115234375, -46.835937500000, 1.039062500000, -22.039062500000, 1490764345
0.417236328125, -1.082275390625, 0.568115234375, -46.835937500000, 1.039062500000, -22.039062500000, 1490764345
0.395751953125, -0.883544921875, 0.252441406250, -46.554687500000, -37.734375000000, -11.132812500000, 1490764345
0.395751953125, -0.883544921875, 0.252441406250, -46.554687500000, -37.734375000000, -11.132812500000, 1490764345
0.395751953125, -0.883544921875, 0.252441406250, -46.554687500000, -37.734375000000, -11.132812500000, 1490764345
0.257324218750, -0.479003906250, 0.073242187500, 28.687500000000, -12.617187500000, 14.875000000000, 1490764345
0.257324218750, -0.479003906250, 0.073242187500, 28.687500000000, -12.617187500000, 14.875000000000, 1490764345
0.257324218750, -0.479003906250, 0.073242187500, 28.687500000000, -12.617187500000, 14.875000000000, 1490764345
0.257324218750, -0.479003906250, 0.073242187500, 28.687500000000, -12.617187500000, 14.875000000000, 1490764345
0.054443359375, -0.591064453125, -0.010253906250, -61.273437500000, -61.460937500000, -16.039062500000, 1490764345
0.054443359375, -0.591064453125, -0.010253906250, -61.273437500000, -61.460937500000, -16.039062500000, 1490764345
0.054443359375, -0.591064453125, -0.010253906250, -61.273437500000, -61.460937500000, -16.039062500000, 1490764345
0.139648437500, -0.912353515625, 0.355957031250, -37.359375000000, -1.054687500000, -81.242187500000, 1490764345
0.139648437500, -0.912353515625, 0.355957031250, -37.359375000000, -1.054687500000, -81.242187500000, 1490764345
0.139648437500, -0.912353515625, 0.355957031250, -37.359375000000, -1.054687500000, -81.242187500000, 1490764345
0.307128906250, -1.109375000000, 1.155517578125, 86.945312500000, 122.476562500000, -43.687500000000, 1490764345
0.307128906250, -1.109375000000, 1.155517578125, 86.945312500000, 122.476562500000, -43.687500000000, 1490764345
0.307128906250, -1.109375000000, 1.155517578125, 86.945312500000, 122.476562500000, -43.687500000000, 1490764345
0.327636718750, -1.073974609375, 0.312500000000, 31.382812500000, -222.437500000000, 22.609375000000, 1490764345
0.327636718750, -1.073974609375, 0.312500000000, 31.382812500000, -222.437500000000, 22.609375000000, 1490764345
0.327636718750, -1.073974609375, 0.312500000000, 31.382812500000, -222.437500000000, 22.609375000000, 1490764345
0.327636718750, -1.073974609375, 0.312500000000, 31.382812500000, -222.437500000000, 22.609375000000, 1490764345
0.461425781250, -0.753662109375, 0.283447265625, 106.445312500000, -63.625000000000, -44.867187500000, 1490764346
0.461425781250, -0.753662109375, 0.283447265625, 106.445312500000, -63.625000000000, -44.867187500000, 1490764346
0.461425781250, -0.753662109375, 0.283447265625, 106.445312500000, -63.625000000000, -44.867187500000, 1490764346
0.342041015625, -0.469970703125, 0.348388671875, -13.531250000000, -4.664062500000, -8.070312500000, 1490764346
0.342041015625, -0.469970703125, 0.348388671875, -13.531250000000, -4.664062500000, -8.070312500000, 1490764346
0.342041015625, -0.469970703125, 0.348388671875, -13.531250000000, -4.664062500000, -8.070312500000, 1490764346
0.325195312500, -0.670410156250, 0.236816406250, -54.132812500000, -12.796875000000, 15.125000000000, 1490764346
0.325195312500, -0.670410156250, 0.236816406250, -54.132812500000, -12.796875000000, 15.125000000000, 1490764346
0.325195312500, -0.670410156250, 0.236816406250, -54.132812500000, -12.796875000000, 15.125000000000, 1490764346
0.239746093750, -0.820312500000, 0.298095703125, 2.460937500000, 34.843750000000, 6.312500000000, 1490764346
0.239746093750, -0.820312500000, 0.298095703125, 2.460937500000, 34.843750000000, 6.312500000000, 1490764346
0.239746093750, -0.820312500000, 0.298095703125, 2.460937500000, 34.843750000000, 6.312500000000, 1490764346
0.239746093750, -0.820312500000, 0.298095703125, 2.460937500000, 34.843750000000, 6.312500000000, 1490764346
0.326416015625, -0.894042968750, 0.561279296875, 18.695312500000, 25.710937500000, 0.945312500000, 1490764346
0.326416015625, -0.894042968750, 0.561279296875, 18.695312500000, 25.710937500000, 0.945312500000, 1490764346
0.326416015625, -0.894042968750, 0.561279296875, 18.695312500000, 25.710937500000, 0.945312500000, 1490764346
0.400146484375, -0.937011718750, 0.588378906250, -7.656250000000, -14.257812500000, 3.320312500000, 1490764346
0.400146484375, -0.937011718750, 0.588378906250, -7.656250000000, -14.257812500000, 3.320312500000, 1490764346
0.400146484375, -0.937011718750, 0.588378906250, -7.656250000000, -14.257812500000, 3.320312500000, 1490764346
0.310058593750, -0.966796875000, 0.582031250000, 11.976562500000, 9.375000000000, -4.710937500000, 1490764346
0.310058593750, -0.966796875000, 0.582031250000, 11.976562500000, 9.375000000000, -4.710937500000, 1490764346
0.310058593750, -0.966796875000, 0.582031250000, 11.976562500000, 9.375000000000, -4.710937500000, 1490764346
0.372070312500, -1.076660156250, 0.525146484375, -44.148437500000, 25.484375000000, 9.968750000000, 1490764346
0.372070312500, -1.076660156250, 0.525146484375, -44.148437500000, 25.484375000000, 9.968750000000, 1490764346
0.372070312500, -1.076660156250, 0.525146484375, -44.148437500000, 25.484375000000, 9.968750000000, 1490764346
0.372070312500, -1.076660156250, 0.525146484375, -44.148437500000, 25.484375000000, 9.968750000000, 1490764346
0.300781250000, -0.990722656250, 0.382080078125, -68.195312500000, 30.156250000000, 44.375000000000, 1490764346
0.300781250000, -0.990722656250, 0.382080078125, -68.195312500000, 30.156250000000, 44.375000000000, 1490764346
0.300781250000, -0.990722656250, 0.382080078125, -68.195312500000, 30.156250000000, 44.375000000000, 1490764346
0.343750000000, -1.008544921875, 0.223144531250, 5.765625000000, 9.046875000000, 27.820312500000, 1490764346
0.343750000000, -1.008544921875, 0.223144531250, 5.765625000000, 9.046875000000, 27.820312500000, 1490764346
0.343750000000, -1.008544921875, 0.223144531250, 5.765625000000, 9.046875000000, 27.820312500000, 1490764346
0.371826171875, -0.854003906250, 0.111328125000, 28.164062500000, -13.609375000000, 9.937500000000, 1490764346
0.371826171875, -0.854003906250, 0.111328125000, 28.164062500000, -13.609375000000, 9.937500000000, 1490764346
0.371826171875, -0.854003906250, 0.111328125000, 28.164062500000, -13.609375000000, 9.937500000000, 1490764346
0.358154296875, -0.757812500000, 0.106933593750, 20.648437500000, 31.921875000000, 10.031250000000, 1490764346
0.358154296875, -0.757812500000, 0.106933593750, 20.648437500000, 31.921875000000, 10.031250000000, 1490764346
0.358154296875, -0.757812500000, 0.106933593750, 20.648437500000, 31.921875000000, 10.031250000000, 1490764346
0.452392578125, -0.689208984375, 0.124755859375, 15.093750000000, 38.656250000000, 11.109375000000, 1490764346
0.305175781250, -0.680419921875, 0.165527343750, -9.109375000000, 32.578125000000, 8.945312500000, 1490764346
0.448486328125, -0.890625000000, 0.476074218750, 15.742187500000, 46.984375000000, -8.203125000000, 1490764346
0.448486328125, -0.890625000000, 0.476074218750, 15.742187500000, 46.984375000000, -8.203125000000, 1490764346
0.448486328125, -0.890625000000, 0.476074218750, 15.742187500000, 46.984375000000, -8.203125000000, 1490764346
0.448486328125, -0.890625000000, 0.476074218750, 15.742187500000, 46.984375000000, -8.203125000000, 1490764346
0.448486328125, -0.890625000000, 0.476074218750, 15.742187500000, 46.984375000000, -8.203125000000, 1490764346
0.460449218750, -1.054687500000, 0.465820312500, 20.929687500000, 35.500000000000, 21.437500000000, 1490764346
0.460449218750, -1.054687500000, 0.465820312500, 20.929687500000, 35.500000000000, 21.437500000000, 1490764346
0.460449218750, -1.054687500000, 0.465820312500, 20.929687500000, 35.500000000000, 21.437500000000, 1490764346
0.292480468750, -0.885498046875, 0.500244140625, 83.429687500000, -53.429687500000, 12.617187500000, 1490764346
0.292480468750, -0.885498046875, 0.500244140625, 83.429687500000, -53.429687500000, 12.617187500000, 1490764346
0.292480468750, -0.885498046875, 0.500244140625, 83.429687500000, -53.429687500000, 12.617187500000, 1490764346
0.292480468750, -0.885498046875, 0.500244140625, 83.429687500000, -53.429687500000, 12.617187500000, 1490764346
0.405273437500, -0.691162109375, 0.281494140625, 17.687500000000, 1.609375000000, -4.984375000000, 1490764346
0.405273437500, -0.691162109375, 0.281494140625, 17.687500000000, 1.609375000000, -4.984375000000, 1490764346
0.405273437500, -0.691162109375, 0.281494140625, 17.687500000000, 1.609375000000, -4.984375000000, 1490764346
0.468017578125, -0.699462890625, 0.376953125000, -28.585937500000, -17.195312500000, -3.312500000000, 1490764346
0.468017578125, -0.699462890625, 0.376953125000, -28.585937500000, -17.195312500000, -3.312500000000, 1490764346
0.468017578125, -0.699462890625, 0.376953125000, -28.585937500000, -17.195312500000, -3.312500000000, 1490764346
0.450439453125, -0.754882812500, 0.392333984375, -7.046875000000, 11.953125000000, -5.031250000000, 1490764346
0.450439453125, -0.754882812500, 0.392333984375, -7.046875000000, 11.953125000000, -5.031250000000, 1490764346
0.450439453125, -0.754882812500, 0.392333984375, -7.046875000000, 11.953125000000, -5.031250000000, 1490764346
0.450439453125, -0.754882812500, 0.392333984375, -7.046875000000, 11.953125000000, -5.031250000000, 1490764346
0.468505859375, -0.814208984375, 0.479736328125, -9.367187500000, 56.093750000000, -8.351562500000, 1490764346
0.468505859375, -0.814208984375, 0.479736328125, -9.367187500000, 56.093750000000, -8.351562500000, 1490764347
0.468505859375, -0.814208984375, 0.479736328125, -9.367187500000, 56.093750000000, -8.351562500000, 1490764347
0.468505859375, -0.814208984375, 0.479736328125, -9.367187500000, 56.093750000000, -8.351562500000, 1490764347
0.468505859375, -0.814208984375, 0.479736328125, -9.367187500000, 56.093750000000, -8.351562500000, 1490764347
0.468505859375, -0.814208984375, 0.479736328125, -16.546875000000, 46.789062500000, -2.570312500000, 1490764347
0.348144531250, -0.947998046875, 0.635742187500, -32.593750000000, 19.000000000000, -3.570312500000, 1490764347
0.348144531250, -0.947998046875, 0.635742187500, -32.593750000000, 19.000000000000, -3.570312500000, 1490764347
0.348144531250, -0.947998046875, 0.635742187500, -32.593750000000, 19.000000000000, -3.570312500000, 1490764347
0.564697265625, -0.925781250000, 0.602050781250, -31.031250000000, -4.234375000000, 16.625000000000, 1490764347
0.564697265625, -0.925781250000, 0.602050781250, -31.031250000000, -4.234375000000, 16.625000000000, 1490764347
0.564697265625, -0.925781250000, 0.602050781250, -31.031250000000, -4.234375000000, 16.625000000000, 1490764347
0.571533203125, -1.085693359375, 0.490722656250, -33.546875000000, 45.812500000000, -7.742187500000, 1490764347
0.571533203125, -1.085693359375, 0.490722656250, -33.546875000000, 45.812500000000, -7.742187500000, 1490764347
0.571533203125, -1.085693359375, 0.490722656250, -33.546875000000, 45.812500000000, -7.742187500000, 1490764347
0.571533203125, -1.085693359375, 0.490722656250, -33.546875000000, 45.812500000000, -7.742187500000, 1490764347
0.510498046875, -0.969970703125, 0.349121093750, -41.945312500000, 22.507812500000, -40.226562500000, 1490764347
0.510498046875, -0.969970703125, 0.349121093750, -41.945312500000, 22.507812500000, -40.226562500000, 1490764347
0.510498046875, -0.969970703125, 0.349121093750, -41.945312500000, 22.507812500000, -40.226562500000, 1490764347
0.380371093750, -0.828369140625, 0.108642578125, -16.937500000000, -31.515625000000, -10.117187500000, 1490764347
0.380371093750, -0.828369140625, 0.108642578125, -16.937500000000, -31.515625000000, -10.117187500000, 1490764347
0.380371093750, -0.828369140625, 0.108642578125, -16.937500000000, -31.515625000000, -10.117187500000, 1490764347
0.332763671875, -0.437011718750, 0.011962890625, 14.492187500000, -14.132812500000, -9.820312500000, 1490764347
0.332763671875, -0.437011718750, 0.011962890625, 14.492187500000, -14.132812500000, -9.820312500000, 1490764347
0.332763671875, -0.437011718750, 0.011962890625, 14.492187500000, -14.132812500000, -9.820312500000, 1490764347
0.168945312500, -0.814697265625, 0.118408203125, -21.289062500000, -41.437500000000, -19.453125000000, 1490764347
0.168945312500, -0.814697265625, 0.118408203125, -21.289062500000, -41.437500000000, -19.453125000000, 1490764347
0.168945312500, -0.814697265625, 0.118408203125, -21.289062500000, -41.437500000000, -19.453125000000, 1490764347
0.168945312500, -0.814697265625, 0.118408203125, -21.289062500000, -41.437500000000, -19.453125000000, 1490764347
0.349609375000, -0.929199218750, 0.766845703125, -10.375000000000, -29.414062500000, -72.617187500000, 1490764347
0.349609375000, -0.929199218750, 0.766845703125, -10.375000000000, -29.414062500000, -72.617187500000, 1490764347
0.349609375000, -0.929199218750, 0.766845703125, -10.375000000000, -29.414062500000, -72.617187500000, 1490764347
0.216552734375, -1.138427734375, 0.514404296875, -68.648437500000, -54.023437500000, -38.304687500000, 1490764347
0.216552734375, -1.138427734375, 0.514404296875, -68.648437500000, -54.023437500000, -38.304687500000, 1490764347
0.216552734375, -1.138427734375, 0.514404296875, -68.648437500000, -54.023437500000, -38.304687500000, 1490764347
0.194580078125, -0.897705078125, 0.462158203125, 39.242187500000, -117.203125000000, -20.000000000000, 1490764347
0.194580078125, -0.897705078125, 0.462158203125, 39.242187500000, -117.203125000000, -20.000000000000, 1490764347
0.194580078125, -0.897705078125, 0.462158203125, 39.242187500000, -117.203125000000, -20.000000000000, 1490764347
0.322509765625, -0.709716796875, 0.377929687500, 27.281250000000, -68.531250000000, 2.320312500000, 1490764347
0.322509765625, -0.709716796875, 0.377929687500, 27.281250000000, -68.531250000000, 2.320312500000, 1490764347
0.322509765625, -0.709716796875, 0.377929687500, 27.281250000000, -68.531250000000, 2.320312500000, 1490764347
0.322509765625, -0.709716796875, 0.377929687500, 27.281250000000, -68.531250000000, 2.320312500000, 1490764347
0.309570312500, -0.656982421875, 0.352050781250, -29.976562500000, -38.359375000000, -8.703125000000, 1490764347
0.309570312500, -0.656982421875, 0.352050781250, -29.976562500000, -38.359375000000, -8.703125000000, 1490764347
0.309570312500, -0.656982421875, 0.352050781250, -29.976562500000, -38.359375000000, -8.703125000000, 1490764347
0.463623046875, -0.715820312500, 0.393310546875, -22.703125000000, 0.078125000000, -17.890625000000, 1490764347
0.463623046875, -0.715820312500, 0.393310546875, -22.703125000000, 0.078125000000, -17.890625000000, 1490764347
0.463623046875, -0.715820312500, 0.393310546875, -22.703125000000, 0.078125000000, -17.890625000000, 1490764347
0.506103515625, -0.671142578125, 0.446044921875, -14.500000000000, -22.656250000000, -20.132812500000, 1490764347
0.506103515625, -0.671142578125, 0.446044921875, -14.500000000000, -22.656250000000, -20.132812500000, 1490764347
0.466064453125, -0.790527343750, 0.464111328125, 11.695312500000, 33.312500000000, 8.890625000000, 1490764347
0.466064453125, -0.790527343750, 0.464111328125, 11.695312500000, 33.312500000000, 8.890625000000, 1490764347
0.466064453125, -0.790527343750, 0.464111328125, 11.695312500000, 33.312500000000, 8.890625000000, 1490764347
0.466064453125, -0.790527343750, 0.464111328125, 11.695312500000, 33.312500000000, 8.890625000000, 1490764347
0.466064453125, -0.790527343750, 0.464111328125, 11.695312500000, 33.312500000000, 8.890625000000, 1490764347
0.290771484375, -0.719238281250, 0.474121093750, -9.968750000000, 42.296875000000, 21.679687500000, 1490764347
0.290771484375, -0.719238281250, 0.474121093750, -9.968750000000, 42.296875000000, 21.679687500000, 1490764347
0.290771484375, -0.719238281250, 0.474121093750, -9.968750000000, 42.296875000000, 21.679687500000, 1490764347
0.311279296875, -0.963867187500, 0.533447265625, -15.625000000000, 50.296875000000, 21.265625000000, 1490764347
0.311279296875, -0.963867187500, 0.533447265625, -15.625000000000, 50.296875000000, 21.265625000000, 1490764347
0.311279296875, -0.963867187500, 0.533447265625, -15.625000000000, 50.296875000000, 21.265625000000, 1490764347
0.296630859375, -1.012695312500, 0.558593750000, -11.632812500000, 45.257812500000, 30.476562500000, 1490764347
0.296630859375, -1.012695312500, 0.558593750000, -11.632812500000, 45.257812500000, 30.476562500000, 1490764347
0.296630859375, -1.012695312500, 0.558593750000, -11.632812500000, 45.257812500000, 30.476562500000, 1490764347
0.371337890625, -0.972412109375, 0.425781250000, -18.828125000000, 17.625000000000, 31.179687500000, 1490764347
0.371337890625, -0.972412109375, 0.425781250000, -18.828125000000, 17.625000000000, 31.179687500000, 1490764347
0.371337890625, -0.972412109375, 0.425781250000, -18.828125000000, 17.625000000000, 31.179687500000, 1490764347
0.371337890625, -0.972412109375, 0.425781250000, -18.828125000000, 17.625000000000, 31.179687500000, 1490764347
0.251708984375, -0.710693359375, 0.401367187500, 17.367187500000, 27.000000000000, 25.843750000000, 1490764347
0.251708984375, -0.710693359375, 0.401367187500, 17.367187500000, 27.000000000000, 25.843750000000, 1490764347
0.251708984375, -0.710693359375, 0.401367187500, 17.367187500000, 27.000000000000, 25.843750000000, 1490764347
0.280517578125, -0.474365234375, 0.132324218750, 18.851562500000, -2.578125000000, 41.859375000000, 1490764348
0.280517578125, -0.474365234375, 0.132324218750, 18.851562500000, -2.578125000000, 41.859375000000, 1490764348
0.280517578125, -0.474365234375, 0.132324218750, 18.851562500000, -2.578125000000, 41.859375000000, 1490764348
0.332031250000, -0.560546875000, 0.035156250000, 15.468750000000, 1.000000000000, 33.515625000000, 1490764348
0.332031250000, -0.560546875000, 0.035156250000, 15.468750000000, 1.000000000000, 33.515625000000, 1490764348
0.501708984375, -0.943115234375, 0.289306640625, 19.820312500000, 34.117187500000, -0.484375000000, 1490764348
0.501708984375, -0.943115234375, 0.289306640625, 19.820312500000, 34.117187500000, -0.484375000000, 1490764348
0.501708984375, -0.943115234375, 0.289306640625, 19.820312500000, 34.117187500000, -0.484375000000, 1490764348
0.501708984375, -0.943115234375, 0.289306640625, 19.820312500000, 34.117187500000, -0.484375000000, 1490764348
0.501708984375, -0.943115234375, 0.289306640625, 19.820312500000, 34.117187500000, -0.484375000000, 1490764348
0.823486328125, -1.195556640625, 0.841308593750, 3.632812500000, 42.312500000000, 16.742187500000, 1490764348
0.823486328125, -1.195556640625, 0.841308593750, 3.632812500000, 42.312500000000, 16.742187500000, 1490764348
0.823486328125, -1.195556640625, 0.841308593750, 3.632812500000, 42.312500000000, 16.742187500000, 1490764348
0.376220703125, -0.811035156250, 0.252929687500, 55.085937500000, 9.843750000000, 9.679687500000, 1490764348
0.376220703125, -0.811035156250, 0.252929687500, 55.085937500000, 9.843750000000, 9.679687500000, 1490764348
0.376220703125, -0.811035156250, 0.252929687500, 55.085937500000, 9.843750000000, 9.679687500000, 1490764348
0.311035156250, -0.820068359375, 0.514892578125, 112.882812500000, -33.554687500000, -4.507812500000, 1490764348
0.311035156250, -0.820068359375, 0.514892578125, 112.882812500000, -33.554687500000, -4.507812500000, 1490764348
0.311035156250, -0.820068359375, 0.514892578125, 112.882812500000, -33.554687500000, -4.507812500000, 1490764348
0.441650390625, -0.531494140625, 0.222900390625, -17.328125000000, -0.492187500000, -0.945312500000, 1490764348
0.441650390625, -0.531494140625, 0.222900390625, -17.328125000000, -0.492187500000, -0.945312500000, 1490764348
0.441650390625, -0.531494140625, 0.222900390625, -17.328125000000, -0.492187500000, -0.945312500000, 1490764348
0.441650390625, -0.531494140625, 0.222900390625, -17.328125000000, -0.492187500000, -0.945312500000, 1490764348
0.299316406250, -0.674072265625, 0.333251953125, -20.609375000000, -30.250000000000, -1.523437500000, 1490764348
0.299316406250, -0.674072265625, 0.333251953125, -20.609375000000, -30.250000000000, -1.523437500000, 1490764348
0.299316406250, -0.674072265625, 0.333251953125, -20.609375000000, -30.250000000000, -1.523437500000, 1490764348
0.582519531250, -0.724853515625, 0.393310546875, -18.476562500000, -20.523437500000, 0.937500000000, 1490764348
0.582519531250, -0.724853515625, 0.393310546875, -18.476562500000, -20.523437500000, 0.937500000000, 1490764348
0.582519531250, -0.724853515625, 0.393310546875, -18.476562500000, -20.523437500000, 0.937500000000, 1490764348
0.540283203125, -0.902099609375, 0.562988281250, -20.937500000000, -8.601562500000, 4.703125000000, 1490764348
0.540283203125, -0.902099609375, 0.562988281250, -20.937500000000, -8.601562500000, 4.703125000000, 1490764348
0.540283203125, -0.902099609375, 0.562988281250, -20.937500000000, -8.601562500000, 4.703125000000, 1490764348
0.541748046875, -0.861816406250, 0.528076171875, 4.773437500000, -1.054687500000, 2.453125000000, 1490764348
0.541748046875, -0.861816406250, 0.528076171875, 4.773437500000, -1.054687500000, 2.453125000000, 1490764348
0.541748046875, -0.861816406250, 0.528076171875, 4.773437500000, -1.054687500000, 2.453125000000, 1490764348
0.431152343750, -0.829345703125, 0.561035156250, -16.390625000000, 17.492187500000, -10.515625000000, 1490764348
0.431152343750, -0.829345703125, 0.561035156250, -16.390625000000, 17.492187500000, -10.515625000000, 1490764348
0.431152343750, -0.829345703125, 0.561035156250, -16.390625000000, 17.492187500000, -10.515625000000, 1490764348
0.400878906250, -0.886474609375, 0.647216796875, -23.460937500000, 28.648437500000, -12.328125000000, 1490764348
0.361816406250, -0.916748046875, 0.589843750000, -29.210937500000, 30.796875000000, -19.906250000000, 1490764348
0.361816406250, -0.916748046875, 0.589843750000, -29.210937500000, 30.796875000000, -19.906250000000, 1490764348
0.361816406250, -0.916748046875, 0.589843750000, -29.210937500000, 30.796875000000, -19.906250000000, 1490764348
0.303466796875, -0.851074218750, 0.510986328125, -73.601562500000, 12.132812500000, -28.539062500000, 1490764348
0.303466796875, -0.851074218750, 0.510986328125, -73.601562500000, 12.132812500000, -28.539062500000, 1490764348
0.303466796875, -0.851074218750, 0.510986328125, -73.601562500000, 12.132812500000, -28.539062500000, 1490764348
0.534179687500, -0.972412109375, 0.347167968750, -51.710937500000, -34.109375000000, -27.507812500000, 1490764348
0.534179687500, -0.972412109375, 0.347167968750, -51.710937500000, -34.109375000000, -27.507812500000, 1490764348
0.534179687500, -0.972412109375, 0.347167968750, -51.710937500000, -34.109375000000, -27.507812500000, 1490764348
0.534179687500, -0.972412109375, 0.347167968750, -51.710937500000, -34.109375000000, -27.507812500000, 1490764348
0.409423828125, -0.888671875000, 0.125976562500, 15.609375000000, -27.125000000000, 12.789062500000, 1490764348
0.409423828125, -0.888671875000, 0.125976562500, 15.609375000000, -27.125000000000, 12.789062500000, 1490764348
0.409423828125, -0.888671875000, 0.125976562500, 15.609375000000, -27.125000000000, 12.789062500000, 1490764348
0.292236328125, -0.765869140625, 0.014892578125, -4.210937500000, 30.218750000000, -15.226562500000, 1490764348
0.292236328125, -0.765869140625, 0.014892578125, -4.210937500000, 30.218750000000, -15.226562500000, 1490764348
0.292236328125, -0.765869140625, 0.014892578125, -4.210937500000, 30.218750000000, -15.226562500000, 1490764348
0.300292968750, -0.814697265625, 0.160888671875, -16.906250000000, -85.414062500000, -25.796875000000, 1490764348
0.300292968750, -0.814697265625, 0.160888671875, -16.906250000000, -85.414062500000, -25.796875000000, 1490764348
0.300292968750, -0.814697265625, 0.160888671875, -16.906250000000, -85.414062500000, -25.796875000000, 1490764348
0.471191406250, -0.811523437500, 0.594726562500, -26.828125000000, -32.875000000000, -52.585937500000, 1490764348
0.471191406250, -0.811523437500, 0.594726562500, -26.828125000000, -32.875000000000, -52.585937500000, 1490764348
0.471191406250, -0.811523437500, 0.594726562500, -26.828125000000, -32.875000000000, -52.585937500000, 1490764348
0.471191406250, -0.811523437500, 0.594726562500, -26.828125000000, -32.875000000000, -52.585937500000, 1490764348
0.234863281250, -1.011962890625, 0.293457031250, -68.757812500000, -45.820312500000, -19.335937500000, 1490764348
0.234863281250, -1.011962890625, 0.293457031250, -68.757812500000, -45.820312500000, -19.335937500000, 1490764348
0.234863281250, -1.011962890625, 0.293457031250, -68.757812500000, -45.820312500000, -19.335937500000, 1490764348
0.270507812500, -0.897949218750, 0.293457031250, 6.726562500000, -33.460937500000, -35.664062500000, 1490764348
0.270507812500, -0.897949218750, 0.293457031250, 6.726562500000, -33.460937500000, -35.664062500000, 1490764348
0.270507812500, -0.897949218750, 0.293457031250, 6.726562500000, -33.460937500000, -35.664062500000, 1490764349
0.414794921875, -0.752929687500, 0.487060546875, 71.960937500000, -45.460937500000, -33.531250000000, 1490764349
0.414794921875, -0.752929687500, 0.487060546875, 71.960937500000, -45.460937500000, -33.531250000000, 1490764349
0.414794921875, -0.752929687500, 0.487060546875, 71.960937500000, -45.460937500000, -33.531250000000, 1490764349
0.344238281250, -0.663330078125, 0.369140625000, -49.578125000000, -40.226562500000, 12.265625000000, 1490764349
0.344238281250, -0.663330078125, 0.369140625000, -49.578125000000, -40.226562500000, 12.265625000000, 1490764349
0.344238281250, -0.663330078125, 0.369140625000, -49.578125000000, -40.226562500000, 12.265625000000, 1490764349
0.344238281250, -0.663330078125, 0.369140625000, -49.578125000000, -40.226562500000, 12.265625000000, 1490764349
0.347167968750, -0.664550781250, 0.386962890625, 6.578125000000, -12.218750000000, 8.000000000000, 1490764349
0.347167968750, -0.664550781250, 0.386962890625, 6.578125000000, -12.218750000000, 8.000000000000, 1490764349
0.347167968750, -0.664550781250, 0.386962890625, 6.578125000000, -12.218750000000, 8.000000000000, 1490764349
0.564453125000, -0.618652343750, 0.384765625000, 22.414062500000, -10.296875000000, 6.171875000000, 1490764349
0.564453125000, -0.618652343750, 0.384765625000, 22.414062500000, -10.296875000000, 6.171875000000, 1490764349
0.564453125000, -0.618652343750, 0.384765625000, 22.414062500000, -10.296875000000, 6.171875000000, 1490764349
0.601074218750, -0.757568359375, 0.500488281250, 0.367187500000, 15.882812500000, 11.390625000000, 1490764349
0.601074218750, -0.757568359375, 0.500488281250, 0.367187500000, 15.882812500000, 11.390625000000, 1490764349
0.601074218750, -0.757568359375, 0.500488281250, 0.367187500000, 15.882812500000, 11.390625000000, 1490764349
0.462890625000, -0.814453125000, 0.424560546875, -20.257812500000, 38.359375000000, 22.382812500000, 1490764349
0.462890625000, -0.814453125000, 0.424560546875, -20.257812500000, 38.359375000000, 22.382812500000, 1490764349
0.462890625000, -0.814453125000, 0.424560546875, -20.257812500000, 38.359375000000, 22.382812500000, 1490764349
0.462890625000, -0.814453125000, 0.424560546875, -20.257812500000, 38.359375000000, 22.382812500000, 1490764349
0.454345703125, -1.010253906250, 0.406982421875, -30.164062500000, 74.500000000000, 34.984375000000, 1490764349
0.454345703125, -1.010253906250, 0.406982421875, -30.164062500000, 74.500000000000, 34.984375000000, 1490764349
0.454345703125, -1.010253906250, 0.406982421875, -30.164062500000, 74.500000000000, 34.984375000000, 1490764349
0.521728515625, -1.097900390625, 0.549072265625, 0.335937500000, 79.820312500000, 41.796875000000, 1490764349
0.521728515625, -1.097900390625, 0.549072265625, 0.335937500000, 79.820312500000, 41.796875000000, 1490764349
0.521728515625, -1.097900390625, 0.549072265625, 0.335937500000, 79.820312500000, 41.796875000000, 1490764349
0.528076171875, -0.956542968750, 0.452392578125, 28.445312500000, 28.000000000000, 30.312500000000, 1490764349
0.528076171875, -0.956542968750, 0.452392578125, 28.445312500000, 28.000000000000, 30.312500000000, 1490764349
0.528076171875, -0.956542968750, 0.452392578125, 28.445312500000, 28.000000000000, 30.312500000000, 1490764349
0.411621093750, -0.686767578125, 0.200439453125, 34.882812500000, 16.148437500000, 13.171875000000, 1490764349
0.411621093750, -0.686767578125, 0.200439453125, 34.882812500000, 16.148437500000, 13.171875000000, 1490764349
0.411621093750, -0.686767578125, 0.200439453125, 34.882812500000, 16.148437500000, 13.171875000000, 1490764349
0.411621093750, -0.686767578125, 0.200439453125, 34.882812500000, 16.148437500000, 13.171875000000, 1490764349
0.229492187500, -0.489990234375, 0.081054687500, 18.476562500000, 58.937500000000, 9.218750000000, 1490764349
0.229492187500, -0.489990234375, 0.081054687500, 18.476562500000, 58.937500000000, 9.218750000000, 1490764349
0.229492187500, -0.489990234375, 0.081054687500, 18.476562500000, 58.937500000000, 9.218750000000, 1490764349
0.417480468750, -0.696777343750, 0.106933593750, 3.578125000000, 69.210937500000, -6.695312500000, 1490764349
0.417480468750, -0.696777343750, 0.106933593750, 3.578125000000, 69.210937500000, -6.695312500000, 1490764349
0.417480468750, -0.696777343750, 0.106933593750, 3.578125000000, 69.210937500000, -6.695312500000, 1490764349
0.431152343750, -0.811279296875, 0.398437500000, 38.203125000000, 41.554687500000, -11.742187500000, 1490764349
0.431152343750, -0.811279296875, 0.398437500000, 38.203125000000, 41.554687500000, -11.742187500000, 1490764349
0.431152343750, -0.811279296875, 0.398437500000, 38.203125000000, 41.554687500000, -11.742187500000, 1490764349
0.508544921875, -1.070068359375, 0.456298828125, -8.250000000000, 39.007812500000, 8.820312500000, 1490764349
0.508544921875, -1.070068359375, 0.456298828125, -8.250000000000, 39.007812500000, 8.820312500000, 1490764349
0.508544921875, -1.070068359375, 0.456298828125, -8.250000000000, 39.007812500000, 8.820312500000, 1490764349
0.508544921875, -1.070068359375, 0.456298828125, -8.250000000000, 39.007812500000, 8.820312500000, 1490764349
0.397949218750, -0.833251953125, 0.292480468750, 72.554687500000, 27.218750000000, -15.796875000000, 1490764349
0.397949218750, -0.833251953125, 0.292480468750, 72.554687500000, 27.218750000000, -15.796875000000, 1490764349
0.397949218750, -0.833251953125, 0.292480468750, 72.554687500000, 27.218750000000, -15.796875000000, 1490764349
0.372802734375, -0.625488281250, 0.312011718750, 51.226562500000, 27.281250000000, 11.382812500000, 1490764349
0.372802734375, -0.625488281250, 0.312011718750, 51.226562500000, 27.281250000000, 11.382812500000, 1490764349
0.372802734375, -0.625488281250, 0.312011718750, 51.226562500000, 27.281250000000, 11.382812500000, 1490764349
0.240722656250, -0.594726562500, 0.176025390625, -4.359375000000, 11.757812500000, 1.062500000000, 1490764349
0.240722656250, -0.594726562500, 0.176025390625, -4.359375000000, 11.757812500000, 1.062500000000, 1490764349
0.240722656250, -0.594726562500, 0.176025390625, -4.359375000000, 11.757812500000, 1.062500000000, 1490764349
0.379638671875, -0.776123046875, 0.368652343750, -12.656250000000, -4.835937500000, -0.515625000000, 1490764349
0.379638671875, -0.776123046875, 0.368652343750, -12.656250000000, -4.835937500000, -0.515625000000, 1490764349
0.379638671875, -0.776123046875, 0.368652343750, -12.656250000000, -4.835937500000, -0.515625000000, 1490764349
0.379638671875, -0.776123046875, 0.368652343750, -12.656250000000, -4.835937500000, -0.515625000000, 1490764349
0.437744140625, -0.897460937500, 0.360107421875, -15.382812500000, 3.656250000000, -12.812500000000, 1490764349
0.437744140625, -0.897460937500, 0.360107421875, -15.382812500000, 3.656250000000, -12.812500000000, 1490764349
0.437744140625, -0.897460937500, 0.360107421875, -15.382812500000, 3.656250000000, -12.812500000000, 1490764349
0.457275390625, -0.897460937500, 0.370361328125, 22.609375000000, -29.546875000000, -16.695312500000, 1490764349
0.457275390625, -0.897460937500, 0.370361328125, 22.609375000000, -29.546875000000, -16.695312500000, 1490764349
0.457275390625, -0.897460937500, 0.370361328125, 22.609375000000, -29.546875000000, -16.695312500000, 1490764349
0.462402343750, -0.868408203125, 0.568603515625, 3.375000000000, -10.617187500000, -12.125000000000, 1490764350
0.462402343750, -0.868408203125, 0.568603515625, 3.375000000000, -10.617187500000, -12.125000000000, 1490764350
0.462402343750, -0.868408203125, 0.568603515625, 3.375000000000, -10.617187500000, -12.125000000000, 1490764350
0.462158203125, -0.950439453125, 0.492919921875, -29.562500000000, -18.492187500000, -20.734375000000, 1490764350
0.462158203125, -0.950439453125, 0.492919921875, -29.562500000000, -18.492187500000, -20.734375000000, 1490764350
0.462158203125, -0.950439453125, 0.492919921875, -29.562500000000, -18.492187500000, -20.734375000000, 1490764350
0.462158203125, -0.950439453125, 0.492919921875, -29.562500000000, -18.492187500000, -20.734375000000, 1490764350
0.345947265625, -0.975830078125, 0.441650390625, -61.351562500000, -9.484375000000, -16.125000000000, 1490764350
0.345947265625, -0.975830078125, 0.441650390625, -61.351562500000, -9.484375000000, -16.125000000000, 1490764350
0.345947265625, -0.975830078125, 0.441650390625, -61.351562500000, -9.484375000000, -16.125000000000, 1490764350
0.482177734375, -1.126220703125, 0.444091796875, -68.304687500000, -13.101562500000, -17.585937500000, 1490764350
0.482177734375, -1.126220703125, 0.444091796875, -68.304687500000, -13.101562500000, -17.585937500000, 1490764350
0.482177734375, -1.126220703125, 0.444091796875, -68.304687500000, -13.101562500000, -17.585937500000, 1490764350
0.528808593750, -0.903320312500, 0.255126953125, -49.570312500000, -36.781250000000, -16.484375000000, 1490764350
0.528808593750, -0.903320312500, 0.255126953125, -49.570312500000, -36.781250000000, -16.484375000000, 1490764350
0.528808593750, -0.903320312500, 0.255126953125, -49.570312500000, -36.781250000000, -16.484375000000, 1490764350
0.221923828125, -0.695312500000, 0.076660156250, 8.882812500000, -43.117187500000, 1.421875000000, 1490764350
0.221923828125, -0.695312500000, 0.076660156250, 8.882812500000, -43.117187500000, 1.421875000000, 1490764350
0.221923828125, -0.695312500000, 0.076660156250, 8.882812500000, -43.117187500000, 1.421875000000, 1490764350
0.221923828125, -0.695312500000, 0.076660156250, 8.882812500000, -43.117187500000, 1.421875000000, 1490764350
0.197021484375, -0.752197265625, 0.127685546875, -19.406250000000, -32.429687500000, -24.648437500000, 1490764350
0.197021484375, -0.752197265625, 0.127685546875, -19.406250000000, -32.429687500000, -24.648437500000, 1490764350
0.197021484375, -0.752197265625, 0.127685546875, -19.406250000000, -32.429687500000, -24.648437500000, 1490764350
0.259277343750, -0.802978515625, 0.335449218750, -15.085937500000, 14.320312500000, -58.914062500000, 1490764350
0.259277343750, -0.802978515625, 0.335449218750, -15.085937500000, 14.320312500000, -58.914062500000, 1490764350
0.259277343750, -0.802978515625, 0.335449218750, -15.085937500000, 14.320312500000, -58.914062500000, 1490764350
0.225097656250, -0.957519531250, 0.621093750000, -36.109375000000, -29.921875000000, -45.148437500000, 1490764350
0.225097656250, -0.957519531250, 0.621093750000, -36.109375000000, -29.921875000000, -45.148437500000, 1490764350
0.225097656250, -0.957519531250, 0.621093750000, -36.109375000000, -29.921875000000, -45.148437500000, 1490764350
0.302734375000, -0.850830078125, 0.316406250000, -12.484375000000, -109.296875000000, -38.390625000000, 1490764350
0.302734375000, -0.850830078125, 0.316406250000, -12.484375000000, -109.296875000000, -38.390625000000, 1490764350
0.302734375000, -0.850830078125, 0.316406250000, -12.484375000000, -109.296875000000, -38.390625000000, 1490764350
0.407958984375, -0.661621093750, 0.333740234375, 42.406250000000, -89.210937500000, -50.007812500000, 1490764350
0.407958984375, -0.661621093750, 0.333740234375, 42.406250000000, -89.210937500000, -50.007812500000, 1490764350
0.407958984375, -0.661621093750, 0.333740234375, 42.406250000000, -89.210937500000, -50.007812500000, 1490764350
0.407958984375, -0.661621093750, 0.333740234375, 42.406250000000, -89.210937500000, -50.007812500000, 1490764350
0.369873046875, -0.620849609375, 0.443847656250, 2.632812500000, -33.453125000000, -26.601562500000, 1490764350
0.369873046875, -0.620849609375, 0.443847656250, 2.632812500000, -33.453125000000, -26.601562500000, 1490764350
0.369873046875, -0.620849609375, 0.443847656250, 2.632812500000, -33.453125000000, -26.601562500000, 1490764350
0.282226562500, -0.619873046875, 0.396972656250, -50.781250000000, -6.406250000000, -7.992187500000, 1490764350
0.282226562500, -0.619873046875, 0.396972656250, -50.781250000000, -6.406250000000, -7.992187500000, 1490764350
0.282226562500, -0.619873046875, 0.396972656250, -50.781250000000, -6.406250000000, -7.992187500000, 1490764350
0.224365234375, -0.827880859375, 0.396484375000, -12.734375000000, 46.554687500000, -16.039062500000, 1490764350
0.224365234375, -0.827880859375, 0.396484375000, -12.734375000000, 46.554687500000, -16.039062500000, 1490764350
0.224365234375, -0.827880859375, 0.396484375000, -12.734375000000, 46.554687500000, -16.039062500000, 1490764350
0.224365234375, -0.827880859375, 0.396484375000, -12.734375000000, 46.554687500000, -16.039062500000, 1490764350
0.377441406250, -0.837402343750, 0.492675781250, 21.656250000000, -18.171875000000, -18.468750000000, 1490764350
0.377441406250, -0.837402343750, 0.492675781250, 21.656250000000, -18.171875000000, -18.468750000000, 1490764350
0.377441406250, -0.837402343750, 0.492675781250, 21.656250000000, -18.171875000000, -18.468750000000, 1490764350
0.426025390625, -0.912109375000, 0.540039062500, -9.593750000000, -10.507812500000, 8.554687500000, 1490764350
0.426025390625, -0.912109375000, 0.540039062500, -9.593750000000, -10.507812500000, 8.554687500000, 1490764350
0.426025390625, -0.912109375000, 0.540039062500, -9.593750000000, -10.507812500000, 8.554687500000, 1490764350
0.248779296875, -0.897949218750, 0.431152343750, -24.242187500000, 42.554687500000, 26.148437500000, 1490764350
0.248779296875, -0.897949218750, 0.431152343750, -24.242187500000, 42.554687500000, 26.148437500000, 1490764350
0.248779296875, -0.897949218750, 0.431152343750, -24.242187500000, 42.554687500000, 26.148437500000, 1490764350
0.305664062500, -1.028320312500, 0.585449218750, -20.578125000000, 84.843750000000, 31.031250000000, 1490764350
0.305664062500, -1.028320312500, 0.585449218750, -20.578125000000, 84.843750000000, 31.031250000000, 1490764350
0.305664062500, -1.028320312500, 0.585449218750, -20.578125000000, 84.843750000000, 31.031250000000, 1490764350
0.330078125000, -1.043457031250, 0.613037109375, -34.093750000000, 39.382812500000, 49.140625000000, 1490764350
0.291259765625, -1.126708984375, 0.587158203125, -34.093750000000, 39.382812500000, 49.140625000000, 1490764350
0.291259765625, -1.126708984375, 0.587158203125, -34.093750000000, 39.382812500000, 49.140625000000, 1490764350
0.291259765625, -1.126708984375, 0.587158203125, -34.093750000000, 39.382812500000, 49.140625000000, 1490764350
0.341308593750, -0.956787109375, 0.405761718750, 9.679687500000, -4.304687500000, 30.890625000000, 1490764350
0.341308593750, -0.956787109375, 0.405761718750, 9.679687500000, -4.304687500000, 30.890625000000, 1490764350
0.341308593750, -0.956787109375, 0.405761718750, 9.679687500000, -4.304687500000, 30.890625000000, 1490764350
0.309326171875, -0.674560546875, 0.220458984375, 17.867187500000, -21.125000000000, 9.273437500000, 1490764350
0.309326171875, -0.674560546875, 0.220458984375, 17.867187500000, -21.125000000000, 9.273437500000, 1490764350
