ACC_X,ACC_Y,ACC_Z,G_X,G_Y,G_Z,Unix Time
0.217041015625, -0.491699218750, 0.198242187500, 10.632812500000, 24.218750000000, -32.679687500000, 1490769370
0.217041015625, -0.491699218750, 0.198242187500, 10.632812500000, 24.218750000000, -32.679687500000, 1490769370
0.217041015625, -0.491699218750, 0.198242187500, 10.632812500000, 24.218750000000, -32.679687500000, 1490769370
0.209716796875, -0.568359375000, 0.176513671875, -17.945312500000, -39.101562500000, -33.421875000000, 1490769370
0.209716796875, -0.568359375000, 0.176513671875, -17.945312500000, -39.101562500000, -33.421875000000, 1490769370
0.209716796875, -0.568359375000, 0.176513671875, -17.945312500000, -39.101562500000, -33.421875000000, 1490769370
0.571289062500, -0.851318359375, 0.335449218750, -55.195312500000, -49.234375000000, 23.132812500000, 1490769370
0.571289062500, -0.851318359375, 0.335449218750, -55.195312500000, -49.234375000000, 23.132812500000, 1490769370
0.571289062500, -0.851318359375, 0.335449218750, -55.195312500000, -49.234375000000, 23.132812500000, 1490769370
0.571289062500, -0.851318359375, 0.335449218750, -55.195312500000, -49.234375000000, 23.132812500000, 1490769370
0.571289062500, -0.851318359375, 0.335449218750, -55.195312500000, -49.234375000000, 23.132812500000, 1490769370
0.404052734375, -0.785644531250, 0.580566406250, -24.296875000000, -14.140625000000, -3.539062500000, 1490769370
0.514160156250, -0.961181640625, 0.513427734375, -24.296875000000, -14.140625000000, -3.539062500000, 1490769370
0.514160156250, -0.961181640625, 0.513427734375, -24.296875000000, -14.140625000000, -3.539062500000, 1490769370
0.514160156250, -0.961181640625, 0.513427734375, -24.296875000000, -14.140625000000, -3.539062500000, 1490769370
0.514160156250, -0.961181640625, 0.513427734375, -24.296875000000, -14.140625000000, -3.539062500000, 1490769370
0.541503906250, -1.329101562500, 0.520507812500, 31.140625000000, -11.039062500000, 3.429687500000, 1490769370
0.541503906250, -1.329101562500, 0.520507812500, 31.140625000000, -11.039062500000, 3.429687500000, 1490769370
0.541503906250, -1.329101562500, 0.520507812500, 31.140625000000, -11.039062500000, 3.429687500000, 1490769370
0.310791015625, -1.043945312500, 0.622070312500, 21.828125000000, 71.789062500000, -6.695312500000, 1490769370
0.310791015625, -1.043945312500, 0.622070312500, 21.828125000000, 71.789062500000, -6.695312500000, 1490769370
0.310791015625, -1.043945312500, 0.622070312500, 8.406250000000, 58.656250000000, -3.632812500000, 1490769370
0.158203125000, -0.832031250000, 0.345214843750, -2.007812500000, 49.640625000000, -14.554687500000, 1490769370
0.158203125000, -0.832031250000, 0.345214843750, -2.007812500000, 49.640625000000, -14.554687500000, 1490769370
0.177734375000, -0.727539062500, 0.363769531250, 14.898437500000, 41.773437500000, -17.640625000000, 1490769370
0.183349609375, -0.643798828125, 0.364501953125, 17.421875000000, 25.062500000000, -15.835937500000, 1490769371
0.183349609375, -0.643798828125, 0.364501953125, 17.421875000000, 25.062500000000, -15.835937500000, 1490769371
0.183349609375, -0.643798828125, 0.364501953125, 17.421875000000, 25.062500000000, -15.835937500000, 1490769371
0.183349609375, -0.643798828125, 0.364501953125, 17.421875000000, 25.062500000000, -15.835937500000, 1490769371
-0.024169921875, -0.513183593750, 0.222900390625, -8.281250000000, 12.742187500000, -7.820312500000, 1490769371
-0.024169921875, -0.513183593750, 0.222900390625, -8.281250000000, 12.742187500000, -7.820312500000, 1490769371
-0.024169921875, -0.513183593750, 0.222900390625, -8.281250000000, 12.742187500000, -7.820312500000, 1490769371
-0.121093750000, -0.592529296875, 0.173828125000, -42.046875000000, -86.585937500000, -9.945312500000, 1490769371
-0.121093750000, -0.592529296875, 0.173828125000, -42.046875000000, -86.585937500000, -9.945312500000, 1490769371
-0.121093750000, -0.592529296875, 0.173828125000, -42.046875000000, -86.585937500000, -9.945312500000, 1490769371
-0.121093750000, -0.592529296875, 0.173828125000, -42.046875000000, -86.585937500000, -9.945312500000, 1490769371
-0.029785156250, -0.961669921875, 0.159667968750, -64.562500000000, -110.625000000000, -35.835937500000, 1490769371
-0.029785156250, -0.961669921875, 0.159667968750, -64.562500000000, -110.625000000000, -35.835937500000, 1490769371
-0.029785156250, -0.961669921875, 0.159667968750, -64.562500000000, -110.625000000000, -35.835937500000, 1490769371
-0.089111328125, -1.373779296875, 0.253173828125, -80.835937500000, -136.054687500000, -62.539062500000, 1490769371
0.319091796875, -1.239013671875, 0.499755859375, -52.968750000000, -183.750000000000, -67.882812500000, 1490769371
0.319091796875, -1.239013671875, 0.499755859375, -52.968750000000, -183.750000000000, -67.882812500000, 1490769371
0.317382812500, -1.093505859375, 0.758789062500, -47.328125000000, -135.203125000000, -50.593750000000, 1490769371
0.367675781250, -0.976806640625, 0.469726562500, -54.273437500000, -94.218750000000, -34.687500000000, 1490769371
0.367675781250, -0.976806640625, 0.469726562500, -54.273437500000, -94.218750000000, -34.687500000000, 1490769371
0.367675781250, -0.976806640625, 0.469726562500, -54.273437500000, -94.218750000000, -34.687500000000, 1490769371
0.367675781250, -0.976806640625, 0.469726562500, -54.273437500000, -94.218750000000, -34.687500000000, 1490769371
0.367675781250, -0.976806640625, 0.469726562500, -54.273437500000, -94.218750000000, -34.687500000000, 1490769371
0.367675781250, -0.976806640625, 0.469726562500, -54.273437500000, -94.218750000000, -34.687500000000, 1490769371
0.211425781250, -0.624755859375, 0.210449218750, -54.210937500000, -79.609375000000, -58.359375000000, 1490769371
0.211425781250, -0.624755859375, 0.210449218750, -54.210937500000, -79.609375000000, -58.359375000000, 1490769371
0.211425781250, -0.624755859375, 0.210449218750, -54.210937500000, -79.609375000000, -58.359375000000, 1490769371
0.124511718750, -0.549560546875, 0.210205078125, -24.656250000000, -109.500000000000, -58.992187500000, 1490769371
0.124511718750, -0.549560546875, 0.210205078125, -24.656250000000, -109.500000000000, -58.992187500000, 1490769371
0.124511718750, -0.549560546875, 0.210205078125, -24.656250000000, -109.500000000000, -58.992187500000, 1490769371
0.295410156250, -0.501464843750, 0.293945312500, 12.054687500000, -92.210937500000, -59.320312500000, 1490769371
0.295410156250, -0.501464843750, 0.293945312500, 12.054687500000, -92.210937500000, -59.320312500000, 1490769371
0.295410156250, -0.501464843750, 0.293945312500, 12.054687500000, -92.210937500000, -59.320312500000, 1490769371
0.246093750000, -0.702148437500, 0.265380859375, -73.812500000000, -27.414062500000, 2.382812500000, 1490769371
0.246093750000, -0.702148437500, 0.265380859375, -73.812500000000, -27.414062500000, 2.382812500000, 1490769371
0.246093750000, -0.702148437500, 0.265380859375, -73.812500000000, -27.414062500000, 2.382812500000, 1490769371
0.246093750000, -0.702148437500, 0.265380859375, -73.812500000000, -27.414062500000, 2.382812500000, 1490769371
0.220703125000, -0.878906250000, 0.145996093750, -32.031250000000, -47.000000000000, -15.000000000000, 1490769371
0.220703125000, -0.878906250000, 0.145996093750, -32.031250000000, -47.000000000000, -15.000000000000, 1490769371
0.220703125000, -0.878906250000, 0.145996093750, -32.031250000000, -47.000000000000, -15.000000000000, 1490769371
0.301269531250, -1.054199218750, 0.958007812500, -18.742187500000, -160.531250000000, -67.101562500000, 1490769371
0.301269531250, -1.054199218750, 0.958007812500, -18.742187500000, -160.531250000000, -67.101562500000, 1490769371
0.301269531250, -1.054199218750, 0.958007812500, -18.742187500000, -160.531250000000, -67.101562500000, 1490769371
0.445800781250, -1.458007812500, 0.760253906250, -24.945312500000, 57.109375000000, -28.554687500000, 1490769371
0.445800781250, -1.458007812500, 0.760253906250, -24.945312500000, 57.109375000000, -28.554687500000, 1490769371
0.445800781250, -1.458007812500, 0.760253906250, -24.945312500000, 57.109375000000, -28.554687500000, 1490769371
0.167724609375, -0.935302734375, 0.757812500000, 4.320312500000, -115.531250000000, -26.875000000000, 1490769371
0.167724609375, -0.935302734375, 0.757812500000, 4.320312500000, -115.531250000000, -26.875000000000, 1490769371
0.167724609375, -0.935302734375, 0.757812500000, 4.320312500000, -115.531250000000, -26.875000000000, 1490769371
0.167724609375, -0.935302734375, 0.757812500000, 4.320312500000, -115.531250000000, -26.875000000000, 1490769371
0.098876953125, -0.773925781250, 0.459228515625, -49.750000000000, -18.335937500000, -17.085937500000, 1490769371
0.098876953125, -0.773925781250, 0.459228515625, -49.750000000000, -18.335937500000, -17.085937500000, 1490769371
0.098876953125, -0.773925781250, 0.459228515625, -49.750000000000, -18.335937500000, -17.085937500000, 1490769371
0.040771484375, -0.555419921875, 0.235595703125, -28.273437500000, -12.085937500000, -40.203125000000, 1490769371
0.040771484375, -0.555419921875, 0.235595703125, -28.273437500000, -12.085937500000, -40.203125000000, 1490769371
0.040771484375, -0.555419921875, 0.235595703125, -28.273437500000, -12.085937500000, -40.203125000000, 1490769371
-0.050292968750, -0.508056640625, 0.130859375000, -9.882812500000, -111.226562500000, -60.734375000000, 1490769371
-0.050292968750, -0.508056640625, 0.130859375000, -9.882812500000, -111.226562500000, -60.734375000000, 1490769371
-0.050292968750, -0.508056640625, 0.130859375000, -9.882812500000, -111.226562500000, -60.734375000000, 1490769371
-0.193603515625, -0.543945312500, 0.263427734375, -72.703125000000, -211.570312500000, -72.234375000000, 1490769371
-0.193603515625, -0.543945312500, 0.263427734375, -72.703125000000, -211.570312500000, -72.234375000000, 1490769371
-0.193603515625, -0.543945312500, 0.263427734375, -72.703125000000, -211.570312500000, -72.234375000000, 1490769371
-0.193603515625, -0.543945312500, 0.263427734375, -72.703125000000, -211.570312500000, -72.234375000000, 1490769371
-0.103271484375, -1.372802734375, 0.281250000000, -146.921875000000, -128.414062500000, -133.640625000000, 1490769371
-0.103271484375, -1.372802734375, 0.281250000000, -146.921875000000, -128.414062500000, -133.640625000000, 1490769371
-0.103271484375, -1.372802734375, 0.281250000000, -146.921875000000, -128.414062500000, -133.640625000000, 1490769371
0.216552734375, -1.172851562500, 0.231689453125, 39.921875000000, -108.085937500000, -138.640625000000, 1490769371
0.216552734375, -1.172851562500, 0.231689453125, 39.921875000000, -108.085937500000, -138.640625000000, 1490769371
0.216552734375, -1.172851562500, 0.231689453125, 39.921875000000, -108.085937500000, -138.640625000000, 1490769371
0.377197265625, -1.522949218750, 0.591552734375, -15.789062500000, -175.671875000000, -31.632812500000, 1490769372
0.377197265625, -1.522949218750, 0.591552734375, -15.789062500000, -175.671875000000, -31.632812500000, 1490769372
0.377197265625, -1.522949218750, 0.591552734375, -15.789062500000, -175.671875000000, -31.632812500000, 1490769372
0.384521484375, -1.043212890625, 0.450439453125, -34.062500000000, -83.468750000000, -49.296875000000, 1490769372
0.384521484375, -1.043212890625, 0.450439453125, -34.062500000000, -83.468750000000, -49.296875000000, 1490769372
0.384521484375, -1.043212890625, 0.450439453125, -34.062500000000, -83.468750000000, -49.296875000000, 1490769372
0.384521484375, -1.043212890625, 0.450439453125, -34.062500000000, -83.468750000000, -49.296875000000, 1490769372
0.053710937500, -0.845703125000, 0.368896484375, -18.070312500000, 43.242187500000, -87.101562500000, 1490769372
0.053710937500, -0.845703125000, 0.368896484375, -18.070312500000, 43.242187500000, -87.101562500000, 1490769372
0.053710937500, -0.845703125000, 0.368896484375, -18.070312500000, 43.242187500000, -87.101562500000, 1490769372
-0.126708984375, -0.701660156250, 0.286132812500, -40.906250000000, -124.625000000000, -66.734375000000, 1490769372
-0.126708984375, -0.701660156250, 0.286132812500, -40.906250000000, -124.625000000000, -66.734375000000, 1490769372
-0.126708984375, -0.701660156250, 0.286132812500, -40.906250000000, -124.625000000000, -66.734375000000, 1490769372
-0.019775390625, -0.728027343750, 0.376464843750, -71.250000000000, -181.765625000000, -73.718750000000, 1490769372
-0.019775390625, -0.728027343750, 0.376464843750, -71.250000000000, -181.765625000000, -73.718750000000, 1490769372
-0.019775390625, -0.728027343750, 0.376464843750, -71.250000000000, -181.765625000000, -73.718750000000, 1490769372
0.342773437500, -0.778076171875, 0.170654296875, -58.898437500000, -90.304687500000, -52.476562500000, 1490769372
0.342773437500, -0.778076171875, 0.170654296875, -58.898437500000, -90.304687500000, -52.476562500000, 1490769372
0.342773437500, -0.778076171875, 0.170654296875, -58.898437500000, -90.304687500000, -52.476562500000, 1490769372
0.342773437500, -0.778076171875, 0.170654296875, -58.898437500000, -90.304687500000, -52.476562500000, 1490769372
0.287841796875, -0.593994140625, 0.048583984375, 33.703125000000, -17.406250000000, -62.968750000000, 1490769372
0.287841796875, -0.593994140625, 0.048583984375, 33.703125000000, -17.406250000000, -62.968750000000, 1490769372
0.287841796875, -0.593994140625, 0.048583984375, 33.703125000000, -17.406250000000, -62.968750000000, 1490769372
0.558105468750, -1.322509765625, 0.745849609375, -38.414062500000, -200.929687500000, -7.054687500000, 1490769372
0.558105468750, -1.322509765625, 0.745849609375, -38.414062500000, -200.929687500000, -7.054687500000, 1490769372
0.558105468750, -1.322509765625, 0.745849609375, -38.414062500000, -200.929687500000, -7.054687500000, 1490769372
0.700439453125, -1.194824218750, 0.597656250000, 40.179687500000, 2.757812500000, -10.625000000000, 1490769372
0.700439453125, -1.194824218750, 0.597656250000, 40.179687500000, 2.757812500000, -10.625000000000, 1490769372
0.700439453125, -1.194824218750, 0.597656250000, 40.179687500000, 2.757812500000, -10.625000000000, 1490769372
0.343505859375, -1.005859375000, 0.595703125000, -14.718750000000, -23.007812500000, 2.125000000000, 1490769372
0.343505859375, -1.005859375000, 0.595703125000, -14.718750000000, -23.007812500000, 2.125000000000, 1490769372
0.343505859375, -1.005859375000, 0.595703125000, -14.718750000000, -23.007812500000, 2.125000000000, 1490769372
0.235351562500, -0.788330078125, 0.504638671875, -17.546875000000, -40.429687500000, 13.859375000000, 1490769372
0.235351562500, -0.788330078125, 0.504638671875, -17.546875000000, -40.429687500000, 13.859375000000, 1490769372
0.235351562500, -0.788330078125, 0.504638671875, -17.546875000000, -40.429687500000, 13.859375000000, 1490769372
0.235351562500, -0.788330078125, 0.504638671875, -17.546875000000, -40.429687500000, 13.859375000000, 1490769372
0.236816406250, -0.730712890625, 0.346923828125, 5.250000000000, -36.437500000000, 8.367187500000, 1490769372
0.236816406250, -0.730712890625, 0.346923828125, 5.250000000000, -36.437500000000, 8.367187500000, 1490769372
0.236816406250, -0.730712890625, 0.346923828125, 5.250000000000, -36.437500000000, 8.367187500000, 1490769372
0.337646484375, -0.776123046875, 0.445312500000, -27.492187500000, -26.515625000000, 15.195312500000, 1490769372
0.337646484375, -0.776123046875, 0.445312500000, -27.492187500000, -26.515625000000, 15.195312500000, 1490769372
0.337646484375, -0.776123046875, 0.445312500000, -27.492187500000, -26.515625000000, 15.195312500000, 1490769372
0.191406250000, -0.601318359375, 0.268066406250, -12.703125000000, -19.023437500000, -8.976562500000, 1490769372
0.191406250000, -0.601318359375, 0.268066406250, -12.703125000000, -19.023437500000, -8.976562500000, 1490769372
0.191406250000, -0.601318359375, 0.268066406250, -12.703125000000, -19.023437500000, -8.976562500000, 1490769372
0.191406250000, -0.601318359375, 0.268066406250, -12.703125000000, -19.023437500000, -8.976562500000, 1490769372
0.186035156250, -0.987548828125, 0.289062500000, -101.882812500000, -87.460937500000, -55.226562500000, 1490769372
0.186035156250, -0.987548828125, 0.289062500000, -101.882812500000, -87.460937500000, -55.226562500000, 1490769372
0.186035156250, -0.987548828125, 0.289062500000, -101.882812500000, -87.460937500000, -55.226562500000, 1490769372
0.186035156250, -0.987548828125, 0.289062500000, -101.882812500000, -87.460937500000, -55.226562500000, 1490769372
0.186035156250, -0.987548828125, 0.289062500000, -101.882812500000, -87.460937500000, -55.226562500000, 1490769372
0.350341796875, -1.116943359375, 0.549072265625, -16.578125000000, -46.687500000000, -64.695312500000, 1490769372
0.350341796875, -1.116943359375, 0.549072265625, -16.578125000000, -46.687500000000, -64.695312500000, 1490769372
0.350341796875, -1.116943359375, 0.549072265625, -16.578125000000, -46.687500000000, -64.695312500000, 1490769372
0.350341796875, -1.116943359375, 0.549072265625, -16.578125000000, -46.687500000000, -64.695312500000, 1490769372
0.486083984375, -1.044433593750, 0.751953125000, -24.882812500000, -139.523437500000, -56.085937500000, 1490769372
0.486083984375, -1.044433593750, 0.751953125000, -24.882812500000, -139.523437500000, -56.085937500000, 1490769372
0.486083984375, -1.044433593750, 0.751953125000, -24.882812500000, -139.523437500000, -56.085937500000, 1490769372
0.486083984375, -1.044433593750, 0.751953125000, -24.882812500000, -139.523437500000, -56.085937500000, 1490769372
0.449951171875, -0.943115234375, 0.480712890625, -25.406250000000, -78.718750000000, -44.570312500000, 1490769372
0.449951171875, -0.943115234375, 0.480712890625, -25.406250000000, -78.718750000000, -44.570312500000, 1490769372
0.449951171875, -0.943115234375, 0.480712890625, -25.406250000000, -78.718750000000, -44.570312500000, 1490769372
0.295654296875, -0.814453125000, 0.367187500000, -33.320312500000, 4.546875000000, -36.578125000000, 1490769372
0.295654296875, -0.814453125000, 0.367187500000, -33.320312500000, 4.546875000000, -36.578125000000, 1490769372
0.295654296875, -0.814453125000, 0.367187500000, -33.320312500000, 4.546875000000, -36.578125000000, 1490769372
0.261230468750, -0.570312500000, 0.240234375000, -55.992187500000, -22.242187500000, -15.507812500000, 1490769373
0.261230468750, -0.570312500000, 0.240234375000, -55.992187500000, -22.242187500000, -15.507812500000, 1490769373
0.261230468750, -0.570312500000, 0.240234375000, -55.992187500000, -22.242187500000, -15.507812500000, 1490769373
0.397949218750, -0.716308593750, 0.260253906250, -7.953125000000, -5.421875000000, -11.070312500000, 1490769373
0.397949218750, -0.716308593750, 0.260253906250, -7.953125000000, -5.421875000000, -11.070312500000, 1490769373
0.397949218750, -0.716308593750, 0.260253906250, -7.953125000000, -5.421875000000, -11.070312500000, 1490769373
0.397949218750, -0.716308593750, 0.260253906250, -7.953125000000, -5.421875000000, -11.070312500000, 1490769373
0.368896484375, -0.614746093750, 0.338867187500, 14.937500000000, 73.250000000000, 17.531250000000, 1490769373
0.368896484375, -0.614746093750, 0.338867187500, 14.937500000000, 73.250000000000, 17.531250000000, 1490769373
0.368896484375, -0.614746093750, 0.338867187500, 14.937500000000, 73.250000000000, 17.531250000000, 1490769373
0.465576171875, -0.701660156250, 0.401367187500, -1.226562500000, 27.906250000000, 32.398437500000, 1490769373
0.465576171875, -0.701660156250, 0.401367187500, -1.226562500000, 27.906250000000, 32.398437500000, 1490769373
0.465576171875, -0.701660156250, 0.401367187500, -1.226562500000, 27.906250000000, 32.398437500000, 1490769373
0.693847656250, -1.094970703125, 0.476074218750, 22.125000000000, 32.171875000000, 39.421875000000, 1490769373
0.693847656250, -1.094970703125, 0.476074218750, 22.125000000000, 32.171875000000, 39.421875000000, 1490769373
0.693847656250, -1.094970703125, 0.476074218750, 22.125000000000, 32.171875000000, 39.421875000000, 1490769373
0.595458984375, -1.327636718750, 0.660644531250, 32.765625000000, 108.398437500000, 57.695312500000, 1490769373
0.595458984375, -1.327636718750, 0.660644531250, 32.765625000000, 108.398437500000, 57.695312500000, 1490769373
0.595458984375, -1.327636718750, 0.660644531250, 32.765625000000, 108.398437500000, 57.695312500000, 1490769373
0.595458984375, -1.327636718750, 0.660644531250, 32.765625000000, 108.398437500000, 57.695312500000, 1490769373
0.441650390625, -1.231689453125, 0.552490234375, 33.296875000000, 97.820312500000, 55.960937500000, 1490769373
0.245849609375, -0.760009765625, 0.472900390625, 12.601562500000, 79.984375000000, 41.156250000000, 1490769373
0.245849609375, -0.760009765625, 0.472900390625, 12.601562500000, 79.984375000000, 41.156250000000, 1490769373
0.245849609375, -0.760009765625, 0.472900390625, 12.601562500000, 79.984375000000, 41.156250000000, 1490769373
0.245849609375, -0.760009765625, 0.472900390625, 12.601562500000, 79.984375000000, 41.156250000000, 1490769373
0.131835937500, -0.542724609375, 0.226806640625, 14.773437500000, 88.085937500000, 40.500000000000, 1490769373
0.131835937500, -0.542724609375, 0.226806640625, 14.773437500000, 88.085937500000, 40.500000000000, 1490769373
0.131835937500, -0.542724609375, 0.226806640625, 14.773437500000, 88.085937500000, 40.500000000000, 1490769373
0.131835937500, -0.542724609375, 0.226806640625, 14.773437500000, 88.085937500000, 40.500000000000, 1490769373
0.062744140625, -0.358886718750, 0.166259765625, 7.609375000000, 15.429687500000, 17.468750000000, 1490769373
0.062744140625, -0.358886718750, 0.166259765625, 7.609375000000, 15.429687500000, 17.468750000000, 1490769373
0.062744140625, -0.358886718750, 0.166259765625, 7.609375000000, 15.429687500000, 17.468750000000, 1490769373
0.090820312500, -0.395507812500, 0.175781250000, -4.890625000000, -23.304687500000, 16.875000000000, 1490769373
-0.010498046875, -0.481933593750, 0.239501953125, -5.468750000000, -36.625000000000, 14.046875000000, 1490769373
-0.010498046875, -0.481933593750, 0.239501953125, -5.468750000000, -36.625000000000, 14.046875000000, 1490769373
-0.010498046875, -0.481933593750, 0.239501953125, -5.468750000000, -36.625000000000, 14.046875000000, 1490769373
0.054443359375, -1.031982421875, 0.434082031250, -58.804687500000, -96.585937500000, -40.890625000000, 1490769373
0.054443359375, -1.031982421875, 0.434082031250, -58.804687500000, -96.585937500000, -40.890625000000, 1490769373
0.054443359375, -1.031982421875, 0.434082031250, -58.804687500000, -96.585937500000, -40.890625000000, 1490769373
0.539550781250, -1.225830078125, 1.188232421875, -76.609375000000, -37.875000000000, -49.812500000000, 1490769373
0.539550781250, -1.225830078125, 1.188232421875, -76.609375000000, -37.875000000000, -49.812500000000, 1490769373
0.539550781250, -1.225830078125, 1.188232421875, -76.609375000000, -37.875000000000, -49.812500000000, 1490769373
0.300537109375, -1.195068359375, 0.517089843750, 9.695312500000, -161.812500000000, -78.390625000000, 1490769373
0.300537109375, -1.195068359375, 0.517089843750, 9.695312500000, -161.812500000000, -78.390625000000, 1490769373
0.300537109375, -1.195068359375, 0.517089843750, 9.695312500000, -161.812500000000, -78.390625000000, 1490769373
0.300537109375, -1.195068359375, 0.517089843750, 9.695312500000, -161.812500000000, -78.390625000000, 1490769373
0.434570312500, -0.852783203125, 0.662841796875, -30.867187500000, -64.648437500000, -54.515625000000, 1490769373
0.434570312500, -0.852783203125, 0.662841796875, -30.867187500000, -64.648437500000, -54.515625000000, 1490769373
0.434570312500, -0.852783203125, 0.662841796875, -30.867187500000, -64.648437500000, -54.515625000000, 1490769373
0.181152343750, -0.724121093750, 0.180419921875, -65.671875000000, -36.750000000000, -57.109375000000, 1490769373
0.181152343750, -0.724121093750, 0.180419921875, -65.671875000000, -36.750000000000, -57.109375000000, 1490769373
0.181152343750, -0.724121093750, 0.180419921875, -65.671875000000, -36.750000000000, -57.109375000000, 1490769373
0.258300781250, -0.605224609375, 0.220703125000, -16.125000000000, -105.718750000000, -61.835937500000, 1490769373
0.258300781250, -0.605224609375, 0.220703125000, -16.125000000000, -105.718750000000, -61.835937500000, 1490769373
0.258300781250, -0.605224609375, 0.220703125000, -16.125000000000, -105.718750000000, -61.835937500000, 1490769373
0.384521484375, -0.551513671875, 0.162841796875, -36.593750000000, -10.882812500000, -45.632812500000, 1490769373
0.384521484375, -0.551513671875, 0.162841796875, -36.593750000000, -10.882812500000, -45.632812500000, 1490769373
0.384521484375, -0.551513671875, 0.162841796875, -36.593750000000, -10.882812500000, -45.632812500000, 1490769373
0.384521484375, -0.551513671875, 0.162841796875, -36.593750000000, -10.882812500000, -45.632812500000, 1490769373
0.485595703125, -0.751953125000, 0.114501953125, 8.218750000000, 94.257812500000, -30.992187500000, 1490769373
0.485595703125, -0.751953125000, 0.114501953125, 8.218750000000, 94.257812500000, -30.992187500000, 1490769373
0.485595703125, -0.751953125000, 0.114501953125, 8.218750000000, 94.257812500000, -30.992187500000, 1490769373
