ACC_X,ACC_Y,ACC_Z,G_X,G_Y,G_Z,Unix Time
0.040283203125, 0.675048828125, -0.705566406250, -4.484375000000, 3.593750000000, -2.976562500000, 1490770299
0.040283203125, 0.675048828125, -0.705566406250, -4.484375000000, 3.593750000000, -2.976562500000, 1490770299
0.040283203125, 0.675048828125, -0.705566406250, -4.484375000000, 3.593750000000, -2.976562500000, 1490770299
0.040283203125, 0.675048828125, -0.705566406250, -4.484375000000, 3.593750000000, -2.976562500000, 1490770299
0.084716796875, 0.719238281250, -0.710937500000, -4.843750000000, 3.726562500000, 0.890625000000, 1490770299
0.084716796875, 0.719238281250, -0.710937500000, -4.843750000000, 3.726562500000, 0.890625000000, 1490770299
0.084716796875, 0.719238281250, -0.710937500000, -4.843750000000, 3.726562500000, 0.890625000000, 1490770299
0.068603515625, 0.689941406250, -0.612548828125, -6.210937500000, 1.375000000000, -2.539062500000, 1490770299
0.068603515625, 0.689941406250, -0.612548828125, -6.210937500000, 1.375000000000, -2.539062500000, 1490770299
0.068603515625, 0.689941406250, -0.612548828125, -6.210937500000, 1.375000000000, -2.539062500000, 1490770299
0.082275390625, 0.665527343750, -0.615722656250, -5.765625000000, 1.460937500000, -4.289062500000, 1490770299
0.082275390625, 0.665527343750, -0.615722656250, -5.765625000000, 1.460937500000, -4.289062500000, 1490770299
0.082275390625, 0.665527343750, -0.615722656250, -5.765625000000, 1.460937500000, -4.289062500000, 1490770299
0.072509765625, 0.723144531250, -0.751953125000, -3.007812500000, -2.742187500000, -1.039062500000, 1490770299
0.072509765625, 0.723144531250, -0.751953125000, -3.007812500000, -2.742187500000, -1.039062500000, 1490770299
0.072509765625, 0.723144531250, -0.751953125000, -3.007812500000, -2.742187500000, -1.039062500000, 1490770299
-0.003173828125, 0.664062500000, -0.713867187500, -4.937500000000, -0.570312500000, -4.656250000000, 1490770299
0.130126953125, 0.673828125000, -0.763427734375, -4.320312500000, 4.585937500000, -2.570312500000, 1490770299
0.130126953125, 0.673828125000, -0.763427734375, -4.320312500000, 4.585937500000, -2.570312500000, 1490770299
0.130126953125, 0.673828125000, -0.763427734375, -4.320312500000, 4.585937500000, -2.570312500000, 1490770299
0.038330078125, 0.608154296875, -0.614013671875, 0.382812500000, 4.851562500000, -4.789062500000, 1490770299
0.038330078125, 0.608154296875, -0.614013671875, 0.382812500000, 4.851562500000, -4.789062500000, 1490770299
0.038330078125, 0.608154296875, -0.614013671875, 0.382812500000, 4.851562500000, -4.789062500000, 1490770299
0.072753906250, 0.750244140625, -0.766601562500, -3.328125000000, 2.484375000000, 0.757812500000, 1490770299
0.072753906250, 0.750244140625, -0.766601562500, -3.328125000000, 2.484375000000, 0.757812500000, 1490770299
0.072753906250, 0.750244140625, -0.766601562500, -3.328125000000, 2.484375000000, 0.757812500000, 1490770299
0.006347656250, 0.743896484375, -0.759277343750, -1.445312500000, -4.117187500000, -4.804687500000, 1490770299
0.006347656250, 0.743896484375, -0.759277343750, -1.445312500000, -4.117187500000, -4.804687500000, 1490770299
-0.009521484375, 0.698486328125, -0.701904296875, -2.695312500000, -1.390625000000, -3.585937500000, 1490770299
0.027343750000, 0.658203125000, -0.661865234375, -2.695312500000, -1.390625000000, -3.585937500000, 1490770299
0.027343750000, 0.658203125000, -0.661865234375, -2.695312500000, -1.390625000000, -3.585937500000, 1490770299
0.027343750000, 0.658203125000, -0.661865234375, -2.695312500000, -1.390625000000, -3.585937500000, 1490770299
0.032714843750, 0.731689453125, -0.666992187500, -1.625000000000, -1.593750000000, -1.781250000000, 1490770299
0.032714843750, 0.731689453125, -0.666992187500, -1.625000000000, -1.593750000000, -1.781250000000, 1490770299
0.032714843750, 0.731689453125, -0.666992187500, -1.625000000000, -1.593750000000, -1.781250000000, 1490770299
0.032714843750, 0.731689453125, -0.666992187500, -1.625000000000, -1.593750000000, -1.781250000000, 1490770299
0.090332031250, 0.682373046875, -0.774169921875, -1.773437500000, -1.468750000000, -3.453125000000, 1490770299
0.090332031250, 0.682373046875, -0.774169921875, -1.773437500000, -1.468750000000, -3.453125000000, 1490770299
0.090332031250, 0.682373046875, -0.774169921875, -1.773437500000, -1.468750000000, -3.453125000000, 1490770299
-0.018310546875, 0.611328125000, -0.676513671875, -4.132812500000, -4.398437500000, -6.882812500000, 1490770299
-0.018310546875, 0.611328125000, -0.676513671875, -4.132812500000, -4.398437500000, -6.882812500000, 1490770299
-0.018310546875, 0.611328125000, -0.676513671875, -4.132812500000, -4.398437500000, -6.882812500000, 1490770299
-0.018310546875, 0.611328125000, -0.676513671875, -4.132812500000, -4.398437500000, -6.882812500000, 1490770299
0.075683593750, 0.659667968750, -0.688964843750, -1.445312500000, -1.757812500000, -5.960937500000, 1490770299
0.075683593750, 0.659667968750, -0.688964843750, -1.445312500000, -1.757812500000, -5.960937500000, 1490770299
0.075683593750, 0.659667968750, -0.688964843750, -1.445312500000, -1.757812500000, -5.960937500000, 1490770299
-0.005859375000, 0.765136718750, -0.708984375000, -4.679687500000, -10.132812500000, -6.617187500000, 1490770299
-0.005859375000, 0.765136718750, -0.708984375000, -4.679687500000, -10.132812500000, -6.617187500000, 1490770299
-0.005859375000, 0.765136718750, -0.708984375000, -4.679687500000, -10.132812500000, -6.617187500000, 1490770299
0.053710937500, 0.677001953125, -0.647460937500, 0.312500000000, -1.640625000000, -1.843750000000, 1490770299
0.053710937500, 0.677001953125, -0.647460937500, 0.312500000000, -1.640625000000, -1.843750000000, 1490770299
0.053710937500, 0.677001953125, -0.647460937500, 0.312500000000, -1.640625000000, -1.843750000000, 1490770299
-0.028808593750, 0.716796875000, -0.775878906250, -3.617187500000, -3.562500000000, -4.085937500000, 1490770300
-0.028808593750, 0.716796875000, -0.775878906250, -3.617187500000, -3.562500000000, -4.085937500000, 1490770300
-0.028808593750, 0.716796875000, -0.775878906250, -3.617187500000, -3.562500000000, -4.085937500000, 1490770300
-0.028808593750, 0.716796875000, -0.775878906250, -3.617187500000, -3.562500000000, -4.085937500000, 1490770300
0.021240234375, 0.731445312500, -0.666992187500, -1.078125000000, -1.664062500000, -2.500000000000, 1490770300
0.021240234375, 0.731445312500, -0.666992187500, -1.078125000000, -1.664062500000, -2.500000000000, 1490770300
0.021240234375, 0.731445312500, -0.666992187500, -1.078125000000, -1.664062500000, -2.500000000000, 1490770300
0.069335937500, 0.672607421875, -0.666259765625, -2.218750000000, -2.046875000000, -4.375000000000, 1490770300
0.069335937500, 0.672607421875, -0.666259765625, -2.218750000000, -2.046875000000, -4.375000000000, 1490770300
0.069335937500, 0.672607421875, -0.666259765625, -2.218750000000, -2.046875000000, -4.375000000000, 1490770300
0.001464843750, 0.670166015625, -0.714599609375, -3.343750000000, -2.937500000000, -4.117187500000, 1490770300
0.001464843750, 0.670166015625, -0.714599609375, -3.343750000000, -2.937500000000, -4.117187500000, 1490770300
0.001464843750, 0.670166015625, -0.714599609375, -3.343750000000, -2.937500000000, -4.117187500000, 1490770300
0.081298828125, 0.656982421875, -0.681640625000, -6.976562500000, 2.554687500000, -1.101562500000, 1490770300
0.081298828125, 0.656982421875, -0.681640625000, -6.976562500000, 2.554687500000, -1.101562500000, 1490770300
0.081298828125, 0.656982421875, -0.681640625000, -6.976562500000, 2.554687500000, -1.101562500000, 1490770300
0.081298828125, 0.656982421875, -0.681640625000, -6.976562500000, 2.554687500000, -1.101562500000, 1490770300
0.070068359375, 0.739501953125, -0.681396484375, -4.937500000000, 3.023437500000, -2.500000000000, 1490770300
0.070068359375, 0.739501953125, -0.681396484375, -4.937500000000, 3.023437500000, -2.500000000000, 1490770300
0.070068359375, 0.739501953125, -0.681396484375, -4.937500000000, 3.023437500000, -2.500000000000, 1490770300
-0.013916015625, 0.642333984375, -0.697021484375, -3.476562500000, -0.382812500000, 0.882812500000, 1490770300
-0.013916015625, 0.642333984375, -0.697021484375, -3.476562500000, -0.382812500000, 0.882812500000, 1490770300
-0.013916015625, 0.642333984375, -0.697021484375, -3.476562500000, -0.382812500000, 0.882812500000, 1490770300
0.150146484375, 0.715332031250, -0.766845703125, 6.164062500000, 1.671875000000, -2.179687500000, 1490770300
0.150146484375, 0.715332031250, -0.766845703125, 6.164062500000, 1.671875000000, -2.179687500000, 1490770300
0.150146484375, 0.715332031250, -0.766845703125, 6.164062500000, 1.671875000000, -2.179687500000, 1490770300
-0.073730468750, 0.717529296875, -0.670898437500, -13.726562500000, 13.109375000000, 8.140625000000, 1490770300
-0.073730468750, 0.717529296875, -0.670898437500, -13.726562500000, 13.109375000000, 8.140625000000, 1490770300
-0.073730468750, 0.717529296875, -0.670898437500, -13.726562500000, 13.109375000000, 8.140625000000, 1490770300
-0.073730468750, 0.717529296875, -0.670898437500, -13.726562500000, 13.109375000000, 8.140625000000, 1490770300
0.140869140625, 0.668701171875, -0.671386718750, -23.664062500000, -6.460937500000, 6.601562500000, 1490770300
0.140869140625, 0.668701171875, -0.671386718750, -23.664062500000, -6.460937500000, 6.601562500000, 1490770300
0.140869140625, 0.668701171875, -0.671386718750, -25.914062500000, -16.554687500000, -4.656250000000, 1490770300
-0.151611328125, 0.611328125000, -0.600830078125, -18.320312500000, -7.429687500000, 0.265625000000, 1490770300
-0.151611328125, 0.611328125000, -0.600830078125, -18.320312500000, -7.429687500000, 0.265625000000, 1490770300
-0.151611328125, 0.611328125000, -0.600830078125, -18.320312500000, -7.429687500000, 0.265625000000, 1490770300
-0.156738281250, 0.742919921875, -0.656982421875, -18.203125000000, 30.585937500000, 2.750000000000, 1490770300
-0.156738281250, 0.742919921875, -0.656982421875, -18.203125000000, 30.585937500000, 2.750000000000, 1490770300
-0.156738281250, 0.742919921875, -0.656982421875, -18.203125000000, 30.585937500000, 2.750000000000, 1490770300
0.018798828125, 0.684082031250, -0.669677734375, -12.515625000000, 46.562500000000, 3.007812500000, 1490770300
0.018798828125, 0.684082031250, -0.669677734375, -12.515625000000, 46.562500000000, 3.007812500000, 1490770300
0.018798828125, 0.684082031250, -0.669677734375, -12.515625000000, 46.562500000000, 3.007812500000, 1490770300
0.018798828125, 0.684082031250, -0.669677734375, -12.515625000000, 46.562500000000, 3.007812500000, 1490770300
0.050048828125, 0.666259765625, -0.708496093750, -1.117187500000, 20.921875000000, 5.140625000000, 1490770300
0.050048828125, 0.666259765625, -0.708496093750, -1.117187500000, 20.921875000000, 5.140625000000, 1490770300
0.050048828125, 0.666259765625, -0.708496093750, -1.117187500000, 20.921875000000, 5.140625000000, 1490770300
0.107177734375, 0.767333984375, -0.679199218750, 0.125000000000, 8.742187500000, 6.148437500000, 1490770300
0.107177734375, 0.767333984375, -0.679199218750, 0.125000000000, 8.742187500000, 6.148437500000, 1490770300
0.107177734375, 0.767333984375, -0.679199218750, 0.125000000000, 8.742187500000, 6.148437500000, 1490770300
0.208496093750, 0.663818359375, -0.757568359375, -10.070312500000, 10.796875000000, 5.210937500000, 1490770300
0.208496093750, 0.663818359375, -0.757568359375, -10.070312500000, 10.796875000000, 5.210937500000, 1490770300
0.208496093750, 0.663818359375, -0.757568359375, -10.070312500000, 10.796875000000, 5.210937500000, 1490770300
0.041748046875, 0.716552734375, -0.677001953125, -6.281250000000, -3.867187500000, 4.835937500000, 1490770300
0.041748046875, 0.716552734375, -0.677001953125, -6.281250000000, -3.867187500000, 4.835937500000, 1490770300
0.041748046875, 0.716552734375, -0.677001953125, -6.281250000000, -3.867187500000, 4.835937500000, 1490770300
0.041748046875, 0.716552734375, -0.677001953125, -6.281250000000, -3.867187500000, 4.835937500000, 1490770300
0.040527343750, 0.707275390625, -0.753173828125, 0.171875000000, -6.968750000000, -0.570312500000, 1490770300
0.040527343750, 0.707275390625, -0.753173828125, 0.171875000000, -6.968750000000, -0.570312500000, 1490770300
0.040527343750, 0.707275390625, -0.753173828125, 0.171875000000, -6.968750000000, -0.570312500000, 1490770300
0.062988281250, 0.664550781250, -0.757812500000, -0.890625000000, 10.500000000000, 1.945312500000, 1490770300
0.062988281250, 0.664550781250, -0.757812500000, -0.890625000000, 10.500000000000, 1.945312500000, 1490770300
0.062988281250, 0.664550781250, -0.757812500000, -0.890625000000, 10.500000000000, 1.945312500000, 1490770300
0.063476562500, 0.751953125000, -0.767333984375, -2.750000000000, 2.789062500000, -0.875000000000, 1490770300
0.063476562500, 0.751953125000, -0.767333984375, -2.750000000000, 2.789062500000, -0.875000000000, 1490770300
0.063476562500, 0.751953125000, -0.767333984375, -2.750000000000, 2.789062500000, -0.875000000000, 1490770300
0.086914062500, 0.756591796875, -0.747070312500, -1.476562500000, 4.015625000000, -1.679687500000, 1490770301
0.086914062500, 0.756591796875, -0.747070312500, -1.476562500000, 4.015625000000, -1.679687500000, 1490770301
0.086914062500, 0.756591796875, -0.747070312500, -1.476562500000, 4.015625000000, -1.679687500000, 1490770301
0.086914062500, 0.756591796875, -0.747070312500, -1.476562500000, 4.015625000000, -1.679687500000, 1490770301
0.129150390625, 0.703613281250, -0.714843750000, 1.179687500000, 5.906250000000, -0.335937500000, 1490770301
0.129150390625, 0.703613281250, -0.714843750000, 1.179687500000, 5.906250000000, -0.335937500000, 1490770301
0.129150390625, 0.703613281250, -0.714843750000, 1.179687500000, 5.906250000000, -0.335937500000, 1490770301
0.038330078125, 0.681884765625, -0.711669921875, 2.804687500000, 5.828125000000, 4.578125000000, 1490770301
0.038330078125, 0.681884765625, -0.711669921875, 2.804687500000, 5.828125000000, 4.578125000000, 1490770301
0.038330078125, 0.681884765625, -0.711669921875, 2.804687500000, 5.828125000000, 4.578125000000, 1490770301
0.091064453125, 0.677978515625, -0.684570312500, 4.867187500000, 0.945312500000, 1.992187500000, 1490770301
0.091064453125, 0.677978515625, -0.684570312500, 4.867187500000, 0.945312500000, 1.992187500000, 1490770301
0.091064453125, 0.677978515625, -0.684570312500, 4.867187500000, 0.945312500000, 1.992187500000, 1490770301
0.084228515625, 0.776855468750, -0.677978515625, 0.390625000000, -9.218750000000, -1.984375000000, 1490770301
0.084228515625, 0.776855468750, -0.677978515625, 0.390625000000, -9.218750000000, -1.984375000000, 1490770301
0.084228515625, 0.776855468750, -0.677978515625, 0.390625000000, -9.218750000000, -1.984375000000, 1490770301
0.084228515625, 0.776855468750, -0.677978515625, 0.390625000000, -9.218750000000, -1.984375000000, 1490770301
0.129638671875, 0.662841796875, -0.714355468750, -2.414062500000, -10.835937500000, -3.445312500000, 1490770301
0.129638671875, 0.662841796875, -0.714355468750, -2.414062500000, -10.835937500000, -3.445312500000, 1490770301
0.129638671875, 0.662841796875, -0.714355468750, -2.414062500000, -10.835937500000, -3.445312500000, 1490770301
-0.006591796875, 0.750000000000, -0.609375000000, -0.015625000000, -11.609375000000, -4.406250000000, 1490770301
-0.006591796875, 0.750000000000, -0.609375000000, -0.015625000000, -11.609375000000, -4.406250000000, 1490770301
-0.006591796875, 0.750000000000, -0.609375000000, -0.015625000000, -11.609375000000, -4.406250000000, 1490770301
0.069580078125, 0.757812500000, -0.708740234375, 2.539062500000, -18.953125000000, -5.242187500000, 1490770301
0.069580078125, 0.757812500000, -0.708740234375, 2.539062500000, -18.953125000000, -5.242187500000, 1490770301
0.069580078125, 0.757812500000, -0.708740234375, 2.539062500000, -18.953125000000, -5.242187500000, 1490770301
0.081298828125, 0.715820312500, -0.669433593750, -0.523437500000, -13.375000000000, -10.664062500000, 1490770301
0.081298828125, 0.715820312500, -0.669433593750, -0.523437500000, -13.375000000000, -10.664062500000, 1490770301
0.081298828125, 0.715820312500, -0.669433593750, -0.523437500000, -13.375000000000, -10.664062500000, 1490770301
0.081298828125, 0.715820312500, -0.669433593750, -0.523437500000, -13.375000000000, -10.664062500000, 1490770301
-0.027832031250, 0.713134765625, -0.760009765625, 0.546875000000, -16.007812500000, -12.023437500000, 1490770301
-0.027832031250, 0.713134765625, -0.760009765625, 0.546875000000, -16.007812500000, -12.023437500000, 1490770301
-0.027832031250, 0.713134765625, -0.760009765625, 0.546875000000, -16.007812500000, -12.023437500000, 1490770301
-0.003906250000, 0.685791015625, -0.673828125000, 0.273437500000, -17.835937500000, -14.445312500000, 1490770301
-0.003906250000, 0.685791015625, -0.673828125000, 0.273437500000, -17.835937500000, -14.445312500000, 1490770301
-0.003906250000, 0.685791015625, -0.673828125000, 0.273437500000, -17.835937500000, -14.445312500000, 1490770301
0.085449218750, 0.662841796875, -0.707031250000, -1.187500000000, -13.109375000000, -10.554687500000, 1490770301
0.085449218750, 0.662841796875, -0.707031250000, -1.187500000000, -13.109375000000, -10.554687500000, 1490770301
0.085449218750, 0.662841796875, -0.707031250000, -1.187500000000, -13.109375000000, -10.554687500000, 1490770301
0.041748046875, 0.690429687500, -0.707031250000, -5.484375000000, -13.328125000000, -9.546875000000, 1490770301
0.041748046875, 0.690429687500, -0.707031250000, -5.484375000000, -13.328125000000, -9.546875000000, 1490770301
0.041748046875, 0.690429687500, -0.707031250000, -5.484375000000, -13.328125000000, -9.546875000000, 1490770301
0.041748046875, 0.690429687500, -0.707031250000, -5.484375000000, -13.328125000000, -9.546875000000, 1490770301
0.108886718750, 0.775878906250, -0.715332031250, -3.609375000000, -8.031250000000, -7.046875000000, 1490770301
0.108886718750, 0.775878906250, -0.715332031250, -3.609375000000, -8.031250000000, -7.046875000000, 1490770301
0.108886718750, 0.775878906250, -0.715332031250, -3.609375000000, -8.031250000000, -7.046875000000, 1490770301
-0.066406250000, 0.713378906250, -0.749267578125, -4.101562500000, -7.562500000000, -7.304687500000, 1490770301
-0.066406250000, 0.713378906250, -0.749267578125, -4.101562500000, -7.562500000000, -7.304687500000, 1490770301
-0.066406250000, 0.713378906250, -0.749267578125, -4.101562500000, -7.562500000000, -7.304687500000, 1490770301
-0.002929687500, 0.689941406250, -0.663330078125, -4.031250000000, -14.703125000000, -9.796875000000, 1490770301
-0.002929687500, 0.689941406250, -0.663330078125, -4.031250000000, -14.703125000000, -9.796875000000, 1490770301
-0.002929687500, 0.689941406250, -0.663330078125, -4.031250000000, -14.703125000000, -9.796875000000, 1490770301
-0.075683593750, 0.772949218750, -0.756103515625, -2.210937500000, -9.070312500000, -7.859375000000, 1490770301
-0.075683593750, 0.772949218750, -0.756103515625, -2.210937500000, -9.070312500000, -7.859375000000, 1490770301
-0.075683593750, 0.772949218750, -0.756103515625, -2.210937500000, -9.070312500000, -7.859375000000, 1490770301
-0.075683593750, 0.772949218750, -0.756103515625, -2.210937500000, -9.070312500000, -7.859375000000, 1490770301
-0.058349609375, 0.771972656250, -0.617431640625, 1.359375000000, -12.968750000000, -7.523437500000, 1490770301
-0.058349609375, 0.771972656250, -0.617431640625, 1.359375000000, -12.968750000000, -7.523437500000, 1490770301
-0.058349609375, 0.771972656250, -0.617431640625, 1.359375000000, -12.968750000000, -7.523437500000, 1490770301
-0.010986328125, 0.760498046875, -0.622558593750, 4.812500000000, -10.250000000000, -10.765625000000, 1490770301
-0.010986328125, 0.760498046875, -0.622558593750, 4.812500000000, -10.250000000000, -10.765625000000, 1490770301
-0.010986328125, 0.760498046875, -0.622558593750, 4.812500000000, -10.250000000000, -10.765625000000, 1490770301
-0.017822265625, 0.766113281250, -0.767089843750, 4.218750000000, -5.164062500000, -9.273437500000, 1490770301
-0.017822265625, 0.766113281250, -0.767089843750, 4.218750000000, -5.164062500000, -9.273437500000, 1490770301
-0.017822265625, 0.766113281250, -0.767089843750, 4.218750000000, -5.164062500000, -9.273437500000, 1490770301
0.028808593750, 0.751953125000, -0.669433593750, 5.570312500000, -12.570312500000, -5.843750000000, 1490770301
0.028808593750, 0.751953125000, -0.669433593750, 5.570312500000, -12.570312500000, -5.843750000000, 1490770301
0.028808593750, 0.751953125000, -0.669433593750, 5.570312500000, -12.570312500000, -5.843750000000, 1490770302
0.028808593750, 0.751953125000, -0.669433593750, 5.570312500000, -12.570312500000, -5.843750000000, 1490770302
0.025390625000, 0.771972656250, -0.683593750000, 5.703125000000, -7.796875000000, -6.945312500000, 1490770302
0.025390625000, 0.771972656250, -0.683593750000, 5.703125000000, -7.796875000000, -6.945312500000, 1490770302
0.025390625000, 0.771972656250, -0.683593750000, 5.703125000000, -7.796875000000, -6.945312500000, 1490770302
0.076171875000, 0.786132812500, -0.671875000000, 7.117187500000, -3.187500000000, -6.359375000000, 1490770302
0.076171875000, 0.786132812500, -0.671875000000, 7.117187500000, -3.187500000000, -6.359375000000, 1490770302
0.076171875000, 0.786132812500, -0.671875000000, 7.117187500000, -3.187500000000, -6.359375000000, 1490770302
0.139404296875, 0.682373046875, -0.750244140625, 18.054687500000, -12.453125000000, -10.257812500000, 1490770302
0.139404296875, 0.682373046875, -0.750244140625, 18.054687500000, -12.453125000000, -10.257812500000, 1490770302
0.139404296875, 0.682373046875, -0.750244140625, 18.054687500000, -12.453125000000, -10.257812500000, 1490770302
0.030761718750, 0.726074218750, -0.698730468750, 25.531250000000, -23.414062500000, -12.781250000000, 1490770302
0.030761718750, 0.726074218750, -0.698730468750, 25.531250000000, -23.414062500000, -12.781250000000, 1490770302
0.030761718750, 0.726074218750, -0.698730468750, 25.531250000000, -23.414062500000, -12.781250000000, 1490770302
0.030761718750, 0.726074218750, -0.698730468750, 25.531250000000, -23.414062500000, -12.781250000000, 1490770302
0.038330078125, 0.472656250000, -0.583007812500, 66.281250000000, -26.484375000000, -17.671875000000, 1490770302
0.038330078125, 0.472656250000, -0.583007812500, 66.281250000000, -26.484375000000, -17.671875000000, 1490770302
0.038330078125, 0.472656250000, -0.583007812500, 66.281250000000, -26.484375000000, -17.671875000000, 1490770302
-0.049560546875, 0.395996093750, -0.452636718750, 59.031250000000, 4.765625000000, -13.437500000000, 1490770302
-0.049560546875, 0.395996093750, -0.452636718750, 59.031250000000, 4.765625000000, -13.437500000000, 1490770302
-0.049560546875, 0.395996093750, -0.452636718750, 59.031250000000, 4.765625000000, -13.437500000000, 1490770302
0.083496093750, 0.022460937500, -0.095458984375, 95.671875000000, 97.984375000000, -28.531250000000, 1490770302
0.083496093750, 0.022460937500, -0.095458984375, 95.671875000000, 97.984375000000, -28.531250000000, 1490770302
0.083496093750, 0.022460937500, -0.095458984375, 95.671875000000, 97.984375000000, -28.531250000000, 1490770302
0.019531250000, -0.103759765625, -0.060791015625, 69.000000000000, 180.867187500000, -25.875000000000, 1490770302
0.019531250000, -0.103759765625, -0.060791015625, 69.000000000000, 180.867187500000, -25.875000000000, 1490770302
0.019531250000, -0.103759765625, -0.060791015625, 69.000000000000, 180.867187500000, -25.875000000000, 1490770302
0.019531250000, -0.103759765625, -0.060791015625, 69.000000000000, 180.867187500000, -25.875000000000, 1490770302
0.037597656250, 0.157226562500, 0.021484375000, -40.437500000000, 149.398437500000, -24.039062500000, 1490770302
0.037597656250, 0.157226562500, 0.021484375000, -40.437500000000, 149.398437500000, -24.039062500000, 1490770302
0.037597656250, 0.157226562500, 0.021484375000, -40.437500000000, 149.398437500000, -24.039062500000, 1490770302
0.182861328125, 0.843750000000, 0.009765625000, -216.679687500000, 143.195312500000, -109.851562500000, 1490770302
0.182861328125, 0.843750000000, 0.009765625000, -216.679687500000, 143.195312500000, -109.851562500000, 1490770302
0.182861328125, 0.843750000000, 0.009765625000, -216.679687500000, 143.195312500000, -109.851562500000, 1490770302
-0.053222656250, 0.689453125000, 0.009277343750, 36.843750000000, 155.898437500000, 144.882812500000, 1490770302
-0.053222656250, 0.689453125000, 0.009277343750, 36.843750000000, 155.898437500000, 144.882812500000, 1490770302
-0.053222656250, 0.689453125000, 0.009277343750, 36.843750000000, 155.898437500000, 144.882812500000, 1490770302
0.061035156250, 1.125000000000, -0.166015625000, 135.265625000000, -53.906250000000, -23.601562500000, 1490770302
0.061035156250, 1.125000000000, -0.166015625000, 135.265625000000, -53.906250000000, -23.601562500000, 1490770302
0.061035156250, 1.125000000000, -0.166015625000, 135.265625000000, -53.906250000000, -23.601562500000, 1490770302
0.061035156250, 1.125000000000, -0.166015625000, 135.265625000000, -53.906250000000, -23.601562500000, 1490770302
0.049072265625, 1.450927734375, -0.208496093750, 66.960937500000, -130.195312500000, 59.570312500000, 1490770302
0.049072265625, 1.450927734375, -0.208496093750, 66.960937500000, -130.195312500000, 59.570312500000, 1490770302
0.049072265625, 1.450927734375, -0.208496093750, 66.960937500000, -130.195312500000, 59.570312500000, 1490770302
0.281982421875, 1.426513671875, 0.195556640625, 179.398437500000, -5.960937500000, -0.796875000000, 1490770302
0.281982421875, 1.426513671875, 0.195556640625, 179.398437500000, -5.960937500000, -0.796875000000, 1490770302
0.281982421875, 1.426513671875, 0.195556640625, 179.398437500000, -5.960937500000, -0.796875000000, 1490770302
0.446289062500, 1.464355468750, -0.399658203125, 146.453125000000, -35.539062500000, 45.828125000000, 1490770302
0.446289062500, 1.464355468750, -0.399658203125, 146.453125000000, -35.539062500000, 45.828125000000, 1490770302
0.446289062500, 1.464355468750, -0.399658203125, 146.453125000000, -35.539062500000, 45.828125000000, 1490770302
0.204833984375, 1.900146484375, -0.219238281250, 141.976562500000, -37.335937500000, 25.242187500000, 1490770302
0.204833984375, 1.900146484375, -0.219238281250, 141.976562500000, -37.335937500000, 25.242187500000, 1490770302
0.204833984375, 1.900146484375, -0.219238281250, 141.976562500000, -37.335937500000, 25.242187500000, 1490770302
0.204833984375, 1.900146484375, -0.219238281250, 141.976562500000, -37.335937500000, 25.242187500000, 1490770302
0.524658203125, 2.446044921875, -0.173339843750, -48.070312500000, -52.359375000000, -18.710937500000, 1490770302
0.524658203125, 2.446044921875, -0.173339843750, -48.070312500000, -52.359375000000, -18.710937500000, 1490770302
0.524658203125, 2.446044921875, -0.173339843750, -48.070312500000, -52.359375000000, -18.710937500000, 1490770302
0.711669921875, 2.157470703125, -0.268310546875, -59.835937500000, 18.109375000000, -45.679687500000, 1490770302
0.711669921875, 2.157470703125, -0.268310546875, -59.835937500000, 18.109375000000, -45.679687500000, 1490770302
0.711669921875, 2.157470703125, -0.268310546875, -59.835937500000, 18.109375000000, -45.679687500000, 1490770302
0.415527343750, 1.892822265625, -0.127197265625, -108.726562500000, -19.312500000000, -23.328125000000, 1490770302
0.415527343750, 1.892822265625, -0.127197265625, -108.726562500000, -19.312500000000, -23.328125000000, 1490770302
0.415527343750, 1.892822265625, -0.127197265625, -108.726562500000, -19.312500000000, -23.328125000000, 1490770302
0.071289062500, 1.493896484375, -0.153808593750, -122.828125000000, 67.296875000000, 16.585937500000, 1490770302
0.071289062500, 1.493896484375, -0.153808593750, -122.828125000000, 67.296875000000, 16.585937500000, 1490770302
0.071289062500, 1.493896484375, -0.153808593750, -122.828125000000, 67.296875000000, 16.585937500000, 1490770302
0.071289062500, 1.493896484375, -0.153808593750, -122.828125000000, 67.296875000000, 16.585937500000, 1490770302
0.123046875000, 1.348876953125, -0.135498046875, -85.015625000000, 42.796875000000, -54.687500000000, 1490770303
0.123046875000, 1.348876953125, -0.135498046875, -85.015625000000, 42.796875000000, -54.687500000000, 1490770303
0.123046875000, 1.348876953125, -0.135498046875, -85.015625000000, 42.796875000000, -54.687500000000, 1490770303
0.355712890625, 1.288330078125, 0.009765625000, -93.148437500000, -112.523437500000, -64.109375000000, 1490770303
0.355712890625, 1.288330078125, 0.009765625000, -93.148437500000, -112.523437500000, -64.109375000000, 1490770303
0.414550781250, 1.351074218750, -0.074951171875, -73.390625000000, -138.468750000000, -60.601562500000, 1490770303
0.342529296875, 1.279296875000, -0.010986328125, -16.179687500000, -105.898437500000, -34.632812500000, 1490770303
0.342529296875, 1.279296875000, -0.010986328125, -16.179687500000, -105.898437500000, -34.632812500000, 1490770303
0.342529296875, 1.279296875000, -0.010986328125, -16.179687500000, -105.898437500000, -34.632812500000, 1490770303
0.225585937500, 1.226562500000, -0.139160156250, -9.679687500000, -56.304687500000, -23.132812500000, 1490770303
0.037597656250, 0.979003906250, -0.047119140625, 82.390625000000, 152.179687500000, 50.179687500000, 1490770303
0.037597656250, 0.979003906250, -0.047119140625, 82.390625000000, 152.179687500000, 50.179687500000, 1490770303
0.037597656250, 0.979003906250, -0.047119140625, 82.390625000000, 152.179687500000, 50.179687500000, 1490770303
0.037597656250, 0.979003906250, -0.047119140625, 82.390625000000, 152.179687500000, 50.179687500000, 1490770303
0.037597656250, 0.979003906250, -0.047119140625, 82.390625000000, 152.179687500000, 50.179687500000, 1490770303
0.037597656250, 0.979003906250, -0.047119140625, 82.390625000000, 152.179687500000, 50.179687500000, 1490770303
0.114501953125, 0.824218750000, -0.104248046875, 51.062500000000, -18.203125000000, 30.695312500000, 1490770303
0.114501953125, 0.824218750000, -0.104248046875, 51.062500000000, -18.203125000000, 30.695312500000, 1490770303
0.114501953125, 0.824218750000, -0.104248046875, 51.062500000000, -18.203125000000, 30.695312500000, 1490770303
0.611083984375, 0.609863281250, -0.783691406250, 150.656250000000, -256.000000000000, 75.859375000000, 1490770303
0.611083984375, 0.609863281250, -0.783691406250, 150.656250000000, -256.000000000000, 75.859375000000, 1490770303
0.611083984375, 0.609863281250, -0.783691406250, 150.656250000000, -256.000000000000, 75.859375000000, 1490770303
-0.085449218750, 0.194580078125, -0.111572265625, -75.585937500000, 161.234375000000, -47.406250000000, 1490770303
-0.085449218750, 0.194580078125, -0.111572265625, -75.585937500000, 161.234375000000, -47.406250000000, 1490770303
-0.085449218750, 0.194580078125, -0.111572265625, -75.585937500000, 161.234375000000, -47.406250000000, 1490770303
-0.085449218750, 0.194580078125, -0.111572265625, -75.585937500000, 161.234375000000, -47.406250000000, 1490770303
-0.143066406250, 0.530517578125, -0.151855468750, -209.085937500000, 253.992187500000, 35.203125000000, 1490770303
-0.143066406250, 0.530517578125, -0.151855468750, -209.085937500000, 253.992187500000, 35.203125000000, 1490770303
-0.143066406250, 0.530517578125, -0.151855468750, -209.085937500000, 253.992187500000, 35.203125000000, 1490770303
0.050781250000, 0.428466796875, -0.040527343750, -180.070312500000, 70.921875000000, -26.476562500000, 1490770303
0.050781250000, 0.428466796875, -0.040527343750, -180.070312500000, 70.921875000000, -26.476562500000, 1490770303
0.050781250000, 0.428466796875, -0.040527343750, -180.070312500000, 70.921875000000, -26.476562500000, 1490770303
0.255371093750, 0.433349609375, -0.008300781250, -185.656250000000, 11.156250000000, -69.414062500000, 1490770303
-0.021240234375, 0.830322265625, -0.043212890625, -226.218750000000, -169.937500000000, -171.976562500000, 1490770303
-0.021240234375, 0.830322265625, -0.043212890625, -226.218750000000, -169.937500000000, -171.976562500000, 1490770303
-0.021240234375, 0.830322265625, -0.043212890625, -226.218750000000, -169.937500000000, -171.976562500000, 1490770303
-0.021240234375, 0.830322265625, -0.043212890625, -226.218750000000, -169.937500000000, -171.976562500000, 1490770303
-0.018798828125, 0.720947265625, 0.202880859375, -44.429687500000, -115.726562500000, 74.773437500000, 1490770303
-0.018798828125, 0.720947265625, 0.202880859375, -44.429687500000, -115.726562500000, 74.773437500000, 1490770303
-0.018798828125, 0.720947265625, 0.202880859375, -44.429687500000, -115.726562500000, 74.773437500000, 1490770303
-0.018798828125, 0.720947265625, 0.202880859375, -44.429687500000, -115.726562500000, 74.773437500000, 1490770303
0.054931640625, 1.113769531250, -0.052490234375, 218.851562500000, 98.828125000000, 6.656250000000, 1490770303
0.054931640625, 1.113769531250, -0.052490234375, 218.851562500000, 98.828125000000, 6.656250000000, 1490770303
0.054931640625, 1.113769531250, -0.052490234375, 218.851562500000, 98.828125000000, 6.656250000000, 1490770303
0.054931640625, 1.113769531250, -0.052490234375, 218.851562500000, 98.828125000000, 6.656250000000, 1490770303
1.864257812500, 1.135009765625, -2.304199218750, 253.992187500000, -256.000000000000, 122.804687500000, 1490770303
1.864257812500, 1.135009765625, -2.304199218750, 253.992187500000, -256.000000000000, 122.804687500000, 1490770303
1.864257812500, 1.135009765625, -2.304199218750, 253.992187500000, -256.000000000000, 122.804687500000, 1490770303
-0.708496093750, 0.806152343750, -1.147705078125, -209.062500000000, 153.726562500000, 43.257812500000, 1490770303
0.087890625000, 0.952392578125, -0.110595703125, -67.171875000000, 253.992187500000, 40.335937500000, 1490770303
0.087890625000, 0.952392578125, -0.110595703125, -67.171875000000, 253.992187500000, 40.335937500000, 1490770303
0.092041015625, 0.824707031250, -0.183593750000, -37.062500000000, 253.992187500000, 16.281250000000, 1490770303
0.216064453125, 0.678710937500, -0.235351562500, -49.539062500000, 156.617187500000, -13.179687500000, 1490770303
0.216064453125, 0.678710937500, -0.235351562500, -49.539062500000, 156.617187500000, -13.179687500000, 1490770303
0.216064453125, 0.678710937500, -0.235351562500, -49.539062500000, 156.617187500000, -13.179687500000, 1490770303
0.216064453125, 0.678710937500, -0.235351562500, -49.539062500000, 156.617187500000, -13.179687500000, 1490770303
0.216064453125, 0.678710937500, -0.235351562500, -49.539062500000, 156.617187500000, -13.179687500000, 1490770303
0.216064453125, 0.678710937500, -0.235351562500, -49.539062500000, 156.617187500000, -13.179687500000, 1490770303
0.510742187500, 0.784423828125, -0.431152343750, 76.031250000000, -231.867187500000, -22.015625000000, 1490770303
0.510742187500, 0.784423828125, -0.431152343750, 76.031250000000, -231.867187500000, -22.015625000000, 1490770303
0.510742187500, 0.784423828125, -0.431152343750, 76.031250000000, -231.867187500000, -22.015625000000, 1490770303
