ACC_X,ACC_Y,ACC_Z,G_X,G_Y,G_Z,Unix Time
-0.650878906250, 0.838378906250, -0.867675781250, 42.093750000000, -78.015625000000, 29.015625000000, 1490769186
-0.650878906250, 0.838378906250, -0.867675781250, 42.093750000000, -78.015625000000, 29.015625000000, 1490769186
-0.650878906250, 0.838378906250, -0.867675781250, 42.093750000000, -78.015625000000, 29.015625000000, 1490769186
-0.768310546875, 0.520507812500, -0.527832031250, -0.617187500000, -51.578125000000, 16.523437500000, 1490769186
-0.768310546875, 0.520507812500, -0.527832031250, -0.617187500000, -51.578125000000, 16.523437500000, 1490769186
-0.768310546875, 0.520507812500, -0.527832031250, -0.617187500000, -51.578125000000, 16.523437500000, 1490769186
-0.201416015625, 0.681884765625, -0.790039062500, -92.671875000000, -110.765625000000, -101.851562500000, 1490769186
-0.201416015625, 0.681884765625, -0.790039062500, -92.671875000000, -110.765625000000, -101.851562500000, 1490769186
-0.201416015625, 0.681884765625, -0.790039062500, -92.671875000000, -110.765625000000, -101.851562500000, 1490769186
-0.361083984375, 0.662353515625, -0.544189453125, 139.585937500000, 71.304687500000, -29.445312500000, 1490769186
-0.361083984375, 0.662353515625, -0.544189453125, 139.585937500000, 71.304687500000, -29.445312500000, 1490769186
-0.351562500000, 0.674804687500, -0.565673828125, 184.945312500000, 109.390625000000, -33.773437500000, 1490769186
-0.593750000000, 0.691162109375, -0.469970703125, 177.843750000000, 90.484375000000, -7.609375000000, 1490769186
-0.593750000000, 0.691162109375, -0.469970703125, 177.843750000000, 90.484375000000, -7.609375000000, 1490769186
-0.593750000000, 0.691162109375, -0.469970703125, 177.843750000000, 90.484375000000, -7.609375000000, 1490769186
-0.593750000000, 0.691162109375, -0.469970703125, 177.843750000000, 90.484375000000, -7.609375000000, 1490769186
-0.419921875000, 0.877197265625, -0.666503906250, 92.507812500000, 41.062500000000, -25.593750000000, 1490769186
-0.419921875000, 0.877197265625, -0.666503906250, 92.507812500000, 41.062500000000, -25.593750000000, 1490769186
-0.419921875000, 0.877197265625, -0.666503906250, 92.507812500000, 41.062500000000, -25.593750000000, 1490769186
-0.419921875000, 0.877197265625, -0.666503906250, 92.507812500000, 41.062500000000, -25.593750000000, 1490769186
-0.233886718750, 1.176269531250, -0.529785156250, -29.242187500000, 78.265625000000, -21.015625000000, 1490769186
-0.179931640625, 1.107421875000, -0.459960937500, -64.523437500000, 64.882812500000, -20.789062500000, 1490769186
-0.179931640625, 1.107421875000, -0.459960937500, -64.523437500000, 64.882812500000, -20.789062500000, 1490769186
-0.179931640625, 1.107421875000, -0.459960937500, -64.523437500000, 64.882812500000, -20.789062500000, 1490769186
-0.179931640625, 1.107421875000, -0.459960937500, -64.523437500000, 64.882812500000, -20.789062500000, 1490769186
-0.179931640625, 1.107421875000, -0.459960937500, -64.523437500000, 64.882812500000, -20.789062500000, 1490769186
-0.150878906250, 0.805419921875, -0.529785156250, -114.468750000000, 68.390625000000, -26.960937500000, 1490769186
-0.150878906250, 0.805419921875, -0.529785156250, -114.468750000000, 68.390625000000, -26.960937500000, 1490769186
-0.150878906250, 0.805419921875, -0.529785156250, -114.468750000000, 68.390625000000, -26.960937500000, 1490769186
0.142333984375, 1.009277343750, -0.774902343750, -149.679687500000, 59.304687500000, -24.242187500000, 1490769186
0.142333984375, 1.009277343750, -0.774902343750, -149.679687500000, 59.304687500000, -24.242187500000, 1490769186
0.142333984375, 1.009277343750, -0.774902343750, -149.679687500000, 59.304687500000, -24.242187500000, 1490769186
-0.011474609375, 0.428466796875, -0.426513671875, -126.757812500000, 86.343750000000, -49.257812500000, 1490769186
-0.011474609375, 0.428466796875, -0.426513671875, -126.757812500000, 86.343750000000, -49.257812500000, 1490769186
-0.011474609375, 0.428466796875, -0.426513671875, -126.757812500000, 86.343750000000, -49.257812500000, 1490769186
0.070312500000, 0.054199218750, -0.775634765625, -95.023437500000, -32.226562500000, 78.843750000000, 1490769186
0.070312500000, 0.054199218750, -0.775634765625, -95.023437500000, -32.226562500000, 78.843750000000, 1490769186
0.070312500000, 0.054199218750, -0.775634765625, -95.023437500000, -32.226562500000, 78.843750000000, 1490769186
0.070312500000, 0.054199218750, -0.775634765625, -95.023437500000, -32.226562500000, 78.843750000000, 1490769186
-0.003906250000, -0.459716796875, -0.693603515625, -70.726562500000, -78.046875000000, 67.179687500000, 1490769186
-0.003906250000, -0.459716796875, -0.693603515625, -70.726562500000, -78.046875000000, 67.179687500000, 1490769186
-0.003906250000, -0.459716796875, -0.693603515625, -70.726562500000, -78.046875000000, 67.179687500000, 1490769186
-0.074951171875, -0.337646484375, -0.957275390625, -58.367187500000, -85.328125000000, 50.562500000000, 1490769186
-0.074951171875, -0.337646484375, -0.957275390625, -58.367187500000, -85.328125000000, 50.562500000000, 1490769186
-0.074951171875, -0.337646484375, -0.957275390625, -58.367187500000, -85.328125000000, 50.562500000000, 1490769186
-0.433837890625, -0.058837890625, -0.930908203125, 10.046875000000, -0.304687500000, -18.148437500000, 1490769186
-0.433837890625, -0.058837890625, -0.930908203125, 10.046875000000, -0.304687500000, -18.148437500000, 1490769186
-0.433837890625, -0.058837890625, -0.930908203125, 10.046875000000, -0.304687500000, -18.148437500000, 1490769186
-0.460449218750, 0.254394531250, -0.937011718750, 3.843750000000, 17.945312500000, 20.023437500000, 1490769186
-0.460449218750, 0.254394531250, -0.937011718750, 3.843750000000, 17.945312500000, 20.023437500000, 1490769186
-0.460449218750, 0.254394531250, -0.937011718750, 3.843750000000, 17.945312500000, 20.023437500000, 1490769186
-0.460449218750, 0.254394531250, -0.937011718750, 3.843750000000, 17.945312500000, 20.023437500000, 1490769186
-0.263916015625, 0.199951171875, -0.764404296875, 44.492187500000, -25.828125000000, -39.734375000000, 1490769186
-0.263916015625, 0.199951171875, -0.764404296875, 44.492187500000, -25.828125000000, -39.734375000000, 1490769186
-0.263916015625, 0.199951171875, -0.764404296875, 44.492187500000, -25.828125000000, -39.734375000000, 1490769186
-0.452392578125, 0.302734375000, -0.814453125000, -23.679687500000, -45.007812500000, 60.171875000000, 1490769186
-0.452392578125, 0.302734375000, -0.814453125000, -23.679687500000, -45.007812500000, 60.171875000000, 1490769186
-0.452392578125, 0.302734375000, -0.814453125000, -23.679687500000, -45.007812500000, 60.171875000000, 1490769186
-0.356445312500, 0.327392578125, -0.812011718750, 0.117187500000, -9.968750000000, 94.789062500000, 1490769186
-0.356445312500, 0.327392578125, -0.812011718750, 0.117187500000, -9.968750000000, 94.789062500000, 1490769186
-0.356445312500, 0.327392578125, -0.812011718750, 0.117187500000, -9.968750000000, 94.789062500000, 1490769186
-0.409667968750, 0.265136718750, -1.012695312500, -56.351562500000, -118.984375000000, 124.984375000000, 1490769186
-0.409667968750, 0.265136718750, -1.012695312500, -56.351562500000, -118.984375000000, 124.984375000000, 1490769186
-0.409667968750, 0.265136718750, -1.012695312500, -56.351562500000, -118.984375000000, 124.984375000000, 1490769186
-0.409667968750, 0.265136718750, -1.012695312500, -56.351562500000, -118.984375000000, 124.984375000000, 1490769186
-0.419189453125, 0.273193359375, -0.958496093750, -58.070312500000, 54.601562500000, 29.500000000000, 1490769186
-0.419189453125, 0.273193359375, -0.958496093750, -58.070312500000, 54.601562500000, 29.500000000000, 1490769186
-0.419189453125, 0.273193359375, -0.958496093750, -58.070312500000, 54.601562500000, 29.500000000000, 1490769186
-0.363769531250, 0.067382812500, -0.862548828125, -60.968750000000, 55.609375000000, 32.156250000000, 1490769187
-0.363769531250, 0.067382812500, -0.862548828125, -60.968750000000, 55.609375000000, 32.156250000000, 1490769187
-0.363769531250, 0.067382812500, -0.862548828125, -60.968750000000, 55.609375000000, 32.156250000000, 1490769187
-0.346191406250, 0.178222656250, -0.749023437500, 27.179687500000, -28.835937500000, 68.648437500000, 1490769187
-0.346191406250, 0.178222656250, -0.749023437500, 27.179687500000, -28.835937500000, 68.648437500000, 1490769187
-0.346191406250, 0.178222656250, -0.749023437500, 27.179687500000, -28.835937500000, 68.648437500000, 1490769187
-0.349609375000, 0.181884765625, -0.774658203125, 59.632812500000, 253.992187500000, -136.015625000000, 1490769187
-0.349609375000, 0.181884765625, -0.774658203125, 59.632812500000, 253.992187500000, -136.015625000000, 1490769187
-0.349609375000, 0.181884765625, -0.774658203125, 59.632812500000, 253.992187500000, -136.015625000000, 1490769187
-0.349609375000, 0.181884765625, -0.774658203125, 59.632812500000, 253.992187500000, -136.015625000000, 1490769187
1.481201171875, 0.784179687500, -2.503906250000, -110.765625000000, 13.648437500000, -138.726562500000, 1490769187
1.481201171875, 0.784179687500, -2.503906250000, -110.765625000000, 13.648437500000, -138.726562500000, 1490769187
1.481201171875, 0.784179687500, -2.503906250000, -110.765625000000, 13.648437500000, -138.726562500000, 1490769187
-0.008056640625, 0.083984375000, -0.990722656250, -4.500000000000, -33.226562500000, -57.750000000000, 1490769187
-0.008056640625, 0.083984375000, -0.990722656250, -4.500000000000, -33.226562500000, -57.750000000000, 1490769187
-0.008056640625, 0.083984375000, -0.990722656250, -4.500000000000, -33.226562500000, -57.750000000000, 1490769187
-0.080810546875, -0.078613281250, -1.171630859375, 172.382812500000, -27.320312500000, -118.179687500000, 1490769187
-0.080810546875, -0.078613281250, -1.171630859375, 172.382812500000, -27.320312500000, -118.179687500000, 1490769187
-0.080810546875, -0.078613281250, -1.171630859375, 172.382812500000, -27.320312500000, -118.179687500000, 1490769187
0.281005859375, 0.847167968750, -0.432617187500, 70.484375000000, -62.890625000000, -51.835937500000, 1490769187
0.281005859375, 0.847167968750, -0.432617187500, 70.484375000000, -62.890625000000, -51.835937500000, 1490769187
0.281005859375, 0.847167968750, -0.432617187500, 70.484375000000, -62.890625000000, -51.835937500000, 1490769187
0.281005859375, 0.847167968750, -0.432617187500, 70.484375000000, -62.890625000000, -51.835937500000, 1490769187
0.018798828125, 0.519531250000, -0.730468750000, -112.953125000000, 12.476562500000, 17.007812500000, 1490769187
0.018798828125, 0.519531250000, -0.730468750000, -112.953125000000, 12.476562500000, 17.007812500000, 1490769187
0.018798828125, 0.519531250000, -0.730468750000, -112.953125000000, 12.476562500000, 17.007812500000, 1490769187
0.078613281250, 0.148437500000, -1.381591796875, -60.500000000000, 29.070312500000, -10.664062500000, 1490769187
0.078613281250, 0.148437500000, -1.381591796875, -60.500000000000, 29.070312500000, -10.664062500000, 1490769187
0.078613281250, 0.148437500000, -1.381591796875, -60.500000000000, 29.070312500000, -10.664062500000, 1490769187
-0.070312500000, 0.224365234375, -1.024658203125, 91.617187500000, -23.710937500000, 6.523437500000, 1490769187
-0.070312500000, 0.224365234375, -1.024658203125, 91.617187500000, -23.710937500000, 6.523437500000, 1490769187
-0.070312500000, 0.224365234375, -1.024658203125, 91.617187500000, -23.710937500000, 6.523437500000, 1490769187
-0.101562500000, 0.312500000000, -0.820556640625, 26.710937500000, 0.093750000000, -52.929687500000, 1490769187
-0.101562500000, 0.312500000000, -0.820556640625, 26.710937500000, 0.093750000000, -52.929687500000, 1490769187
-0.101562500000, 0.312500000000, -0.820556640625, 26.710937500000, 0.093750000000, -52.929687500000, 1490769187
-0.101562500000, 0.312500000000, -0.820556640625, 26.710937500000, 0.093750000000, -52.929687500000, 1490769187
0.072753906250, 0.287841796875, -0.861328125000, -80.312500000000, 47.046875000000, -17.210937500000, 1490769187
0.072753906250, 0.287841796875, -0.861328125000, -80.312500000000, 47.046875000000, -17.210937500000, 1490769187
0.072753906250, 0.287841796875, -0.861328125000, -80.312500000000, 47.046875000000, -17.210937500000, 1490769187
0.218017578125, 0.184082031250, -1.233398437500, -81.476562500000, -9.164062500000, -3.492187500000, 1490769187
0.218017578125, 0.184082031250, -1.233398437500, -81.476562500000, -9.164062500000, -3.492187500000, 1490769187
0.218017578125, 0.184082031250, -1.233398437500, -81.476562500000, -9.164062500000, -3.492187500000, 1490769187
0.103027343750, 0.358398437500, -0.944824218750, 0.312500000000, 8.054687500000, 5.523437500000, 1490769187
0.103027343750, 0.358398437500, -0.944824218750, 0.312500000000, 8.054687500000, 5.523437500000, 1490769187
0.103027343750, 0.358398437500, -0.944824218750, 0.312500000000, 8.054687500000, 5.523437500000, 1490769187
0.133300781250, 0.146728515625, -0.791503906250, 26.523437500000, 4.429687500000, -10.453125000000, 1490769187
0.133300781250, 0.146728515625, -0.791503906250, 26.523437500000, 4.429687500000, -10.453125000000, 1490769187
0.133300781250, 0.146728515625, -0.791503906250, 26.523437500000, 4.429687500000, -10.453125000000, 1490769187
0.133300781250, 0.146728515625, -0.791503906250, 26.523437500000, 4.429687500000, -10.453125000000, 1490769187
0.062011718750, 0.385009765625, -0.811523437500, -9.945312500000, -12.414062500000, -7.726562500000, 1490769187
0.062011718750, 0.385009765625, -0.811523437500, -9.945312500000, -12.414062500000, -7.726562500000, 1490769187
0.062011718750, 0.385009765625, -0.811523437500, -9.945312500000, -12.414062500000, -7.726562500000, 1490769187
-0.018554687500, 0.356689453125, -0.913085937500, -34.023437500000, -8.507812500000, -6.398437500000, 1490769187
-0.018554687500, 0.356689453125, -0.913085937500, -34.023437500000, -8.507812500000, -6.398437500000, 1490769187
-0.018554687500, 0.356689453125, -0.913085937500, -34.023437500000, -8.507812500000, -6.398437500000, 1490769187
0.109375000000, 0.163818359375, -1.037597656250, -3.328125000000, 1.054687500000, -7.734375000000, 1490769187
0.109375000000, 0.163818359375, -1.037597656250, -3.328125000000, 1.054687500000, -7.734375000000, 1490769187
0.109375000000, 0.163818359375, -1.037597656250, -3.328125000000, 1.054687500000, -7.734375000000, 1490769187
-0.073730468750, 0.382568359375, -0.948486328125, 7.601562500000, 10.937500000000, -3.664062500000, 1490769187
-0.073730468750, 0.382568359375, -0.948486328125, 7.601562500000, 10.937500000000, -3.664062500000, 1490769187
-0.073730468750, 0.382568359375, -0.948486328125, 7.601562500000, 10.937500000000, -3.664062500000, 1490769187
-0.073730468750, 0.382568359375, -0.948486328125, 7.601562500000, 10.937500000000, -3.664062500000, 1490769187
0.151367187500, 0.312744140625, -0.916748046875, -0.695312500000, 20.000000000000, -3.195312500000, 1490769187
0.151367187500, 0.312744140625, -0.916748046875, -0.695312500000, 20.000000000000, -3.195312500000, 1490769187
0.151367187500, 0.312744140625, -0.916748046875, -0.695312500000, 20.000000000000, -3.195312500000, 1490769187
0.151367187500, 0.304687500000, -0.909179687500, 3.132812500000, -11.062500000000, 6.093750000000, 1490769188
0.151367187500, 0.304687500000, -0.909179687500, 3.132812500000, -11.062500000000, 6.093750000000, 1490769188
0.151367187500, 0.304687500000, -0.909179687500, 3.132812500000, -11.062500000000, 6.093750000000, 1490769188
0.130126953125, 0.172607421875, -1.010742187500, -14.882812500000, -13.546875000000, -2.226562500000, 1490769188
0.130126953125, 0.172607421875, -1.010742187500, -14.882812500000, -13.546875000000, -2.226562500000, 1490769188
0.130126953125, 0.172607421875, -1.010742187500, -14.882812500000, -13.546875000000, -2.226562500000, 1490769188
0.027343750000, 0.383789062500, -0.937988281250, -0.640625000000, 2.781250000000, -7.929687500000, 1490769188
0.027343750000, 0.383789062500, -0.937988281250, -0.640625000000, 2.781250000000, -7.929687500000, 1490769188
0.027343750000, 0.383789062500, -0.937988281250, -0.640625000000, 2.781250000000, -7.929687500000, 1490769188
0.027343750000, 0.383789062500, -0.937988281250, -0.640625000000, 2.781250000000, -7.929687500000, 1490769188
-0.001464843750, 0.266601562500, -0.927734375000, -4.289062500000, 9.242187500000, -3.687500000000, 1490769188
-0.001464843750, 0.266601562500, -0.927734375000, -4.289062500000, 9.242187500000, -3.687500000000, 1490769188
-0.001464843750, 0.266601562500, -0.927734375000, -4.289062500000, 9.242187500000, -3.687500000000, 1490769188
0.143554687500, 0.390625000000, -0.912353515625, 0.867187500000, -1.343750000000, -2.187500000000, 1490769188
0.143554687500, 0.390625000000, -0.912353515625, 0.867187500000, -1.343750000000, -2.187500000000, 1490769188
0.143554687500, 0.390625000000, -0.912353515625, 0.867187500000, -1.343750000000, -2.187500000000, 1490769188
0.033691406250, 0.321777343750, -0.966552734375, -10.265625000000, 1.640625000000, -5.101562500000, 1490769188
0.033691406250, 0.321777343750, -0.966552734375, -10.265625000000, 1.640625000000, -5.101562500000, 1490769188
0.033691406250, 0.321777343750, -0.966552734375, -10.265625000000, 1.640625000000, -5.101562500000, 1490769188
0.058349609375, 0.303466796875, -0.961425781250, -5.046875000000, 0.546875000000, -3.296875000000, 1490769188
0.058349609375, 0.303466796875, -0.961425781250, -5.046875000000, 0.546875000000, -3.296875000000, 1490769188
0.058349609375, 0.303466796875, -0.961425781250, -5.046875000000, 0.546875000000, -3.296875000000, 1490769188
0.058349609375, 0.303466796875, -0.961425781250, -5.046875000000, 0.546875000000, -3.296875000000, 1490769188
-0.013671875000, 0.318603515625, -0.858642578125, 0.585937500000, -0.718750000000, -1.992187500000, 1490769188
-0.013671875000, 0.318603515625, -0.858642578125, 0.585937500000, -0.718750000000, -1.992187500000, 1490769188
-0.013671875000, 0.318603515625, -0.858642578125, 0.585937500000, -0.718750000000, -1.992187500000, 1490769188
0.075195312500, 0.271728515625, -0.907714843750, -5.281250000000, -1.210937500000, -0.695312500000, 1490769188
0.075195312500, 0.271728515625, -0.907714843750, -5.281250000000, -1.210937500000, -0.695312500000, 1490769188
0.075195312500, 0.271728515625, -0.907714843750, -5.281250000000, -1.210937500000, -0.695312500000, 1490769188
-0.009277343750, 0.438476562500, -0.930664062500, -6.609375000000, -4.085937500000, -1.070312500000, 1490769188
-0.009277343750, 0.438476562500, -0.930664062500, -6.609375000000, -4.085937500000, -1.070312500000, 1490769188
-0.009277343750, 0.438476562500, -0.930664062500, -6.609375000000, -4.085937500000, -1.070312500000, 1490769188
0.087402343750, 0.380371093750, -0.915039062500, -3.570312500000, -3.109375000000, -4.867187500000, 1490769188
0.087402343750, 0.380371093750, -0.915039062500, -3.570312500000, -3.109375000000, -4.867187500000, 1490769188
0.087402343750, 0.380371093750, -0.915039062500, -3.570312500000, -3.109375000000, -4.867187500000, 1490769188
0.072265625000, 0.315917968750, -0.936523437500, -1.460937500000, 0.015625000000, -4.890625000000, 1490769188
0.072265625000, 0.315917968750, -0.936523437500, -1.460937500000, 0.015625000000, -4.890625000000, 1490769188
0.072265625000, 0.315917968750, -0.936523437500, -1.460937500000, 0.015625000000, -4.890625000000, 1490769188
0.072265625000, 0.315917968750, -0.936523437500, -1.460937500000, 0.015625000000, -4.890625000000, 1490769188
-0.020019531250, 0.333984375000, -0.921630859375, -10.382812500000, 2.671875000000, -3.335937500000, 1490769188
-0.020019531250, 0.333984375000, -0.921630859375, -10.382812500000, 2.671875000000, -3.335937500000, 1490769188
-0.020019531250, 0.333984375000, -0.921630859375, -10.382812500000, 2.671875000000, -3.335937500000, 1490769188
-0.018554687500, 0.406005859375, -0.953613281250, -3.429687500000, -2.484375000000, -1.046875000000, 1490769188
-0.018554687500, 0.406005859375, -0.953613281250, -3.429687500000, -2.484375000000, -1.046875000000, 1490769188
-0.018554687500, 0.406005859375, -0.953613281250, -3.429687500000, -2.484375000000, -1.046875000000, 1490769188
-0.012939453125, 0.275390625000, -0.925781250000, -8.187500000000, 2.687500000000, -10.585937500000, 1490769188
-0.012939453125, 0.275390625000, -0.925781250000, -8.187500000000, 2.687500000000, -10.585937500000, 1490769188
-0.012939453125, 0.275390625000, -0.925781250000, -8.187500000000, 2.687500000000, -10.585937500000, 1490769188
-0.012939453125, 0.275390625000, -0.925781250000, -8.187500000000, 2.687500000000, -10.585937500000, 1490769188
0.138916015625, 0.341308593750, -0.891113281250, 8.250000000000, 36.875000000000, -19.414062500000, 1490769188
0.138916015625, 0.341308593750, -0.891113281250, 8.250000000000, 36.875000000000, -19.414062500000, 1490769188
0.138916015625, 0.341308593750, -0.891113281250, 8.250000000000, 36.875000000000, -19.414062500000, 1490769188
0.330078125000, 0.430908203125, -0.943847656250, 1.945312500000, 51.101562500000, -30.914062500000, 1490769188
0.330078125000, 0.430908203125, -0.943847656250, 1.945312500000, 51.101562500000, -30.914062500000, 1490769188
0.330078125000, 0.430908203125, -0.943847656250, 1.945312500000, 51.101562500000, -30.914062500000, 1490769188
0.067382812500, 0.217041015625, -1.065429687500, 31.273437500000, -3.132812500000, -10.523437500000, 1490769188
0.067382812500, 0.217041015625, -1.065429687500, 31.273437500000, -3.132812500000, -10.523437500000, 1490769188
0.067382812500, 0.217041015625, -1.065429687500, 31.273437500000, -3.132812500000, -10.523437500000, 1490769188
-0.115234375000, 0.408691406250, -1.104248046875, 52.429687500000, 41.664062500000, -78.156250000000, 1490769188
-0.115234375000, 0.408691406250, -1.104248046875, 52.429687500000, 41.664062500000, -78.156250000000, 1490769188
-0.115234375000, 0.408691406250, -1.104248046875, 52.429687500000, 41.664062500000, -78.156250000000, 1490769188
-0.115234375000, 0.408691406250, -1.104248046875, 52.429687500000, 41.664062500000, -78.156250000000, 1490769188
-0.148681640625, 0.655273437500, -0.888916015625, 96.406250000000, 48.367187500000, -105.132812500000, 1490769188
-0.148681640625, 0.655273437500, -0.888916015625, 96.406250000000, 48.367187500000, -105.132812500000, 1490769188
-0.148681640625, 0.655273437500, -0.888916015625, 96.406250000000, 48.367187500000, -105.132812500000, 1490769188
-0.049316406250, 0.638916015625, -0.628173828125, 63.382812500000, 56.304687500000, -103.289062500000, 1490769188
-0.049316406250, 0.638916015625, -0.628173828125, 63.382812500000, 56.304687500000, -103.289062500000, 1490769188
0.221923828125, 0.362548828125, -0.941894531250, -58.632812500000, 169.484375000000, -62.164062500000, 1490769189
0.221923828125, 0.362548828125, -0.941894531250, -58.632812500000, 169.484375000000, -62.164062500000, 1490769189
0.221923828125, 0.362548828125, -0.941894531250, -58.632812500000, 169.484375000000, -62.164062500000, 1490769189
0.221923828125, 0.362548828125, -0.941894531250, -58.632812500000, 169.484375000000, -62.164062500000, 1490769189
0.221923828125, 0.362548828125, -0.941894531250, -58.632812500000, 169.484375000000, -62.164062500000, 1490769189
0.112304687500, 0.463134765625, -0.922119140625, -7.992187500000, 123.484375000000, -32.593750000000, 1490769189
0.112304687500, 0.463134765625, -0.922119140625, -7.992187500000, 123.484375000000, -32.593750000000, 1490769189
0.112304687500, 0.463134765625, -0.922119140625, -7.992187500000, 123.484375000000, -32.593750000000, 1490769189
0.068603515625, 0.385986328125, -0.769531250000, 53.093750000000, 162.593750000000, -154.210937500000, 1490769189
0.068603515625, 0.385986328125, -0.769531250000, 53.093750000000, 162.593750000000, -154.210937500000, 1490769189
0.068603515625, 0.385986328125, -0.769531250000, 53.093750000000, 162.593750000000, -154.210937500000, 1490769189
0.511230468750, 0.047607421875, -0.485595703125, 72.968750000000, 253.992187500000, -256.000000000000, 1490769189
0.511230468750, 0.047607421875, -0.485595703125, 72.968750000000, 253.992187500000, -256.000000000000, 1490769189
0.511230468750, 0.047607421875, -0.485595703125, 72.968750000000, 253.992187500000, -256.000000000000, 1490769189
0.755615234375, -0.049072265625, -0.150390625000, 39.054687500000, 253.992187500000, -208.710937500000, 1490769189
0.755615234375, -0.049072265625, -0.150390625000, 39.054687500000, 253.992187500000, -208.710937500000, 1490769189
0.755615234375, -0.049072265625, -0.150390625000, 39.054687500000, 253.992187500000, -208.710937500000, 1490769189
0.755615234375, -0.049072265625, -0.150390625000, 39.054687500000, 253.992187500000, -208.710937500000, 1490769189
0.840087890625, 0.007080078125, 0.153564453125, 99.414062500000, 253.992187500000, -210.812500000000, 1490769189
0.840087890625, 0.007080078125, 0.153564453125, 99.414062500000, 253.992187500000, -210.812500000000, 1490769189
0.840087890625, 0.007080078125, 0.153564453125, 99.414062500000, 253.992187500000, -210.812500000000, 1490769189
0.731689453125, -0.262695312500, 0.302490234375, 109.226562500000, 253.992187500000, -201.929687500000, 1490769189
0.731689453125, -0.262695312500, 0.302490234375, 109.226562500000, 253.992187500000, -201.929687500000, 1490769189
0.731689453125, -0.262695312500, 0.302490234375, 109.226562500000, 253.992187500000, -201.929687500000, 1490769189
0.379394531250, -0.513671875000, 0.145751953125, 102.882812500000, 253.992187500000, -254.593750000000, 1490769189
0.379394531250, -0.513671875000, 0.145751953125, 102.882812500000, 253.992187500000, -254.593750000000, 1490769189
0.379394531250, -0.513671875000, 0.145751953125, 102.882812500000, 253.992187500000, -254.593750000000, 1490769189
0.062500000000, -0.930908203125, 0.367187500000, 118.789062500000, 253.992187500000, -248.687500000000, 1490769189
0.062500000000, -0.930908203125, 0.367187500000, 118.789062500000, 253.992187500000, -248.687500000000, 1490769189
0.062500000000, -0.930908203125, 0.367187500000, 118.789062500000, 253.992187500000, -248.687500000000, 1490769189
-0.555908203125, -1.318847656250, 0.381103515625, 252.867187500000, 253.992187500000, -62.593750000000, 1490769189
-0.555908203125, -1.318847656250, 0.381103515625, 252.867187500000, 253.992187500000, -62.593750000000, 1490769189
-0.555908203125, -1.318847656250, 0.381103515625, 252.867187500000, 253.992187500000, -62.593750000000, 1490769189
-0.555908203125, -1.318847656250, 0.381103515625, 252.867187500000, 253.992187500000, -62.593750000000, 1490769189
-1.655517578125, -1.467285156250, 1.024414062500, 203.726562500000, -160.929687500000, 53.195312500000, 1490769189
-1.655517578125, -1.467285156250, 1.024414062500, 203.726562500000, -160.929687500000, 53.195312500000, 1490769189
-1.655517578125, -1.467285156250, 1.024414062500, 203.726562500000, -160.929687500000, 53.195312500000, 1490769189
-0.700683593750, -1.115234375000, 0.295410156250, -10.710937500000, 253.992187500000, -5.656250000000, 1490769189
-0.700683593750, -1.115234375000, 0.295410156250, -10.710937500000, 253.992187500000, -5.656250000000, 1490769189
-0.700683593750, -1.115234375000, 0.295410156250, -10.710937500000, 253.992187500000, -5.656250000000, 1490769189
-0.292236328125, -0.916015625000, 0.313720703125, -77.148437500000, 253.992187500000, -108.460937500000, 1490769189
-0.292236328125, -0.916015625000, 0.313720703125, -77.148437500000, 253.992187500000, -108.460937500000, 1490769189
-0.292236328125, -0.916015625000, 0.313720703125, -77.148437500000, 253.992187500000, -108.460937500000, 1490769189
-0.292236328125, -0.916015625000, 0.313720703125, -77.148437500000, 253.992187500000, -108.460937500000, 1490769189
-0.184570312500, -0.436035156250, 0.139648437500, -55.789062500000, 133.039062500000, -76.070312500000, 1490769189
-0.184570312500, -0.436035156250, 0.139648437500, -55.789062500000, 133.039062500000, -76.070312500000, 1490769189
-0.184570312500, -0.436035156250, 0.139648437500, -55.789062500000, 133.039062500000, -76.070312500000, 1490769189
-0.635498046875, -0.831542968750, 0.158691406250, 8.820312500000, 131.000000000000, 20.695312500000, 1490769189
-0.635498046875, -0.831542968750, 0.158691406250, 8.820312500000, 131.000000000000, 20.695312500000, 1490769189
-0.635498046875, -0.831542968750, 0.158691406250, 8.820312500000, 131.000000000000, 20.695312500000, 1490769189
-0.421142578125, -0.651611328125, -0.003173828125, 12.765625000000, 134.671875000000, 24.710937500000, 1490769189
-0.421142578125, -0.651611328125, -0.003173828125, 12.765625000000, 134.671875000000, 24.710937500000, 1490769189
-0.421142578125, -0.651611328125, -0.003173828125, 12.765625000000, 134.671875000000, 24.710937500000, 1490769189
-0.600341796875, -0.771728515625, 0.134033203125, 26.234375000000, 115.093750000000, 51.742187500000, 1490769189
-0.600341796875, -0.771728515625, 0.134033203125, 26.234375000000, 115.093750000000, 51.742187500000, 1490769189
-0.513427734375, -0.850830078125, -0.032470703125, 50.273437500000, 99.945312500000, 98.578125000000, 1490769189
-0.513427734375, -0.850830078125, -0.032470703125, 50.273437500000, 99.945312500000, 98.578125000000, 1490769189
-0.513427734375, -0.850830078125, -0.032470703125, 50.273437500000, 99.945312500000, 98.578125000000, 1490769189
-0.513427734375, -0.850830078125, -0.032470703125, 50.273437500000, 99.945312500000, 98.578125000000, 1490769189
-0.513427734375, -0.850830078125, -0.032470703125, 50.273437500000, 99.945312500000, 98.578125000000, 1490769189
-0.311523437500, -1.045654296875, -0.271484375000, 79.171875000000, 91.664062500000, 82.453125000000, 1490769189
-0.311523437500, -1.045654296875, -0.271484375000, 79.171875000000, 91.664062500000, 82.453125000000, 1490769189
-0.311523437500, -1.045654296875, -0.271484375000, 79.171875000000, 91.664062500000, 82.453125000000, 1490769189
-0.140380859375, -1.131347656250, -0.342285156250, 81.328125000000, 61.453125000000, 119.820312500000, 1490769189
-0.140380859375, -1.131347656250, -0.342285156250, 81.328125000000, 61.453125000000, 119.820312500000, 1490769189
-0.140380859375, -1.131347656250, -0.342285156250, 81.328125000000, 61.453125000000, 119.820312500000, 1490769189
-0.192138671875, -0.968994140625, -0.339843750000, 97.593750000000, 65.882812500000, 127.085937500000, 1490769189
-0.192138671875, -0.968994140625, -0.339843750000, 97.593750000000, 65.882812500000, 127.085937500000, 1490769189
-0.192138671875, -0.968994140625, -0.339843750000, 97.593750000000, 65.882812500000, 127.085937500000, 1490769190
-0.040283203125, -0.915527343750, -0.395019531250, 94.789062500000, 42.039062500000, 138.835937500000, 1490769190
-0.040283203125, -0.915527343750, -0.395019531250, 94.789062500000, 42.039062500000, 138.835937500000, 1490769190
-0.040283203125, -0.915527343750, -0.395019531250, 94.789062500000, 42.039062500000, 138.835937500000, 1490769190
-0.040283203125, -0.915527343750, -0.395019531250, 94.789062500000, 42.039062500000, 138.835937500000, 1490769190
0.182373046875, -0.744873046875, -0.433837890625, 105.867187500000, 46.632812500000, 136.367187500000, 1490769190
0.182373046875, -0.744873046875, -0.433837890625, 105.867187500000, 46.632812500000, 136.367187500000, 1490769190
0.182373046875, -0.744873046875, -0.433837890625, 105.867187500000, 46.632812500000, 136.367187500000, 1490769190
0.113281250000, -0.822998046875, -0.447753906250, 98.187500000000, 29.492187500000, 117.859375000000, 1490769190
0.113281250000, -0.822998046875, -0.447753906250, 98.187500000000, 29.492187500000, 117.859375000000, 1490769190
0.113281250000, -0.822998046875, -0.447753906250, 98.187500000000, 29.492187500000, 117.859375000000, 1490769190
0.333984375000, -0.695800781250, -0.581298828125, 103.515625000000, 48.523437500000, 106.765625000000, 1490769190
0.333984375000, -0.695800781250, -0.581298828125, 103.515625000000, 48.523437500000, 106.765625000000, 1490769190
0.333984375000, -0.695800781250, -0.581298828125, 103.515625000000, 48.523437500000, 106.765625000000, 1490769190
0.333984375000, -0.695800781250, -0.581298828125, 103.515625000000, 48.523437500000, 106.765625000000, 1490769190
0.458251953125, -0.776123046875, -0.717773437500, 93.929687500000, 27.062500000000, 63.500000000000, 1490769190
0.458251953125, -0.776123046875, -0.717773437500, 93.929687500000, 27.062500000000, 63.500000000000, 1490769190
0.458251953125, -0.776123046875, -0.717773437500, 93.929687500000, 27.062500000000, 63.500000000000, 1490769190
0.631103515625, -0.681884765625, -0.669677734375, 88.687500000000, 22.062500000000, 25.453125000000, 1490769190
0.631103515625, -0.681884765625, -0.669677734375, 88.687500000000, 22.062500000000, 25.453125000000, 1490769190
0.631103515625, -0.681884765625, -0.669677734375, 88.687500000000, 22.062500000000, 25.453125000000, 1490769190
0.635742187500, -0.618652343750, -0.870849609375, 65.289062500000, -2.382812500000, -8.539062500000, 1490769190
0.635742187500, -0.618652343750, -0.870849609375, 65.289062500000, -2.382812500000, -8.539062500000, 1490769190
0.635742187500, -0.618652343750, -0.870849609375, 65.289062500000, -2.382812500000, -8.539062500000, 1490769190
0.425048828125, -0.513427734375, -0.933593750000, 50.210937500000, -61.421875000000, -72.148437500000, 1490769190
0.425048828125, -0.513427734375, -0.933593750000, 50.210937500000, -61.421875000000, -72.148437500000, 1490769190
0.425048828125, -0.513427734375, -0.933593750000, 50.210937500000, -61.421875000000, -72.148437500000, 1490769190
0.425048828125, -0.513427734375, -0.933593750000, 50.210937500000, -61.421875000000, -72.148437500000, 1490769190
0.304931640625, -0.575683593750, -0.795654296875, 43.625000000000, -75.796875000000, -77.304687500000, 1490769190
0.304931640625, -0.575683593750, -0.795654296875, 43.625000000000, -75.796875000000, -77.304687500000, 1490769190
0.304931640625, -0.575683593750, -0.795654296875, 43.625000000000, -75.796875000000, -77.304687500000, 1490769190
0.287597656250, -0.366455078125, -0.807861328125, 48.734375000000, -86.492187500000, -27.773437500000, 1490769190
0.287597656250, -0.366455078125, -0.807861328125, 48.734375000000, -86.492187500000, -27.773437500000, 1490769190
0.287597656250, -0.366455078125, -0.807861328125, 48.734375000000, -86.492187500000, -27.773437500000, 1490769190
0.190673828125, -0.410400390625, -0.775146484375, 38.804687500000, -63.914062500000, -21.968750000000, 1490769190
0.190673828125, -0.410400390625, -0.775146484375, 38.804687500000, -63.914062500000, -21.968750000000, 1490769190
0.190673828125, -0.410400390625, -0.775146484375, 38.804687500000, -63.914062500000, -21.968750000000, 1490769190
0.123535156250, -0.406005859375, -0.938720703125, 67.812500000000, -1.546875000000, -4.101562500000, 1490769190
0.123535156250, -0.406005859375, -0.938720703125, 67.812500000000, -1.546875000000, -4.101562500000, 1490769190
0.409179687500, -0.372802734375, -1.127197265625, 77.789062500000, 51.718750000000, -2.726562500000, 1490769190
0.409179687500, -0.372802734375, -1.127197265625, 77.789062500000, 51.718750000000, -2.726562500000, 1490769190
0.409179687500, -0.372802734375, -1.127197265625, 77.789062500000, 51.718750000000, -2.726562500000, 1490769190
0.409179687500, -0.372802734375, -1.127197265625, 77.789062500000, 51.718750000000, -2.726562500000, 1490769190
0.409179687500, -0.372802734375, -1.127197265625, 77.789062500000, 51.718750000000, -2.726562500000, 1490769190
0.293457031250, -0.192626953125, -1.141845703125, 113.726562500000, 135.445312500000, -40.804687500000, 1490769190
0.293457031250, -0.192626953125, -1.141845703125, 113.726562500000, 135.445312500000, -40.804687500000, 1490769190
0.293457031250, -0.192626953125, -1.141845703125, 113.726562500000, 135.445312500000, -40.804687500000, 1490769190
0.242919921875, -0.234619140625, -1.086425781250, 169.812500000000, 134.609375000000, -86.578125000000, 1490769190
0.242919921875, -0.234619140625, -1.086425781250, 169.812500000000, 134.609375000000, -86.578125000000, 1490769190
0.242919921875, -0.234619140625, -1.086425781250, 169.812500000000, 134.609375000000, -86.578125000000, 1490769190
0.467529296875, -0.530273437500, -0.305175781250, -43.906250000000, -150.664062500000, 120.265625000000, 1490769190
0.467529296875, -0.530273437500, -0.305175781250, -43.906250000000, -150.664062500000, 120.265625000000, 1490769190
0.467529296875, -0.530273437500, -0.305175781250, -43.906250000000, -150.664062500000, 120.265625000000, 1490769190
0.467529296875, -0.530273437500, -0.305175781250, -43.906250000000, -150.664062500000, 120.265625000000, 1490769190
0.457031250000, -0.167968750000, -0.837890625000, -240.148437500000, -256.000000000000, 129.507812500000, 1490769190
0.457031250000, -0.167968750000, -0.837890625000, -240.148437500000, -256.000000000000, 129.507812500000, 1490769190
0.457031250000, -0.167968750000, -0.837890625000, -240.148437500000, -256.000000000000, 129.507812500000, 1490769190
0.004638671875, -0.445800781250, -0.987304687500, -256.000000000000, -256.000000000000, 208.023437500000, 1490769190
0.004638671875, -0.445800781250, -0.987304687500, -256.000000000000, -256.000000000000, 208.023437500000, 1490769190
0.004638671875, -0.445800781250, -0.987304687500, -256.000000000000, -256.000000000000, 208.023437500000, 1490769190
-0.756347656250, -0.573730468750, 0.128417968750, 67.710937500000, -256.000000000000, -256.000000000000, 1490769190
-0.756347656250, -0.573730468750, 0.128417968750, 67.710937500000, -256.000000000000, -256.000000000000, 1490769190
-0.756347656250, -0.573730468750, 0.128417968750, 67.710937500000, -256.000000000000, -256.000000000000, 1490769190
-0.985107421875, -0.046386718750, 0.891113281250, 253.992187500000, 100.468750000000, -73.156250000000, 1490769190
-0.985107421875, -0.046386718750, 0.891113281250, 253.992187500000, 100.468750000000, -73.156250000000, 1490769190
-0.985107421875, -0.046386718750, 0.891113281250, 253.992187500000, 100.468750000000, -73.156250000000, 1490769190
-0.985107421875, -0.046386718750, 0.891113281250, 253.992187500000, 100.468750000000, -73.156250000000, 1490769191
-0.527099609375, -0.627929687500, -0.124511718750, -246.484375000000, 253.992187500000, 253.992187500000, 1490769191
-0.527099609375, -0.627929687500, -0.124511718750, -246.484375000000, 253.992187500000, 253.992187500000, 1490769191
-0.527099609375, -0.627929687500, -0.124511718750, -246.484375000000, 253.992187500000, 253.992187500000, 1490769191
-2.479003906250, 0.793945312500, -0.202148437500, -126.593750000000, 71.765625000000, -256.000000000000, 1490769191
-2.479003906250, 0.793945312500, -0.202148437500, -126.593750000000, 71.765625000000, -256.000000000000, 1490769191
-2.479003906250, 0.793945312500, -0.202148437500, -126.593750000000, 71.765625000000, -256.000000000000, 1490769191
-0.314453125000, -0.772460937500, -0.607666015625, -64.578125000000, -194.195312500000, -175.390625000000, 1490769191
-0.314453125000, -0.772460937500, -0.607666015625, -64.578125000000, -194.195312500000, -175.390625000000, 1490769191
-0.314453125000, -0.772460937500, -0.607666015625, -64.578125000000, -194.195312500000, -175.390625000000, 1490769191
-1.328613281250, 0.019042968750, -0.103515625000, 55.929687500000, -49.281250000000, -47.460937500000, 1490769191
-1.328613281250, 0.019042968750, -0.103515625000, 55.929687500000, -49.281250000000, -47.460937500000, 1490769191
-1.328613281250, 0.019042968750, -0.103515625000, 55.929687500000, -49.281250000000, -47.460937500000, 1490769191
-1.328613281250, 0.019042968750, -0.103515625000, 55.929687500000, -49.281250000000, -47.460937500000, 1490769191
-1.076904296875, -0.213867187500, 0.091796875000, 20.679687500000, -89.984375000000, -142.906250000000, 1490769191
-1.076904296875, -0.213867187500, 0.091796875000, 20.679687500000, -89.984375000000, -142.906250000000, 1490769191
-1.076904296875, -0.213867187500, 0.091796875000, 20.679687500000, -89.984375000000, -142.906250000000, 1490769191
-0.845947265625, -0.046630859375, 0.127929687500, -12.296875000000, -3.414062500000, -21.054687500000, 1490769191
-0.845947265625, -0.046630859375, 0.127929687500, -12.296875000000, -3.414062500000, -21.054687500000, 1490769191
-0.845947265625, -0.046630859375, 0.127929687500, -12.296875000000, -3.414062500000, -21.054687500000, 1490769191
-1.012939453125, -0.052246093750, 0.063232421875, 21.539062500000, 110.148437500000, 13.781250000000, 1490769191
-1.012939453125, -0.052246093750, 0.063232421875, 21.539062500000, 110.148437500000, 13.781250000000, 1490769191
-1.012939453125, -0.052246093750, 0.063232421875, 21.539062500000, 110.148437500000, 13.781250000000, 1490769191
-0.843994140625, -0.008544921875, 0.027099609375, -20.421875000000, 160.101562500000, -29.492187500000, 1490769191
-0.843994140625, -0.008544921875, 0.027099609375, -20.421875000000, 160.101562500000, -29.492187500000, 1490769191
-0.843994140625, -0.008544921875, 0.027099609375, -20.421875000000, 160.101562500000, -29.492187500000, 1490769191
-0.777832031250, -0.088623046875, -0.371337890625, -121.187500000000, 153.023437500000, -83.585937500000, 1490769191
-0.777832031250, -0.088623046875, -0.371337890625, -121.187500000000, 153.023437500000, -83.585937500000, 1490769191
-0.777832031250, -0.088623046875, -0.371337890625, -121.187500000000, 153.023437500000, -83.585937500000, 1490769191
-0.777832031250, -0.088623046875, -0.371337890625, -121.187500000000, 153.023437500000, -83.585937500000, 1490769191
-0.738769531250, -0.041503906250, -0.498046875000, 31.867187500000, 59.328125000000, -78.304687500000, 1490769191
-0.738769531250, -0.041503906250, -0.498046875000, 31.867187500000, 59.328125000000, -78.304687500000, 1490769191
-0.738769531250, -0.041503906250, -0.498046875000, 31.867187500000, 59.328125000000, -78.304687500000, 1490769191
-0.960693359375, -0.000976562500, -0.349609375000, -16.875000000000, 33.937500000000, -57.382812500000, 1490769191
-0.960693359375, -0.000976562500, -0.349609375000, -16.875000000000, 33.937500000000, -57.382812500000, 1490769191
-0.960693359375, -0.000976562500, -0.349609375000, -16.875000000000, 33.937500000000, -57.382812500000, 1490769191
-0.965087890625, 0.114501953125, -0.470703125000, -37.671875000000, 104.742187500000, -22.539062500000, 1490769191
-0.965087890625, 0.114501953125, -0.470703125000, -37.671875000000, 104.742187500000, -22.539062500000, 1490769191
-0.965087890625, 0.114501953125, -0.470703125000, -37.671875000000, 104.742187500000, -22.539062500000, 1490769191
-0.965087890625, 0.114501953125, -0.470703125000, -37.671875000000, 104.742187500000, -22.539062500000, 1490769191
-0.683105468750, 0.212890625000, -0.495605468750, -3.500000000000, 58.195312500000, -42.765625000000, 1490769191
-0.683105468750, 0.212890625000, -0.495605468750, -3.500000000000, 58.195312500000, -42.765625000000, 1490769191
-0.683105468750, 0.212890625000, -0.495605468750, -3.500000000000, 58.195312500000, -42.765625000000, 1490769191
-0.818847656250, 0.164550781250, -0.706787109375, -12.906250000000, 40.695312500000, -45.578125000000, 1490769191
-0.818847656250, 0.164550781250, -0.706787109375, -12.906250000000, 40.695312500000, -45.578125000000, 1490769191
-0.818847656250, 0.164550781250, -0.706787109375, -12.906250000000, 40.695312500000, -45.578125000000, 1490769191
