ACC_X,ACC_Y,ACC_Z,G_X,G_Y,G_Z,Unix Time
0.243896484375, 0.732421875000, -0.570556640625, 2.492187500000, -18.039062500000, -12.171875000000, 1490770281
0.243896484375, 0.732421875000, -0.570556640625, 2.492187500000, -18.039062500000, -12.171875000000, 1490770281
0.243896484375, 0.732421875000, -0.570556640625, 2.492187500000, -18.039062500000, -12.171875000000, 1490770281
0.395507812500, 0.833251953125, -0.573730468750, -11.039062500000, -4.765625000000, -16.109375000000, 1490770281
0.395507812500, 0.833251953125, -0.573730468750, -11.039062500000, -4.765625000000, -16.109375000000, 1490770281
0.395507812500, 0.833251953125, -0.573730468750, -11.039062500000, -4.765625000000, -16.109375000000, 1490770281
0.365478515625, 0.815185546875, -0.578613281250, 3.882812500000, -22.945312500000, -8.773437500000, 1490770281
0.365478515625, 0.815185546875, -0.578613281250, 3.882812500000, -22.945312500000, -8.773437500000, 1490770281
0.303222656250, 0.657470703125, -0.489257812500, 2.085937500000, -20.531250000000, -7.195312500000, 1490770281
0.303222656250, 0.657470703125, -0.489257812500, 2.085937500000, -20.531250000000, -7.195312500000, 1490770281
0.303222656250, 0.657470703125, -0.489257812500, 2.085937500000, -20.531250000000, -7.195312500000, 1490770281
0.303222656250, 0.657470703125, -0.489257812500, 2.085937500000, -20.531250000000, -7.195312500000, 1490770281
0.303222656250, 0.657470703125, -0.489257812500, 2.085937500000, -20.531250000000, -7.195312500000, 1490770281
0.342041015625, 0.756591796875, -0.423339843750, 7.273437500000, -14.656250000000, -0.523437500000, 1490770281
0.342041015625, 0.756591796875, -0.423339843750, 7.273437500000, -14.656250000000, -0.523437500000, 1490770281
0.342041015625, 0.756591796875, -0.423339843750, 7.273437500000, -14.656250000000, -0.523437500000, 1490770281
0.327880859375, 0.685058593750, -0.515380859375, 1.289062500000, 4.554687500000, -4.062500000000, 1490770281
0.327880859375, 0.685058593750, -0.515380859375, 1.289062500000, 4.554687500000, -4.062500000000, 1490770281
0.327880859375, 0.685058593750, -0.515380859375, 1.289062500000, 4.554687500000, -4.062500000000, 1490770281
0.350097656250, 0.732177734375, -0.598876953125, -7.101562500000, 8.070312500000, -10.656250000000, 1490770281
0.350097656250, 0.732177734375, -0.598876953125, -7.101562500000, 8.070312500000, -10.656250000000, 1490770281
0.350097656250, 0.732177734375, -0.598876953125, -7.101562500000, 8.070312500000, -10.656250000000, 1490770281
0.311279296875, 0.759277343750, -0.683105468750, 16.578125000000, -22.164062500000, -5.828125000000, 1490770281
0.311279296875, 0.759277343750, -0.683105468750, 16.578125000000, -22.164062500000, -5.828125000000, 1490770281
0.311279296875, 0.759277343750, -0.683105468750, 16.578125000000, -22.164062500000, -5.828125000000, 1490770281
0.311279296875, 0.759277343750, -0.683105468750, 16.578125000000, -22.164062500000, -5.828125000000, 1490770281
0.318847656250, 0.765136718750, -0.499755859375, 18.062500000000, -24.507812500000, -5.718750000000, 1490770281
0.318847656250, 0.765136718750, -0.499755859375, 18.062500000000, -24.507812500000, -5.718750000000, 1490770281
0.275390625000, 0.777832031250, -0.549316406250, 8.562500000000, 32.945312500000, 11.453125000000, 1490770281
0.275390625000, 0.777832031250, -0.549316406250, 8.562500000000, 32.945312500000, 11.453125000000, 1490770281
0.275390625000, 0.777832031250, -0.549316406250, 8.562500000000, 32.945312500000, 11.453125000000, 1490770281
0.275390625000, 0.777832031250, -0.549316406250, 8.562500000000, 32.945312500000, 11.453125000000, 1490770281
0.349365234375, 0.770996093750, -0.589599609375, -24.546875000000, 24.609375000000, 1.921875000000, 1490770281
0.349365234375, 0.770996093750, -0.589599609375, -24.546875000000, 24.609375000000, 1.921875000000, 1490770281
0.349365234375, 0.770996093750, -0.589599609375, -24.546875000000, 24.609375000000, 1.921875000000, 1490770281
0.381835937500, 0.737060546875, -0.523681640625, -1.835937500000, 0.820312500000, -2.906250000000, 1490770281
0.381835937500, 0.737060546875, -0.523681640625, -1.835937500000, 0.820312500000, -2.906250000000, 1490770281
0.381835937500, 0.737060546875, -0.523681640625, -1.835937500000, 0.820312500000, -2.906250000000, 1490770281
0.381835937500, 0.737060546875, -0.523681640625, -1.835937500000, 0.820312500000, -2.906250000000, 1490770281
0.301757812500, 0.837158203125, -0.711669921875, 5.953125000000, -1.500000000000, 1.507812500000, 1490770282
0.301757812500, 0.837158203125, -0.711669921875, 5.953125000000, -1.500000000000, 1.507812500000, 1490770282
0.301757812500, 0.837158203125, -0.711669921875, 5.953125000000, -1.500000000000, 1.507812500000, 1490770282
0.407958984375, 0.723388671875, -0.578857421875, -5.804687500000, 9.625000000000, -6.015625000000, 1490770282
0.407958984375, 0.723388671875, -0.578857421875, -5.804687500000, 9.625000000000, -6.015625000000, 1490770282
0.407958984375, 0.723388671875, -0.578857421875, -5.804687500000, 9.625000000000, -6.015625000000, 1490770282
0.379638671875, 0.905761718750, -0.540039062500, -3.234375000000, -0.976562500000, -6.726562500000, 1490770282
0.379638671875, 0.905761718750, -0.540039062500, -3.234375000000, -0.976562500000, -6.726562500000, 1490770282
0.379638671875, 0.905761718750, -0.540039062500, -3.234375000000, -0.976562500000, -6.726562500000, 1490770282
0.395507812500, 0.757568359375, -0.578857421875, -10.781250000000, 4.171875000000, -5.273437500000, 1490770282
0.395507812500, 0.757568359375, -0.578857421875, -10.781250000000, 4.171875000000, -5.273437500000, 1490770282
0.395507812500, 0.757568359375, -0.578857421875, -10.781250000000, 4.171875000000, -5.273437500000, 1490770282
0.395507812500, 0.757568359375, -0.578857421875, -10.781250000000, 4.171875000000, -5.273437500000, 1490770282
0.323730468750, 0.828613281250, -0.480957031250, -13.484375000000, 12.750000000000, -4.320312500000, 1490770282
0.323730468750, 0.828613281250, -0.480957031250, -13.484375000000, 12.750000000000, -4.320312500000, 1490770282
0.323730468750, 0.828613281250, -0.480957031250, -13.484375000000, 12.750000000000, -4.320312500000, 1490770282
0.250976562500, 0.816162109375, -0.588378906250, -5.687500000000, 1.312500000000, -4.960937500000, 1490770282
0.250976562500, 0.816162109375, -0.588378906250, -5.687500000000, 1.312500000000, -4.960937500000, 1490770282
0.250976562500, 0.816162109375, -0.588378906250, -5.687500000000, 1.312500000000, -4.960937500000, 1490770282
0.320800781250, 0.775878906250, -0.557373046875, -7.500000000000, -1.281250000000, -3.109375000000, 1490770282
0.320800781250, 0.775878906250, -0.557373046875, -7.500000000000, -1.281250000000, -3.109375000000, 1490770282
0.320800781250, 0.775878906250, -0.557373046875, -7.500000000000, -1.281250000000, -3.109375000000, 1490770282
0.242431640625, 0.721435546875, -0.426513671875, -9.257812500000, 5.742187500000, 2.046875000000, 1490770282
0.242431640625, 0.721435546875, -0.426513671875, -9.257812500000, 5.742187500000, 2.046875000000, 1490770282
0.242431640625, 0.721435546875, -0.426513671875, -9.257812500000, 5.742187500000, 2.046875000000, 1490770282
0.242431640625, 0.721435546875, -0.426513671875, -9.257812500000, 5.742187500000, 2.046875000000, 1490770282
0.304443359375, 0.720947265625, -0.546630859375, -5.007812500000, 0.554687500000, -3.656250000000, 1490770282
0.304443359375, 0.720947265625, -0.546630859375, -5.007812500000, 0.554687500000, -3.656250000000, 1490770282
0.304443359375, 0.720947265625, -0.546630859375, -5.007812500000, 0.554687500000, -3.656250000000, 1490770282
0.322021484375, 0.819091796875, -0.541503906250, -9.140625000000, 8.703125000000, 0.265625000000, 1490770282
0.322021484375, 0.819091796875, -0.541503906250, -9.140625000000, 8.703125000000, 0.265625000000, 1490770282
0.322021484375, 0.819091796875, -0.541503906250, -9.140625000000, 8.703125000000, 0.265625000000, 1490770282
0.295410156250, 0.846435546875, -0.468750000000, -9.523437500000, 12.242187500000, 3.109375000000, 1490770282
0.295410156250, 0.846435546875, -0.468750000000, -9.523437500000, 12.242187500000, 3.109375000000, 1490770282
0.295410156250, 0.846435546875, -0.468750000000, -9.523437500000, 12.242187500000, 3.109375000000, 1490770282
0.247802734375, 0.746093750000, -0.649658203125, -9.992187500000, 16.671875000000, 6.593750000000, 1490770282
0.247802734375, 0.746093750000, -0.649658203125, -9.992187500000, 16.671875000000, 6.593750000000, 1490770282
0.301513671875, 0.765869140625, -0.498046875000, -16.062500000000, 16.687500000000, 2.945312500000, 1490770282
0.301513671875, 0.765869140625, -0.498046875000, -16.062500000000, 16.687500000000, 2.945312500000, 1490770282
0.301513671875, 0.765869140625, -0.498046875000, -16.062500000000, 16.687500000000, 2.945312500000, 1490770282
0.301513671875, 0.765869140625, -0.498046875000, -16.062500000000, 16.687500000000, 2.945312500000, 1490770282
0.301513671875, 0.765869140625, -0.498046875000, -16.062500000000, 16.687500000000, 2.945312500000, 1490770282
0.320068359375, 0.671875000000, -0.485351562500, -7.625000000000, 14.914062500000, 5.187500000000, 1490770282
0.320068359375, 0.671875000000, -0.485351562500, -7.625000000000, 14.914062500000, 5.187500000000, 1490770282
0.320068359375, 0.671875000000, -0.485351562500, -7.625000000000, 14.914062500000, 5.187500000000, 1490770282
0.380859375000, 0.754882812500, -0.553710937500, -9.031250000000, 5.398437500000, 4.867187500000, 1490770282
0.380859375000, 0.754882812500, -0.553710937500, -9.031250000000, 5.398437500000, 4.867187500000, 1490770282
0.380859375000, 0.754882812500, -0.553710937500, -9.031250000000, 5.398437500000, 4.867187500000, 1490770282
0.447265625000, 0.707275390625, -0.537841796875, -12.195312500000, 12.234375000000, 0.765625000000, 1490770282
0.403564453125, 0.751464843750, -0.642089843750, -12.671875000000, 7.757812500000, 1.218750000000, 1490770282
0.403564453125, 0.751464843750, -0.642089843750, -12.671875000000, 7.757812500000, 1.218750000000, 1490770282
0.403564453125, 0.751464843750, -0.642089843750, -12.671875000000, 7.757812500000, 1.218750000000, 1490770282
0.336181640625, 0.741210937500, -0.544921875000, -11.710937500000, 5.671875000000, 3.687500000000, 1490770282
0.336181640625, 0.741210937500, -0.544921875000, -11.710937500000, 5.671875000000, 3.687500000000, 1490770282
0.336181640625, 0.741210937500, -0.544921875000, -11.710937500000, 5.671875000000, 3.687500000000, 1490770282
0.375000000000, 0.765380859375, -0.649414062500, -11.039062500000, 3.898437500000, 4.281250000000, 1490770282
0.375000000000, 0.765380859375, -0.649414062500, -11.039062500000, 3.898437500000, 4.281250000000, 1490770282
0.375000000000, 0.765380859375, -0.649414062500, -11.039062500000, 3.898437500000, 4.281250000000, 1490770282
0.359375000000, 0.765380859375, -0.632568359375, -8.156250000000, -2.710937500000, 2.007812500000, 1490770282
0.359375000000, 0.765380859375, -0.632568359375, -8.156250000000, -2.710937500000, 2.007812500000, 1490770282
0.359375000000, 0.765380859375, -0.632568359375, -8.156250000000, -2.710937500000, 2.007812500000, 1490770282
0.329101562500, 0.766845703125, -0.629394531250, -12.195312500000, -2.468750000000, -2.968750000000, 1490770282
0.329101562500, 0.766845703125, -0.629394531250, -12.195312500000, -2.468750000000, -2.968750000000, 1490770282
0.329101562500, 0.766845703125, -0.629394531250, -12.195312500000, -2.468750000000, -2.968750000000, 1490770282
0.299804687500, 0.682617187500, -0.564941406250, -8.054687500000, -2.273437500000, 0.570312500000, 1490770282
0.380615234375, 0.661132812500, -0.545898437500, -8.054687500000, -2.273437500000, 0.570312500000, 1490770282
0.380615234375, 0.661132812500, -0.545898437500, -8.054687500000, -2.273437500000, 0.570312500000, 1490770282
0.380615234375, 0.661132812500, -0.545898437500, -8.054687500000, -2.273437500000, 0.570312500000, 1490770283
0.406250000000, 0.763916015625, -0.586669921875, -12.875000000000, 0.953125000000, 0.078125000000, 1490770283
0.406250000000, 0.763916015625, -0.586669921875, -12.875000000000, 0.953125000000, 0.078125000000, 1490770283
0.406250000000, 0.763916015625, -0.586669921875, -12.875000000000, 0.953125000000, 0.078125000000, 1490770283
0.305419921875, 0.742919921875, -0.633544921875, -9.718750000000, 1.906250000000, 1.562500000000, 1490770283
0.305419921875, 0.742919921875, -0.633544921875, -9.718750000000, 1.906250000000, 1.562500000000, 1490770283
0.367919921875, 0.729980468750, -0.594726562500, -3.367187500000, -3.179687500000, -3.210937500000, 1490770283
0.367919921875, 0.729980468750, -0.594726562500, -3.367187500000, -3.179687500000, -3.210937500000, 1490770283
0.367919921875, 0.729980468750, -0.594726562500, -3.367187500000, -3.179687500000, -3.210937500000, 1490770283
0.367919921875, 0.729980468750, -0.594726562500, -3.367187500000, -3.179687500000, -3.210937500000, 1490770283
0.367919921875, 0.729980468750, -0.594726562500, -3.367187500000, -3.179687500000, -3.210937500000, 1490770283
0.364746093750, 0.783447265625, -0.611816406250, -1.257812500000, -1.921875000000, -6.703125000000, 1490770283
0.364746093750, 0.783447265625, -0.611816406250, -1.257812500000, -1.921875000000, -6.703125000000, 1490770283
0.364746093750, 0.783447265625, -0.611816406250, -1.257812500000, -1.921875000000, -6.703125000000, 1490770283
0.456787109375, 0.664794921875, -0.633056640625, -4.421875000000, 2.726562500000, -3.210937500000, 1490770283
0.456787109375, 0.664794921875, -0.633056640625, -4.421875000000, 2.726562500000, -3.210937500000, 1490770283
0.456787109375, 0.664794921875, -0.633056640625, -4.421875000000, 2.726562500000, -3.210937500000, 1490770283
0.399902343750, 0.666992187500, -0.543212890625, -1.843750000000, -3.351562500000, -8.554687500000, 1490770283
0.399902343750, 0.666992187500, -0.543212890625, -1.843750000000, -3.351562500000, -8.554687500000, 1490770283
0.399902343750, 0.666992187500, -0.543212890625, -1.843750000000, -3.351562500000, -8.554687500000, 1490770283
0.310058593750, 0.735595703125, -0.559326171875, -1.406250000000, -4.164062500000, -6.382812500000, 1490770283
0.310058593750, 0.735595703125, -0.559326171875, -1.406250000000, -4.164062500000, -6.382812500000, 1490770283
0.310058593750, 0.735595703125, -0.559326171875, -1.406250000000, -4.164062500000, -6.382812500000, 1490770283
0.310058593750, 0.735595703125, -0.559326171875, -1.406250000000, -4.164062500000, -6.382812500000, 1490770283
0.290283203125, 0.758789062500, -0.584228515625, -0.328125000000, -10.585937500000, -5.765625000000, 1490770283
0.290283203125, 0.758789062500, -0.584228515625, -0.328125000000, -10.585937500000, -5.765625000000, 1490770283
0.290283203125, 0.758789062500, -0.584228515625, -0.328125000000, -10.585937500000, -5.765625000000, 1490770283
0.383789062500, 0.750732421875, -0.594238281250, 2.859375000000, -6.023437500000, -7.546875000000, 1490770283
0.383789062500, 0.750732421875, -0.594238281250, 2.859375000000, -6.023437500000, -7.546875000000, 1490770283
0.383789062500, 0.750732421875, -0.594238281250, 2.859375000000, -6.023437500000, -7.546875000000, 1490770283
0.285400390625, 0.779296875000, -0.582031250000, 3.320312500000, -7.531250000000, -3.734375000000, 1490770283
0.285400390625, 0.779296875000, -0.582031250000, 3.320312500000, -7.531250000000, -3.734375000000, 1490770283
0.285400390625, 0.779296875000, -0.582031250000, 3.320312500000, -7.531250000000, -3.734375000000, 1490770283
0.332763671875, 0.708496093750, -0.562500000000, 2.898437500000, -5.554687500000, -5.359375000000, 1490770283
0.332763671875, 0.708496093750, -0.562500000000, 2.898437500000, -5.554687500000, -5.359375000000, 1490770283
0.332763671875, 0.708496093750, -0.562500000000, 2.898437500000, -5.554687500000, -5.359375000000, 1490770283
0.332763671875, 0.708496093750, -0.562500000000, 2.898437500000, -5.554687500000, -5.359375000000, 1490770283
0.383056640625, 0.782470703125, -0.548339843750, 4.468750000000, -4.046875000000, -3.726562500000, 1490770283
0.383056640625, 0.782470703125, -0.548339843750, 4.468750000000, -4.046875000000, -3.726562500000, 1490770283
0.383056640625, 0.782470703125, -0.548339843750, 4.468750000000, -4.046875000000, -3.726562500000, 1490770283
0.239990234375, 0.822265625000, -0.558105468750, 5.593750000000, -5.375000000000, -5.382812500000, 1490770283
0.239990234375, 0.822265625000, -0.558105468750, 5.593750000000, -5.375000000000, -5.382812500000, 1490770283
0.239990234375, 0.822265625000, -0.558105468750, 5.593750000000, -5.375000000000, -5.382812500000, 1490770283
0.448730468750, 0.880371093750, -0.577880859375, 6.781250000000, -7.117187500000, -5.718750000000, 1490770283
0.448730468750, 0.880371093750, -0.577880859375, 6.781250000000, -7.117187500000, -5.718750000000, 1490770283
0.448730468750, 0.880371093750, -0.577880859375, 6.781250000000, -7.117187500000, -5.718750000000, 1490770283
0.321289062500, 0.780273437500, -0.574707031250, 5.937500000000, -7.507812500000, -6.828125000000, 1490770283
0.321289062500, 0.780273437500, -0.574707031250, 5.937500000000, -7.507812500000, -6.828125000000, 1490770283
0.321289062500, 0.780273437500, -0.574707031250, 5.937500000000, -7.507812500000, -6.828125000000, 1490770283
0.321289062500, 0.780273437500, -0.574707031250, 5.937500000000, -7.507812500000, -6.828125000000, 1490770283
0.337646484375, 0.767333984375, -0.577148437500, 4.593750000000, -8.578125000000, -6.492187500000, 1490770283
0.337646484375, 0.767333984375, -0.577148437500, 4.593750000000, -8.578125000000, -6.492187500000, 1490770283
0.337646484375, 0.767333984375, -0.577148437500, 4.593750000000, -8.578125000000, -6.492187500000, 1490770283
0.342529296875, 0.821289062500, -0.540283203125, 2.531250000000, -2.804687500000, -1.304687500000, 1490770283
0.342529296875, 0.821289062500, -0.540283203125, 2.531250000000, -2.804687500000, -1.304687500000, 1490770283
0.342529296875, 0.821289062500, -0.540283203125, 2.531250000000, -2.804687500000, -1.304687500000, 1490770283
0.342285156250, 0.733398437500, -0.536621093750, 1.781250000000, -4.007812500000, -2.054687500000, 1490770283
0.342285156250, 0.733398437500, -0.536621093750, 1.781250000000, -4.007812500000, -2.054687500000, 1490770283
0.342285156250, 0.733398437500, -0.536621093750, 1.781250000000, -4.007812500000, -2.054687500000, 1490770283
0.385009765625, 0.720458984375, -0.555908203125, -0.156250000000, 1.750000000000, -4.015625000000, 1490770283
0.385009765625, 0.720458984375, -0.555908203125, -0.156250000000, 1.750000000000, -4.015625000000, 1490770283
0.385009765625, 0.720458984375, -0.555908203125, -0.156250000000, 1.750000000000, -4.015625000000, 1490770283
0.385009765625, 0.720458984375, -0.555908203125, -0.156250000000, 1.750000000000, -4.015625000000, 1490770283
0.227783203125, 0.749023437500, -0.534179687500, 4.484375000000, 2.539062500000, -0.031250000000, 1490770283
0.227783203125, 0.749023437500, -0.534179687500, 4.484375000000, 2.539062500000, -0.031250000000, 1490770283
0.227783203125, 0.749023437500, -0.534179687500, 4.484375000000, 2.539062500000, -0.031250000000, 1490770283
0.317382812500, 0.774169921875, -0.548583984375, 4.054687500000, 9.109375000000, 4.679687500000, 1490770283
0.317382812500, 0.774169921875, -0.548583984375, 4.054687500000, 9.109375000000, 4.679687500000, 1490770284
0.317382812500, 0.774169921875, -0.548583984375, 4.054687500000, 9.109375000000, 4.679687500000, 1490770284
0.246093750000, 0.832275390625, -0.572509765625, 11.046875000000, 10.992187500000, 9.062500000000, 1490770284
0.246093750000, 0.832275390625, -0.572509765625, 11.046875000000, 10.992187500000, 9.062500000000, 1490770284
0.246093750000, 0.832275390625, -0.572509765625, 11.046875000000, 10.992187500000, 9.062500000000, 1490770284
0.330322265625, 0.745361328125, -0.522216796875, 18.500000000000, 22.234375000000, 20.296875000000, 1490770284
0.330322265625, 0.745361328125, -0.522216796875, 18.500000000000, 22.234375000000, 20.296875000000, 1490770284
0.330322265625, 0.745361328125, -0.522216796875, 18.500000000000, 22.234375000000, 20.296875000000, 1490770284
0.330322265625, 0.745361328125, -0.522216796875, 18.500000000000, 22.234375000000, 20.296875000000, 1490770284
0.324462890625, 0.756103515625, -0.415527343750, 17.804687500000, 40.968750000000, 30.601562500000, 1490770284
0.324462890625, 0.756103515625, -0.415527343750, 17.804687500000, 40.968750000000, 30.601562500000, 1490770284
0.324462890625, 0.756103515625, -0.415527343750, 17.804687500000, 40.968750000000, 30.601562500000, 1490770284
0.301025390625, 0.671386718750, -0.360595703125, 44.781250000000, 15.726562500000, 31.945312500000, 1490770284
0.301025390625, 0.671386718750, -0.360595703125, 44.781250000000, 15.726562500000, 31.945312500000, 1490770284
0.301025390625, 0.671386718750, -0.360595703125, 44.781250000000, 15.726562500000, 31.945312500000, 1490770284
0.221191406250, 0.624755859375, -0.304687500000, 52.234375000000, 22.265625000000, 38.906250000000, 1490770284
0.221191406250, 0.624755859375, -0.304687500000, 52.234375000000, 22.265625000000, 38.906250000000, 1490770284
0.221191406250, 0.624755859375, -0.304687500000, 52.234375000000, 22.265625000000, 38.906250000000, 1490770284
0.317626953125, 0.643554687500, -0.222412109375, 75.703125000000, 42.960937500000, 39.773437500000, 1490770284
0.317626953125, 0.643554687500, -0.222412109375, 75.703125000000, 42.960937500000, 39.773437500000, 1490770284
0.317626953125, 0.643554687500, -0.222412109375, 75.703125000000, 42.960937500000, 39.773437500000, 1490770284
0.317626953125, 0.643554687500, -0.222412109375, 75.703125000000, 42.960937500000, 39.773437500000, 1490770284
0.113525390625, 0.463378906250, -0.105712890625, 96.742187500000, 33.929687500000, 52.515625000000, 1490770284
0.113525390625, 0.463378906250, -0.105712890625, 96.742187500000, 33.929687500000, 52.515625000000, 1490770284
0.113525390625, 0.463378906250, -0.105712890625, 96.742187500000, 33.929687500000, 52.515625000000, 1490770284
0.128417968750, 0.289794921875, -0.131347656250, 53.937500000000, -9.421875000000, 45.046875000000, 1490770284
0.128417968750, 0.289794921875, -0.131347656250, 53.937500000000, -9.421875000000, 45.046875000000, 1490770284
0.128417968750, 0.289794921875, -0.131347656250, 53.937500000000, -9.421875000000, 45.046875000000, 1490770284
-0.003417968750, 0.227539062500, 0.013671875000, 19.804687500000, -25.101562500000, 10.796875000000, 1490770284
-0.003417968750, 0.227539062500, 0.013671875000, 19.804687500000, -25.101562500000, 10.796875000000, 1490770284
-0.003417968750, 0.227539062500, 0.013671875000, 19.804687500000, -25.101562500000, 10.796875000000, 1490770284
0.015136718750, 0.739746093750, -0.118896484375, -67.781250000000, -49.554687500000, -103.601562500000, 1490770284
0.015136718750, 0.739746093750, -0.118896484375, -67.781250000000, -49.554687500000, -103.601562500000, 1490770284
0.015136718750, 0.739746093750, -0.118896484375, -67.781250000000, -49.554687500000, -103.601562500000, 1490770284
0.015136718750, 0.739746093750, -0.118896484375, -67.781250000000, -49.554687500000, -103.601562500000, 1490770284
0.213134765625, 0.916259765625, -0.020507812500, 21.687500000000, 59.125000000000, 69.265625000000, 1490770284
0.213134765625, 0.916259765625, -0.020507812500, 21.687500000000, 59.125000000000, 69.265625000000, 1490770284
0.213134765625, 0.916259765625, -0.020507812500, 21.687500000000, 59.125000000000, 69.265625000000, 1490770284
0.164306640625, 0.855957031250, -0.020507812500, 78.929687500000, 24.343750000000, -14.742187500000, 1490770284
0.164306640625, 0.855957031250, -0.020507812500, 78.929687500000, 24.343750000000, -14.742187500000, 1490770284
0.164306640625, 0.855957031250, -0.020507812500, 78.929687500000, 24.343750000000, -14.742187500000, 1490770284
0.514892578125, 1.160888671875, -0.131347656250, 29.070312500000, -59.304687500000, -37.882812500000, 1490770284
0.514892578125, 1.160888671875, -0.131347656250, 29.070312500000, -59.304687500000, -37.882812500000, 1490770284
0.514892578125, 1.160888671875, -0.131347656250, 29.070312500000, -59.304687500000, -37.882812500000, 1490770284
0.334472656250, 1.085937500000, -0.035400390625, 89.898437500000, 43.382812500000, -19.585937500000, 1490770284
0.334472656250, 1.085937500000, -0.035400390625, 89.898437500000, 43.382812500000, -19.585937500000, 1490770284
0.334472656250, 1.085937500000, -0.035400390625, 89.898437500000, 43.382812500000, -19.585937500000, 1490770284
0.334472656250, 1.085937500000, -0.035400390625, 89.898437500000, 43.382812500000, -19.585937500000, 1490770284
0.124023437500, 1.226562500000, -0.097412109375, 34.828125000000, 16.546875000000, 22.664062500000, 1490770284
0.124023437500, 1.226562500000, -0.097412109375, 34.828125000000, 16.546875000000, 22.664062500000, 1490770284
0.124023437500, 1.226562500000, -0.097412109375, 34.828125000000, 16.546875000000, 22.664062500000, 1490770284
0.152099609375, 1.294189453125, -0.215820312500, 36.460937500000, -23.289062500000, 3.562500000000, 1490770284
0.152099609375, 1.294189453125, -0.215820312500, 36.460937500000, -23.289062500000, 3.562500000000, 1490770284
0.152099609375, 1.294189453125, -0.215820312500, 36.460937500000, -23.289062500000, 3.562500000000, 1490770284
0.383300781250, 1.233398437500, -0.062255859375, -6.304687500000, -33.554687500000, 12.765625000000, 1490770284
0.383300781250, 1.233398437500, -0.062255859375, -6.304687500000, -33.554687500000, 12.765625000000, 1490770284
0.383300781250, 1.233398437500, -0.062255859375, -6.304687500000, -33.554687500000, 12.765625000000, 1490770284
0.355712890625, 1.449462890625, -0.140136718750, -56.789062500000, 8.710937500000, -7.890625000000, 1490770284
0.355712890625, 1.449462890625, -0.140136718750, -56.789062500000, 8.710937500000, -7.890625000000, 1490770284
0.355712890625, 1.449462890625, -0.140136718750, -56.789062500000, 8.710937500000, -7.890625000000, 1490770284
0.355712890625, 1.449462890625, -0.140136718750, -56.789062500000, 8.710937500000, -7.890625000000, 1490770284
0.417968750000, 1.696777343750, -0.091796875000, -40.054687500000, 14.007812500000, -7.218750000000, 1490770284
0.417968750000, 1.696777343750, -0.091796875000, -40.054687500000, 14.007812500000, -7.218750000000, 1490770284
0.417968750000, 1.696777343750, -0.091796875000, -40.054687500000, 14.007812500000, -7.218750000000, 1490770284
0.372558593750, 1.831054687500, -0.139648437500, -54.632812500000, -10.679687500000, -9.750000000000, 1490770284
0.372558593750, 1.831054687500, -0.139648437500, -54.632812500000, -10.679687500000, -9.750000000000, 1490770284
0.372558593750, 1.831054687500, -0.139648437500, -54.632812500000, -10.679687500000, -9.750000000000, 1490770284
0.326904296875, 1.656738281250, -0.140869140625, -55.164062500000, -12.804687500000, -4.562500000000, 1490770285
0.326904296875, 1.656738281250, -0.140869140625, -55.164062500000, -12.804687500000, -4.562500000000, 1490770285
0.326904296875, 1.656738281250, -0.140869140625, -55.164062500000, -12.804687500000, -4.562500000000, 1490770285
0.433105468750, 1.400878906250, -0.010253906250, -27.515625000000, 26.429687500000, -32.195312500000, 1490770285
0.433105468750, 1.400878906250, -0.010253906250, -27.515625000000, 26.429687500000, -32.195312500000, 1490770285
0.433105468750, 1.400878906250, -0.010253906250, -27.515625000000, 26.429687500000, -32.195312500000, 1490770285
0.433105468750, 1.400878906250, -0.010253906250, -27.515625000000, 26.429687500000, -32.195312500000, 1490770285
0.510742187500, 1.220214843750, -0.125000000000, 6.179687500000, -16.703125000000, -32.101562500000, 1490770285
0.510742187500, 1.220214843750, -0.125000000000, 6.179687500000, -16.703125000000, -32.101562500000, 1490770285
0.510742187500, 1.220214843750, -0.125000000000, 6.179687500000, -16.703125000000, -32.101562500000, 1490770285
0.247314453125, 1.446044921875, -0.149902343750, -19.203125000000, -29.437500000000, -19.937500000000, 1490770285
0.247314453125, 1.446044921875, -0.149902343750, -19.203125000000, -29.437500000000, -19.937500000000, 1490770285
0.247314453125, 1.446044921875, -0.149902343750, -19.203125000000, -29.437500000000, -19.937500000000, 1490770285
0.093994140625, 1.237304687500, -0.037109375000, 18.625000000000, 54.023437500000, 11.507812500000, 1490770285
0.093994140625, 1.237304687500, -0.037109375000, 18.625000000000, 54.023437500000, 11.507812500000, 1490770285
0.093994140625, 1.237304687500, -0.037109375000, 18.625000000000, 54.023437500000, 11.507812500000, 1490770285
0.128173828125, 1.212402343750, -0.199218750000, 12.039062500000, -3.664062500000, 23.031250000000, 1490770285
0.128173828125, 1.212402343750, -0.199218750000, 12.039062500000, -3.664062500000, 23.031250000000, 1490770285
0.128173828125, 1.212402343750, -0.199218750000, 12.039062500000, -3.664062500000, 23.031250000000, 1490770285
0.128173828125, 1.212402343750, -0.199218750000, 12.039062500000, -3.664062500000, 23.031250000000, 1490770285
0.167236328125, 1.174804687500, -0.142333984375, -6.218750000000, -98.429687500000, 17.562500000000, 1490770285
0.167236328125, 1.174804687500, -0.142333984375, -6.218750000000, -98.429687500000, 17.562500000000, 1490770285
0.167236328125, 1.174804687500, -0.142333984375, -6.218750000000, -98.429687500000, 17.562500000000, 1490770285
0.246826171875, 1.145996093750, -0.040771484375, 41.242187500000, -90.695312500000, 11.453125000000, 1490770285
0.246826171875, 1.145996093750, -0.040771484375, 41.242187500000, -90.695312500000, 11.453125000000, 1490770285
0.246826171875, 1.145996093750, -0.040771484375, 41.242187500000, -90.695312500000, 11.453125000000, 1490770285
0.226806640625, 0.869384765625, -0.154785156250, 48.960937500000, -50.562500000000, 20.523437500000, 1490770285
0.226806640625, 0.869384765625, -0.154785156250, 48.960937500000, -50.562500000000, 20.523437500000, 1490770285
0.226806640625, 0.869384765625, -0.154785156250, 48.960937500000, -50.562500000000, 20.523437500000, 1490770285
0.373046875000, 0.804687500000, -1.076416015625, -76.914062500000, 234.304687500000, -14.000000000000, 1490770285
0.373046875000, 0.804687500000, -1.076416015625, -76.914062500000, 234.304687500000, -14.000000000000, 1490770285
0.373046875000, 0.804687500000, -1.076416015625, -76.914062500000, 234.304687500000, -14.000000000000, 1490770285
0.373046875000, 0.804687500000, -1.076416015625, -76.914062500000, 234.304687500000, -14.000000000000, 1490770285
0.321289062500, 0.539794921875, -0.096435546875, -148.132812500000, -96.265625000000, -43.226562500000, 1490770285
0.321289062500, 0.539794921875, -0.096435546875, -148.132812500000, -96.265625000000, -43.226562500000, 1490770285
0.321289062500, 0.539794921875, -0.096435546875, -148.132812500000, -96.265625000000, -43.226562500000, 1490770285
-0.026123046875, 0.845214843750, -0.063964843750, -152.312500000000, -94.570312500000, -30.335937500000, 1490770285
-0.026123046875, 0.845214843750, -0.063964843750, -152.312500000000, -94.570312500000, -30.335937500000, 1490770285
-0.026123046875, 0.845214843750, -0.063964843750, -152.312500000000, -94.570312500000, -30.335937500000, 1490770285
-0.001220703125, 0.822753906250, -0.077148437500, -155.367187500000, -50.000000000000, -4.796875000000, 1490770285
0.023193359375, 0.673583984375, 0.020996093750, -169.445312500000, 184.976562500000, -37.125000000000, 1490770285
0.023193359375, 0.673583984375, 0.020996093750, -169.445312500000, 184.976562500000, -37.125000000000, 1490770285
0.023193359375, 0.673583984375, 0.020996093750, -169.445312500000, 184.976562500000, -37.125000000000, 1490770285
0.023193359375, 0.673583984375, 0.020996093750, -169.445312500000, 184.976562500000, -37.125000000000, 1490770285
0.023193359375, 0.673583984375, 0.020996093750, -169.445312500000, 184.976562500000, -37.125000000000, 1490770285
0.023193359375, 0.673583984375, 0.020996093750, -169.445312500000, 184.976562500000, -37.125000000000, 1490770285
0.086181640625, 0.330566406250, -0.064697265625, -93.062500000000, 117.843750000000, -13.210937500000, 1490770285
0.086181640625, 0.330566406250, -0.064697265625, -93.062500000000, 117.843750000000, -13.210937500000, 1490770285
0.086181640625, 0.330566406250, -0.064697265625, -93.062500000000, 117.843750000000, -13.210937500000, 1490770285
0.114013671875, 0.230468750000, -0.038818359375, -28.578125000000, -42.265625000000, -12.625000000000, 1490770285
0.114013671875, 0.230468750000, -0.038818359375, -28.578125000000, -42.265625000000, -12.625000000000, 1490770285
0.114013671875, 0.230468750000, -0.038818359375, -28.578125000000, -42.265625000000, -12.625000000000, 1490770285
0.349365234375, 0.452880859375, -0.195800781250, -11.625000000000, -191.679687500000, 14.218750000000, 1490770285
0.349365234375, 0.452880859375, -0.195800781250, -11.625000000000, -191.679687500000, 14.218750000000, 1490770285
0.349365234375, 0.452880859375, -0.195800781250, -11.625000000000, -191.679687500000, 14.218750000000, 1490770285
0.234375000000, 0.421875000000, -1.389160156250, 146.445312500000, 33.210937500000, 16.203125000000, 1490770285
0.234375000000, 0.421875000000, -1.389160156250, 146.445312500000, 33.210937500000, 16.203125000000, 1490770285
0.234375000000, 0.421875000000, -1.389160156250, 146.445312500000, 33.210937500000, 16.203125000000, 1490770285
0.234375000000, 0.421875000000, -1.389160156250, 146.445312500000, 33.210937500000, 16.203125000000, 1490770285
0.470947265625, 0.957031250000, -0.966064453125, -132.570312500000, -20.250000000000, -46.140625000000, 1490770285
0.470947265625, 0.957031250000, -0.966064453125, -132.570312500000, -20.250000000000, -46.140625000000, 1490770285
0.470947265625, 0.957031250000, -0.966064453125, -132.570312500000, -20.250000000000, -46.140625000000, 1490770285
0.062255859375, 0.841064453125, -0.356445312500, 56.109375000000, -64.296875000000, 9.710937500000, 1490770285
0.062255859375, 0.841064453125, -0.356445312500, 56.109375000000, -64.296875000000, 9.710937500000, 1490770285
0.062255859375, 0.841064453125, -0.356445312500, 56.109375000000, -64.296875000000, 9.710937500000, 1490770285
0.144287109375, 0.554443359375, -0.726318359375, -15.789062500000, 12.804687500000, 0.289062500000, 1490770286
0.144287109375, 0.554443359375, -0.726318359375, -15.789062500000, 12.804687500000, 0.289062500000, 1490770286
0.144287109375, 0.554443359375, -0.726318359375, -15.789062500000, 12.804687500000, 0.289062500000, 1490770286
0.285888671875, 0.637695312500, -0.592529296875, -28.710937500000, -13.593750000000, -23.265625000000, 1490770286
0.285888671875, 0.637695312500, -0.592529296875, -28.710937500000, -13.593750000000, -23.265625000000, 1490770286
0.285888671875, 0.637695312500, -0.592529296875, -28.710937500000, -13.593750000000, -23.265625000000, 1490770286
0.285888671875, 0.637695312500, -0.592529296875, -28.710937500000, -13.593750000000, -23.265625000000, 1490770286
0.357666015625, 0.617187500000, -0.673828125000, -17.242187500000, 1.312500000000, -22.164062500000, 1490770286
0.357666015625, 0.617187500000, -0.673828125000, -17.242187500000, 1.312500000000, -22.164062500000, 1490770286
0.357666015625, 0.617187500000, -0.673828125000, -17.242187500000, 1.312500000000, -22.164062500000, 1490770286
