ACC_X,ACC_Y,ACC_Z,G_X,G_Y,G_Z,Unix Time
0.360595703125, 0.810791015625, -0.945556640625, -2.710937500000, -94.218750000000, -88.531250000000, 1490770125
0.360595703125, 0.810791015625, -0.945556640625, -2.710937500000, -94.218750000000, -88.531250000000, 1490770125
0.360595703125, 0.810791015625, -0.945556640625, -2.710937500000, -94.218750000000, -88.531250000000, 1490770125
0.360595703125, 0.810791015625, -0.945556640625, -2.710937500000, -94.218750000000, -88.531250000000, 1490770125
0.308593750000, 0.880371093750, -0.399658203125, -17.882812500000, -229.203125000000, -126.023437500000, 1490770125
0.275390625000, 0.875732421875, -0.285400390625, -8.656250000000, -228.617187500000, -129.796875000000, 1490770125
0.275390625000, 0.875732421875, -0.285400390625, -8.656250000000, -228.617187500000, -129.796875000000, 1490770125
0.275390625000, 0.875732421875, -0.285400390625, -8.656250000000, -228.617187500000, -129.796875000000, 1490770125
0.275390625000, 0.875732421875, -0.285400390625, -8.656250000000, -228.617187500000, -129.796875000000, 1490770125
-0.105712890625, 1.017578125000, -0.444824218750, 31.179687500000, -172.117187500000, -122.554687500000, 1490770125
-0.105712890625, 1.017578125000, -0.444824218750, 31.179687500000, -172.117187500000, -122.554687500000, 1490770125
-0.105712890625, 1.017578125000, -0.444824218750, 31.179687500000, -172.117187500000, -122.554687500000, 1490770125
0.061523437500, 1.112304687500, -0.776367187500, 100.929687500000, -158.843750000000, -121.328125000000, 1490770125
0.144775390625, 1.091308593750, -1.026123046875, 100.929687500000, -158.843750000000, -121.328125000000, 1490770125
0.144775390625, 1.091308593750, -1.026123046875, 100.929687500000, -158.843750000000, -121.328125000000, 1490770125
0.144775390625, 1.091308593750, -1.026123046875, 100.929687500000, -158.843750000000, -121.328125000000, 1490770125
0.130371093750, 1.030273437500, -1.387451171875, 55.593750000000, -90.304687500000, -101.414062500000, 1490770125
0.130371093750, 1.030273437500, -1.387451171875, 55.593750000000, -90.304687500000, -101.414062500000, 1490770125
0.130371093750, 1.030273437500, -1.387451171875, 55.593750000000, -90.304687500000, -101.414062500000, 1490770125
0.130371093750, 1.030273437500, -1.387451171875, 55.593750000000, -90.304687500000, -101.414062500000, 1490770125
0.130371093750, 1.030273437500, -1.387451171875, 55.593750000000, -90.304687500000, -101.414062500000, 1490770125
0.130371093750, 1.030273437500, -1.387451171875, 55.593750000000, -90.304687500000, -101.414062500000, 1490770125
0.649658203125, 0.870117187500, -0.199951171875, -14.460937500000, -137.828125000000, -155.070312500000, 1490770125
0.649658203125, 0.870117187500, -0.199951171875, -14.460937500000, -137.828125000000, -155.070312500000, 1490770125
0.505126953125, 0.874267578125, -0.152587890625, -13.367187500000, -175.210937500000, -145.664062500000, 1490770125
0.181152343750, 0.864501953125, -0.042968750000, 59.437500000000, -191.882812500000, -122.812500000000, 1490770125
0.181152343750, 0.864501953125, -0.042968750000, 59.437500000000, -191.882812500000, -122.812500000000, 1490770125
0.181152343750, 0.864501953125, -0.042968750000, 59.437500000000, -191.882812500000, -122.812500000000, 1490770125
0.181152343750, 0.864501953125, -0.042968750000, 59.437500000000, -191.882812500000, -122.812500000000, 1490770125
0.181152343750, 0.864501953125, -0.042968750000, 59.437500000000, -191.882812500000, -122.812500000000, 1490770125
0.181152343750, 0.864501953125, -0.042968750000, 59.437500000000, -191.882812500000, -122.812500000000, 1490770125
-0.071044921875, 0.765625000000, -0.245361328125, 61.890625000000, -82.062500000000, -96.445312500000, 1490770125
-0.071044921875, 0.765625000000, -0.245361328125, 61.890625000000, -82.062500000000, -96.445312500000, 1490770125
-0.071044921875, 0.765625000000, -0.245361328125, 61.890625000000, -82.062500000000, -96.445312500000, 1490770125
0.123291015625, 0.639160156250, -0.756835937500, 63.429687500000, -155.296875000000, -102.062500000000, 1490770125
0.052490234375, 0.840087890625, -0.684570312500, 64.539062500000, 18.382812500000, -34.593750000000, 1490770125
0.052490234375, 0.840087890625, -0.684570312500, 64.539062500000, 18.382812500000, -34.593750000000, 1490770125
0.052490234375, 0.840087890625, -0.684570312500, 64.539062500000, 18.382812500000, -34.593750000000, 1490770125
0.052490234375, 0.840087890625, -0.684570312500, 64.539062500000, 18.382812500000, -34.593750000000, 1490770125
0.052490234375, 0.840087890625, -0.684570312500, 64.539062500000, 18.382812500000, -34.593750000000, 1490770125
0.052490234375, 0.840087890625, -0.684570312500, 64.539062500000, 18.382812500000, -34.593750000000, 1490770125
0.237792968750, 0.697021484375, -0.719482421875, -2.273437500000, 18.492187500000, -23.421875000000, 1490770125
0.237792968750, 0.697021484375, -0.719482421875, -2.273437500000, 18.492187500000, -23.421875000000, 1490770125
0.237792968750, 0.697021484375, -0.719482421875, -2.273437500000, 18.492187500000, -23.421875000000, 1490770125
0.357421875000, 1.004394531250, -0.501708984375, -74.453125000000, 43.820312500000, -3.515625000000, 1490770125
0.357421875000, 1.004394531250, -0.501708984375, -74.453125000000, 43.820312500000, -3.515625000000, 1490770125
0.357421875000, 1.004394531250, -0.501708984375, -74.453125000000, 43.820312500000, -3.515625000000, 1490770125
0.382080078125, 1.092041015625, -0.652099609375, -48.468750000000, -83.351562500000, -20.750000000000, 1490770125
0.042480468750, 1.135986328125, -0.177734375000, -36.046875000000, -45.914062500000, -2.453125000000, 1490770126
0.042480468750, 1.135986328125, -0.177734375000, -36.046875000000, -45.914062500000, -2.453125000000, 1490770126
0.042480468750, 1.135986328125, -0.177734375000, -36.046875000000, -45.914062500000, -2.453125000000, 1490770126
0.042480468750, 1.135986328125, -0.177734375000, -36.046875000000, -45.914062500000, -2.453125000000, 1490770126
0.042480468750, 1.135986328125, -0.177734375000, -36.046875000000, -45.914062500000, -2.453125000000, 1490770126
0.042480468750, 1.135986328125, -0.177734375000, -36.046875000000, -45.914062500000, -2.453125000000, 1490770126
0.111328125000, 0.927001953125, -0.468750000000, 30.898437500000, -33.351562500000, 13.617187500000, 1490770126
0.111328125000, 0.927001953125, -0.468750000000, 30.898437500000, -33.351562500000, 13.617187500000, 1490770126
0.111328125000, 0.927001953125, -0.468750000000, 30.898437500000, -33.351562500000, 13.617187500000, 1490770126
0.197753906250, 0.729980468750, -0.811279296875, 21.375000000000, 45.390625000000, 29.187500000000, 1490770126
0.197753906250, 0.729980468750, -0.811279296875, 21.375000000000, 45.390625000000, 29.187500000000, 1490770126
0.197753906250, 0.729980468750, -0.811279296875, 21.375000000000, 45.390625000000, 29.187500000000, 1490770126
0.257324218750, 0.813720703125, -0.455566406250, -7.945312500000, 33.953125000000, 21.976562500000, 1490770126
0.257324218750, 0.813720703125, -0.455566406250, -7.945312500000, 33.953125000000, 21.976562500000, 1490770126
0.257324218750, 0.813720703125, -0.455566406250, -7.945312500000, 33.953125000000, 21.976562500000, 1490770126
0.184570312500, 0.837646484375, -0.712402343750, -19.898437500000, -86.789062500000, 15.976562500000, 1490770126
0.184570312500, 0.837646484375, -0.712402343750, -19.898437500000, -86.789062500000, 15.976562500000, 1490770126
0.184570312500, 0.837646484375, -0.712402343750, -19.898437500000, -86.789062500000, 15.976562500000, 1490770126
0.184570312500, 0.837646484375, -0.712402343750, -19.898437500000, -86.789062500000, 15.976562500000, 1490770126
0.138671875000, 0.657714843750, -0.608886718750, -69.007812500000, -55.679687500000, 50.687500000000, 1490770126
0.138671875000, 0.657714843750, -0.608886718750, -69.007812500000, -55.679687500000, 50.687500000000, 1490770126
0.138671875000, 0.657714843750, -0.608886718750, -69.007812500000, -55.679687500000, 50.687500000000, 1490770126
0.270751953125, 0.775390625000, -0.584228515625, -53.515625000000, 39.375000000000, 25.617187500000, 1490770126
0.270751953125, 0.775390625000, -0.584228515625, -53.515625000000, 39.375000000000, 25.617187500000, 1490770126
0.270751953125, 0.775390625000, -0.584228515625, -53.515625000000, 39.375000000000, 25.617187500000, 1490770126
0.159912109375, 0.726806640625, -0.598144531250, -37.312500000000, 38.187500000000, -27.382812500000, 1490770126
0.159912109375, 0.726806640625, -0.598144531250, -37.312500000000, 38.187500000000, -27.382812500000, 1490770126
-0.012695312500, 0.676025390625, -0.448974609375, -38.859375000000, -153.453125000000, -88.039062500000, 1490770126
-0.012695312500, 0.676025390625, -0.448974609375, -38.859375000000, -153.453125000000, -88.039062500000, 1490770126
-0.012695312500, 0.676025390625, -0.448974609375, -38.859375000000, -153.453125000000, -88.039062500000, 1490770126
-0.012695312500, 0.676025390625, -0.448974609375, -38.859375000000, -153.453125000000, -88.039062500000, 1490770126
-0.073730468750, 0.776611328125, -0.317382812500, -19.117187500000, -119.054687500000, -73.812500000000, 1490770126
0.129150390625, 0.793945312500, -0.321777343750, 33.070312500000, -57.296875000000, -73.578125000000, 1490770126
0.129150390625, 0.793945312500, -0.321777343750, 33.070312500000, -57.296875000000, -73.578125000000, 1490770126
0.129150390625, 0.793945312500, -0.321777343750, 33.070312500000, -57.296875000000, -73.578125000000, 1490770126
0.109130859375, 0.905273437500, -0.960205078125, 29.695312500000, -227.273437500000, -104.546875000000, 1490770126
0.109130859375, 0.905273437500, -0.960205078125, 29.695312500000, -227.273437500000, -104.546875000000, 1490770126
0.109130859375, 0.905273437500, -0.960205078125, 29.695312500000, -227.273437500000, -104.546875000000, 1490770126
-0.416259765625, 0.951904296875, -1.296142578125, -28.062500000000, -154.109375000000, -66.898437500000, 1490770126
-0.416259765625, 0.951904296875, -1.296142578125, -28.062500000000, -154.109375000000, -66.898437500000, 1490770126
-0.385986328125, 0.854736328125, -0.488037109375, -33.921875000000, 58.367187500000, 19.296875000000, 1490770126
-0.228271484375, 0.614013671875, -0.501464843750, 44.312500000000, 65.343750000000, 24.062500000000, 1490770126
-0.228271484375, 0.614013671875, -0.501464843750, 44.312500000000, 65.343750000000, 24.062500000000, 1490770126
-0.228271484375, 0.614013671875, -0.501464843750, 44.312500000000, 65.343750000000, 24.062500000000, 1490770126
0.013916015625, 0.571289062500, -0.717285156250, 15.460937500000, 35.937500000000, 13.718750000000, 1490770126
0.013916015625, 0.571289062500, -0.717285156250, 15.460937500000, 35.937500000000, 13.718750000000, 1490770126
0.013916015625, 0.571289062500, -0.717285156250, 15.460937500000, 35.937500000000, 13.718750000000, 1490770126
0.013916015625, 0.571289062500, -0.717285156250, 15.460937500000, 35.937500000000, 13.718750000000, 1490770126
-0.186523437500, 0.649902343750, -0.432373046875, -28.156250000000, 172.062500000000, 35.898437500000, 1490770126
-0.186523437500, 0.649902343750, -0.432373046875, -28.156250000000, 172.062500000000, 35.898437500000, 1490770126
-0.186523437500, 0.649902343750, -0.432373046875, -28.156250000000, 172.062500000000, 35.898437500000, 1490770126
0.009765625000, 0.739013671875, -0.501708984375, -61.710937500000, 137.859375000000, 57.875000000000, 1490770126
0.009765625000, 0.739013671875, -0.501708984375, -61.710937500000, 137.859375000000, 57.875000000000, 1490770126
-0.035400390625, 0.832031250000, -0.929687500000, -35.390625000000, -124.609375000000, -12.335937500000, 1490770126
-0.035400390625, 0.832031250000, -0.929687500000, -35.390625000000, -124.609375000000, -12.335937500000, 1490770126
-0.035400390625, 0.832031250000, -0.929687500000, -35.390625000000, -124.609375000000, -12.335937500000, 1490770126
-0.035400390625, 0.832031250000, -0.929687500000, -35.390625000000, -124.609375000000, -12.335937500000, 1490770126
-0.286621093750, 1.082031250000, -0.687988281250, -6.726562500000, 159.039062500000, 99.953125000000, 1490770126
-0.286621093750, 1.082031250000, -0.687988281250, -6.726562500000, 159.039062500000, 99.953125000000, 1490770126
-0.286621093750, 1.082031250000, -0.687988281250, -6.726562500000, 159.039062500000, 99.953125000000, 1490770126
-0.286621093750, 1.082031250000, -0.687988281250, -6.726562500000, 159.039062500000, 99.953125000000, 1490770126
0.308105468750, 0.917236328125, -0.816894531250, 48.375000000000, 46.960937500000, 68.656250000000, 1490770126
0.308105468750, 0.917236328125, -0.816894531250, 48.375000000000, 46.960937500000, 68.656250000000, 1490770126
0.308105468750, 0.917236328125, -0.816894531250, 48.375000000000, 46.960937500000, 68.656250000000, 1490770126
0.092041015625, 0.746826171875, -0.729492187500, 55.250000000000, 118.468750000000, 15.960937500000, 1490770126
0.092041015625, 0.746826171875, -0.729492187500, 55.250000000000, 118.468750000000, 15.960937500000, 1490770126
0.092041015625, 0.746826171875, -0.729492187500, 55.250000000000, 118.468750000000, 15.960937500000, 1490770126
0.367675781250, 0.645019531250, -0.673828125000, 35.539062500000, -2.679687500000, 2.078125000000, 1490770126
0.367675781250, 0.645019531250, -0.673828125000, 35.539062500000, -2.679687500000, 2.078125000000, 1490770126
0.367675781250, 0.645019531250, -0.673828125000, 35.539062500000, -2.679687500000, 2.078125000000, 1490770126
0.367675781250, 0.645019531250, -0.673828125000, 35.539062500000, -2.679687500000, 2.078125000000, 1490770126
0.226562500000, 0.485595703125, -0.752685546875, 12.070312500000, -100.632812500000, -21.820312500000, 1490770127
0.226562500000, 0.485595703125, -0.752685546875, 12.070312500000, -100.632812500000, -21.820312500000, 1490770127
0.226562500000, 0.485595703125, -0.752685546875, 12.070312500000, -100.632812500000, -21.820312500000, 1490770127
-0.031250000000, 0.445068359375, -0.467529296875, -42.031250000000, -57.796875000000, -28.539062500000, 1490770127
-0.031250000000, 0.445068359375, -0.467529296875, -42.031250000000, -57.796875000000, -28.539062500000, 1490770127
-0.031250000000, 0.445068359375, -0.467529296875, -42.031250000000, -57.796875000000, -28.539062500000, 1490770127
-0.174072265625, 0.618408203125, -0.566406250000, -39.812500000000, 66.429687500000, -38.070312500000, 1490770127
-0.174072265625, 0.618408203125, -0.566406250000, -39.812500000000, 66.429687500000, -38.070312500000, 1490770127
-0.174072265625, 0.618408203125, -0.566406250000, -39.812500000000, 66.429687500000, -38.070312500000, 1490770127
-0.503417968750, 1.033203125000, -1.339843750000, 0.273437500000, 36.578125000000, 10.203125000000, 1490770127
-0.503417968750, 1.033203125000, -1.339843750000, 0.273437500000, 36.578125000000, 10.203125000000, 1490770127
-0.503417968750, 1.033203125000, -1.339843750000, 0.273437500000, 36.578125000000, 10.203125000000, 1490770127
-0.503417968750, 1.033203125000, -1.339843750000, 0.273437500000, 36.578125000000, 10.203125000000, 1490770127
0.390625000000, 0.898193359375, -0.299316406250, -36.781250000000, 103.093750000000, 1.718750000000, 1490770127
0.390625000000, 0.898193359375, -0.299316406250, -36.781250000000, 103.093750000000, 1.718750000000, 1490770127
0.390625000000, 0.898193359375, -0.299316406250, -36.781250000000, 103.093750000000, 1.718750000000, 1490770127
0.389160156250, 0.724609375000, -0.329589843750, 57.218750000000, 69.234375000000, -4.109375000000, 1490770127
0.389160156250, 0.724609375000, -0.329589843750, 57.218750000000, 69.234375000000, -4.109375000000, 1490770127
0.389160156250, 0.724609375000, -0.329589843750, 57.218750000000, 69.234375000000, -4.109375000000, 1490770127
0.192871093750, 0.770019531250, -0.711181640625, 61.375000000000, -70.976562500000, 13.117187500000, 1490770127
0.192871093750, 0.770019531250, -0.711181640625, 61.375000000000, -70.976562500000, 13.117187500000, 1490770127
0.192871093750, 0.770019531250, -0.711181640625, 61.375000000000, -70.976562500000, 13.117187500000, 1490770127
-0.175048828125, 0.671875000000, -0.671875000000, -102.625000000000, -163.140625000000, -4.492187500000, 1490770127
-0.175048828125, 0.671875000000, -0.671875000000, -102.625000000000, -163.140625000000, -4.492187500000, 1490770127
-0.175048828125, 0.671875000000, -0.671875000000, -102.625000000000, -163.140625000000, -4.492187500000, 1490770127
-0.175048828125, 0.671875000000, -0.671875000000, -102.625000000000, -163.140625000000, -4.492187500000, 1490770127
-0.515869140625, 0.620849609375, -0.259277343750, -17.117187500000, 26.523437500000, 13.523437500000, 1490770127
-0.515869140625, 0.620849609375, -0.259277343750, -17.117187500000, 26.523437500000, 13.523437500000, 1490770127
-0.515869140625, 0.620849609375, -0.259277343750, -17.117187500000, 26.523437500000, 13.523437500000, 1490770127
-0.144775390625, 0.549560546875, -0.513916015625, 91.226562500000, 150.351562500000, 57.804687500000, 1490770127
-0.144775390625, 0.549560546875, -0.513916015625, 91.226562500000, 150.351562500000, 57.804687500000, 1490770127
-0.144775390625, 0.549560546875, -0.513916015625, 91.226562500000, 150.351562500000, 57.804687500000, 1490770127
0.082031250000, 0.604248046875, -0.681884765625, 37.281250000000, 165.328125000000, 45.914062500000, 1490770127
0.082031250000, 0.604248046875, -0.681884765625, 37.281250000000, 165.328125000000, 45.914062500000, 1490770127
0.082031250000, 0.604248046875, -0.681884765625, 37.281250000000, 165.328125000000, 45.914062500000, 1490770127
0.571044921875, 0.914062500000, -0.695556640625, -42.492187500000, 162.601562500000, 57.296875000000, 1490770127
0.571044921875, 0.914062500000, -0.695556640625, -42.492187500000, 162.601562500000, 57.296875000000, 1490770127
0.571044921875, 0.914062500000, -0.695556640625, -42.492187500000, 162.601562500000, 57.296875000000, 1490770127
0.571044921875, 0.914062500000, -0.695556640625, -42.492187500000, 162.601562500000, 57.296875000000, 1490770127
0.782470703125, 1.230957031250, -0.725585937500, -42.742187500000, 93.492187500000, 57.195312500000, 1490770127
0.782470703125, 1.230957031250, -0.725585937500, -42.742187500000, 93.492187500000, 57.195312500000, 1490770127
0.782470703125, 1.230957031250, -0.725585937500, -42.742187500000, 93.492187500000, 57.195312500000, 1490770127
0.116455078125, 0.902587890625, -0.611328125000, -44.351562500000, -115.757812500000, 2.929687500000, 1490770127
0.116455078125, 0.902587890625, -0.611328125000, -44.351562500000, -115.757812500000, 2.929687500000, 1490770127
0.116455078125, 0.902587890625, -0.611328125000, -44.351562500000, -115.757812500000, 2.929687500000, 1490770127
-0.334228515625, 0.893554687500, -0.460449218750, -59.812500000000, -40.796875000000, 20.875000000000, 1490770127
-0.334228515625, 0.893554687500, -0.460449218750, -59.812500000000, -40.796875000000, 20.875000000000, 1490770127
-0.334228515625, 0.893554687500, -0.460449218750, -59.812500000000, -40.796875000000, 20.875000000000, 1490770127
0.139648437500, 0.677490234375, -0.339111328125, 15.351562500000, 137.023437500000, 61.328125000000, 1490770127
0.139648437500, 0.677490234375, -0.339111328125, 15.351562500000, 137.023437500000, 61.328125000000, 1490770127
0.139648437500, 0.677490234375, -0.339111328125, 15.351562500000, 137.023437500000, 61.328125000000, 1490770127
0.139648437500, 0.677490234375, -0.339111328125, 15.351562500000, 137.023437500000, 61.328125000000, 1490770127
0.247802734375, 0.575683593750, -0.788330078125, 77.125000000000, 14.617187500000, -1.976562500000, 1490770127
0.247802734375, 0.575683593750, -0.788330078125, 77.125000000000, 14.617187500000, -1.976562500000, 1490770127
0.247802734375, 0.575683593750, -0.788330078125, 77.125000000000, 14.617187500000, -1.976562500000, 1490770127
0.502441406250, 0.679687500000, -0.625732421875, -54.656250000000, 76.171875000000, 1.882812500000, 1490770127
0.502441406250, 0.679687500000, -0.625732421875, -54.656250000000, 76.171875000000, 1.882812500000, 1490770127
0.502441406250, 0.679687500000, -0.625732421875, -54.656250000000, 76.171875000000, 1.882812500000, 1490770127
0.224365234375, 0.611083984375, -0.387939453125, 29.890625000000, -52.812500000000, -2.195312500000, 1490770127
0.224365234375, 0.611083984375, -0.387939453125, 29.890625000000, -52.812500000000, -2.195312500000, 1490770127
0.224365234375, 0.611083984375, -0.387939453125, 29.890625000000, -52.812500000000, -2.195312500000, 1490770127
0.019775390625, 0.531250000000, -0.777099609375, -31.843750000000, -95.554687500000, -29.625000000000, 1490770127
0.019775390625, 0.531250000000, -0.777099609375, -31.843750000000, -95.554687500000, -29.625000000000, 1490770127
0.019775390625, 0.531250000000, -0.777099609375, -31.843750000000, -95.554687500000, -29.625000000000, 1490770127
0.019775390625, 0.531250000000, -0.777099609375, -31.843750000000, -95.554687500000, -29.625000000000, 1490770127
-0.126708984375, 0.679443359375, -0.679199218750, -47.343750000000, -25.460937500000, -10.148437500000, 1490770128
-0.126708984375, 0.679443359375, -0.679199218750, -47.343750000000, -25.460937500000, -10.148437500000, 1490770128
-0.126708984375, 0.679443359375, -0.679199218750, -47.343750000000, -25.460937500000, -10.148437500000, 1490770128
-0.099121093750, 1.024902343750, -0.821777343750, -42.257812500000, -65.679687500000, -24.625000000000, 1490770128
-0.099121093750, 1.024902343750, -0.821777343750, -42.257812500000, -65.679687500000, -24.625000000000, 1490770128
-0.099121093750, 1.024902343750, -0.821777343750, -42.257812500000, -65.679687500000, -24.625000000000, 1490770128
-0.270996093750, 0.748291015625, -0.661376953125, 16.179687500000, -27.992187500000, -13.875000000000, 1490770128
-0.270996093750, 0.748291015625, -0.661376953125, 16.179687500000, -27.992187500000, -13.875000000000, 1490770128
-0.190185546875, 0.781494140625, -0.967773437500, 22.421875000000, 26.539062500000, -8.859375000000, 1490770128
0.458251953125, 0.780273437500, -0.245117187500, -43.695312500000, 27.312500000000, -56.289062500000, 1490770128
0.419921875000, 0.898681640625, -0.174072265625, -61.226562500000, 24.093750000000, -91.718750000000, 1490770128
0.419921875000, 0.898681640625, -0.174072265625, -61.226562500000, 24.093750000000, -91.718750000000, 1490770128
0.419921875000, 0.898681640625, -0.174072265625, -61.226562500000, 24.093750000000, -91.718750000000, 1490770128
0.370605468750, 0.917968750000, -0.298583984375, 43.148437500000, 23.078125000000, 30.304687500000, 1490770128
0.370605468750, 0.917968750000, -0.298583984375, 43.148437500000, 23.078125000000, 30.304687500000, 1490770128
0.370605468750, 0.917968750000, -0.298583984375, 43.148437500000, 23.078125000000, 30.304687500000, 1490770128
0.370605468750, 0.917968750000, -0.298583984375, 43.148437500000, 23.078125000000, 30.304687500000, 1490770128
0.306884765625, 0.793457031250, -1.317382812500, 122.570312500000, -245.750000000000, -22.757812500000, 1490770128
0.306884765625, 0.793457031250, -1.317382812500, 122.570312500000, -245.750000000000, -22.757812500000, 1490770128
0.306884765625, 0.793457031250, -1.317382812500, 122.570312500000, -245.750000000000, -22.757812500000, 1490770128
0.306884765625, 0.793457031250, -1.317382812500, 122.570312500000, -245.750000000000, -22.757812500000, 1490770128
-0.018798828125, 0.716796875000, -0.162597656250, -15.375000000000, -19.007812500000, 16.617187500000, 1490770128
-0.018798828125, 0.716796875000, -0.162597656250, -15.375000000000, -19.007812500000, 16.617187500000, 1490770128
-0.018798828125, 0.716796875000, -0.162597656250, -15.375000000000, -19.007812500000, 16.617187500000, 1490770128
-0.018798828125, 0.716796875000, -0.162597656250, -15.375000000000, -19.007812500000, 16.617187500000, 1490770128
0.236328125000, 0.660888671875, -0.281494140625, 63.000000000000, 71.921875000000, -3.898437500000, 1490770128
0.302978515625, 0.696289062500, -0.409423828125, 63.000000000000, 71.921875000000, -3.898437500000, 1490770128
0.302978515625, 0.696289062500, -0.409423828125, 63.000000000000, 71.921875000000, -3.898437500000, 1490770128
0.302978515625, 0.696289062500, -0.409423828125, 63.000000000000, 71.921875000000, -3.898437500000, 1490770128
0.358398437500, 0.676757812500, -0.641845703125, 16.781250000000, 10.367187500000, -18.609375000000, 1490770128
0.358398437500, 0.676757812500, -0.641845703125, 16.781250000000, 10.367187500000, -18.609375000000, 1490770128
0.358398437500, 0.676757812500, -0.641845703125, 16.781250000000, 10.367187500000, -18.609375000000, 1490770128
0.523681640625, 0.705810546875, -0.487792968750, -1.101562500000, -50.859375000000, -35.906250000000, 1490770128
0.523681640625, 0.705810546875, -0.487792968750, -1.101562500000, -50.859375000000, -35.906250000000, 1490770128
0.410400390625, 0.882324218750, -0.842529296875, -9.687500000000, -14.687500000000, -12.812500000000, 1490770128
0.410400390625, 0.882324218750, -0.842529296875, -9.687500000000, -14.687500000000, -12.812500000000, 1490770128
0.410400390625, 0.882324218750, -0.842529296875, -9.687500000000, -14.687500000000, -12.812500000000, 1490770128
0.410400390625, 0.882324218750, -0.842529296875, -9.687500000000, -14.687500000000, -12.812500000000, 1490770128
0.410400390625, 0.882324218750, -0.842529296875, -9.687500000000, -14.687500000000, -12.812500000000, 1490770128
0.336914062500, 1.040527343750, -0.811767578125, -40.210937500000, -56.070312500000, -37.289062500000, 1490770128
0.336914062500, 1.040527343750, -0.811767578125, -40.210937500000, -56.070312500000, -37.289062500000, 1490770128
0.336914062500, 1.040527343750, -0.811767578125, -40.210937500000, -56.070312500000, -37.289062500000, 1490770128
0.221191406250, 0.817626953125, -0.716552734375, -21.140625000000, -96.437500000000, -51.484375000000, 1490770128
0.221191406250, 0.817626953125, -0.716552734375, -21.140625000000, -96.437500000000, -51.484375000000, 1490770128
0.221191406250, 0.817626953125, -0.716552734375, -21.140625000000, -96.437500000000, -51.484375000000, 1490770128
0.150634765625, 0.733886718750, -0.238525390625, -21.585937500000, -66.953125000000, -39.023437500000, 1490770128
0.150634765625, 0.733886718750, -0.238525390625, -21.585937500000, -66.953125000000, -39.023437500000, 1490770128
0.150634765625, 0.733886718750, -0.238525390625, -21.585937500000, -66.953125000000, -39.023437500000, 1490770128
0.291992187500, 0.846679687500, -0.167236328125, 22.148437500000, 21.835937500000, -58.359375000000, 1490770128
0.291992187500, 0.846679687500, -0.167236328125, 22.148437500000, 21.835937500000, -58.359375000000, 1490770128
0.291992187500, 0.846679687500, -0.167236328125, 22.148437500000, 21.835937500000, -58.359375000000, 1490770128
0.291992187500, 0.846679687500, -0.167236328125, 22.148437500000, 21.835937500000, -58.359375000000, 1490770128
0.780029296875, 0.761230468750, -0.367187500000, 48.656250000000, -203.000000000000, -184.218750000000, 1490770128
0.780029296875, 0.761230468750, -0.367187500000, 48.656250000000, -203.000000000000, -184.218750000000, 1490770128
0.780029296875, 0.761230468750, -0.367187500000, 48.656250000000, -203.000000000000, -184.218750000000, 1490770128
0.315185546875, 0.926025390625, -0.627685546875, 67.546875000000, -256.000000000000, -113.468750000000, 1490770128
0.315185546875, 0.926025390625, -0.627685546875, 67.546875000000, -256.000000000000, -113.468750000000, 1490770128
0.315185546875, 0.926025390625, -0.627685546875, 67.546875000000, -256.000000000000, -113.468750000000, 1490770128
0.315185546875, 0.926025390625, -0.627685546875, 67.546875000000, -256.000000000000, -113.468750000000, 1490770128
-0.359375000000, 0.656005859375, -0.481689453125, 29.984375000000, -256.000000000000, -121.242187500000, 1490770128
-0.359375000000, 0.656005859375, -0.481689453125, 29.984375000000, -256.000000000000, -121.242187500000, 1490770128
-0.359375000000, 0.656005859375, -0.481689453125, 29.984375000000, -256.000000000000, -121.242187500000, 1490770128
-0.359375000000, 0.656005859375, -0.481689453125, 29.984375000000, -256.000000000000, -121.242187500000, 1490770128
0.033203125000, 0.649169921875, -0.673339843750, 29.359375000000, 22.468750000000, -39.000000000000, 1490770128
0.033203125000, 0.649169921875, -0.673339843750, 29.359375000000, 22.468750000000, -39.000000000000, 1490770128
0.033203125000, 0.649169921875, -0.673339843750, 29.359375000000, 22.468750000000, -39.000000000000, 1490770128
0.033203125000, 0.649169921875, -0.673339843750, 29.359375000000, 22.468750000000, -39.000000000000, 1490770129
0.297363281250, 0.683349609375, -0.459228515625, -10.890625000000, -124.843750000000, -101.796875000000, 1490770129
0.297363281250, 0.683349609375, -0.459228515625, -10.890625000000, -124.843750000000, -101.796875000000, 1490770129
0.297363281250, 0.683349609375, -0.459228515625, -10.890625000000, -124.843750000000, -101.796875000000, 1490770129
0.297363281250, 0.683349609375, -0.459228515625, -10.890625000000, -124.843750000000, -101.796875000000, 1490770129
0.244628906250, 0.857421875000, -0.298583984375, 34.898437500000, -198.156250000000, -103.187500000000, 1490770129
0.244628906250, 0.857421875000, -0.298583984375, 34.898437500000, -198.156250000000, -103.187500000000, 1490770129
0.244628906250, 0.857421875000, -0.298583984375, 34.898437500000, -198.156250000000, -103.187500000000, 1490770129
0.497558593750, 0.983398437500, -0.524414062500, 1.601562500000, 49.906250000000, -70.796875000000, 1490770129
0.497558593750, 0.983398437500, -0.524414062500, 1.601562500000, 49.906250000000, -70.796875000000, 1490770129
0.497558593750, 0.983398437500, -0.524414062500, 1.601562500000, 49.906250000000, -70.796875000000, 1490770129
0.497558593750, 0.983398437500, -0.524414062500, 1.601562500000, 49.906250000000, -70.796875000000, 1490770129
0.468505859375, 1.104736328125, -0.313232421875, 15.429687500000, -21.507812500000, -114.765625000000, 1490770129
0.468505859375, 1.104736328125, -0.313232421875, 15.429687500000, -21.507812500000, -114.765625000000, 1490770129
0.468505859375, 1.104736328125, -0.313232421875, 15.429687500000, -21.507812500000, -114.765625000000, 1490770129
0.262207031250, 1.047851562500, -0.300781250000, 74.718750000000, -218.031250000000, -114.640625000000, 1490770129
0.262207031250, 1.047851562500, -0.300781250000, 74.718750000000, -218.031250000000, -114.640625000000, 1490770129
0.262207031250, 1.047851562500, -0.300781250000, 74.718750000000, -218.031250000000, -114.640625000000, 1490770129
0.034179687500, 0.927246093750, -0.102050781250, 32.812500000000, -234.453125000000, -105.718750000000, 1490770129
0.034179687500, 0.927246093750, -0.102050781250, 32.812500000000, -234.453125000000, -105.718750000000, 1490770129
0.034179687500, 0.927246093750, -0.102050781250, 32.812500000000, -234.453125000000, -105.718750000000, 1490770129
0.322998046875, 1.027587890625, -0.204345703125, 94.343750000000, -62.054687500000, -94.710937500000, 1490770129
0.322998046875, 1.027587890625, -0.204345703125, 94.343750000000, -62.054687500000, -94.710937500000, 1490770129
0.322998046875, 1.027587890625, -0.204345703125, 94.343750000000, -62.054687500000, -94.710937500000, 1490770129
0.322998046875, 1.027587890625, -0.204345703125, 94.343750000000, -62.054687500000, -94.710937500000, 1490770129
0.378906250000, 1.140380859375, -0.607177734375, 84.820312500000, -145.304687500000, -96.867187500000, 1490770129
0.378906250000, 1.140380859375, -0.607177734375, 84.820312500000, -145.304687500000, -96.867187500000, 1490770129
0.378906250000, 1.140380859375, -0.607177734375, 84.820312500000, -145.304687500000, -96.867187500000, 1490770129
0.463623046875, 1.004394531250, -0.751220703125, -7.718750000000, -104.390625000000, -80.328125000000, 1490770129
0.463623046875, 1.004394531250, -0.751220703125, -7.718750000000, -104.390625000000, -80.328125000000, 1490770129
0.463623046875, 1.004394531250, -0.751220703125, -7.718750000000, -104.390625000000, -80.328125000000, 1490770129
0.483886718750, 0.730468750000, -0.383300781250, -22.031250000000, -136.937500000000, -87.976562500000, 1490770129
0.483886718750, 0.730468750000, -0.383300781250, -22.031250000000, -136.937500000000, -87.976562500000, 1490770129
0.483886718750, 0.730468750000, -0.383300781250, -22.031250000000, -136.937500000000, -87.976562500000, 1490770129
0.562500000000, 0.889160156250, -0.181884765625, -5.703125000000, -134.054687500000, -77.406250000000, 1490770129
0.562500000000, 0.889160156250, -0.181884765625, -5.703125000000, -134.054687500000, -77.406250000000, 1490770129
0.562500000000, 0.889160156250, -0.181884765625, -5.703125000000, -134.054687500000, -77.406250000000, 1490770129
0.562500000000, 0.889160156250, -0.181884765625, -5.703125000000, -134.054687500000, -77.406250000000, 1490770129
0.692382812500, 0.669433593750, -0.252929687500, 38.117187500000, -172.843750000000, -97.835937500000, 1490770129
0.692382812500, 0.669433593750, -0.252929687500, 38.117187500000, -172.843750000000, -97.835937500000, 1490770129
0.692382812500, 0.669433593750, -0.252929687500, 38.117187500000, -172.843750000000, -97.835937500000, 1490770129
0.303466796875, 0.612792968750, -0.321044921875, -9.539062500000, -246.484375000000, -107.257812500000, 1490770129
0.303466796875, 0.612792968750, -0.321044921875, -9.539062500000, -246.484375000000, -107.257812500000, 1490770129
0.303466796875, 0.612792968750, -0.321044921875, -9.539062500000, -246.484375000000, -107.257812500000, 1490770129
0.042236328125, 0.877685546875, -0.183837890625, 3.804687500000, -209.093750000000, -119.976562500000, 1490770129
0.042236328125, 0.877685546875, -0.183837890625, 3.804687500000, -209.093750000000, -119.976562500000, 1490770129
0.042236328125, 0.877685546875, -0.183837890625, 3.804687500000, -209.093750000000, -119.976562500000, 1490770129
-0.187255859375, 0.813232421875, -0.671630859375, 71.242187500000, -128.492187500000, -86.890625000000, 1490770129
-0.187255859375, 0.813232421875, -0.671630859375, 71.242187500000, -128.492187500000, -86.890625000000, 1490770129
-0.187255859375, 0.813232421875, -0.671630859375, 71.242187500000, -128.492187500000, -86.890625000000, 1490770129
-0.388671875000, 0.844238281250, -1.149902343750, 56.460937500000, -126.023437500000, -62.601562500000, 1490770129
-0.001953125000, 0.953613281250, -1.214599609375, -25.421875000000, -65.718750000000, -48.101562500000, 1490770129
-0.001953125000, 0.953613281250, -1.214599609375, -25.421875000000, -65.718750000000, -48.101562500000, 1490770129
-0.001953125000, 0.953613281250, -1.214599609375, -25.421875000000, -65.718750000000, -48.101562500000, 1490770129
-0.056396484375, 1.070800781250, -0.501708984375, -48.890625000000, -52.328125000000, -18.867187500000, 1490770129
-0.056396484375, 1.070800781250, -0.501708984375, -48.890625000000, -52.328125000000, -18.867187500000, 1490770129
-0.056396484375, 1.070800781250, -0.501708984375, -48.890625000000, -52.328125000000, -18.867187500000, 1490770129
0.368408203125, 0.922119140625, -0.885253906250, 8.078125000000, 36.125000000000, 11.718750000000, 1490770129
0.368408203125, 0.922119140625, -0.885253906250, 8.078125000000, 36.125000000000, 11.718750000000, 1490770129
0.368408203125, 0.922119140625, -0.885253906250, 8.078125000000, 36.125000000000, 11.718750000000, 1490770129
0.210937500000, 0.932861328125, -0.234130859375, -21.890625000000, 75.359375000000, 10.921875000000, 1490770129
0.210937500000, 0.932861328125, -0.234130859375, -21.890625000000, 75.359375000000, 10.921875000000, 1490770129
0.210937500000, 0.932861328125, -0.234130859375, -21.890625000000, 75.359375000000, 10.921875000000, 1490770129
0.210937500000, 0.932861328125, -0.234130859375, -21.890625000000, 75.359375000000, 10.921875000000, 1490770129
-0.002197265625, 0.948974609375, -0.385253906250, 23.750000000000, 63.171875000000, 10.601562500000, 1490770129
-0.002197265625, 0.948974609375, -0.385253906250, 23.750000000000, 63.171875000000, 10.601562500000, 1490770129
-0.002197265625, 0.948974609375, -0.385253906250, 23.750000000000, 63.171875000000, 10.601562500000, 1490770129
0.271972656250, 0.938964843750, -0.402832031250, 3.484375000000, -73.312500000000, -43.203125000000, 1490770130
0.271972656250, 0.938964843750, -0.402832031250, 3.484375000000, -73.312500000000, -43.203125000000, 1490770130
0.271972656250, 0.938964843750, -0.402832031250, 3.484375000000, -73.312500000000, -43.203125000000, 1490770130
0.334960937500, 0.856445312500, -0.397949218750, 18.382812500000, -227.195312500000, -62.945312500000, 1490770130
0.292724609375, 0.787109375000, -0.412109375000, 37.304687500000, -256.000000000000, -67.953125000000, 1490770130
0.292724609375, 0.787109375000, -0.412109375000, 37.304687500000, -256.000000000000, -67.953125000000, 1490770130
0.229492187500, 0.679199218750, -0.544677734375, -24.937500000000, 48.828125000000, 14.281250000000, 1490770130
0.229492187500, 0.679199218750, -0.544677734375, -24.937500000000, 48.828125000000, 14.281250000000, 1490770130
0.229492187500, 0.679199218750, -0.544677734375, -24.937500000000, 48.828125000000, 14.281250000000, 1490770130
0.229492187500, 0.679199218750, -0.544677734375, -24.937500000000, 48.828125000000, 14.281250000000, 1490770130
0.173095703125, 0.821289062500, -0.388427734375, -23.898437500000, -46.148437500000, -32.015625000000, 1490770130
0.173095703125, 0.821289062500, -0.388427734375, -23.898437500000, -46.148437500000, -32.015625000000, 1490770130
0.173095703125, 0.821289062500, -0.388427734375, -23.898437500000, -46.148437500000, -32.015625000000, 1490770130
-0.104003906250, 0.807617187500, -0.574218750000, -32.656250000000, -124.367187500000, -39.078125000000, 1490770130
-0.104003906250, 0.807617187500, -0.574218750000, -32.656250000000, -124.367187500000, -39.078125000000, 1490770130
-0.104003906250, 0.807617187500, -0.574218750000, -32.656250000000, -124.367187500000, -39.078125000000, 1490770130
-0.508544921875, 0.828857421875, -0.751220703125, -31.695312500000, -159.812500000000, -18.656250000000, 1490770130
-0.508544921875, 0.828857421875, -0.751220703125, -31.695312500000, -159.812500000000, -18.656250000000, 1490770130
-0.508544921875, 0.828857421875, -0.751220703125, -31.695312500000, -159.812500000000, -18.656250000000, 1490770130
-0.107421875000, 0.686035156250, -0.771240234375, -35.101562500000, 57.593750000000, 48.914062500000, 1490770130
-0.107421875000, 0.686035156250, -0.771240234375, -35.101562500000, 57.593750000000, 48.914062500000, 1490770130
-0.107421875000, 0.686035156250, -0.771240234375, -35.101562500000, 57.593750000000, 48.914062500000, 1490770130
-0.107421875000, 0.686035156250, -0.771240234375, -35.101562500000, 57.593750000000, 48.914062500000, 1490770130
0.111328125000, 1.146972656250, -0.697998046875, -46.554687500000, 89.625000000000, 28.718750000000, 1490770130
0.111328125000, 1.146972656250, -0.697998046875, -46.554687500000, 89.625000000000, 28.718750000000, 1490770130
0.111328125000, 1.146972656250, -0.697998046875, -46.554687500000, 89.625000000000, 28.718750000000, 1490770130
0.311035156250, 0.794921875000, -0.834716796875, 12.835937500000, 94.554687500000, -22.742187500000, 1490770130
0.311035156250, 0.794921875000, -0.834716796875, 12.835937500000, 94.554687500000, -22.742187500000, 1490770130
0.311035156250, 0.794921875000, -0.834716796875, 12.835937500000, 94.554687500000, -22.742187500000, 1490770130
0.248046875000, 0.795898437500, -0.330078125000, 0.710937500000, 72.523437500000, -18.273437500000, 1490770130
0.248046875000, 0.795898437500, -0.330078125000, 0.710937500000, 72.523437500000, -18.273437500000, 1490770130
0.248046875000, 0.795898437500, -0.330078125000, 0.710937500000, 72.523437500000, -18.273437500000, 1490770130
-0.030761718750, 0.603027343750, -0.906494140625, -36.968750000000, -119.507812500000, -51.085937500000, 1490770130
-0.030761718750, 0.603027343750, -0.906494140625, -36.968750000000, -119.507812500000, -51.085937500000, 1490770130
-0.030761718750, 0.603027343750, -0.906494140625, -36.968750000000, -119.507812500000, -51.085937500000, 1490770130
-0.030761718750, 0.603027343750, -0.906494140625, -36.968750000000, -119.507812500000, -51.085937500000, 1490770130
-0.465576171875, 0.832763671875, -0.311767578125, -46.742187500000, 22.546875000000, 20.742187500000, 1490770130
-0.465576171875, 0.832763671875, -0.311767578125, -46.742187500000, 22.546875000000, 20.742187500000, 1490770130
-0.465576171875, 0.832763671875, -0.311767578125, -46.742187500000, 22.546875000000, 20.742187500000, 1490770130
0.002929687500, 0.727783203125, -0.304931640625, 30.671875000000, 119.960937500000, 70.226562500000, 1490770130
0.002929687500, 0.727783203125, -0.304931640625, 30.671875000000, 119.960937500000, 70.226562500000, 1490770130
0.002929687500, 0.727783203125, -0.304931640625, 30.671875000000, 119.960937500000, 70.226562500000, 1490770130
0.324218750000, 0.790527343750, -0.529052734375, 4.070312500000, 67.117187500000, 48.843750000000, 1490770130
0.324218750000, 0.790527343750, -0.529052734375, 4.070312500000, 67.117187500000, 48.843750000000, 1490770130
0.324218750000, 0.790527343750, -0.529052734375, 4.070312500000, 67.117187500000, 48.843750000000, 1490770130
0.415039062500, 0.876953125000, -0.692138671875, 12.585937500000, 78.773437500000, 27.171875000000, 1490770130
0.415039062500, 0.876953125000, -0.692138671875, 12.585937500000, 78.773437500000, 27.171875000000, 1490770130
0.415039062500, 0.876953125000, -0.692138671875, 12.585937500000, 78.773437500000, 27.171875000000, 1490770130
0.415039062500, 0.876953125000, -0.692138671875, 12.585937500000, 78.773437500000, 27.171875000000, 1490770130
0.450439453125, 0.850585937500, -0.552978515625, -15.046875000000, -13.132812500000, -8.390625000000, 1490770130
0.450439453125, 0.850585937500, -0.552978515625, -15.046875000000, -13.132812500000, -8.390625000000, 1490770130
0.450439453125, 0.850585937500, -0.552978515625, -15.046875000000, -13.132812500000, -8.390625000000, 1490770130
0.324707031250, 0.825683593750, -0.482666015625, -12.718750000000, -18.101562500000, -21.578125000000, 1490770130
0.324707031250, 0.825683593750, -0.482666015625, -12.718750000000, -18.101562500000, -21.578125000000, 1490770130
0.324707031250, 0.825683593750, -0.482666015625, -12.718750000000, -18.101562500000, -21.578125000000, 1490770130
0.208496093750, 0.741455078125, -0.468994140625, -8.132812500000, -42.359375000000, -29.679687500000, 1490770130
0.208496093750, 0.741455078125, -0.468994140625, -8.132812500000, -42.359375000000, -29.679687500000, 1490770130
-0.057373046875, 0.739990234375, -0.660644531250, -11.289062500000, -29.195312500000, -22.578125000000, 1490770130
-0.057373046875, 0.739990234375, -0.660644531250, -11.289062500000, -29.195312500000, -22.578125000000, 1490770130
-0.057373046875, 0.739990234375, -0.660644531250, -11.289062500000, -29.195312500000, -22.578125000000, 1490770130
-0.057373046875, 0.739990234375, -0.660644531250, -11.289062500000, -29.195312500000, -22.578125000000, 1490770130
0.086669921875, 0.844238281250, -0.598388671875, -2.718750000000, 9.156250000000, -4.578125000000, 1490770130
0.086669921875, 0.844238281250, -0.598388671875, -2.718750000000, 9.156250000000, -4.578125000000, 1490770130
0.086669921875, 0.844238281250, -0.598388671875, -2.718750000000, 9.156250000000, -4.578125000000, 1490770130
0.086669921875, 0.844238281250, -0.598388671875, -2.718750000000, 9.156250000000, -4.578125000000, 1490770130
0.076904296875, 0.829833984375, -0.698486328125, 5.406250000000, 11.578125000000, -0.375000000000, 1490770130
0.076904296875, 0.829833984375, -0.698486328125, 5.406250000000, 11.578125000000, -0.375000000000, 1490770130
0.076904296875, 0.829833984375, -0.698486328125, 5.406250000000, 11.578125000000, -0.375000000000, 1490770130
