ACC_X,ACC_Y,ACC_Z,G_X,G_Y,G_Z,Unix Time
-0.059814453125, 0.027099609375, -0.965820312500, -7.382812500000, -0.617187500000, -4.773437500000, 1490769857
-0.059814453125, 0.027099609375, -0.965820312500, -7.382812500000, -0.617187500000, -4.773437500000, 1490769857
-0.059814453125, 0.027099609375, -0.965820312500, -7.382812500000, -0.617187500000, -4.773437500000, 1490769857
-0.261474609375, -0.011718750000, -1.018798828125, 2.921875000000, 3.585937500000, -1.921875000000, 1490769857
-0.261474609375, -0.011718750000, -1.018798828125, 2.921875000000, 3.585937500000, -1.921875000000, 1490769857
-0.261474609375, -0.011718750000, -1.018798828125, 2.921875000000, 3.585937500000, -1.921875000000, 1490769857
-0.113281250000, -0.100830078125, -0.907958984375, 1.453125000000, 8.156250000000, 0.625000000000, 1490769857
-0.113281250000, -0.100830078125, -0.907958984375, 1.453125000000, 8.156250000000, 0.625000000000, 1490769857
-0.113281250000, -0.100830078125, -0.907958984375, 1.453125000000, 8.156250000000, 0.625000000000, 1490769857
-0.197998046875, -0.151367187500, -1.070312500000, -5.546875000000, -2.351562500000, 0.953125000000, 1490769857
-0.197998046875, -0.151367187500, -1.070312500000, -5.546875000000, -2.351562500000, 0.953125000000, 1490769857
-0.197998046875, -0.151367187500, -1.070312500000, -5.546875000000, -2.351562500000, 0.953125000000, 1490769857
-0.197998046875, -0.151367187500, -1.070312500000, -5.546875000000, -2.351562500000, 0.953125000000, 1490769857
-0.033203125000, -0.046630859375, -0.851562500000, -1.046875000000, 6.195312500000, -10.476562500000, 1490769857
-0.033203125000, -0.046630859375, -0.851562500000, -1.046875000000, 6.195312500000, -10.476562500000, 1490769857
-0.033203125000, -0.046630859375, -0.851562500000, -1.046875000000, 6.195312500000, -10.476562500000, 1490769857
-0.034667968750, -0.093017578125, -0.987548828125, -6.460937500000, -4.687500000000, -5.773437500000, 1490769857
-0.034667968750, -0.093017578125, -0.987548828125, -6.460937500000, -4.687500000000, -5.773437500000, 1490769857
-0.034667968750, -0.093017578125, -0.987548828125, -6.460937500000, -4.687500000000, -5.773437500000, 1490769857
-0.116943359375, -0.069091796875, -1.009033203125, -12.046875000000, 7.421875000000, -3.828125000000, 1490769857
-0.116943359375, -0.069091796875, -1.009033203125, -12.046875000000, 7.421875000000, -3.828125000000, 1490769857
-0.116943359375, -0.069091796875, -1.009033203125, -12.046875000000, 7.421875000000, -3.828125000000, 1490769857
-0.116943359375, -0.069091796875, -1.009033203125, -12.046875000000, 7.421875000000, -3.828125000000, 1490769857
-0.108642578125, -0.145996093750, -1.043212890625, 4.781250000000, 3.109375000000, -8.343750000000, 1490769857
-0.108642578125, -0.145996093750, -1.043212890625, 4.781250000000, 3.109375000000, -8.343750000000, 1490769857
-0.108642578125, -0.145996093750, -1.043212890625, 4.781250000000, 3.109375000000, -8.343750000000, 1490769857
-0.039794921875, -0.079833984375, -0.960205078125, -2.640625000000, -2.875000000000, -3.804687500000, 1490769857
-0.039794921875, -0.079833984375, -0.960205078125, -2.640625000000, -2.875000000000, -3.804687500000, 1490769857
-0.039794921875, -0.079833984375, -0.960205078125, -2.640625000000, -2.875000000000, -3.804687500000, 1490769857
-0.061767578125, -0.073730468750, -1.068603515625, -7.250000000000, 0.046875000000, -3.453125000000, 1490769857
-0.061767578125, -0.073730468750, -1.068603515625, -7.250000000000, 0.046875000000, -3.453125000000, 1490769857
-0.061767578125, -0.073730468750, -1.068603515625, -7.250000000000, 0.046875000000, -3.453125000000, 1490769857
-0.194335937500, -0.041259765625, -1.027587890625, 2.335937500000, -0.187500000000, -6.789062500000, 1490769857
-0.194335937500, -0.041259765625, -1.027587890625, 2.335937500000, -0.187500000000, -6.789062500000, 1490769857
-0.194335937500, -0.041259765625, -1.027587890625, 2.335937500000, -0.187500000000, -6.789062500000, 1490769857
-0.194335937500, -0.041259765625, -1.027587890625, 2.335937500000, -0.187500000000, -6.789062500000, 1490769857
-0.039306640625, -0.092529296875, -0.930908203125, 3.945312500000, 5.289062500000, -6.773437500000, 1490769857
-0.039306640625, -0.092529296875, -0.930908203125, 3.945312500000, 5.289062500000, -6.773437500000, 1490769857
-0.039306640625, -0.092529296875, -0.930908203125, 3.945312500000, 5.289062500000, -6.773437500000, 1490769857
-0.194580078125, -0.077636718750, -0.949707031250, -0.492187500000, 12.984375000000, 0.820312500000, 1490769857
-0.194580078125, -0.077636718750, -0.949707031250, -0.492187500000, 12.984375000000, 0.820312500000, 1490769857
-0.194580078125, -0.077636718750, -0.949707031250, -0.492187500000, 12.984375000000, 0.820312500000, 1490769857
-0.061523437500, -0.082031250000, -1.051025390625, -24.218750000000, 44.562500000000, 20.843750000000, 1490769857
-0.061523437500, -0.082031250000, -1.051025390625, -24.218750000000, 44.562500000000, 20.843750000000, 1490769857
-0.061523437500, -0.082031250000, -1.051025390625, -24.218750000000, 44.562500000000, 20.843750000000, 1490769857
-0.085693359375, 0.034667968750, -0.915039062500, -56.460937500000, -39.882812500000, 24.031250000000, 1490769858
-0.085693359375, 0.034667968750, -0.915039062500, -56.460937500000, -39.882812500000, 24.031250000000, 1490769858
-0.085693359375, 0.034667968750, -0.915039062500, -56.460937500000, -39.882812500000, 24.031250000000, 1490769858
-0.085693359375, 0.034667968750, -0.915039062500, -56.460937500000, -39.882812500000, 24.031250000000, 1490769858
-0.262695312500, 0.030273437500, -1.126708984375, -19.687500000000, -32.789062500000, 35.015625000000, 1490769858
-0.262695312500, 0.030273437500, -1.126708984375, -19.687500000000, -32.789062500000, 35.015625000000, 1490769858
-0.339599609375, -0.064208984375, -0.997070312500, -4.218750000000, 1.132812500000, 51.281250000000, 1490769858
-0.460937500000, -0.102050781250, -1.125976562500, -14.476562500000, 22.046875000000, 60.281250000000, 1490769858
-0.460937500000, -0.102050781250, -1.125976562500, -14.476562500000, 22.046875000000, 60.281250000000, 1490769858
-0.460937500000, -0.102050781250, -1.125976562500, -14.476562500000, 22.046875000000, 60.281250000000, 1490769858
-0.465576171875, -0.338867187500, -0.941894531250, -38.367187500000, 43.375000000000, 84.218750000000, 1490769858
-0.465576171875, -0.338867187500, -0.941894531250, -38.367187500000, 43.375000000000, 84.218750000000, 1490769858
-0.430664062500, -0.244384765625, -0.870117187500, -20.085937500000, 100.429687500000, 71.171875000000, 1490769858
-0.467773437500, -0.262451171875, -0.744628906250, -20.085937500000, 100.429687500000, 71.171875000000, 1490769858
-0.467773437500, -0.262451171875, -0.744628906250, -20.085937500000, 100.429687500000, 71.171875000000, 1490769858
-0.278076171875, -0.175781250000, -0.807617187500, -29.304687500000, 167.726562500000, 60.039062500000, 1490769858
-0.278076171875, -0.175781250000, -0.807617187500, -29.304687500000, 167.726562500000, 60.039062500000, 1490769858
-0.278076171875, -0.175781250000, -0.807617187500, -29.304687500000, 167.726562500000, 60.039062500000, 1490769858
-0.278076171875, -0.175781250000, -0.807617187500, -29.304687500000, 167.726562500000, 60.039062500000, 1490769858
-0.053955078125, -0.197021484375, -0.775390625000, -31.937500000000, 220.953125000000, 59.773437500000, 1490769858
-0.053955078125, -0.197021484375, -0.775390625000, -31.937500000000, 220.953125000000, 59.773437500000, 1490769858
-0.053955078125, -0.197021484375, -0.775390625000, -31.937500000000, 220.953125000000, 59.773437500000, 1490769858
-0.053955078125, -0.197021484375, -0.775390625000, -31.937500000000, 220.953125000000, 59.773437500000, 1490769858
0.194824218750, -0.265625000000, -0.748779296875, -8.046875000000, 157.968750000000, 87.976562500000, 1490769858
0.194824218750, -0.265625000000, -0.748779296875, -8.046875000000, 157.968750000000, 87.976562500000, 1490769858
0.729736328125, -0.036132812500, -0.900146484375, -30.226562500000, 23.000000000000, 84.984375000000, 1490769858
0.729736328125, -0.036132812500, -0.900146484375, -30.226562500000, 23.000000000000, 84.984375000000, 1490769858
0.729736328125, -0.036132812500, -0.900146484375, -30.226562500000, 23.000000000000, 84.984375000000, 1490769858
0.729736328125, -0.036132812500, -0.900146484375, -30.226562500000, 23.000000000000, 84.984375000000, 1490769858
0.729736328125, -0.036132812500, -0.900146484375, -30.226562500000, 23.000000000000, 84.984375000000, 1490769858
0.573242187500, 0.111572265625, -0.927734375000, 6.304687500000, 20.546875000000, 70.968750000000, 1490769858
0.573242187500, 0.111572265625, -0.927734375000, 6.304687500000, 20.546875000000, 70.968750000000, 1490769858
0.573242187500, 0.111572265625, -0.927734375000, 6.304687500000, 20.546875000000, 70.968750000000, 1490769858
-0.065429687500, 0.102539062500, -0.468261718750, -9.718750000000, 34.421875000000, 111.914062500000, 1490769858
-0.065429687500, 0.102539062500, -0.468261718750, -9.718750000000, 34.421875000000, 111.914062500000, 1490769858
-0.065429687500, 0.102539062500, -0.468261718750, -9.718750000000, 34.421875000000, 111.914062500000, 1490769858
0.438476562500, 0.263427734375, -0.565185546875, -19.710937500000, 34.570312500000, 151.007812500000, 1490769858
0.438476562500, 0.263427734375, -0.565185546875, -19.710937500000, 34.570312500000, 151.007812500000, 1490769858
0.438476562500, 0.263427734375, -0.565185546875, -19.710937500000, 34.570312500000, 151.007812500000, 1490769858
0.449462890625, 0.266601562500, -0.375976562500, -188.296875000000, 253.992187500000, 86.226562500000, 1490769858
0.449462890625, 0.266601562500, -0.375976562500, -188.296875000000, 253.992187500000, 86.226562500000, 1490769858
0.449462890625, 0.266601562500, -0.375976562500, -188.296875000000, 253.992187500000, 86.226562500000, 1490769858
0.449462890625, 0.266601562500, -0.375976562500, -188.296875000000, 253.992187500000, 86.226562500000, 1490769858
3.618896484375, 0.125488281250, 1.996093750000, -99.578125000000, 253.992187500000, 24.898437500000, 1490769858
0.441406250000, 0.130859375000, -0.226318359375, 253.992187500000, 253.992187500000, -193.609375000000, 1490769858
0.441406250000, 0.130859375000, -0.226318359375, 253.992187500000, 253.992187500000, -193.609375000000, 1490769858
0.441406250000, 0.130859375000, -0.226318359375, 253.992187500000, 253.992187500000, -193.609375000000, 1490769858
0.441406250000, 0.130859375000, -0.226318359375, 253.992187500000, 253.992187500000, -193.609375000000, 1490769858
1.405517578125, -2.501464843750, 2.585205078125, 71.476562500000, 253.992187500000, -256.000000000000, 1490769858
1.405517578125, -2.501464843750, 2.585205078125, 71.476562500000, 253.992187500000, -256.000000000000, 1490769858
1.405517578125, -2.501464843750, 2.585205078125, 71.476562500000, 253.992187500000, -256.000000000000, 1490769858
1.405517578125, -2.501464843750, 2.585205078125, 71.476562500000, 253.992187500000, -256.000000000000, 1490769858
0.501953125000, -0.084960937500, 0.885742187500, -156.406250000000, 0.179687500000, 64.687500000000, 1490769858
0.501953125000, -0.084960937500, 0.885742187500, -156.406250000000, 0.179687500000, 64.687500000000, 1490769858
0.501953125000, -0.084960937500, 0.885742187500, -156.406250000000, 0.179687500000, 64.687500000000, 1490769858
0.501953125000, -0.084960937500, 0.885742187500, -156.406250000000, 0.179687500000, 64.687500000000, 1490769858
0.332763671875, -0.235839843750, 1.035156250000, -185.484375000000, 102.257812500000, 91.375000000000, 1490769858
0.332763671875, -0.235839843750, 1.035156250000, -185.484375000000, 102.257812500000, 91.375000000000, 1490769858
0.332763671875, -0.235839843750, 1.035156250000, -185.484375000000, 102.257812500000, 91.375000000000, 1490769858
0.483886718750, -0.149169921875, 1.400390625000, -159.656250000000, 76.515625000000, 80.593750000000, 1490769858
0.180908203125, -0.077636718750, 1.070068359375, -22.640625000000, 21.234375000000, 10.335937500000, 1490769859
0.260742187500, -0.037841796875, 0.945556640625, 27.125000000000, -8.351562500000, 0.570312500000, 1490769859
0.260742187500, -0.037841796875, 0.945556640625, 27.125000000000, -8.351562500000, 0.570312500000, 1490769859
0.260742187500, -0.037841796875, 0.945556640625, 27.125000000000, -8.351562500000, 0.570312500000, 1490769859
0.289794921875, -0.043212890625, 0.874023437500, 9.867187500000, -9.914062500000, -5.507812500000, 1490769859
0.289794921875, -0.043212890625, 0.874023437500, 9.867187500000, -9.914062500000, -5.507812500000, 1490769859
0.289794921875, -0.043212890625, 0.874023437500, 9.867187500000, -9.914062500000, -5.507812500000, 1490769859
0.289794921875, -0.043212890625, 0.874023437500, 9.867187500000, -9.914062500000, -5.507812500000, 1490769859
0.289794921875, -0.043212890625, 0.874023437500, 9.867187500000, -9.914062500000, -5.507812500000, 1490769859
0.289794921875, -0.043212890625, 0.874023437500, 9.867187500000, -9.914062500000, -5.507812500000, 1490769859
0.289794921875, -0.043212890625, 0.874023437500, 9.867187500000, -9.914062500000, -5.507812500000, 1490769859
0.403808593750, -0.271484375000, 0.950683593750, 0.671875000000, -6.968750000000, -10.890625000000, 1490769859
0.403808593750, -0.271484375000, 0.950683593750, 0.671875000000, -6.968750000000, -10.890625000000, 1490769859
0.403808593750, -0.271484375000, 0.950683593750, 0.671875000000, -6.968750000000, -10.890625000000, 1490769859
0.403808593750, -0.271484375000, 0.950683593750, 0.671875000000, -6.968750000000, -10.890625000000, 1490769859
0.420654296875, -0.274658203125, 0.908203125000, -21.101562500000, -1.812500000000, -3.585937500000, 1490769859
0.420654296875, -0.274658203125, 0.908203125000, -21.101562500000, -1.812500000000, -3.585937500000, 1490769859
0.420654296875, -0.274658203125, 0.908203125000, -21.101562500000, -1.812500000000, -3.585937500000, 1490769859
0.402587890625, -0.161376953125, 0.850585937500, -26.937500000000, -6.835937500000, -0.820312500000, 1490769859
0.406494140625, -0.212646484375, 0.911621093750, -18.359375000000, -8.828125000000, 1.335937500000, 1490769859
0.406494140625, -0.212646484375, 0.911621093750, -18.359375000000, -8.828125000000, 1.335937500000, 1490769859
0.387695312500, -0.148437500000, 0.912353515625, -12.679687500000, -10.765625000000, 4.093750000000, 1490769859
0.376220703125, -0.073974609375, 0.949951171875, -12.812500000000, 15.687500000000, -6.367187500000, 1490769859
0.376220703125, -0.073974609375, 0.949951171875, -12.812500000000, 15.687500000000, -6.367187500000, 1490769859
0.376220703125, -0.073974609375, 0.949951171875, -12.812500000000, 15.687500000000, -6.367187500000, 1490769859
0.439697265625, -0.152343750000, 0.963378906250, -15.601562500000, 22.750000000000, -6.546875000000, 1490769859
0.443603515625, -0.117187500000, 0.857177734375, -17.570312500000, 20.625000000000, 0.664062500000, 1490769859
0.443603515625, -0.117187500000, 0.857177734375, -17.570312500000, 20.625000000000, 0.664062500000, 1490769859
0.443603515625, -0.117187500000, 0.857177734375, -17.570312500000, 20.625000000000, 0.664062500000, 1490769859
0.443603515625, -0.117187500000, 0.857177734375, -17.570312500000, 20.625000000000, 0.664062500000, 1490769859
0.443603515625, -0.117187500000, 0.857177734375, -17.570312500000, 20.625000000000, 0.664062500000, 1490769859
0.443603515625, -0.117187500000, 0.857177734375, -17.570312500000, 20.625000000000, 0.664062500000, 1490769859
0.443603515625, -0.117187500000, 0.857177734375, -17.570312500000, 20.625000000000, 0.664062500000, 1490769859
0.443603515625, -0.117187500000, 0.857177734375, -17.570312500000, 20.625000000000, 0.664062500000, 1490769859
0.443603515625, -0.117187500000, 0.857177734375, -17.570312500000, 20.625000000000, 0.664062500000, 1490769859
0.343261718750, -0.065429687500, 0.917236328125, -21.062500000000, 4.664062500000, 6.890625000000, 1490769859
0.367431640625, -0.079345703125, 0.957763671875, -1.312500000000, -16.250000000000, -15.562500000000, 1490769859
0.368164062500, 0.006103515625, 0.871826171875, 8.851562500000, -17.257812500000, -15.007812500000, 1490769859
0.368164062500, 0.006103515625, 0.871826171875, 8.851562500000, -17.257812500000, -15.007812500000, 1490769859
0.368164062500, 0.006103515625, 0.871826171875, 8.851562500000, -17.257812500000, -15.007812500000, 1490769859
0.368164062500, 0.006103515625, 0.871826171875, 8.851562500000, -17.257812500000, -15.007812500000, 1490769859
0.368164062500, 0.006103515625, 0.871826171875, 8.851562500000, -17.257812500000, -15.007812500000, 1490769859
0.368164062500, 0.006103515625, 0.871826171875, 8.851562500000, -17.257812500000, -15.007812500000, 1490769859
0.368164062500, 0.006103515625, 0.871826171875, 8.851562500000, -17.257812500000, -15.007812500000, 1490769859
0.290771484375, -0.026855468750, 0.845214843750, -0.656250000000, -18.992187500000, -7.617187500000, 1490769859
0.290771484375, -0.026855468750, 0.845214843750, -0.656250000000, -18.992187500000, -7.617187500000, 1490769859
0.290771484375, -0.026855468750, 0.845214843750, -0.656250000000, -18.992187500000, -7.617187500000, 1490769859
0.290771484375, -0.026855468750, 0.845214843750, -0.656250000000, -18.992187500000, -7.617187500000, 1490769859
0.290771484375, -0.026855468750, 0.845214843750, -0.656250000000, -18.992187500000, -7.617187500000, 1490769859
0.290771484375, -0.026855468750, 0.845214843750, -0.656250000000, -18.992187500000, -7.617187500000, 1490769859
0.290771484375, -0.026855468750, 0.845214843750, -0.656250000000, -18.992187500000, -7.617187500000, 1490769859
0.290771484375, -0.026855468750, 0.845214843750, -0.656250000000, -18.992187500000, -7.617187500000, 1490769859
0.439453125000, 0.012939453125, 0.952148437500, 2.789062500000, -11.210937500000, -2.140625000000, 1490769859
0.439453125000, 0.012939453125, 0.952148437500, 2.789062500000, -11.210937500000, -2.140625000000, 1490769859
0.439453125000, 0.012939453125, 0.952148437500, 2.789062500000, -11.210937500000, -2.140625000000, 1490769859
0.439453125000, 0.012939453125, 0.952148437500, 2.789062500000, -11.210937500000, -2.140625000000, 1490769859
0.439453125000, 0.012939453125, 0.952148437500, 2.789062500000, -11.210937500000, -2.140625000000, 1490769859
0.439453125000, 0.012939453125, 0.952148437500, 2.789062500000, -11.210937500000, -2.140625000000, 1490769859
0.415771484375, -0.079345703125, 0.849365234375, -3.531250000000, -4.796875000000, -6.179687500000, 1490769859
0.415771484375, -0.079345703125, 0.849365234375, -3.531250000000, -4.796875000000, -6.179687500000, 1490769859
0.415771484375, -0.079345703125, 0.849365234375, -3.531250000000, -4.796875000000, -6.179687500000, 1490769859
0.415771484375, -0.079345703125, 0.849365234375, -3.531250000000, -4.796875000000, -6.179687500000, 1490769860
0.415771484375, -0.079345703125, 0.849365234375, -7.640625000000, -1.484375000000, -3.359375000000, 1490769860
0.437744140625, -0.099853515625, 0.943359375000, -10.210937500000, 4.281250000000, -1.484375000000, 1490769860
0.437744140625, -0.099853515625, 0.943359375000, -10.210937500000, 4.281250000000, -1.484375000000, 1490769860
0.437744140625, -0.099853515625, 0.943359375000, -10.210937500000, 4.281250000000, -1.484375000000, 1490769860
0.437744140625, -0.099853515625, 0.943359375000, -10.210937500000, 4.281250000000, -1.484375000000, 1490769860
0.437744140625, -0.099853515625, 0.943359375000, -10.210937500000, 4.281250000000, -1.484375000000, 1490769860
0.367187500000, -0.131103515625, 0.956298828125, -9.960937500000, 2.187500000000, 0.265625000000, 1490769860
0.367187500000, -0.131103515625, 0.956298828125, -9.960937500000, 2.187500000000, 0.265625000000, 1490769860
0.411132812500, -0.034423828125, 1.009033203125, -6.617187500000, -2.593750000000, -1.531250000000, 1490769860
0.468261718750, -0.068115234375, 0.881103515625, -6.617187500000, -2.593750000000, -1.531250000000, 1490769860
0.468261718750, -0.068115234375, 0.881103515625, -6.617187500000, -2.593750000000, -1.531250000000, 1490769860
0.468261718750, -0.068115234375, 0.881103515625, -6.617187500000, -2.593750000000, -1.531250000000, 1490769860
0.345458984375, 0.002197265625, 0.857910156250, -1.757812500000, -0.890625000000, -4.734375000000, 1490769860
0.455322265625, -0.056152343750, 0.847167968750, -1.757812500000, -0.890625000000, -4.734375000000, 1490769860
0.455322265625, -0.056152343750, 0.847167968750, -1.757812500000, -0.890625000000, -4.734375000000, 1490769860
0.455322265625, -0.056152343750, 0.847167968750, -1.757812500000, -0.890625000000, -4.734375000000, 1490769860
0.455322265625, -0.056152343750, 0.847167968750, -1.757812500000, -0.890625000000, -4.734375000000, 1490769860
0.455322265625, -0.056152343750, 0.847167968750, -1.757812500000, -0.890625000000, -4.734375000000, 1490769860
0.455322265625, -0.056152343750, 0.847167968750, -1.757812500000, -0.890625000000, -4.734375000000, 1490769860
0.455322265625, -0.056152343750, 0.847167968750, -1.757812500000, -0.890625000000, -4.734375000000, 1490769860
0.455322265625, -0.056152343750, 0.847167968750, -1.757812500000, -0.890625000000, -4.734375000000, 1490769860
0.455322265625, -0.056152343750, 0.847167968750, -1.757812500000, -0.890625000000, -4.734375000000, 1490769860
0.510253906250, -0.073242187500, 0.953857421875, -2.585937500000, 0.859375000000, -6.500000000000, 1490769860
0.456298828125, -0.051025390625, 0.914794921875, -8.640625000000, 5.375000000000, -2.953125000000, 1490769860
0.443603515625, -0.032470703125, 0.940185546875, -11.226562500000, -2.742187500000, 0.601562500000, 1490769860
0.443603515625, -0.032470703125, 0.940185546875, -11.226562500000, -2.742187500000, 0.601562500000, 1490769860
0.443603515625, -0.032470703125, 0.940185546875, -11.226562500000, -2.742187500000, 0.601562500000, 1490769860
0.365966796875, -0.065185546875, 1.007324218750, -12.929687500000, 0.664062500000, 2.742187500000, 1490769860
0.365966796875, -0.065185546875, 1.007324218750, -12.929687500000, 0.664062500000, 2.742187500000, 1490769860
0.365966796875, -0.065185546875, 1.007324218750, -12.929687500000, 0.664062500000, 2.742187500000, 1490769860
0.365966796875, -0.065185546875, 1.007324218750, -12.929687500000, 0.664062500000, 2.742187500000, 1490769860
0.365966796875, -0.065185546875, 1.007324218750, -12.929687500000, 0.664062500000, 2.742187500000, 1490769860
0.365966796875, -0.065185546875, 1.007324218750, -12.929687500000, 0.664062500000, 2.742187500000, 1490769860
0.365966796875, -0.065185546875, 1.007324218750, -12.929687500000, 0.664062500000, 2.742187500000, 1490769860
0.365966796875, -0.065185546875, 1.007324218750, -12.929687500000, 0.664062500000, 2.742187500000, 1490769860
0.365966796875, -0.065185546875, 1.007324218750, -12.929687500000, 0.664062500000, 2.742187500000, 1490769860
0.365966796875, -0.065185546875, 1.007324218750, -12.929687500000, 0.664062500000, 2.742187500000, 1490769860
0.365966796875, -0.065185546875, 1.007324218750, -12.929687500000, 0.664062500000, 2.742187500000, 1490769860
0.414062500000, 0.026367187500, 0.872314453125, -1.101562500000, -2.445312500000, -1.445312500000, 1490769860
0.414062500000, 0.026367187500, 0.872314453125, -1.101562500000, -2.445312500000, -1.445312500000, 1490769860
0.414062500000, 0.026367187500, 0.872314453125, -1.101562500000, -2.445312500000, -1.445312500000, 1490769860
0.414062500000, 0.026367187500, 0.872314453125, -1.101562500000, -2.445312500000, -1.445312500000, 1490769860
0.414062500000, 0.026367187500, 0.872314453125, -1.101562500000, -2.445312500000, -1.445312500000, 1490769860
0.414062500000, 0.026367187500, 0.872314453125, -1.101562500000, -2.445312500000, -1.445312500000, 1490769860
0.285400390625, -0.086669921875, 1.001953125000, -2.171875000000, -0.765625000000, -1.781250000000, 1490769860
0.360595703125, 0.021240234375, 0.942871093750, -2.554687500000, -0.281250000000, -2.945312500000, 1490769860
0.360595703125, 0.021240234375, 0.942871093750, -2.554687500000, -0.281250000000, -2.945312500000, 1490769860
0.346923828125, -0.009521484375, 0.923828125000, -4.382812500000, -0.226562500000, 0.960937500000, 1490769860
0.346923828125, -0.009521484375, 0.923828125000, -4.382812500000, -0.226562500000, 0.960937500000, 1490769860
0.455810546875, -0.129882812500, 0.898193359375, -3.070312500000, 0.375000000000, 0.406250000000, 1490769860
0.455810546875, -0.129882812500, 0.898193359375, -3.070312500000, 0.375000000000, 0.406250000000, 1490769860
0.455810546875, -0.129882812500, 0.898193359375, -3.070312500000, 0.375000000000, 0.406250000000, 1490769860
0.455810546875, -0.129882812500, 0.898193359375, -3.070312500000, 0.375000000000, 0.406250000000, 1490769860
0.455810546875, -0.129882812500, 0.898193359375, -3.070312500000, 0.375000000000, 0.406250000000, 1490769860
0.455810546875, -0.129882812500, 0.898193359375, -3.070312500000, 0.375000000000, 0.406250000000, 1490769860
0.455810546875, -0.129882812500, 0.898193359375, -3.070312500000, 0.375000000000, 0.406250000000, 1490769860
0.509033203125, -0.046386718750, 0.951904296875, -2.609375000000, 0.359375000000, -3.031250000000, 1490769860
0.509033203125, -0.046386718750, 0.951904296875, -2.609375000000, 0.359375000000, -3.031250000000, 1490769860
0.509033203125, -0.046386718750, 0.951904296875, -2.609375000000, 0.359375000000, -3.031250000000, 1490769860
0.509033203125, -0.046386718750, 0.951904296875, -2.609375000000, 0.359375000000, -3.031250000000, 1490769860
0.509033203125, -0.046386718750, 0.951904296875, -2.609375000000, 0.359375000000, -3.031250000000, 1490769860
0.509033203125, -0.046386718750, 0.951904296875, -2.609375000000, 0.359375000000, -3.031250000000, 1490769860
0.509033203125, -0.046386718750, 0.951904296875, -2.609375000000, 0.359375000000, -3.031250000000, 1490769860
0.509033203125, -0.046386718750, 0.951904296875, -2.609375000000, 0.359375000000, -3.031250000000, 1490769860
0.393310546875, -0.091552734375, 0.917480468750, -2.578125000000, 0.304687500000, -6.593750000000, 1490769861
0.393310546875, -0.091552734375, 0.917480468750, -2.578125000000, 0.304687500000, -6.593750000000, 1490769861
0.450683593750, 0.031005859375, 0.918945312500, -8.906250000000, 0.468750000000, -4.273437500000, 1490769861
0.366210937500, 0.047119140625, 0.858642578125, -9.734375000000, -2.601562500000, 0.835937500000, 1490769861
0.366210937500, 0.047119140625, 0.858642578125, -9.734375000000, -2.601562500000, 0.835937500000, 1490769861
0.366210937500, 0.047119140625, 0.858642578125, -9.734375000000, -2.601562500000, 0.835937500000, 1490769861
0.399902343750, -0.086425781250, 0.862060546875, -8.296875000000, -0.078125000000, -3.453125000000, 1490769861
0.399902343750, -0.086425781250, 0.862060546875, -8.296875000000, -0.078125000000, -3.453125000000, 1490769861
0.399902343750, -0.086425781250, 0.862060546875, -8.296875000000, -0.078125000000, -3.453125000000, 1490769861
0.399902343750, -0.086425781250, 0.862060546875, -8.296875000000, -0.078125000000, -3.453125000000, 1490769861
0.399902343750, -0.086425781250, 0.862060546875, -8.296875000000, -0.078125000000, -3.453125000000, 1490769861
0.445312500000, -0.066650390625, 0.943359375000, -5.085937500000, 1.273437500000, -2.210937500000, 1490769861
0.382324218750, -0.022216796875, 0.959228515625, -3.570312500000, 2.718750000000, -6.656250000000, 1490769861
0.382324218750, -0.022216796875, 0.959228515625, -3.570312500000, 2.718750000000, -6.656250000000, 1490769861
0.382324218750, -0.022216796875, 0.959228515625, -3.570312500000, 2.718750000000, -6.656250000000, 1490769861
0.382324218750, -0.022216796875, 0.959228515625, -3.570312500000, 2.718750000000, -6.656250000000, 1490769861
0.382324218750, -0.022216796875, 0.959228515625, -3.570312500000, 2.718750000000, -6.656250000000, 1490769861
0.382324218750, -0.022216796875, 0.959228515625, -3.570312500000, 2.718750000000, -6.656250000000, 1490769861
