ACC_X,ACC_Y,ACC_Z,G_X,G_Y,G_Z,Unix Time
-0.175292968750, -1.012695312500, 0.379882812500, 23.320312500000, -21.250000000000, -71.796875000000, 1490769360
-0.175292968750, -1.012695312500, 0.379882812500, 23.320312500000, -21.250000000000, -71.796875000000, 1490769360
0.131835937500, -0.658935546875, 0.568115234375, 57.859375000000, 24.195312500000, -58.000000000000, 1490769360
-0.491210937500, -1.859863281250, 1.669677734375, 32.250000000000, -95.203125000000, -77.820312500000, 1490769360
-0.491210937500, -1.859863281250, 1.669677734375, 32.250000000000, -95.203125000000, -77.820312500000, 1490769360
-0.491210937500, -1.859863281250, 1.669677734375, 32.250000000000, -95.203125000000, -77.820312500000, 1490769360
-0.491210937500, -1.859863281250, 1.669677734375, 32.250000000000, -95.203125000000, -77.820312500000, 1490769360
0.428710937500, -0.721435546875, 0.483398437500, 16.765625000000, -42.148437500000, -36.601562500000, 1490769360
0.428710937500, -0.721435546875, 0.483398437500, 16.765625000000, -42.148437500000, -36.601562500000, 1490769360
0.428710937500, -0.721435546875, 0.483398437500, 16.765625000000, -42.148437500000, -36.601562500000, 1490769360
0.428710937500, -0.721435546875, 0.483398437500, 16.765625000000, -42.148437500000, -36.601562500000, 1490769360
0.428710937500, -0.721435546875, 0.483398437500, 16.765625000000, -42.148437500000, -36.601562500000, 1490769360
0.428710937500, -0.721435546875, 0.483398437500, 16.765625000000, -42.148437500000, -36.601562500000, 1490769360
0.285400390625, -0.402343750000, 0.174804687500, -51.867187500000, -44.757812500000, -1.539062500000, 1490769360
0.285400390625, -0.402343750000, 0.174804687500, -51.867187500000, -44.757812500000, -1.539062500000, 1490769360
0.285400390625, -0.402343750000, 0.174804687500, -51.867187500000, -44.757812500000, -1.539062500000, 1490769360
0.285400390625, -0.402343750000, 0.174804687500, -51.867187500000, -44.757812500000, -1.539062500000, 1490769360
0.285400390625, -0.402343750000, 0.174804687500, -51.867187500000, -44.757812500000, -1.539062500000, 1490769361
0.468261718750, -0.481933593750, 0.207763671875, -13.296875000000, 76.570312500000, 25.570312500000, 1490769361
0.468261718750, -0.481933593750, 0.207763671875, -13.296875000000, 76.570312500000, 25.570312500000, 1490769361
0.468261718750, -0.481933593750, 0.207763671875, -13.296875000000, 76.570312500000, 25.570312500000, 1490769361
0.468261718750, -0.481933593750, 0.207763671875, -13.296875000000, 76.570312500000, 25.570312500000, 1490769361
0.468261718750, -0.481933593750, 0.207763671875, -13.296875000000, 76.570312500000, 25.570312500000, 1490769361
0.642822265625, -0.943115234375, -0.020507812500, 41.007812500000, 113.445312500000, 78.125000000000, 1490769361
0.642822265625, -0.943115234375, -0.020507812500, 41.007812500000, 113.445312500000, 78.125000000000, 1490769361
0.642822265625, -0.943115234375, -0.020507812500, 41.007812500000, 113.445312500000, 78.125000000000, 1490769361
0.930664062500, -1.747070312500, 0.798583984375, 90.023437500000, 253.992187500000, 11.507812500000, 1490769361
0.017822265625, -1.192138671875, 0.632812500000, 77.992187500000, 161.320312500000, 34.304687500000, 1490769361
0.017822265625, -1.192138671875, 0.632812500000, 77.992187500000, 161.320312500000, 34.304687500000, 1490769361
0.300292968750, -0.947753906250, 0.607666015625, 20.539062500000, -24.476562500000, 4.468750000000, 1490769361
0.300292968750, -0.947753906250, 0.607666015625, 20.539062500000, -24.476562500000, 4.468750000000, 1490769361
0.300292968750, -0.947753906250, 0.607666015625, 20.539062500000, -24.476562500000, 4.468750000000, 1490769361
0.300292968750, -0.947753906250, 0.607666015625, 20.539062500000, -24.476562500000, 4.468750000000, 1490769361
0.300292968750, -0.947753906250, 0.607666015625, 20.539062500000, -24.476562500000, 4.468750000000, 1490769361
0.101074218750, -0.794677734375, 0.612792968750, -23.617187500000, -43.781250000000, 11.093750000000, 1490769361
0.216064453125, -0.716064453125, 0.287109375000, -58.570312500000, -18.492187500000, 18.914062500000, 1490769361
0.216064453125, -0.716064453125, 0.287109375000, -58.570312500000, -18.492187500000, 18.914062500000, 1490769361
0.216064453125, -0.716064453125, 0.287109375000, -58.570312500000, -18.492187500000, 18.914062500000, 1490769361
0.216064453125, -0.716064453125, 0.287109375000, -58.570312500000, -18.492187500000, 18.914062500000, 1490769361
0.140869140625, -0.484863281250, 0.283691406250, -32.101562500000, 66.000000000000, -8.437500000000, 1490769361
0.140869140625, -0.484863281250, 0.283691406250, -32.101562500000, 66.000000000000, -8.437500000000, 1490769361
0.140869140625, -0.484863281250, 0.283691406250, -32.101562500000, 66.000000000000, -8.437500000000, 1490769361
0.050292968750, -0.299560546875, 0.141601562500, -57.320312500000, -56.687500000000, -13.789062500000, 1490769361
0.050292968750, -0.299560546875, 0.141601562500, -57.320312500000, -56.687500000000, -13.789062500000, 1490769361
0.050292968750, -0.299560546875, 0.141601562500, -57.320312500000, -56.687500000000, -13.789062500000, 1490769361
0.050292968750, -0.299560546875, 0.141601562500, -57.320312500000, -56.687500000000, -13.789062500000, 1490769361
-0.105224609375, -0.740234375000, 0.165527343750, -101.257812500000, -135.359375000000, -33.296875000000, 1490769361
-0.105224609375, -0.740234375000, 0.165527343750, -101.257812500000, -135.359375000000, -33.296875000000, 1490769361
-0.105224609375, -0.740234375000, 0.165527343750, -101.257812500000, -135.359375000000, -33.296875000000, 1490769361
0.096191406250, -1.281250000000, 0.170654296875, -7.429687500000, -26.218750000000, -66.687500000000, 1490769361
0.096191406250, -1.281250000000, 0.170654296875, -7.429687500000, -26.218750000000, -66.687500000000, 1490769361
0.096191406250, -1.281250000000, 0.170654296875, -7.429687500000, -26.218750000000, -66.687500000000, 1490769361
-0.160156250000, -1.904296875000, 1.897705078125, 43.312500000000, -98.000000000000, -91.976562500000, 1490769361
-0.160156250000, -1.904296875000, 1.897705078125, 43.312500000000, -98.000000000000, -91.976562500000, 1490769361
-0.160156250000, -1.904296875000, 1.897705078125, 43.312500000000, -98.000000000000, -91.976562500000, 1490769361
0.185302734375, -0.784912109375, 0.554931640625, -26.515625000000, -53.867187500000, -36.468750000000, 1490769361
0.185302734375, -0.784912109375, 0.554931640625, -26.515625000000, -53.867187500000, -36.468750000000, 1490769361
0.185302734375, -0.784912109375, 0.554931640625, -26.515625000000, -53.867187500000, -36.468750000000, 1490769361
0.185302734375, -0.784912109375, 0.554931640625, -26.515625000000, -53.867187500000, -36.468750000000, 1490769361
0.202392578125, -0.499023437500, 0.173828125000, -3.117187500000, -37.039062500000, -32.765625000000, 1490769361
0.202392578125, -0.499023437500, 0.173828125000, -3.117187500000, -37.039062500000, -32.765625000000, 1490769361
0.202392578125, -0.499023437500, 0.173828125000, -3.117187500000, -37.039062500000, -32.765625000000, 1490769361
0.285400390625, -0.530517578125, 0.149414062500, -82.695312500000, -46.632812500000, -21.570312500000, 1490769361
0.285400390625, -0.530517578125, 0.149414062500, -82.695312500000, -46.632812500000, -21.570312500000, 1490769361
0.285400390625, -0.530517578125, 0.149414062500, -82.695312500000, -46.632812500000, -21.570312500000, 1490769361
0.515869140625, -0.639892578125, 0.167724609375, -1.468750000000, 23.007812500000, -52.757812500000, 1490769361
0.515869140625, -0.639892578125, 0.167724609375, -1.468750000000, 23.007812500000, -52.757812500000, 1490769361
0.515869140625, -0.639892578125, 0.167724609375, -1.468750000000, 23.007812500000, -52.757812500000, 1490769361
0.203125000000, -0.630371093750, 0.459960937500, 3.937500000000, 202.156250000000, 47.429687500000, 1490769361
0.203125000000, -0.630371093750, 0.459960937500, 3.937500000000, 202.156250000000, 47.429687500000, 1490769361
0.203125000000, -0.630371093750, 0.459960937500, 3.937500000000, 202.156250000000, 47.429687500000, 1490769361
0.203125000000, -0.630371093750, 0.459960937500, 3.937500000000, 202.156250000000, 47.429687500000, 1490769361
0.073486328125, -0.980468750000, 0.356689453125, -29.476562500000, -34.398437500000, 70.640625000000, 1490769361
0.073486328125, -0.980468750000, 0.356689453125, -29.476562500000, -34.398437500000, 70.640625000000, 1490769361
0.073486328125, -0.980468750000, 0.356689453125, -29.476562500000, -34.398437500000, 70.640625000000, 1490769361
0.223144531250, -1.166015625000, 1.054199218750, 110.960937500000, 246.562500000000, 59.742187500000, 1490769361
0.223144531250, -1.166015625000, 1.054199218750, 110.960937500000, 246.562500000000, 59.742187500000, 1490769361
0.223144531250, -1.166015625000, 1.054199218750, 110.960937500000, 246.562500000000, 59.742187500000, 1490769361
0.059814453125, -0.701660156250, 0.475830078125, 15.804687500000, -82.117187500000, 3.210937500000, 1490769361
0.059814453125, -0.701660156250, 0.475830078125, 15.804687500000, -82.117187500000, 3.210937500000, 1490769361
0.059814453125, -0.701660156250, 0.475830078125, 15.804687500000, -82.117187500000, 3.210937500000, 1490769361
0.059814453125, -0.701660156250, 0.475830078125, 15.804687500000, -82.117187500000, 3.210937500000, 1490769361
0.107666015625, -0.443359375000, 0.242431640625, 14.601562500000, -68.039062500000, -21.289062500000, 1490769361
0.107666015625, -0.443359375000, 0.242431640625, 14.601562500000, -68.039062500000, -21.289062500000, 1490769362
0.107666015625, -0.443359375000, 0.242431640625, 14.601562500000, -68.039062500000, -21.289062500000, 1490769362
-0.019775390625, -0.401123046875, 0.157714843750, 25.453125000000, 0.554687500000, -17.335937500000, 1490769362
-0.019775390625, -0.401123046875, 0.157714843750, 25.453125000000, 0.554687500000, -17.335937500000, 1490769362
-0.019775390625, -0.401123046875, 0.157714843750, 25.453125000000, 0.554687500000, -17.335937500000, 1490769362
-0.019775390625, -0.401123046875, 0.157714843750, 25.453125000000, 0.554687500000, -17.335937500000, 1490769362
-0.019775390625, -0.401123046875, 0.157714843750, 25.453125000000, 0.554687500000, -17.335937500000, 1490769362
-0.019775390625, -0.401123046875, 0.157714843750, 25.453125000000, 0.554687500000, -17.335937500000, 1490769362
-0.087158203125, -0.644531250000, 0.259033203125, -22.117187500000, -7.890625000000, -13.015625000000, 1490769362
-0.087158203125, -0.644531250000, 0.259033203125, -22.117187500000, -7.890625000000, -13.015625000000, 1490769362
-0.087158203125, -0.644531250000, 0.259033203125, -22.117187500000, -7.890625000000, -13.015625000000, 1490769362
-0.351318359375, -1.723144531250, 0.388671875000, -80.031250000000, -174.148437500000, -56.679687500000, 1490769362
-0.351318359375, -1.723144531250, 0.388671875000, -80.031250000000, -174.148437500000, -56.679687500000, 1490769362
-0.522460937500, -1.253417968750, 0.632080078125, 22.390625000000, -163.453125000000, -64.289062500000, 1490769362
-0.085693359375, -1.300048828125, 0.795166015625, 82.296875000000, -109.617187500000, -101.828125000000, 1490769362
-0.085693359375, -1.300048828125, 0.795166015625, 82.296875000000, -109.617187500000, -101.828125000000, 1490769362
-0.085693359375, -1.300048828125, 0.795166015625, 82.296875000000, -109.617187500000, -101.828125000000, 1490769362
-0.085693359375, -1.300048828125, 0.795166015625, 82.296875000000, -109.617187500000, -101.828125000000, 1490769362
-0.085693359375, -1.300048828125, 0.795166015625, 82.296875000000, -109.617187500000, -101.828125000000, 1490769362
0.211425781250, -0.757080078125, 0.502197265625, -29.460937500000, -163.546875000000, -57.406250000000, 1490769362
0.211425781250, -0.757080078125, 0.502197265625, -29.460937500000, -163.546875000000, -57.406250000000, 1490769362
0.211425781250, -0.757080078125, 0.502197265625, -29.460937500000, -163.546875000000, -57.406250000000, 1490769362
0.211425781250, -0.757080078125, 0.502197265625, -29.460937500000, -163.546875000000, -57.406250000000, 1490769362
0.211425781250, -0.757080078125, 0.502197265625, -29.460937500000, -163.546875000000, -57.406250000000, 1490769362
0.103027343750, -0.736572265625, 0.350341796875, -21.710937500000, -155.070312500000, -111.757812500000, 1490769362
0.103027343750, -0.736572265625, 0.350341796875, -21.710937500000, -155.070312500000, -111.757812500000, 1490769362
0.103027343750, -0.736572265625, 0.350341796875, -21.710937500000, -155.070312500000, -111.757812500000, 1490769362
0.103027343750, -0.736572265625, 0.350341796875, -21.710937500000, -155.070312500000, -111.757812500000, 1490769362
0.241210937500, -0.550292968750, 0.332275390625, -24.281250000000, -58.117187500000, -58.476562500000, 1490769362
0.241210937500, -0.550292968750, 0.332275390625, -24.281250000000, -58.117187500000, -58.476562500000, 1490769362
0.241210937500, -0.550292968750, 0.332275390625, -24.281250000000, -58.117187500000, -58.476562500000, 1490769362
0.184326171875, -0.657470703125, 0.182617187500, -20.757812500000, -59.343750000000, -20.625000000000, 1490769362
0.184326171875, -0.657470703125, 0.182617187500, -20.757812500000, -59.343750000000, -20.625000000000, 1490769362
0.184326171875, -0.657470703125, 0.182617187500, -20.757812500000, -59.343750000000, -20.625000000000, 1490769362
0.225830078125, -1.081054687500, 0.183593750000, -48.859375000000, -31.570312500000, -9.382812500000, 1490769362
0.225830078125, -1.081054687500, 0.183593750000, -48.859375000000, -31.570312500000, -9.382812500000, 1490769362
0.225830078125, -1.081054687500, 0.183593750000, -48.859375000000, -31.570312500000, -9.382812500000, 1490769362
0.243408203125, -1.204345703125, 0.533203125000, -4.382812500000, -19.703125000000, -4.695312500000, 1490769362
0.243408203125, -1.204345703125, 0.533203125000, -4.382812500000, -19.703125000000, -4.695312500000, 1490769362
0.243408203125, -1.204345703125, 0.533203125000, -4.382812500000, -19.703125000000, -4.695312500000, 1490769362
0.243408203125, -1.204345703125, 0.533203125000, -4.382812500000, -19.703125000000, -4.695312500000, 1490769362
0.042968750000, -1.343505859375, 0.741210937500, 16.273437500000, 43.351562500000, -27.640625000000, 1490769362
0.042968750000, -1.343505859375, 0.741210937500, 16.273437500000, 43.351562500000, -27.640625000000, 1490769362
0.042968750000, -1.343505859375, 0.741210937500, 16.273437500000, 43.351562500000, -27.640625000000, 1490769362
-0.206542968750, -1.199707031250, 0.632812500000, 52.539062500000, 45.539062500000, -53.976562500000, 1490769362
-0.206542968750, -1.199707031250, 0.632812500000, 52.539062500000, 45.539062500000, -53.976562500000, 1490769362
-0.206542968750, -1.199707031250, 0.632812500000, 52.539062500000, 45.539062500000, -53.976562500000, 1490769362
-0.086425781250, -0.947021484375, 0.416992187500, 31.093750000000, -92.382812500000, -30.062500000000, 1490769362
-0.086425781250, -0.947021484375, 0.416992187500, 31.093750000000, -92.382812500000, -30.062500000000, 1490769362
-0.086425781250, -0.947021484375, 0.416992187500, 31.093750000000, -92.382812500000, -30.062500000000, 1490769362
-0.137451171875, -0.697265625000, 0.228759765625, -24.109375000000, -158.796875000000, -30.945312500000, 1490769362
-0.137451171875, -0.697265625000, 0.228759765625, -24.109375000000, -158.796875000000, -30.945312500000, 1490769362
-0.137451171875, -0.697265625000, 0.228759765625, -24.109375000000, -158.796875000000, -30.945312500000, 1490769362
-0.137451171875, -0.697265625000, 0.228759765625, -24.109375000000, -158.796875000000, -30.945312500000, 1490769362
-0.023681640625, -0.637451171875, 0.175292968750, -24.390625000000, -141.054687500000, -39.593750000000, 1490769362
-0.023681640625, -0.637451171875, 0.175292968750, -24.390625000000, -141.054687500000, -39.593750000000, 1490769362
-0.023681640625, -0.637451171875, 0.175292968750, -24.390625000000, -141.054687500000, -39.593750000000, 1490769362
0.047851562500, -0.537109375000, 0.184570312500, -12.609375000000, -124.195312500000, -54.015625000000, 1490769362
0.047851562500, -0.537109375000, 0.184570312500, -12.609375000000, -124.195312500000, -54.015625000000, 1490769362
0.047851562500, -0.537109375000, 0.184570312500, -12.609375000000, -124.195312500000, -54.015625000000, 1490769362
0.157958984375, -0.642333984375, 0.270019531250, -52.703125000000, -158.484375000000, -39.109375000000, 1490769362
0.157958984375, -0.642333984375, 0.270019531250, -52.703125000000, -158.484375000000, -39.109375000000, 1490769362
0.157958984375, -0.642333984375, 0.270019531250, -52.703125000000, -158.484375000000, -39.109375000000, 1490769362
0.280517578125, -1.345214843750, 0.769042968750, -89.890625000000, -47.617187500000, -84.898437500000, 1490769362
0.280517578125, -1.345214843750, 0.769042968750, -89.890625000000, -47.617187500000, -84.898437500000, 1490769362
0.280517578125, -1.345214843750, 0.769042968750, -89.890625000000, -47.617187500000, -84.898437500000, 1490769362
0.280517578125, -1.345214843750, 0.769042968750, -89.890625000000, -47.617187500000, -84.898437500000, 1490769362
-0.862304687500, -1.391113281250, 0.359619140625, -5.023437500000, -227.234375000000, -46.585937500000, 1490769362
-0.862304687500, -1.391113281250, 0.359619140625, -5.023437500000, -227.234375000000, -46.585937500000, 1490769362
-0.862304687500, -1.391113281250, 0.359619140625, -5.023437500000, -227.234375000000, -46.585937500000, 1490769362
-0.188964843750, -0.981445312500, 0.395507812500, -6.742187500000, -256.625000000000, -140.132812500000, 1490769363
-0.188964843750, -0.981445312500, 0.395507812500, -6.742187500000, -256.625000000000, -140.132812500000, 1490769363
-0.188964843750, -0.981445312500, 0.395507812500, -6.742187500000, -256.625000000000, -140.132812500000, 1490769363
0.149414062500, -1.055419921875, 0.159179687500, -25.570312500000, -256.000000000000, -86.187500000000, 1490769363
0.149414062500, -1.055419921875, 0.159179687500, -25.570312500000, -256.000000000000, -86.187500000000, 1490769363
0.149414062500, -1.055419921875, 0.159179687500, -25.570312500000, -256.000000000000, -86.187500000000, 1490769363
0.098388671875, -0.974609375000, 0.089599609375, -79.734375000000, -195.523437500000, -95.343750000000, 1490769363
0.098388671875, -0.974609375000, 0.089599609375, -79.734375000000, -195.523437500000, -95.343750000000, 1490769363
0.098388671875, -0.974609375000, 0.089599609375, -79.734375000000, -195.523437500000, -95.343750000000, 1490769363
0.098388671875, -0.974609375000, 0.089599609375, -79.734375000000, -195.523437500000, -95.343750000000, 1490769363
0.318115234375, -0.849365234375, 0.253662109375, 36.109375000000, -126.976562500000, -108.101562500000, 1490769363
0.318115234375, -0.849365234375, 0.253662109375, 36.109375000000, -126.976562500000, -108.101562500000, 1490769363
0.318115234375, -0.849365234375, 0.253662109375, 36.109375000000, -126.976562500000, -108.101562500000, 1490769363
0.269287109375, -0.734863281250, 0.459960937500, 32.632812500000, 10.460937500000, -63.273437500000, 1490769363
0.269287109375, -0.734863281250, 0.459960937500, 32.632812500000, 10.460937500000, -63.273437500000, 1490769363
0.269287109375, -0.734863281250, 0.459960937500, 32.632812500000, 10.460937500000, -63.273437500000, 1490769363
-0.039794921875, -0.813720703125, 0.278076171875, -40.578125000000, -87.414062500000, -38.234375000000, 1490769363
-0.039794921875, -0.813720703125, 0.278076171875, -40.578125000000, -87.414062500000, -38.234375000000, 1490769363
-0.039794921875, -0.813720703125, 0.278076171875, -40.578125000000, -87.414062500000, -38.234375000000, 1490769363
0.221679687500, -0.967773437500, 0.272705078125, -53.687500000000, -44.078125000000, -9.906250000000, 1490769363
0.221679687500, -0.967773437500, 0.272705078125, -53.687500000000, -44.078125000000, -9.906250000000, 1490769363
0.221679687500, -0.967773437500, 0.272705078125, -53.687500000000, -44.078125000000, -9.906250000000, 1490769363
0.221679687500, -0.967773437500, 0.272705078125, -53.687500000000, -44.078125000000, -9.906250000000, 1490769363
0.112792968750, -0.888671875000, 0.476318359375, -12.507812500000, -83.726562500000, -15.039062500000, 1490769363
0.112792968750, -0.888671875000, 0.476318359375, -12.507812500000, -83.726562500000, -15.039062500000, 1490769363
0.112792968750, -0.888671875000, 0.476318359375, -12.507812500000, -83.726562500000, -15.039062500000, 1490769363
0.363037109375, -1.274658203125, 0.416259765625, 7.773437500000, -118.484375000000, 5.890625000000, 1490769363
0.363037109375, -1.274658203125, 0.416259765625, 7.773437500000, -118.484375000000, 5.890625000000, 1490769363
0.363037109375, -1.274658203125, 0.416259765625, 7.773437500000, -118.484375000000, 5.890625000000, 1490769363
0.322753906250, -1.038330078125, 0.709228515625, 14.695312500000, 16.281250000000, -0.648437500000, 1490769363
0.322753906250, -1.038330078125, 0.709228515625, 14.695312500000, 16.281250000000, -0.648437500000, 1490769363
0.322753906250, -1.038330078125, 0.709228515625, 14.695312500000, 16.281250000000, -0.648437500000, 1490769363
0.095458984375, -0.951904296875, 0.450927734375, -3.046875000000, -34.351562500000, -0.226562500000, 1490769363
0.095458984375, -0.951904296875, 0.450927734375, -3.046875000000, -34.351562500000, -0.226562500000, 1490769363
0.095458984375, -0.951904296875, 0.450927734375, -3.046875000000, -34.351562500000, -0.226562500000, 1490769363
0.095458984375, -0.951904296875, 0.450927734375, -3.046875000000, -34.351562500000, -0.226562500000, 1490769363
0.112304687500, -0.939453125000, 0.427001953125, -3.601562500000, -63.867187500000, 4.273437500000, 1490769363
0.112304687500, -0.939453125000, 0.427001953125, -3.601562500000, -63.867187500000, 4.273437500000, 1490769363
0.112304687500, -0.939453125000, 0.427001953125, -3.601562500000, -63.867187500000, 4.273437500000, 1490769363
0.054687500000, -0.653808593750, 0.327148437500, -21.687500000000, -59.867187500000, 16.304687500000, 1490769363
0.054687500000, -0.653808593750, 0.327148437500, -21.687500000000, -59.867187500000, 16.304687500000, 1490769363
0.054687500000, -0.653808593750, 0.327148437500, -21.687500000000, -59.867187500000, 16.304687500000, 1490769363
0.047119140625, -0.650878906250, 0.219970703125, -23.351562500000, -77.000000000000, -10.054687500000, 1490769363
0.047119140625, -0.650878906250, 0.219970703125, -23.351562500000, -77.000000000000, -10.054687500000, 1490769363
0.047119140625, -0.650878906250, 0.219970703125, -23.351562500000, -77.000000000000, -10.054687500000, 1490769363
0.109619140625, -0.949951171875, 0.254394531250, -52.859375000000, -77.195312500000, -36.453125000000, 1490769363
0.109619140625, -0.949951171875, 0.254394531250, -52.859375000000, -77.195312500000, -36.453125000000, 1490769363
0.109619140625, -0.949951171875, 0.254394531250, -52.859375000000, -77.195312500000, -36.453125000000, 1490769363
0.109619140625, -0.949951171875, 0.254394531250, -52.859375000000, -77.195312500000, -36.453125000000, 1490769363
-0.021728515625, -1.093505859375, 0.398681640625, -100.390625000000, -55.156250000000, -59.648437500000, 1490769363
-0.021728515625, -1.093505859375, 0.398681640625, -100.390625000000, -55.156250000000, -59.648437500000, 1490769363
-0.021728515625, -1.093505859375, 0.398681640625, -100.390625000000, -55.156250000000, -59.648437500000, 1490769363
0.028076171875, -1.570556640625, 0.768066406250, 10.578125000000, -79.429687500000, -49.742187500000, 1490769363
0.028076171875, -1.570556640625, 0.768066406250, 10.578125000000, -79.429687500000, -49.742187500000, 1490769363
0.028076171875, -1.570556640625, 0.768066406250, 10.578125000000, -79.429687500000, -49.742187500000, 1490769363
0.456298828125, -0.786621093750, 0.231445312500, -3.929687500000, -96.062500000000, -24.539062500000, 1490769363
0.456298828125, -0.786621093750, 0.231445312500, -3.929687500000, -96.062500000000, -24.539062500000, 1490769363
0.456298828125, -0.786621093750, 0.231445312500, -3.929687500000, -96.062500000000, -24.539062500000, 1490769363
0.301269531250, -0.587646484375, 0.207763671875, 11.062500000000, -58.796875000000, -30.125000000000, 1490769363
0.292724609375, -0.751220703125, 0.175292968750, 7.312500000000, -65.703125000000, -25.648437500000, 1490769363
0.292724609375, -0.751220703125, 0.175292968750, 7.312500000000, -65.703125000000, -25.648437500000, 1490769363
0.292724609375, -0.751220703125, 0.175292968750, 7.312500000000, -65.703125000000, -25.648437500000, 1490769363
0.292724609375, -0.751220703125, 0.175292968750, 7.312500000000, -65.703125000000, -25.648437500000, 1490769363
0.405517578125, -0.687744140625, 0.207519531250, -45.804687500000, -62.976562500000, -30.492187500000, 1490769363
0.405517578125, -0.687744140625, 0.207519531250, -45.804687500000, -62.976562500000, -30.492187500000, 1490769363
0.405517578125, -0.687744140625, 0.207519531250, -45.804687500000, -62.976562500000, -30.492187500000, 1490769364
0.405517578125, -0.687744140625, 0.207519531250, -45.804687500000, -62.976562500000, -30.492187500000, 1490769364
0.405517578125, -0.687744140625, 0.207519531250, -45.804687500000, -62.976562500000, -30.492187500000, 1490769364
0.299316406250, -0.752929687500, 0.056640625000, -39.812500000000, 11.054687500000, -2.679687500000, 1490769364
0.299316406250, -0.752929687500, 0.056640625000, -39.812500000000, 11.054687500000, -2.679687500000, 1490769364
0.299316406250, -0.752929687500, 0.056640625000, -39.812500000000, 11.054687500000, -2.679687500000, 1490769364
0.528808593750, -0.819580078125, 0.041503906250, -6.375000000000, 51.109375000000, 34.484375000000, 1490769364
0.528808593750, -0.819580078125, 0.041503906250, -6.375000000000, 51.109375000000, 34.484375000000, 1490769364
0.528808593750, -0.819580078125, 0.041503906250, -6.375000000000, 51.109375000000, 34.484375000000, 1490769364
0.528808593750, -0.819580078125, 0.041503906250, -6.375000000000, 51.109375000000, 34.484375000000, 1490769364
0.323486328125, -1.117187500000, 0.443603515625, -18.765625000000, -33.531250000000, -5.609375000000, 1490769364
0.323486328125, -1.117187500000, 0.443603515625, -18.765625000000, -33.531250000000, -5.609375000000, 1490769364
0.323486328125, -1.117187500000, 0.443603515625, -18.765625000000, -33.531250000000, -5.609375000000, 1490769364
0.873779296875, -1.322753906250, 0.746093750000, 86.109375000000, 130.046875000000, 59.085937500000, 1490769364
0.873779296875, -1.322753906250, 0.746093750000, 86.109375000000, 130.046875000000, 59.085937500000, 1490769364
0.873779296875, -1.322753906250, 0.746093750000, 86.109375000000, 130.046875000000, 59.085937500000, 1490769364
0.232177734375, -1.211181640625, 0.521728515625, 39.062500000000, 174.117187500000, 22.554687500000, 1490769364
0.232177734375, -1.211181640625, 0.521728515625, 39.062500000000, 174.117187500000, 22.554687500000, 1490769364
0.232177734375, -1.211181640625, 0.521728515625, 39.062500000000, 174.117187500000, 22.554687500000, 1490769364
0.270996093750, -0.900146484375, 0.522949218750, -17.539062500000, 79.687500000000, 36.218750000000, 1490769364
0.270996093750, -0.900146484375, 0.522949218750, -17.539062500000, 79.687500000000, 36.218750000000, 1490769364
0.270996093750, -0.900146484375, 0.522949218750, -17.539062500000, 79.687500000000, 36.218750000000, 1490769364
0.270996093750, -0.900146484375, 0.522949218750, -17.539062500000, 79.687500000000, 36.218750000000, 1490769364
