ACC_X,ACC_Y,ACC_Z,G_X,G_Y,G_Z,Unix Time
0.106445312500, 0.600097656250, -0.574218750000, -23.101562500000, -31.625000000000, -14.898437500000, 1490770015
0.106445312500, 0.600097656250, -0.574218750000, -23.101562500000, -31.625000000000, -14.898437500000, 1490770015
0.106445312500, 0.600097656250, -0.574218750000, -23.101562500000, -31.625000000000, -14.898437500000, 1490770015
-0.110107421875, 0.675537109375, -0.771728515625, -40.117187500000, -28.367187500000, -24.968750000000, 1490770015
-0.110107421875, 0.675537109375, -0.771728515625, -40.117187500000, -28.367187500000, -24.968750000000, 1490770015
-0.110107421875, 0.675537109375, -0.771728515625, -40.117187500000, -28.367187500000, -24.968750000000, 1490770015
-0.110107421875, 0.675537109375, -0.771728515625, -40.117187500000, -28.367187500000, -24.968750000000, 1490770015
-0.256591796875, 0.806884765625, -0.714599609375, -24.937500000000, 24.218750000000, 0.750000000000, 1490770015
-0.256591796875, 0.806884765625, -0.714599609375, -24.937500000000, 24.218750000000, 0.750000000000, 1490770015
-0.256591796875, 0.806884765625, -0.714599609375, -24.937500000000, 24.218750000000, 0.750000000000, 1490770015
-0.318359375000, 0.848388671875, -0.706542968750, -3.242187500000, 43.992187500000, 18.976562500000, 1490770015
-0.318359375000, 0.848388671875, -0.706542968750, -3.242187500000, 43.992187500000, 18.976562500000, 1490770015
-0.318359375000, 0.848388671875, -0.706542968750, -3.242187500000, 43.992187500000, 18.976562500000, 1490770015
-0.093017578125, 0.889648437500, -0.693115234375, 24.531250000000, 15.835937500000, 30.921875000000, 1490770015
-0.093017578125, 0.889648437500, -0.693115234375, 24.531250000000, 15.835937500000, 30.921875000000, 1490770015
0.074462890625, 0.685791015625, -0.733154296875, 4.859375000000, 11.968750000000, 15.648437500000, 1490770015
0.074462890625, 0.685791015625, -0.733154296875, 4.859375000000, 11.968750000000, 15.648437500000, 1490770015
0.074462890625, 0.685791015625, -0.733154296875, 4.859375000000, 11.968750000000, 15.648437500000, 1490770015
0.074462890625, 0.685791015625, -0.733154296875, 4.859375000000, 11.968750000000, 15.648437500000, 1490770015
0.074462890625, 0.685791015625, -0.733154296875, 4.859375000000, 11.968750000000, 15.648437500000, 1490770015
0.073486328125, 0.658691406250, -0.812988281250, -30.101562500000, -4.867187500000, 12.054687500000, 1490770015
0.073486328125, 0.658691406250, -0.812988281250, -30.101562500000, -4.867187500000, 12.054687500000, 1490770015
0.073486328125, 0.658691406250, -0.812988281250, -30.101562500000, -4.867187500000, 12.054687500000, 1490770015
0.020751953125, 0.665527343750, -0.651855468750, -25.140625000000, 1.640625000000, 5.812500000000, 1490770015
0.020751953125, 0.665527343750, -0.651855468750, -25.140625000000, 1.640625000000, 5.812500000000, 1490770015
0.020751953125, 0.665527343750, -0.651855468750, -25.140625000000, 1.640625000000, 5.812500000000, 1490770015
-0.100585937500, 0.613525390625, -0.592529296875, -18.484375000000, 14.773437500000, 0.296875000000, 1490770015
-0.100585937500, 0.613525390625, -0.592529296875, -18.484375000000, 14.773437500000, 0.296875000000, 1490770015
-0.100585937500, 0.613525390625, -0.592529296875, -18.484375000000, 14.773437500000, 0.296875000000, 1490770015
0.002929687500, 0.660644531250, -0.643554687500, 2.148437500000, 12.046875000000, 0.593750000000, 1490770015
0.002929687500, 0.660644531250, -0.643554687500, 2.148437500000, 12.046875000000, 0.593750000000, 1490770015
0.002929687500, 0.660644531250, -0.643554687500, 2.148437500000, 12.046875000000, 0.593750000000, 1490770015
0.002929687500, 0.660644531250, -0.643554687500, 2.148437500000, 12.046875000000, 0.593750000000, 1490770015
-0.054443359375, 0.712646484375, -0.729003906250, 3.929687500000, 10.796875000000, -1.757812500000, 1490770015
-0.054443359375, 0.712646484375, -0.729003906250, 3.929687500000, 10.796875000000, -1.757812500000, 1490770015
-0.054443359375, 0.712646484375, -0.729003906250, 3.929687500000, 10.796875000000, -1.757812500000, 1490770015
0.029296875000, 0.813964843750, -0.811767578125, 0.242187500000, 14.117187500000, 0.968750000000, 1490770015
0.029296875000, 0.813964843750, -0.811767578125, 0.242187500000, 14.117187500000, 0.968750000000, 1490770015
0.029296875000, 0.813964843750, -0.811767578125, 0.242187500000, 14.117187500000, 0.968750000000, 1490770015
0.011230468750, 0.741455078125, -0.750976562500, -5.265625000000, 10.039062500000, -1.476562500000, 1490770015
0.011230468750, 0.741455078125, -0.750976562500, -5.265625000000, 10.039062500000, -1.476562500000, 1490770015
0.011230468750, 0.741455078125, -0.750976562500, -5.265625000000, 10.039062500000, -1.476562500000, 1490770015
-0.075439453125, 0.779541015625, -0.607666015625, -3.234375000000, 3.601562500000, 0.476562500000, 1490770015
-0.075439453125, 0.779541015625, -0.607666015625, -3.234375000000, 3.601562500000, 0.476562500000, 1490770015
-0.075439453125, 0.779541015625, -0.607666015625, -3.234375000000, 3.601562500000, 0.476562500000, 1490770015
-0.075439453125, 0.779541015625, -0.607666015625, -3.234375000000, 3.601562500000, 0.476562500000, 1490770015
-0.035888671875, 0.799316406250, -0.687988281250, -4.156250000000, -3.046875000000, -7.070312500000, 1490770015
-0.035888671875, 0.799316406250, -0.687988281250, -4.156250000000, -3.046875000000, -7.070312500000, 1490770015
-0.035888671875, 0.799316406250, -0.687988281250, -4.156250000000, -3.046875000000, -7.070312500000, 1490770015
-0.091796875000, 0.679931640625, -0.678955078125, -8.125000000000, -9.234375000000, -10.203125000000, 1490770015
-0.091796875000, 0.679931640625, -0.678955078125, -8.125000000000, -9.234375000000, -10.203125000000, 1490770015
-0.091796875000, 0.679931640625, -0.678955078125, -8.125000000000, -9.234375000000, -10.203125000000, 1490770015
0.009033203125, 0.756591796875, -0.771972656250, -7.687500000000, -13.515625000000, -7.984375000000, 1490770015
0.009033203125, 0.756591796875, -0.771972656250, -7.687500000000, -13.515625000000, -7.984375000000, 1490770015
0.009033203125, 0.756591796875, -0.771972656250, -7.687500000000, -13.515625000000, -7.984375000000, 1490770015
-0.154785156250, 0.669921875000, -0.534667968750, -10.164062500000, 3.671875000000, -4.960937500000, 1490770015
-0.154785156250, 0.669921875000, -0.534667968750, -10.164062500000, 3.671875000000, -4.960937500000, 1490770015
-0.154785156250, 0.669921875000, -0.534667968750, -10.164062500000, 3.671875000000, -4.960937500000, 1490770015
-0.154785156250, 0.669921875000, -0.534667968750, -10.164062500000, 3.671875000000, -4.960937500000, 1490770015
-0.127197265625, 0.659667968750, -0.635253906250, -8.195312500000, 13.890625000000, -2.117187500000, 1490770015
-0.127197265625, 0.659667968750, -0.635253906250, -8.195312500000, 13.890625000000, -2.117187500000, 1490770015
-0.127197265625, 0.659667968750, -0.635253906250, -8.195312500000, 13.890625000000, -2.117187500000, 1490770015
-0.039306640625, 0.707763671875, -0.673828125000, 2.953125000000, -3.445312500000, -4.765625000000, 1490770015
-0.039306640625, 0.707763671875, -0.673828125000, 2.953125000000, -3.445312500000, -4.765625000000, 1490770015
-0.039306640625, 0.707763671875, -0.673828125000, 2.953125000000, -3.445312500000, -4.765625000000, 1490770015
-0.073242187500, 0.758056640625, -0.783935546875, -3.617187500000, 0.312500000000, 0.304687500000, 1490770016
-0.073242187500, 0.758056640625, -0.783935546875, -3.617187500000, 0.312500000000, 0.304687500000, 1490770016
-0.073242187500, 0.758056640625, -0.783935546875, -3.617187500000, 0.312500000000, 0.304687500000, 1490770016
0.021240234375, 0.762207031250, -0.716552734375, -9.367187500000, 14.367187500000, 4.390625000000, 1490770016
0.021240234375, 0.762207031250, -0.716552734375, -9.367187500000, 14.367187500000, 4.390625000000, 1490770016
0.021240234375, 0.762207031250, -0.716552734375, -9.367187500000, 14.367187500000, 4.390625000000, 1490770016
-0.087402343750, 0.686523437500, -0.606445312500, -14.851562500000, 8.960937500000, 2.765625000000, 1490770016
-0.072998046875, 0.667480468750, -0.682617187500, -14.851562500000, 8.960937500000, 2.765625000000, 1490770016
-0.072998046875, 0.667480468750, -0.682617187500, -14.851562500000, 8.960937500000, 2.765625000000, 1490770016
-0.072998046875, 0.667480468750, -0.682617187500, -14.851562500000, 8.960937500000, 2.765625000000, 1490770016
0.024414062500, 0.675781250000, -0.714355468750, -12.476562500000, 2.343750000000, -1.007812500000, 1490770016
0.024414062500, 0.675781250000, -0.714355468750, -12.476562500000, 2.343750000000, -1.007812500000, 1490770016
0.024414062500, 0.675781250000, -0.714355468750, -12.476562500000, 2.343750000000, -1.007812500000, 1490770016
-0.137939453125, 0.682861328125, -0.682617187500, -12.789062500000, -3.546875000000, 0.031250000000, 1490770016
-0.137939453125, 0.682861328125, -0.682617187500, -12.789062500000, -3.546875000000, 0.031250000000, 1490770016
-0.137939453125, 0.682861328125, -0.682617187500, -12.789062500000, -3.546875000000, 0.031250000000, 1490770016
-0.062011718750, 0.713623046875, -0.662353515625, -14.187500000000, 5.406250000000, 3.593750000000, 1490770016
-0.062011718750, 0.713623046875, -0.662353515625, -14.187500000000, 5.406250000000, 3.593750000000, 1490770016
-0.062011718750, 0.713623046875, -0.662353515625, -14.187500000000, 5.406250000000, 3.593750000000, 1490770016
-0.062011718750, 0.713623046875, -0.662353515625, -14.187500000000, 5.406250000000, 3.593750000000, 1490770016
-0.020507812500, 0.647949218750, -0.681152343750, -10.828125000000, 14.382812500000, 4.726562500000, 1490770016
-0.020507812500, 0.647949218750, -0.681152343750, -10.828125000000, 14.382812500000, 4.726562500000, 1490770016
-0.020507812500, 0.647949218750, -0.681152343750, -10.828125000000, 14.382812500000, 4.726562500000, 1490770016
-0.066406250000, 0.715820312500, -0.817382812500, -10.406250000000, 7.617187500000, -2.078125000000, 1490770016
-0.066406250000, 0.715820312500, -0.817382812500, -10.406250000000, 7.617187500000, -2.078125000000, 1490770016
-0.066406250000, 0.715820312500, -0.817382812500, -10.406250000000, 7.617187500000, -2.078125000000, 1490770016
0.013671875000, 0.619384765625, -0.712158203125, -5.992187500000, 3.093750000000, -1.929687500000, 1490770016
0.013671875000, 0.619384765625, -0.712158203125, -5.992187500000, 3.093750000000, -1.929687500000, 1490770016
0.013671875000, 0.619384765625, -0.712158203125, -5.992187500000, 3.093750000000, -1.929687500000, 1490770016
-0.138671875000, 0.721435546875, -0.674316406250, -12.343750000000, -0.531250000000, -6.656250000000, 1490770016
-0.138671875000, 0.721435546875, -0.674316406250, -12.343750000000, -0.531250000000, -6.656250000000, 1490770016
-0.138671875000, 0.721435546875, -0.674316406250, -12.343750000000, -0.531250000000, -6.656250000000, 1490770016
-0.138671875000, 0.721435546875, -0.674316406250, -12.343750000000, -0.531250000000, -6.656250000000, 1490770016
-0.136962890625, 0.685791015625, -0.740722656250, -7.679687500000, -6.328125000000, -2.687500000000, 1490770016
-0.136962890625, 0.685791015625, -0.740722656250, -7.679687500000, -6.328125000000, -2.687500000000, 1490770016
-0.136962890625, 0.685791015625, -0.740722656250, -7.679687500000, -6.328125000000, -2.687500000000, 1490770016
-0.023437500000, 0.701660156250, -0.656982421875, 0.429687500000, 0.351562500000, -4.468750000000, 1490770016
-0.023437500000, 0.701660156250, -0.656982421875, 0.429687500000, 0.351562500000, -4.468750000000, 1490770016
-0.023437500000, 0.701660156250, -0.656982421875, 0.429687500000, 0.351562500000, -4.468750000000, 1490770016
-0.041748046875, 0.612792968750, -0.659912109375, 0.406250000000, -1.789062500000, -3.632812500000, 1490770016
-0.041748046875, 0.612792968750, -0.659912109375, 0.406250000000, -1.789062500000, -3.632812500000, 1490770016
-0.041748046875, 0.612792968750, -0.659912109375, 0.406250000000, -1.789062500000, -3.632812500000, 1490770016
-0.075195312500, 0.706542968750, -0.732910156250, -4.398437500000, -4.625000000000, -6.179687500000, 1490770016
-0.075195312500, 0.706542968750, -0.732910156250, -4.398437500000, -4.625000000000, -6.179687500000, 1490770016
-0.075195312500, 0.706542968750, -0.732910156250, -4.398437500000, -4.625000000000, -6.179687500000, 1490770016
-0.075195312500, 0.706542968750, -0.732910156250, -4.398437500000, -4.625000000000, -6.179687500000, 1490770016
-0.058105468750, 0.601074218750, -0.717773437500, -4.429687500000, -4.578125000000, -8.210937500000, 1490770016
-0.058105468750, 0.601074218750, -0.717773437500, -4.429687500000, -4.578125000000, -8.210937500000, 1490770016
-0.058105468750, 0.601074218750, -0.717773437500, -4.429687500000, -4.578125000000, -8.210937500000, 1490770016
-0.047607421875, 0.593750000000, -0.662597656250, -0.796875000000, -4.257812500000, -6.554687500000, 1490770016
-0.047607421875, 0.593750000000, -0.662597656250, -0.796875000000, -4.257812500000, -6.554687500000, 1490770016
-0.047607421875, 0.593750000000, -0.662597656250, -0.796875000000, -4.257812500000, -6.554687500000, 1490770016
-0.131347656250, 0.689941406250, -0.761962890625, -0.796875000000, 2.015625000000, -4.484375000000, 1490770016
-0.131347656250, 0.689941406250, -0.761962890625, -0.796875000000, 2.015625000000, -4.484375000000, 1490770016
-0.131347656250, 0.689941406250, -0.761962890625, -0.796875000000, 2.015625000000, -4.484375000000, 1490770016
-0.070068359375, 0.616943359375, -0.610351562500, -0.437500000000, 1.984375000000, -2.273437500000, 1490770016
-0.070068359375, 0.616943359375, -0.610351562500, -0.437500000000, 1.984375000000, -2.273437500000, 1490770016
-0.070068359375, 0.616943359375, -0.610351562500, -0.437500000000, 1.984375000000, -2.273437500000, 1490770016
-0.046142578125, 0.734619140625, -0.741943359375, 3.695312500000, -6.117187500000, -4.179687500000, 1490770016
-0.046142578125, 0.734619140625, -0.741943359375, 3.695312500000, -6.117187500000, -4.179687500000, 1490770016
-0.046142578125, 0.734619140625, -0.741943359375, 3.695312500000, -6.117187500000, -4.179687500000, 1490770016
-0.046142578125, 0.734619140625, -0.741943359375, 3.695312500000, -6.117187500000, -4.179687500000, 1490770016
-0.135742187500, 0.769775390625, -0.771484375000, -1.476562500000, -1.445312500000, -1.703125000000, 1490770016
-0.135742187500, 0.769775390625, -0.771484375000, -1.476562500000, -1.445312500000, -1.703125000000, 1490770016
-0.135742187500, 0.769775390625, -0.771484375000, -1.476562500000, -1.445312500000, -1.703125000000, 1490770016
-0.086669921875, 0.706787109375, -0.774658203125, -7.250000000000, 1.710937500000, -1.515625000000, 1490770016
-0.086669921875, 0.706787109375, -0.774658203125, -7.250000000000, 1.710937500000, -1.515625000000, 1490770016
-0.086669921875, 0.706787109375, -0.774658203125, -7.250000000000, 1.710937500000, -1.515625000000, 1490770017
-0.076660156250, 0.717529296875, -0.675048828125, -4.140625000000, -1.382812500000, 0.078125000000, 1490770017
-0.076660156250, 0.717529296875, -0.675048828125, -4.140625000000, -1.382812500000, 0.078125000000, 1490770017
-0.076660156250, 0.717529296875, -0.675048828125, -4.140625000000, -1.382812500000, 0.078125000000, 1490770017
-0.076660156250, 0.717529296875, -0.675048828125, -4.140625000000, -1.382812500000, 0.078125000000, 1490770017
-0.039794921875, 0.660644531250, -0.678466796875, -1.367187500000, -5.679687500000, -6.406250000000, 1490770017
-0.039794921875, 0.660644531250, -0.678466796875, -1.367187500000, -5.679687500000, -6.406250000000, 1490770017
-0.039794921875, 0.660644531250, -0.678466796875, -1.367187500000, -5.679687500000, -6.406250000000, 1490770017
-0.039794921875, 0.660644531250, -0.678466796875, -1.367187500000, -5.679687500000, -6.406250000000, 1490770017
-0.155029296875, 0.671386718750, -0.733398437500, -5.773437500000, 2.812500000000, -2.500000000000, 1490770017
-0.155029296875, 0.671386718750, -0.733398437500, -5.773437500000, 2.812500000000, -2.500000000000, 1490770017
-0.155029296875, 0.671386718750, -0.733398437500, -5.773437500000, 2.812500000000, -2.500000000000, 1490770017
-0.155029296875, 0.671386718750, -0.733398437500, -5.773437500000, 2.812500000000, -2.500000000000, 1490770017
-0.155029296875, 0.671386718750, -0.733398437500, -5.773437500000, 2.812500000000, -2.500000000000, 1490770017
-0.091064453125, 0.751708984375, -0.752929687500, -6.453125000000, 4.343750000000, -0.734375000000, 1490770017
-0.091064453125, 0.751708984375, -0.752929687500, -6.453125000000, 4.343750000000, -0.734375000000, 1490770017
-0.091064453125, 0.751708984375, -0.752929687500, -6.453125000000, 4.343750000000, -0.734375000000, 1490770017
-0.091064453125, 0.751708984375, -0.752929687500, -6.453125000000, 4.343750000000, -0.734375000000, 1490770017
-0.074707031250, 0.666503906250, -0.713623046875, -4.828125000000, -0.703125000000, -3.414062500000, 1490770017
-0.074707031250, 0.666503906250, -0.713623046875, -4.828125000000, -0.703125000000, -3.414062500000, 1490770017
-0.074707031250, 0.666503906250, -0.713623046875, -4.828125000000, -0.703125000000, -3.414062500000, 1490770017
-0.075195312500, 0.657470703125, -0.703369140625, -4.929687500000, 1.687500000000, -3.273437500000, 1490770017
-0.075195312500, 0.657470703125, -0.703369140625, -4.929687500000, 1.687500000000, -3.273437500000, 1490770017
-0.075195312500, 0.657470703125, -0.703369140625, -4.929687500000, 1.687500000000, -3.273437500000, 1490770017
0.023437500000, 0.619873046875, -0.661865234375, -6.164062500000, -4.390625000000, -2.601562500000, 1490770017
0.023437500000, 0.619873046875, -0.661865234375, -6.164062500000, -4.390625000000, -2.601562500000, 1490770017
0.023437500000, 0.619873046875, -0.661865234375, -6.164062500000, -4.390625000000, -2.601562500000, 1490770017
0.073242187500, 0.760986328125, -0.675292968750, -4.398437500000, -3.226562500000, -6.640625000000, 1490770017
0.073242187500, 0.760986328125, -0.675292968750, -4.398437500000, -3.226562500000, -6.640625000000, 1490770017
0.073242187500, 0.760986328125, -0.675292968750, -4.398437500000, -3.226562500000, -6.640625000000, 1490770017
0.073242187500, 0.760986328125, -0.675292968750, -4.398437500000, -3.226562500000, -6.640625000000, 1490770017
-0.121826171875, 0.774169921875, -0.682617187500, -3.617187500000, -1.101562500000, -4.843750000000, 1490770017
-0.121826171875, 0.774169921875, -0.682617187500, -3.617187500000, -1.101562500000, -4.843750000000, 1490770017
-0.121826171875, 0.774169921875, -0.682617187500, -3.617187500000, -1.101562500000, -4.843750000000, 1490770017
-0.033935546875, 0.679931640625, -0.755126953125, -6.640625000000, 1.960937500000, -1.203125000000, 1490770017
-0.033935546875, 0.679931640625, -0.755126953125, -6.640625000000, 1.960937500000, -1.203125000000, 1490770017
-0.033935546875, 0.679931640625, -0.755126953125, -6.640625000000, 1.960937500000, -1.203125000000, 1490770017
-0.093017578125, 0.776855468750, -0.768554687500, -2.750000000000, -0.992187500000, -3.632812500000, 1490770017
-0.093017578125, 0.776855468750, -0.768554687500, -2.750000000000, -0.992187500000, -3.632812500000, 1490770017
-0.093017578125, 0.776855468750, -0.768554687500, -2.750000000000, -0.992187500000, -3.632812500000, 1490770017
-0.077880859375, 0.701660156250, -0.742675781250, 0.234375000000, 0.156250000000, -0.218750000000, 1490770017
-0.077880859375, 0.701660156250, -0.742675781250, 0.234375000000, 0.156250000000, -0.218750000000, 1490770017
-0.077880859375, 0.701660156250, -0.742675781250, 0.234375000000, 0.156250000000, -0.218750000000, 1490770017
-0.077880859375, 0.701660156250, -0.742675781250, 0.234375000000, 0.156250000000, -0.218750000000, 1490770017
-0.147460937500, 0.614257812500, -0.731445312500, 0.343750000000, -8.429687500000, -2.539062500000, 1490770017
-0.147460937500, 0.614257812500, -0.731445312500, 0.343750000000, -8.429687500000, -2.539062500000, 1490770017
-0.147460937500, 0.614257812500, -0.731445312500, 0.343750000000, -8.429687500000, -2.539062500000, 1490770017
-0.076660156250, 0.632324218750, -0.733886718750, -6.117187500000, -4.187500000000, 0.976562500000, 1490770017
-0.076660156250, 0.632324218750, -0.733886718750, -6.117187500000, -4.187500000000, 0.976562500000, 1490770017
-0.076660156250, 0.632324218750, -0.733886718750, -6.117187500000, -4.187500000000, 0.976562500000, 1490770017
-0.065673828125, 0.668945312500, -0.776855468750, -5.351562500000, 0.929687500000, 0.562500000000, 1490770017
-0.065673828125, 0.668945312500, -0.776855468750, -5.351562500000, 0.929687500000, 0.562500000000, 1490770017
-0.065673828125, 0.668945312500, -0.776855468750, -5.351562500000, 0.929687500000, 0.562500000000, 1490770017
-0.136474609375, 0.677001953125, -0.721679687500, 2.507812500000, -4.632812500000, -6.234375000000, 1490770017
-0.136474609375, 0.677001953125, -0.721679687500, 2.507812500000, -4.632812500000, -6.234375000000, 1490770017
-0.136474609375, 0.677001953125, -0.721679687500, 2.507812500000, -4.632812500000, -6.234375000000, 1490770017
-0.136474609375, 0.677001953125, -0.721679687500, 2.507812500000, -4.632812500000, -6.234375000000, 1490770017
-0.132080078125, 0.695556640625, -0.876464843750, -2.000000000000, -4.734375000000, -1.664062500000, 1490770017
-0.132080078125, 0.695556640625, -0.876464843750, -2.000000000000, -4.734375000000, -1.664062500000, 1490770017
-0.132080078125, 0.695556640625, -0.876464843750, -2.000000000000, -4.734375000000, -1.664062500000, 1490770017
-0.191162109375, 0.709228515625, -0.851806640625, -3.921875000000, -11.281250000000, -8.234375000000, 1490770017
-0.191162109375, 0.709228515625, -0.851806640625, -3.921875000000, -11.281250000000, -8.234375000000, 1490770017
-0.191162109375, 0.709228515625, -0.851806640625, -3.921875000000, -11.281250000000, -8.234375000000, 1490770017
-0.036376953125, 0.638183593750, -0.727294921875, -9.726562500000, 1.570312500000, -0.148437500000, 1490770017
-0.036376953125, 0.638183593750, -0.727294921875, -9.726562500000, 1.570312500000, -0.148437500000, 1490770017
-0.036376953125, 0.638183593750, -0.727294921875, -9.726562500000, 1.570312500000, -0.148437500000, 1490770017
0.093750000000, 0.360595703125, -0.505859375000, 14.812500000000, 59.867187500000, 1.234375000000, 1490770018
0.093750000000, 0.360595703125, -0.505859375000, 14.812500000000, 59.867187500000, 1.234375000000, 1490770018
0.093750000000, 0.360595703125, -0.505859375000, 14.812500000000, 59.867187500000, 1.234375000000, 1490770018
0.093750000000, 0.360595703125, -0.505859375000, 14.812500000000, 59.867187500000, 1.234375000000, 1490770018
-0.058105468750, 0.417724609375, -0.649902343750, 61.648437500000, -62.882812500000, -31.515625000000, 1490770018
-0.058105468750, 0.417724609375, -0.649902343750, 61.648437500000, -62.882812500000, -31.515625000000, 1490770018
-0.058105468750, 0.417724609375, -0.649902343750, 61.648437500000, -62.882812500000, -31.515625000000, 1490770018
-0.171630859375, 0.637939453125, -0.934814453125, 36.632812500000, -123.570312500000, -45.671875000000, 1490770018
-0.171630859375, 0.637939453125, -0.934814453125, 36.632812500000, -123.570312500000, -45.671875000000, 1490770018
-0.171630859375, 0.637939453125, -0.934814453125, 36.632812500000, -123.570312500000, -45.671875000000, 1490770018
-0.310058593750, 0.540039062500, -0.811279296875, 51.070312500000, 11.335937500000, -21.585937500000, 1490770018
-0.310058593750, 0.540039062500, -0.811279296875, 51.070312500000, 11.335937500000, -21.585937500000, 1490770018
-0.310058593750, 0.540039062500, -0.811279296875, 51.070312500000, 11.335937500000, -21.585937500000, 1490770018
-0.073974609375, 0.538085937500, -0.640625000000, 79.882812500000, 54.632812500000, -10.757812500000, 1490770018
-0.073974609375, 0.538085937500, -0.640625000000, 79.882812500000, 54.632812500000, -10.757812500000, 1490770018
-0.073974609375, 0.538085937500, -0.640625000000, 79.882812500000, 54.632812500000, -10.757812500000, 1490770018
-0.073974609375, 0.538085937500, -0.640625000000, 79.882812500000, 54.632812500000, -10.757812500000, 1490770018
0.018554687500, 0.619873046875, -0.578613281250, 101.382812500000, 7.976562500000, -29.492187500000, 1490770018
0.018554687500, 0.619873046875, -0.578613281250, 101.382812500000, 7.976562500000, -29.492187500000, 1490770018
0.018554687500, 0.619873046875, -0.578613281250, 101.382812500000, 7.976562500000, -29.492187500000, 1490770018
0.009277343750, 0.905029296875, -0.633544921875, 92.320312500000, 33.875000000000, -27.953125000000, 1490770018
0.009277343750, 0.905029296875, -0.633544921875, 92.320312500000, 33.875000000000, -27.953125000000, 1490770018
0.009277343750, 0.905029296875, -0.633544921875, 92.320312500000, 33.875000000000, -27.953125000000, 1490770018
-0.042968750000, 1.311523437500, -0.605712890625, 61.984375000000, 48.140625000000, -6.250000000000, 1490770018
-0.042968750000, 1.311523437500, -0.605712890625, 61.984375000000, 48.140625000000, -6.250000000000, 1490770018
-0.042968750000, 1.311523437500, -0.605712890625, 61.984375000000, 48.140625000000, -6.250000000000, 1490770018
-0.072509765625, 1.176025390625, -0.718017578125, 15.289062500000, -2.953125000000, -25.476562500000, 1490770018
-0.072509765625, 1.176025390625, -0.718017578125, 15.289062500000, -2.953125000000, -25.476562500000, 1490770018
-0.072509765625, 1.176025390625, -0.718017578125, 15.289062500000, -2.953125000000, -25.476562500000, 1490770018
-0.072509765625, 1.176025390625, -0.718017578125, 15.289062500000, -2.953125000000, -25.476562500000, 1490770018
-0.130126953125, 1.706298828125, -0.399169921875, -44.828125000000, 187.328125000000, 26.304687500000, 1490770018
-0.130126953125, 1.706298828125, -0.399169921875, -44.828125000000, 187.328125000000, 26.304687500000, 1490770018
-0.130126953125, 1.706298828125, -0.399169921875, -44.828125000000, 187.328125000000, 26.304687500000, 1490770018
0.108398437500, 1.384521484375, -0.309326171875, -50.335937500000, 253.992187500000, 27.710937500000, 1490770018
0.108398437500, 1.384521484375, -0.309326171875, -50.335937500000, 253.992187500000, 27.710937500000, 1490770018
0.108398437500, 1.384521484375, -0.309326171875, -50.335937500000, 253.992187500000, 27.710937500000, 1490770018
0.044921875000, 1.439697265625, -0.284912109375, -65.109375000000, 103.062500000000, 41.601562500000, 1490770018
0.044921875000, 1.439697265625, -0.284912109375, -65.109375000000, 103.062500000000, 41.601562500000, 1490770018
0.044921875000, 1.439697265625, -0.284912109375, -65.109375000000, 103.062500000000, 41.601562500000, 1490770018
0.080566406250, 1.287353515625, -0.219482421875, 50.078125000000, -68.804687500000, -22.359375000000, 1490770018
0.080566406250, 1.287353515625, -0.219482421875, 50.078125000000, -68.804687500000, -22.359375000000, 1490770018
0.080566406250, 1.287353515625, -0.219482421875, 50.078125000000, -68.804687500000, -22.359375000000, 1490770018
0.080566406250, 1.287353515625, -0.219482421875, 50.078125000000, -68.804687500000, -22.359375000000, 1490770018
0.065673828125, 1.441650390625, -0.258300781250, 4.546875000000, -64.476562500000, -6.796875000000, 1490770018
0.065673828125, 1.441650390625, -0.258300781250, 4.546875000000, -64.476562500000, -6.796875000000, 1490770018
0.065673828125, 1.441650390625, -0.258300781250, 4.546875000000, -64.476562500000, -6.796875000000, 1490770018
0.004638671875, 1.285400390625, -0.179199218750, 42.976562500000, 70.750000000000, 4.976562500000, 1490770018
0.004638671875, 1.285400390625, -0.179199218750, 42.976562500000, 70.750000000000, 4.976562500000, 1490770018
0.004638671875, 1.285400390625, -0.179199218750, 42.976562500000, 70.750000000000, 4.976562500000, 1490770018
-0.029052734375, 1.123046875000, -0.526367187500, 47.460937500000, -1.882812500000, -1.898437500000, 1490770018
-0.029052734375, 1.123046875000, -0.526367187500, 47.460937500000, -1.882812500000, -1.898437500000, 1490770018
-0.029052734375, 1.123046875000, -0.526367187500, 47.460937500000, -1.882812500000, -1.898437500000, 1490770018
0.034912109375, 1.211914062500, -0.451171875000, -37.367187500000, -198.640625000000, -25.851562500000, 1490770018
0.034912109375, 1.211914062500, -0.451171875000, -37.367187500000, -198.640625000000, -25.851562500000, 1490770018
0.034912109375, 1.211914062500, -0.451171875000, -37.367187500000, -198.640625000000, -25.851562500000, 1490770018
0.034912109375, 1.211914062500, -0.451171875000, -37.367187500000, -198.640625000000, -25.851562500000, 1490770018
-0.055908203125, 0.962158203125, -0.377929687500, -116.867187500000, 62.945312500000, 32.156250000000, 1490770018
-0.055908203125, 0.962158203125, -0.377929687500, -116.867187500000, 62.945312500000, 32.156250000000, 1490770018
-0.055908203125, 0.962158203125, -0.377929687500, -116.867187500000, 62.945312500000, 32.156250000000, 1490770018
0.089843750000, 0.766845703125, -0.274169921875, -111.648437500000, 152.078125000000, 25.773437500000, 1490770018
0.089843750000, 0.766845703125, -0.274169921875, -111.648437500000, 152.078125000000, 25.773437500000, 1490770018
0.089843750000, 0.766845703125, -0.274169921875, -111.648437500000, 152.078125000000, 25.773437500000, 1490770018
0.128906250000, 0.689941406250, -0.214355468750, -148.968750000000, 126.867187500000, -3.546875000000, 1490770018
0.128906250000, 0.689941406250, -0.214355468750, -148.968750000000, 126.867187500000, -3.546875000000, 1490770018
0.128906250000, 0.689941406250, -0.214355468750, -148.968750000000, 126.867187500000, -3.546875000000, 1490770018
0.133056640625, 0.487060546875, -0.071533203125, -69.585937500000, 56.820312500000, -13.914062500000, 1490770018
0.133056640625, 0.487060546875, -0.071533203125, -69.585937500000, 56.820312500000, -13.914062500000, 1490770018
0.133056640625, 0.487060546875, -0.071533203125, -69.585937500000, 56.820312500000, -13.914062500000, 1490770019
0.133056640625, 0.487060546875, -0.071533203125, -69.585937500000, 56.820312500000, -13.914062500000, 1490770019
0.111083984375, 0.505615234375, -0.170654296875, -42.195312500000, -84.570312500000, -34.929687500000, 1490770019
0.111083984375, 0.505615234375, -0.170654296875, -42.195312500000, -84.570312500000, -34.929687500000, 1490770019
0.111083984375, 0.505615234375, -0.170654296875, -42.195312500000, -84.570312500000, -34.929687500000, 1490770019
0.102783203125, 0.252929687500, -0.105712890625, -19.148437500000, -117.554687500000, -53.429687500000, 1490770019
0.102783203125, 0.252929687500, -0.105712890625, -19.148437500000, -117.554687500000, -53.429687500000, 1490770019
0.102783203125, 0.252929687500, -0.105712890625, -19.148437500000, -117.554687500000, -53.429687500000, 1490770019
-0.013916015625, 0.323730468750, -0.165039062500, -12.429687500000, -128.414062500000, -49.125000000000, 1490770019
-0.013916015625, 0.323730468750, -0.165039062500, -12.429687500000, -128.414062500000, -49.125000000000, 1490770019
-0.013916015625, 0.323730468750, -0.165039062500, -12.429687500000, -128.414062500000, -49.125000000000, 1490770019
-0.022705078125, 0.393066406250, -0.285888671875, -17.585937500000, -65.718750000000, -16.585937500000, 1490770019
-0.022705078125, 0.393066406250, -0.285888671875, -17.585937500000, -65.718750000000, -16.585937500000, 1490770019
-0.022705078125, 0.393066406250, -0.285888671875, -17.585937500000, -65.718750000000, -16.585937500000, 1490770019
-0.022705078125, 0.393066406250, -0.285888671875, -17.585937500000, -65.718750000000, -16.585937500000, 1490770019
-0.020996093750, 0.666015625000, -0.706542968750, -79.476562500000, -85.906250000000, -16.273437500000, 1490770019
-0.020996093750, 0.666015625000, -0.706542968750, -79.476562500000, -85.906250000000, -16.273437500000, 1490770019
-0.020996093750, 0.666015625000, -0.706542968750, -79.476562500000, -85.906250000000, -16.273437500000, 1490770019
-0.312988281250, 0.921142578125, -1.542724609375, -34.757812500000, -221.976562500000, -74.414062500000, 1490770019
-0.312988281250, 0.921142578125, -1.542724609375, -34.757812500000, -221.976562500000, -74.414062500000, 1490770019
-0.312988281250, 0.921142578125, -1.542724609375, -34.757812500000, -221.976562500000, -74.414062500000, 1490770019
-0.323730468750, 0.716308593750, -0.629150390625, 9.007812500000, 139.289062500000, 22.867187500000, 1490770019
-0.323730468750, 0.716308593750, -0.629150390625, 9.007812500000, 139.289062500000, 22.867187500000, 1490770019
-0.323730468750, 0.716308593750, -0.629150390625, 9.007812500000, 139.289062500000, 22.867187500000, 1490770019
0.067871093750, 0.665039062500, -0.601562500000, -30.757812500000, 43.367187500000, 3.328125000000, 1490770019
0.067871093750, 0.665039062500, -0.601562500000, -30.757812500000, 43.367187500000, 3.328125000000, 1490770019
0.067871093750, 0.665039062500, -0.601562500000, -30.757812500000, 43.367187500000, 3.328125000000, 1490770019
0.067871093750, 0.665039062500, -0.601562500000, -30.757812500000, 43.367187500000, 3.328125000000, 1490770019
-0.014160156250, 0.489746093750, -0.419921875000, -4.601562500000, -27.296875000000, -19.507812500000, 1490770019
-0.014160156250, 0.489746093750, -0.419921875000, -4.601562500000, -27.296875000000, -19.507812500000, 1490770019
-0.014160156250, 0.489746093750, -0.419921875000, -4.601562500000, -27.296875000000, -19.507812500000, 1490770019
-0.137939453125, 0.642822265625, -0.819091796875, 26.062500000000, -82.109375000000, -34.929687500000, 1490770019
-0.137939453125, 0.642822265625, -0.819091796875, 26.062500000000, -82.109375000000, -34.929687500000, 1490770019
-0.137939453125, 0.642822265625, -0.819091796875, 26.062500000000, -82.109375000000, -34.929687500000, 1490770019
-0.048095703125, 0.794433593750, -1.014404296875, 10.593750000000, -9.820312500000, -7.445312500000, 1490770019
-0.048095703125, 0.794433593750, -1.014404296875, 10.593750000000, -9.820312500000, -7.445312500000, 1490770019
-0.048095703125, 0.794433593750, -1.014404296875, 10.593750000000, -9.820312500000, -7.445312500000, 1490770019
-0.022460937500, 0.667480468750, -0.813232421875, -18.625000000000, 11.601562500000, -7.484375000000, 1490770019
-0.022460937500, 0.667480468750, -0.813232421875, -18.625000000000, 11.601562500000, -7.484375000000, 1490770019
-0.022460937500, 0.667480468750, -0.813232421875, -18.625000000000, 11.601562500000, -7.484375000000, 1490770019
-0.022460937500, 0.667480468750, -0.813232421875, -18.625000000000, 11.601562500000, -7.484375000000, 1490770019
-0.147949218750, 0.612060546875, -0.684082031250, -11.960937500000, -9.687500000000, -15.703125000000, 1490770019
-0.147949218750, 0.612060546875, -0.684082031250, -11.960937500000, -9.687500000000, -15.703125000000, 1490770019
-0.147949218750, 0.612060546875, -0.684082031250, -11.960937500000, -9.687500000000, -15.703125000000, 1490770019
-0.044921875000, 0.680908203125, -0.497802734375, -14.085937500000, -0.585937500000, -13.929687500000, 1490770019
-0.044921875000, 0.680908203125, -0.497802734375, -14.085937500000, -0.585937500000, -13.929687500000, 1490770019
-0.044921875000, 0.680908203125, -0.497802734375, -14.085937500000, -0.585937500000, -13.929687500000, 1490770019
0.031250000000, 0.644287109375, -0.774169921875, 15.203125000000, -7.414062500000, -15.796875000000, 1490770019
0.031250000000, 0.644287109375, -0.774169921875, 15.203125000000, -7.414062500000, -15.796875000000, 1490770019
0.031250000000, 0.644287109375, -0.774169921875, 15.203125000000, -7.414062500000, -15.796875000000, 1490770019
-0.043945312500, 0.678710937500, -0.734863281250, -2.898437500000, 4.945312500000, -16.804687500000, 1490770019
-0.043945312500, 0.678710937500, -0.734863281250, -2.898437500000, 4.945312500000, -16.804687500000, 1490770019
-0.043945312500, 0.678710937500, -0.734863281250, -2.898437500000, 4.945312500000, -16.804687500000, 1490770019
-0.043945312500, 0.678710937500, -0.734863281250, -2.898437500000, 4.945312500000, -16.804687500000, 1490770019
0.021728515625, 0.748291015625, -0.616943359375, -2.023437500000, 16.625000000000, -15.914062500000, 1490770019
0.021728515625, 0.748291015625, -0.616943359375, -2.023437500000, 16.625000000000, -15.914062500000, 1490770019
0.021728515625, 0.748291015625, -0.616943359375, -2.023437500000, 16.625000000000, -15.914062500000, 1490770019
-0.003906250000, 0.739746093750, -0.660888671875, -2.601562500000, -32.820312500000, -31.171875000000, 1490770019
-0.003906250000, 0.739746093750, -0.660888671875, -2.601562500000, -32.820312500000, -31.171875000000, 1490770019
-0.003906250000, 0.739746093750, -0.660888671875, -2.601562500000, -32.820312500000, -31.171875000000, 1490770019
-0.005859375000, 0.758300781250, -0.774414062500, 3.906250000000, 9.531250000000, -20.320312500000, 1490770019
0.127685546875, 0.729736328125, -0.766113281250, 3.859375000000, 12.640625000000, -20.187500000000, 1490770019
0.127685546875, 0.729736328125, -0.766113281250, 3.859375000000, 12.640625000000, -20.187500000000, 1490770019
0.127685546875, 0.729736328125, -0.766113281250, 3.859375000000, 12.640625000000, -20.187500000000, 1490770020
0.050048828125, 0.698730468750, -0.778076171875, -6.210937500000, -4.773437500000, -19.906250000000, 1490770020
0.050048828125, 0.698730468750, -0.778076171875, -6.210937500000, -4.773437500000, -19.906250000000, 1490770020
0.050048828125, 0.698730468750, -0.778076171875, -6.210937500000, -4.773437500000, -19.906250000000, 1490770020
0.055419921875, 0.684570312500, -0.815917968750, -3.164062500000, -15.250000000000, -26.492187500000, 1490770020
0.005371093750, 0.765136718750, -0.666992187500, -8.968750000000, -21.953125000000, -21.992187500000, 1490770020
0.005371093750, 0.765136718750, -0.666992187500, -8.968750000000, -21.953125000000, -21.992187500000, 1490770020
0.005371093750, 0.765136718750, -0.666992187500, -8.968750000000, -21.953125000000, -21.992187500000, 1490770020
0.005371093750, 0.765136718750, -0.666992187500, -8.968750000000, -21.953125000000, -21.992187500000, 1490770020
0.042724609375, 0.735595703125, -0.662841796875, -12.937500000000, -22.859375000000, -22.234375000000, 1490770020
-0.029052734375, 0.718017578125, -0.602294921875, -12.445312500000, -5.867187500000, -13.156250000000, 1490770020
-0.029052734375, 0.718017578125, -0.602294921875, -12.445312500000, -5.867187500000, -13.156250000000, 1490770020
-0.029052734375, 0.718017578125, -0.602294921875, -12.445312500000, -5.867187500000, -13.156250000000, 1490770020
0.068847656250, 0.700683593750, -0.687988281250, 0.164062500000, -0.375000000000, -4.671875000000, 1490770020
0.068847656250, 0.700683593750, -0.687988281250, 0.164062500000, -0.375000000000, -4.671875000000, 1490770020
0.062744140625, 0.719726562500, -0.713867187500, -2.890625000000, -7.234375000000, -2.875000000000, 1490770020
0.062744140625, 0.719726562500, -0.713867187500, -2.890625000000, -7.234375000000, -2.875000000000, 1490770020
0.062744140625, 0.719726562500, -0.713867187500, -2.890625000000, -7.234375000000, -2.875000000000, 1490770020
0.062744140625, 0.719726562500, -0.713867187500, -2.890625000000, -7.234375000000, -2.875000000000, 1490770020
0.062744140625, 0.719726562500, -0.713867187500, -2.890625000000, -7.234375000000, -2.875000000000, 1490770020
0.084960937500, 0.675048828125, -0.663574218750, -5.734375000000, -2.875000000000, -0.648437500000, 1490770020
0.084960937500, 0.675048828125, -0.663574218750, -5.734375000000, -2.875000000000, -0.648437500000, 1490770020
0.084960937500, 0.675048828125, -0.663574218750, -5.734375000000, -2.875000000000, -0.648437500000, 1490770020
0.054443359375, 0.718261718750, -0.767578125000, -9.062500000000, -8.960937500000, 4.140625000000, 1490770020
0.054443359375, 0.718261718750, -0.767578125000, -9.062500000000, -8.960937500000, 4.140625000000, 1490770020
0.054443359375, 0.718261718750, -0.767578125000, -9.062500000000, -8.960937500000, 4.140625000000, 1490770020
0.026123046875, 0.695068359375, -0.683105468750, -10.578125000000, -7.390625000000, 4.585937500000, 1490770020
0.026123046875, 0.695068359375, -0.683105468750, -10.578125000000, -7.390625000000, 4.585937500000, 1490770020
-0.033203125000, 0.709228515625, -0.750244140625, -7.343750000000, 1.679687500000, 11.460937500000, 1490770020
-0.033203125000, 0.709228515625, -0.750244140625, -7.343750000000, 1.679687500000, 11.460937500000, 1490770020
-0.033203125000, 0.709228515625, -0.750244140625, -7.343750000000, 1.679687500000, 11.460937500000, 1490770020
-0.033203125000, 0.709228515625, -0.750244140625, -7.343750000000, 1.679687500000, 11.460937500000, 1490770020
-0.033203125000, 0.709228515625, -0.750244140625, -7.343750000000, 1.679687500000, 11.460937500000, 1490770020
0.002929687500, 0.684082031250, -0.766845703125, -10.781250000000, 14.023437500000, 16.398437500000, 1490770020
-0.129394531250, 0.657714843750, -0.715087890625, -10.687500000000, 11.718750000000, 18.648437500000, 1490770020
-0.129394531250, 0.657714843750, -0.715087890625, -10.687500000000, 11.718750000000, 18.648437500000, 1490770020
-0.023193359375, 0.697509765625, -0.827636718750, -14.906250000000, 1.562500000000, 18.679687500000, 1490770020
-0.023193359375, 0.697509765625, -0.827636718750, -14.906250000000, 1.562500000000, 18.679687500000, 1490770020
-0.023193359375, 0.697509765625, -0.827636718750, -14.906250000000, 1.562500000000, 18.679687500000, 1490770020
-0.019531250000, 0.619628906250, -0.702636718750, -11.320312500000, 9.015625000000, 19.656250000000, 1490770020
-0.019531250000, 0.619628906250, -0.702636718750, -11.320312500000, 9.015625000000, 19.656250000000, 1490770020
-0.019531250000, 0.619628906250, -0.702636718750, -11.320312500000, 9.015625000000, 19.656250000000, 1490770020
-0.019531250000, 0.619628906250, -0.702636718750, -11.320312500000, 9.015625000000, 19.656250000000, 1490770020
0.003662109375, 0.659912109375, -0.662597656250, -5.468750000000, 0.687500000000, 15.570312500000, 1490770020
0.003662109375, 0.659912109375, -0.662597656250, -5.468750000000, 0.687500000000, 15.570312500000, 1490770020
0.003662109375, 0.659912109375, -0.662597656250, -5.468750000000, 0.687500000000, 15.570312500000, 1490770020
-0.074218750000, 0.677001953125, -0.683349609375, -6.804687500000, -4.226562500000, 11.468750000000, 1490770020
-0.074218750000, 0.677001953125, -0.683349609375, -6.804687500000, -4.226562500000, 11.468750000000, 1490770020
-0.074218750000, 0.677001953125, -0.683349609375, -6.804687500000, -4.226562500000, 11.468750000000, 1490770020
-0.034912109375, 0.654296875000, -0.720947265625, -6.906250000000, 2.898437500000, 14.867187500000, 1490770020
-0.034912109375, 0.654296875000, -0.720947265625, -6.906250000000, 2.898437500000, 14.867187500000, 1490770020
-0.034912109375, 0.654296875000, -0.720947265625, -6.906250000000, 2.898437500000, 14.867187500000, 1490770020
-0.111572265625, 0.663818359375, -0.718505859375, -9.554687500000, -5.640625000000, 11.296875000000, 1490770020
-0.111572265625, 0.663818359375, -0.718505859375, -9.554687500000, -5.640625000000, 11.296875000000, 1490770020
-0.111572265625, 0.663818359375, -0.718505859375, -9.554687500000, -5.640625000000, 11.296875000000, 1490770020
-0.111572265625, 0.663818359375, -0.718505859375, -9.554687500000, -5.640625000000, 11.296875000000, 1490770020
-0.170898437500, 0.685302734375, -0.739746093750, -2.875000000000, -13.523437500000, 8.507812500000, 1490770020
-0.170898437500, 0.685302734375, -0.739746093750, -2.875000000000, -13.523437500000, 8.507812500000, 1490770020
-0.170898437500, 0.685302734375, -0.739746093750, -2.875000000000, -13.523437500000, 8.507812500000, 1490770020
-0.229736328125, 0.670898437500, -0.855957031250, -8.320312500000, -10.984375000000, 9.406250000000, 1490770020
-0.229736328125, 0.670898437500, -0.855957031250, -8.320312500000, -10.984375000000, 9.406250000000, 1490770020
-0.229736328125, 0.670898437500, -0.855957031250, -8.320312500000, -10.984375000000, 9.406250000000, 1490770020
-0.333740234375, 0.668701171875, -0.733642578125, -1.171875000000, 7.007812500000, 1.992187500000, 1490770020
-0.333740234375, 0.668701171875, -0.733642578125, -1.171875000000, 7.007812500000, 1.992187500000, 1490770020
-0.333740234375, 0.668701171875, -0.733642578125, -1.171875000000, 7.007812500000, 1.992187500000, 1490770020
-0.202148437500, 0.708251953125, -0.739990234375, 10.640625000000, -24.406250000000, -7.695312500000, 1490770020
-0.202148437500, 0.708251953125, -0.739990234375, 10.640625000000, -24.406250000000, -7.695312500000, 1490770020
-0.202148437500, 0.708251953125, -0.739990234375, 10.640625000000, -24.406250000000, -7.695312500000, 1490770020
-0.202148437500, 0.708251953125, -0.739990234375, 10.640625000000, -24.406250000000, -7.695312500000, 1490770020
