ACC_X,ACC_Y,ACC_Z,G_X,G_Y,G_Z,Unix Time
0.158447265625, 0.874511718750, -0.239257812500, -6.031250000000, 7.484375000000, -3.687500000000, 1490769995
0.158447265625, 0.874511718750, -0.239257812500, -6.031250000000, 7.484375000000, -3.687500000000, 1490769995
0.158447265625, 0.874511718750, -0.239257812500, -6.031250000000, 7.484375000000, -3.687500000000, 1490769995
0.252929687500, 1.012939453125, -0.165527343750, -5.593750000000, 5.750000000000, -1.992187500000, 1490769995
0.252929687500, 1.012939453125, -0.165527343750, -5.593750000000, 5.750000000000, -1.992187500000, 1490769995
0.252929687500, 1.012939453125, -0.165527343750, -5.593750000000, 5.750000000000, -1.992187500000, 1490769995
0.252929687500, 1.012939453125, -0.165527343750, -5.593750000000, 5.750000000000, -1.992187500000, 1490769995
0.160644531250, 0.951904296875, -0.271240234375, -3.328125000000, -6.773437500000, -4.132812500000, 1490769995
0.160644531250, 0.951904296875, -0.271240234375, -4.171875000000, -7.078125000000, -4.648437500000, 1490769995
0.169921875000, 0.927001953125, -0.274414062500, -3.148437500000, -9.281250000000, -6.429687500000, 1490769995
0.169921875000, 0.927001953125, -0.274414062500, -3.148437500000, -9.281250000000, -6.429687500000, 1490769995
0.169921875000, 0.927001953125, -0.274414062500, -3.148437500000, -9.281250000000, -6.429687500000, 1490769995
0.169921875000, 0.927001953125, -0.274414062500, -3.148437500000, -9.281250000000, -6.429687500000, 1490769995
0.251220703125, 0.960449218750, -0.219970703125, -6.898437500000, 4.078125000000, -4.710937500000, 1490769995
0.251220703125, 0.960449218750, -0.219970703125, -6.898437500000, 4.078125000000, -4.710937500000, 1490769995
0.251220703125, 0.960449218750, -0.219970703125, -6.898437500000, 4.078125000000, -4.710937500000, 1490769995
0.153564453125, 0.920654296875, -0.334960937500, -3.015625000000, 1.492187500000, -3.687500000000, 1490769995
0.153564453125, 0.920654296875, -0.334960937500, -3.015625000000, 1.492187500000, -3.687500000000, 1490769995
0.153564453125, 0.920654296875, -0.334960937500, -3.015625000000, 1.492187500000, -3.687500000000, 1490769995
0.166503906250, 0.913818359375, -0.236328125000, -4.812500000000, -3.367187500000, -8.789062500000, 1490769995
0.166503906250, 0.913818359375, -0.236328125000, -4.812500000000, -3.367187500000, -8.789062500000, 1490769995
0.166503906250, 0.913818359375, -0.236328125000, -4.812500000000, -3.367187500000, -8.789062500000, 1490769995
0.166503906250, 0.913818359375, -0.236328125000, -4.812500000000, -3.367187500000, -8.789062500000, 1490769995
0.203125000000, 1.000244140625, -0.274414062500, -1.125000000000, 1.390625000000, -6.882812500000, 1490769995
0.203125000000, 1.000244140625, -0.274414062500, -1.125000000000, 1.390625000000, -6.882812500000, 1490769995
0.203125000000, 1.000244140625, -0.274414062500, -1.125000000000, 1.390625000000, -6.882812500000, 1490769995
0.061035156250, 0.873046875000, -0.232421875000, -2.953125000000, 4.890625000000, -4.890625000000, 1490769995
0.061035156250, 0.873046875000, -0.232421875000, -2.953125000000, 4.890625000000, -4.890625000000, 1490769995
0.061035156250, 0.873046875000, -0.232421875000, -2.953125000000, 4.890625000000, -4.890625000000, 1490769995
0.209228515625, 0.976074218750, -0.248046875000, 0.687500000000, -10.507812500000, -8.125000000000, 1490769995
0.209228515625, 0.976074218750, -0.248046875000, 0.687500000000, -10.507812500000, -8.125000000000, 1490769995
0.209228515625, 0.976074218750, -0.248046875000, 0.687500000000, -10.507812500000, -8.125000000000, 1490769995
0.209228515625, 0.976074218750, -0.248046875000, 0.687500000000, -10.507812500000, -8.125000000000, 1490769995
0.158935546875, 1.001708984375, -0.268554687500, 0.078125000000, -5.085937500000, -5.679687500000, 1490769995
0.158935546875, 1.001708984375, -0.268554687500, 0.078125000000, -5.085937500000, -5.679687500000, 1490769995
0.158935546875, 1.001708984375, -0.268554687500, 0.078125000000, -5.085937500000, -5.679687500000, 1490769995
0.259521484375, 0.928466796875, -0.319824218750, -4.835937500000, 7.726562500000, -4.710937500000, 1490769995
0.259521484375, 0.928466796875, -0.319824218750, -4.835937500000, 7.726562500000, -4.710937500000, 1490769995
0.259521484375, 0.928466796875, -0.319824218750, -4.835937500000, 7.726562500000, -4.710937500000, 1490769995
0.205810546875, 0.949218750000, -0.335449218750, -3.945312500000, 7.218750000000, -4.507812500000, 1490769995
0.205810546875, 0.949218750000, -0.335449218750, -3.945312500000, 7.218750000000, -4.507812500000, 1490769995
0.205810546875, 0.949218750000, -0.335449218750, -3.945312500000, 7.218750000000, -4.507812500000, 1490769995
0.165527343750, 0.918701171875, -0.227294921875, -6.640625000000, 4.273437500000, -3.109375000000, 1490769995
0.165527343750, 0.918701171875, -0.227294921875, -6.640625000000, 4.273437500000, -3.109375000000, 1490769995
0.165527343750, 0.918701171875, -0.227294921875, -6.640625000000, 4.273437500000, -3.109375000000, 1490769995
0.165527343750, 0.918701171875, -0.227294921875, -6.640625000000, 4.273437500000, -3.109375000000, 1490769995
0.123535156250, 1.029296875000, -0.264160156250, -1.609375000000, -6.437500000000, -3.195312500000, 1490769995
0.123535156250, 1.029296875000, -0.264160156250, -1.609375000000, -6.437500000000, -3.195312500000, 1490769995
0.123535156250, 1.029296875000, -0.264160156250, -1.609375000000, -6.437500000000, -3.195312500000, 1490769995
0.262207031250, 1.018798828125, -0.263183593750, -6.359375000000, -1.164062500000, -6.617187500000, 1490769995
0.262207031250, 1.018798828125, -0.263183593750, -6.359375000000, -1.164062500000, -6.617187500000, 1490769995
0.262207031250, 1.018798828125, -0.263183593750, -6.359375000000, -1.164062500000, -6.617187500000, 1490769995
0.158447265625, 0.926025390625, -0.175292968750, -1.593750000000, 1.382812500000, -6.710937500000, 1490769995
0.158447265625, 0.926025390625, -0.175292968750, -1.593750000000, 1.382812500000, -6.710937500000, 1490769995
0.158447265625, 0.926025390625, -0.175292968750, -1.593750000000, 1.382812500000, -6.710937500000, 1490769995
0.190185546875, 1.018066406250, -0.312988281250, -1.078125000000, -2.953125000000, -1.335937500000, 1490769995
0.190185546875, 1.018066406250, -0.312988281250, -1.078125000000, -2.953125000000, -1.335937500000, 1490769995
0.190185546875, 1.018066406250, -0.312988281250, -1.078125000000, -2.953125000000, -1.335937500000, 1490769995
0.190185546875, 1.018066406250, -0.312988281250, -1.078125000000, -2.953125000000, -1.335937500000, 1490769995
0.199707031250, 0.952148437500, -0.235107421875, -3.445312500000, 2.320312500000, -3.164062500000, 1490769996
0.199707031250, 0.952148437500, -0.235107421875, -3.445312500000, 2.320312500000, -3.164062500000, 1490769996
0.199707031250, 0.952148437500, -0.235107421875, -3.445312500000, 2.320312500000, -3.164062500000, 1490769996
0.210693359375, 0.968505859375, -0.260498046875, -3.210937500000, 8.796875000000, -1.273437500000, 1490769996
0.210693359375, 0.968505859375, -0.260498046875, -3.210937500000, 8.796875000000, -1.273437500000, 1490769996
0.210693359375, 0.968505859375, -0.260498046875, -3.210937500000, 8.796875000000, -1.273437500000, 1490769996
0.123291015625, 0.914062500000, -0.176513671875, -1.265625000000, -1.101562500000, -2.000000000000, 1490769996
0.123291015625, 0.914062500000, -0.176513671875, -1.265625000000, -1.101562500000, -2.000000000000, 1490769996
0.123291015625, 0.914062500000, -0.176513671875, -1.265625000000, -1.101562500000, -2.000000000000, 1490769996
0.205566406250, 0.995361328125, -0.179687500000, -1.039062500000, -0.281250000000, -3.101562500000, 1490769996
0.205566406250, 0.995361328125, -0.179687500000, -1.039062500000, -0.281250000000, -3.101562500000, 1490769996
0.205566406250, 0.995361328125, -0.179687500000, -1.039062500000, -0.281250000000, -3.101562500000, 1490769996
0.205566406250, 0.995361328125, -0.179687500000, -1.039062500000, -0.281250000000, -3.101562500000, 1490769996
0.107910156250, 0.917236328125, -0.265136718750, -4.078125000000, 2.750000000000, -3.335937500000, 1490769996
0.107910156250, 0.917236328125, -0.265136718750, -4.078125000000, 2.750000000000, -3.335937500000, 1490769996
0.107910156250, 0.917236328125, -0.265136718750, -4.078125000000, 2.750000000000, -3.335937500000, 1490769996
0.040771484375, 1.009277343750, -0.207275390625, 0.031250000000, -4.695312500000, -6.382812500000, 1490769996
0.040771484375, 1.009277343750, -0.207275390625, 0.031250000000, -4.695312500000, -6.382812500000, 1490769996
0.040771484375, 1.009277343750, -0.207275390625, 0.031250000000, -4.695312500000, -6.382812500000, 1490769996
0.110107421875, 1.022705078125, -0.291748046875, -1.656250000000, -4.515625000000, -6.367187500000, 1490769996
0.110107421875, 1.022705078125, -0.291748046875, -1.656250000000, -4.515625000000, -6.367187500000, 1490769996
0.110107421875, 1.022705078125, -0.291748046875, -1.656250000000, -4.515625000000, -6.367187500000, 1490769996
0.127929687500, 1.004150390625, -0.257568359375, -3.335937500000, 2.710937500000, -4.476562500000, 1490769996
0.127929687500, 1.004150390625, -0.257568359375, -3.335937500000, 2.710937500000, -4.476562500000, 1490769996
0.127929687500, 1.004150390625, -0.257568359375, -3.335937500000, 2.710937500000, -4.476562500000, 1490769996
0.127929687500, 1.004150390625, -0.257568359375, -3.335937500000, 2.710937500000, -4.476562500000, 1490769996
0.107421875000, 0.963623046875, -0.238281250000, -3.109375000000, -2.039062500000, -4.343750000000, 1490769996
0.107421875000, 0.963623046875, -0.238281250000, -3.109375000000, -2.039062500000, -4.343750000000, 1490769996
0.107421875000, 0.963623046875, -0.238281250000, -3.109375000000, -2.039062500000, -4.343750000000, 1490769996
0.180419921875, 0.964111328125, -0.178710937500, -6.468750000000, -0.320312500000, -6.265625000000, 1490769996
0.180419921875, 0.964111328125, -0.178710937500, -6.468750000000, -0.320312500000, -6.265625000000, 1490769996
0.180419921875, 0.964111328125, -0.178710937500, -6.468750000000, -0.320312500000, -6.265625000000, 1490769996
0.214843750000, 1.003417968750, -0.326171875000, -4.539062500000, 0.148437500000, -3.484375000000, 1490769996
0.214843750000, 1.003417968750, -0.326171875000, -4.539062500000, 0.148437500000, -3.484375000000, 1490769996
0.214843750000, 1.003417968750, -0.326171875000, -4.539062500000, 0.148437500000, -3.484375000000, 1490769996
0.058837890625, 0.922119140625, -0.264648437500, -3.593750000000, -1.929687500000, -8.882812500000, 1490769996
0.058837890625, 0.922119140625, -0.264648437500, -3.593750000000, -1.929687500000, -8.882812500000, 1490769996
0.058837890625, 0.922119140625, -0.264648437500, -3.593750000000, -1.929687500000, -8.882812500000, 1490769996
0.058837890625, 0.922119140625, -0.264648437500, -3.593750000000, -1.929687500000, -8.882812500000, 1490769996
0.104003906250, 1.009521484375, -0.277832031250, -6.203125000000, -9.828125000000, -5.718750000000, 1490769996
0.104003906250, 1.009521484375, -0.277832031250, -6.203125000000, -9.828125000000, -5.718750000000, 1490769996
0.104003906250, 1.009521484375, -0.277832031250, -6.203125000000, -9.828125000000, -5.718750000000, 1490769996
0.195556640625, 0.927490234375, -0.248779296875, -1.664062500000, -9.968750000000, -6.625000000000, 1490769996
0.195556640625, 0.927490234375, -0.248779296875, -1.664062500000, -9.968750000000, -6.625000000000, 1490769996
0.195556640625, 0.927490234375, -0.248779296875, -1.664062500000, -9.968750000000, -6.625000000000, 1490769996
0.117675781250, 0.936279296875, -0.240234375000, -8.078125000000, -11.765625000000, -6.593750000000, 1490769996
0.117675781250, 0.936279296875, -0.240234375000, -8.078125000000, -11.765625000000, -6.593750000000, 1490769996
0.117675781250, 0.936279296875, -0.240234375000, -8.078125000000, -11.765625000000, -6.593750000000, 1490769996
0.154541015625, 0.907226562500, -0.239990234375, -4.976562500000, -1.718750000000, 6.929687500000, 1490769996
0.154541015625, 0.907226562500, -0.239990234375, -4.976562500000, -1.718750000000, 6.929687500000, 1490769996
0.154541015625, 0.907226562500, -0.239990234375, -4.976562500000, -1.718750000000, 6.929687500000, 1490769996
0.154541015625, 0.907226562500, -0.239990234375, -4.976562500000, -1.718750000000, 6.929687500000, 1490769996
0.258056640625, 0.962158203125, -0.239257812500, -3.828125000000, 2.882812500000, 4.140625000000, 1490769996
0.248779296875, 1.006103515625, -0.258056640625, -6.953125000000, 14.773437500000, -0.601562500000, 1490769996
0.248779296875, 1.006103515625, -0.258056640625, -6.953125000000, 14.773437500000, -0.601562500000, 1490769996
0.248779296875, 1.006103515625, -0.258056640625, -6.953125000000, 14.773437500000, -0.601562500000, 1490769996
0.248779296875, 1.006103515625, -0.258056640625, -6.953125000000, 14.773437500000, -0.601562500000, 1490769996
0.248779296875, 1.006103515625, -0.258056640625, -6.953125000000, 14.773437500000, -0.601562500000, 1490769996
0.197509765625, 0.923583984375, -0.230957031250, -4.140625000000, 6.281250000000, -6.359375000000, 1490769996
0.197509765625, 0.923583984375, -0.230957031250, -4.140625000000, 6.281250000000, -6.359375000000, 1490769996
0.121826171875, 1.006103515625, -0.325927734375, 2.359375000000, -21.226562500000, -6.445312500000, 1490769996
0.121826171875, 1.006103515625, -0.325927734375, 2.359375000000, -21.226562500000, -6.445312500000, 1490769996
0.121826171875, 1.006103515625, -0.325927734375, 2.359375000000, -21.226562500000, -6.445312500000, 1490769996
0.121826171875, 1.006103515625, -0.325927734375, 2.359375000000, -21.226562500000, -6.445312500000, 1490769996
0.121826171875, 1.006103515625, -0.325927734375, 2.359375000000, -21.226562500000, -6.445312500000, 1490769996
0.191406250000, 1.009521484375, -0.296386718750, -5.242187500000, 5.851562500000, -2.546875000000, 1490769997
0.191406250000, 1.009521484375, -0.296386718750, -5.242187500000, 5.851562500000, -2.546875000000, 1490769997
0.191406250000, 1.009521484375, -0.296386718750, -5.242187500000, 5.851562500000, -2.546875000000, 1490769997
0.141357421875, 1.021728515625, -0.334472656250, -8.648437500000, 21.796875000000, -1.570312500000, 1490769997
0.141357421875, 1.021728515625, -0.334472656250, -8.648437500000, 21.796875000000, -1.570312500000, 1490769997
0.141357421875, 1.021728515625, -0.334472656250, -8.648437500000, 21.796875000000, -1.570312500000, 1490769997
0.201416015625, 1.023925781250, -0.172851562500, -3.507812500000, 10.500000000000, -3.742187500000, 1490769997
0.201416015625, 1.023925781250, -0.172851562500, -3.507812500000, 10.500000000000, -3.742187500000, 1490769997
0.201416015625, 1.023925781250, -0.172851562500, -3.507812500000, 10.500000000000, -3.742187500000, 1490769997
0.164306640625, 0.851318359375, -0.220703125000, 0.640625000000, -15.375000000000, -5.156250000000, 1490769997
0.164306640625, 0.851318359375, -0.220703125000, 0.640625000000, -15.375000000000, -5.156250000000, 1490769997
0.164306640625, 0.851318359375, -0.220703125000, 0.640625000000, -15.375000000000, -5.156250000000, 1490769997
0.164306640625, 0.851318359375, -0.220703125000, 0.640625000000, -15.375000000000, -5.156250000000, 1490769997
0.123535156250, 1.030029296875, -0.299560546875, -4.703125000000, -15.421875000000, -5.007812500000, 1490769997
0.123535156250, 1.030029296875, -0.299560546875, -4.703125000000, -15.421875000000, -5.007812500000, 1490769997
0.123535156250, 1.030029296875, -0.299560546875, -4.703125000000, -15.421875000000, -5.007812500000, 1490769997
0.124511718750, 0.983642578125, -0.295410156250, -6.992187500000, 3.953125000000, -4.625000000000, 1490769997
0.124511718750, 0.983642578125, -0.295410156250, -6.992187500000, 3.953125000000, -4.625000000000, 1490769997
0.124511718750, 0.983642578125, -0.295410156250, -6.992187500000, 3.953125000000, -4.625000000000, 1490769997
0.200927734375, 0.967773437500, -0.170166015625, -7.921875000000, 9.523437500000, -1.695312500000, 1490769997
0.200927734375, 0.967773437500, -0.170166015625, -7.921875000000, 9.523437500000, -1.695312500000, 1490769997
0.200927734375, 0.967773437500, -0.170166015625, -7.921875000000, 9.523437500000, -1.695312500000, 1490769997
0.146240234375, 0.978271484375, -0.240966796875, -4.484375000000, -14.851562500000, -7.195312500000, 1490769997
0.146240234375, 0.978271484375, -0.240966796875, -4.484375000000, -14.851562500000, -7.195312500000, 1490769997
0.146240234375, 0.978271484375, -0.240966796875, -4.484375000000, -14.851562500000, -7.195312500000, 1490769997
0.146240234375, 0.978271484375, -0.240966796875, -4.484375000000, -14.851562500000, -7.195312500000, 1490769997
0.141845703125, 1.021728515625, -0.288085937500, -3.765625000000, -15.078125000000, -8.648437500000, 1490769997
0.141845703125, 1.021728515625, -0.288085937500, -3.765625000000, -15.078125000000, -8.648437500000, 1490769997
0.141845703125, 1.021728515625, -0.288085937500, -3.765625000000, -15.078125000000, -8.648437500000, 1490769997
0.207275390625, 0.957763671875, -0.377441406250, -8.609375000000, -1.085937500000, -5.484375000000, 1490769997
0.207275390625, 0.957763671875, -0.377441406250, -8.609375000000, -1.085937500000, -5.484375000000, 1490769997
0.207275390625, 0.957763671875, -0.377441406250, -8.609375000000, -1.085937500000, -5.484375000000, 1490769997
0.218750000000, 0.868896484375, -0.313476562500, -8.054687500000, 6.625000000000, -4.882812500000, 1490769997
0.218750000000, 0.868896484375, -0.313476562500, -8.054687500000, 6.625000000000, -4.882812500000, 1490769997
0.218750000000, 0.868896484375, -0.313476562500, -8.054687500000, 6.625000000000, -4.882812500000, 1490769997
0.160888671875, 0.942871093750, -0.280517578125, -6.242187500000, -1.406250000000, -8.710937500000, 1490769997
0.160888671875, 0.942871093750, -0.280517578125, -6.242187500000, -1.406250000000, -8.710937500000, 1490769997
0.160888671875, 0.942871093750, -0.280517578125, -6.242187500000, -1.406250000000, -8.710937500000, 1490769997
0.160888671875, 0.942871093750, -0.280517578125, -6.242187500000, -1.406250000000, -8.710937500000, 1490769997
0.171142578125, 0.966796875000, -0.183837890625, -8.617187500000, -3.171875000000, -7.296875000000, 1490769997
0.171142578125, 0.966796875000, -0.183837890625, -8.617187500000, -3.171875000000, -7.296875000000, 1490769997
0.171142578125, 0.966796875000, -0.183837890625, -8.617187500000, -3.171875000000, -7.296875000000, 1490769997
0.119384765625, 0.926025390625, -0.278320312500, -10.773437500000, 2.492187500000, -5.125000000000, 1490769997
0.119384765625, 0.926025390625, -0.278320312500, -10.773437500000, 2.492187500000, -5.125000000000, 1490769997
0.119384765625, 0.926025390625, -0.278320312500, -10.773437500000, 2.492187500000, -5.125000000000, 1490769997
0.152343750000, 0.978515625000, -0.277587890625, -7.578125000000, 5.953125000000, -8.500000000000, 1490769997
0.152343750000, 0.978515625000, -0.277587890625, -7.578125000000, 5.953125000000, -8.500000000000, 1490769997
0.152343750000, 0.978515625000, -0.277587890625, -7.578125000000, 5.953125000000, -8.500000000000, 1490769997
0.123535156250, 0.963623046875, -0.226806640625, -6.742187500000, -3.343750000000, -7.140625000000, 1490769997
0.123535156250, 0.963623046875, -0.226806640625, -6.742187500000, -3.343750000000, -7.140625000000, 1490769997
0.123535156250, 0.963623046875, -0.226806640625, -6.742187500000, -3.343750000000, -7.140625000000, 1490769997
0.123535156250, 0.963623046875, -0.226806640625, -6.742187500000, -3.343750000000, -7.140625000000, 1490769997
0.197509765625, 0.906982421875, -0.246582031250, -1.929687500000, -7.539062500000, -5.937500000000, 1490769997
0.197509765625, 0.906982421875, -0.246582031250, -1.929687500000, -7.539062500000, -5.937500000000, 1490769997
0.197509765625, 0.906982421875, -0.246582031250, -1.929687500000, -7.539062500000, -5.937500000000, 1490769997
0.197753906250, 0.874023437500, -0.297119140625, -3.570312500000, -8.828125000000, -7.046875000000, 1490769997
0.197753906250, 0.874023437500, -0.297119140625, -3.570312500000, -8.828125000000, -7.046875000000, 1490769997
0.197753906250, 0.874023437500, -0.297119140625, -3.570312500000, -8.828125000000, -7.046875000000, 1490769997
0.197021484375, 0.940673828125, -0.275878906250, -6.156250000000, 4.679687500000, -3.500000000000, 1490769997
0.197021484375, 0.940673828125, -0.275878906250, -6.156250000000, 4.679687500000, -3.500000000000, 1490769997
0.197021484375, 0.940673828125, -0.275878906250, -6.156250000000, 4.679687500000, -3.500000000000, 1490769997
0.255126953125, 0.916259765625, -0.303710937500, -6.648437500000, -2.242187500000, -4.406250000000, 1490769997
0.255126953125, 0.916259765625, -0.303710937500, -6.648437500000, -2.242187500000, -4.406250000000, 1490769997
0.255126953125, 0.916259765625, -0.303710937500, -6.648437500000, -2.242187500000, -4.406250000000, 1490769997
0.255126953125, 0.916259765625, -0.303710937500, -6.648437500000, -2.242187500000, -4.406250000000, 1490769997
0.213623046875, 0.846435546875, -0.331298828125, -3.250000000000, -4.273437500000, -3.046875000000, 1490769997
0.213623046875, 0.846435546875, -0.331298828125, -3.250000000000, -4.273437500000, -3.046875000000, 1490769997
0.213623046875, 0.846435546875, -0.331298828125, -3.250000000000, -4.273437500000, -3.046875000000, 1490769997
0.046875000000, 0.928466796875, -0.304931640625, -6.078125000000, -4.796875000000, -6.960937500000, 1490769998
0.046875000000, 0.928466796875, -0.304931640625, -6.078125000000, -4.796875000000, -6.960937500000, 1490769998
0.046875000000, 0.928466796875, -0.304931640625, -6.078125000000, -4.796875000000, -6.960937500000, 1490769998
0.265136718750, 1.007568359375, -0.244140625000, -4.851562500000, 0.609375000000, -5.664062500000, 1490769998
0.265136718750, 1.007568359375, -0.244140625000, -4.851562500000, 0.609375000000, -5.664062500000, 1490769998
0.265136718750, 1.007568359375, -0.244140625000, -4.851562500000, 0.609375000000, -5.664062500000, 1490769998
0.108398437500, 0.912841796875, -0.284912109375, -3.070312500000, 0.406250000000, -5.968750000000, 1490769998
0.108398437500, 0.912841796875, -0.284912109375, -3.070312500000, 0.406250000000, -5.968750000000, 1490769998
0.108398437500, 0.912841796875, -0.284912109375, -3.070312500000, 0.406250000000, -5.968750000000, 1490769998
0.108398437500, 0.912841796875, -0.284912109375, -3.070312500000, 0.406250000000, -5.968750000000, 1490769998
0.122070312500, 0.930664062500, -0.352539062500, -4.414062500000, 3.578125000000, -6.054687500000, 1490769998
0.122070312500, 0.930664062500, -0.352539062500, -4.414062500000, 3.578125000000, -6.054687500000, 1490769998
0.122070312500, 0.930664062500, -0.352539062500, -4.414062500000, 3.578125000000, -6.054687500000, 1490769998
0.229248046875, 0.947753906250, -0.389160156250, 1.734375000000, -0.453125000000, 0.468750000000, 1490769998
0.229248046875, 0.947753906250, -0.389160156250, 1.734375000000, -0.453125000000, 0.468750000000, 1490769998
0.229248046875, 0.947753906250, -0.389160156250, 1.734375000000, -0.453125000000, 0.468750000000, 1490769998
0.202636718750, 0.792968750000, -0.291503906250, 1.343750000000, 7.617187500000, 6.445312500000, 1490769998
0.202636718750, 0.792968750000, -0.291503906250, 1.343750000000, 7.617187500000, 6.445312500000, 1490769998
0.221923828125, 0.753173828125, -0.313720703125, 14.437500000000, 31.718750000000, 9.570312500000, 1490769998
0.221923828125, 0.753173828125, -0.313720703125, 14.437500000000, 31.718750000000, 9.570312500000, 1490769998
0.221923828125, 0.753173828125, -0.313720703125, 14.437500000000, 31.718750000000, 9.570312500000, 1490769998
0.221923828125, 0.753173828125, -0.313720703125, 14.437500000000, 31.718750000000, 9.570312500000, 1490769998
0.221923828125, 0.753173828125, -0.313720703125, 14.437500000000, 31.718750000000, 9.570312500000, 1490769998
0.270507812500, 0.898925781250, -0.270507812500, 14.390625000000, 8.703125000000, 28.398437500000, 1490769998
0.270507812500, 0.898925781250, -0.270507812500, 14.390625000000, 8.703125000000, 28.398437500000, 1490769998
0.270507812500, 0.898925781250, -0.270507812500, 14.390625000000, 8.703125000000, 28.398437500000, 1490769998
0.275878906250, 0.785400390625, -0.256591796875, 32.359375000000, -46.132812500000, 16.921875000000, 1490769998
0.275878906250, 0.785400390625, -0.256591796875, 32.359375000000, -46.132812500000, 16.921875000000, 1490769998
0.275878906250, 0.785400390625, -0.256591796875, 32.359375000000, -46.132812500000, 16.921875000000, 1490769998
0.095703125000, 1.070800781250, -0.178710937500, 35.500000000000, -105.773437500000, 3.992187500000, 1490769998
0.095703125000, 1.070800781250, -0.178710937500, 35.500000000000, -105.773437500000, 3.992187500000, 1490769998
0.095703125000, 1.070800781250, -0.178710937500, 35.500000000000, -105.773437500000, 3.992187500000, 1490769998
0.034667968750, 0.983886718750, -0.291992187500, 72.617187500000, -64.226562500000, -4.359375000000, 1490769998
0.034667968750, 0.983886718750, -0.291992187500, 72.617187500000, -64.226562500000, -4.359375000000, 1490769998
0.034667968750, 0.983886718750, -0.291992187500, 72.617187500000, -64.226562500000, -4.359375000000, 1490769998
0.071777343750, 1.030029296875, -0.309082031250, 63.679687500000, -62.265625000000, -0.945312500000, 1490769998
0.084960937500, 1.002197265625, -0.246093750000, 56.593750000000, -45.234375000000, -1.671875000000, 1490769998
0.084960937500, 1.002197265625, -0.246093750000, 56.593750000000, -45.234375000000, -1.671875000000, 1490769998
0.084960937500, 1.002197265625, -0.246093750000, 56.593750000000, -45.234375000000, -1.671875000000, 1490769998
0.005615234375, 0.982177734375, -0.212890625000, 45.148437500000, 10.898437500000, 8.960937500000, 1490769998
0.005615234375, 0.982177734375, -0.212890625000, 45.148437500000, 10.898437500000, 8.960937500000, 1490769998
0.005615234375, 0.982177734375, -0.212890625000, 45.148437500000, 10.898437500000, 8.960937500000, 1490769998
0.092529296875, 1.193847656250, -0.129394531250, 29.601562500000, 57.984375000000, 15.218750000000, 1490769998
0.092529296875, 1.193847656250, -0.129394531250, 29.601562500000, 57.984375000000, 15.218750000000, 1490769998
0.092529296875, 1.193847656250, -0.129394531250, 29.601562500000, 57.984375000000, 15.218750000000, 1490769998
0.128662109375, 1.194335937500, 0.004394531250, 11.734375000000, 27.242187500000, 11.585937500000, 1490769998
0.128662109375, 1.194335937500, 0.004394531250, 11.734375000000, 27.242187500000, 11.585937500000, 1490769998
0.128662109375, 1.194335937500, 0.004394531250, 11.734375000000, 27.242187500000, 11.585937500000, 1490769998
0.128662109375, 1.194335937500, 0.004394531250, 11.734375000000, 27.242187500000, 11.585937500000, 1490769998
-0.070800781250, 1.280029296875, -0.060546875000, -20.367187500000, 78.882812500000, -22.210937500000, 1490769998
-0.070800781250, 1.280029296875, -0.060546875000, -20.367187500000, 78.882812500000, -22.210937500000, 1490769998
-0.070800781250, 1.280029296875, -0.060546875000, -20.367187500000, 78.882812500000, -22.210937500000, 1490769998
0.004882812500, 1.470947265625, -0.117187500000, -54.945312500000, 128.171875000000, 32.257812500000, 1490769998
0.004882812500, 1.470947265625, -0.117187500000, -54.945312500000, 128.171875000000, 32.257812500000, 1490769998
0.004882812500, 1.470947265625, -0.117187500000, -54.945312500000, 128.171875000000, 32.257812500000, 1490769998
-0.089599609375, 1.697021484375, -0.270019531250, -76.789062500000, 59.648437500000, 37.164062500000, 1490769998
-0.089599609375, 1.697021484375, -0.270019531250, -76.789062500000, 59.648437500000, 37.164062500000, 1490769998
-0.089599609375, 1.697021484375, -0.270019531250, -76.789062500000, 59.648437500000, 37.164062500000, 1490769998
0.036621093750, 1.693603515625, -0.137207031250, -158.328125000000, -75.445312500000, -41.171875000000, 1490769998
0.036621093750, 1.693603515625, -0.137207031250, -158.328125000000, -75.445312500000, -41.171875000000, 1490769998
0.036621093750, 1.693603515625, -0.137207031250, -158.328125000000, -75.445312500000, -41.171875000000, 1490769998
0.036621093750, 1.693603515625, -0.137207031250, -158.328125000000, -75.445312500000, -41.171875000000, 1490769998
0.064453125000, 1.532470703125, -0.120361328125, -36.757812500000, -52.226562500000, -6.218750000000, 1490769998
0.064453125000, 1.532470703125, -0.120361328125, -36.757812500000, -52.226562500000, -6.218750000000, 1490769998
0.064453125000, 1.532470703125, -0.120361328125, -36.757812500000, -52.226562500000, -6.218750000000, 1490769998
-0.138671875000, 1.285400390625, -0.212158203125, -74.140625000000, 18.859375000000, 37.179687500000, 1490769999
-0.138671875000, 1.285400390625, -0.212158203125, -74.140625000000, 18.859375000000, 37.179687500000, 1490769999
-0.138671875000, 1.285400390625, -0.212158203125, -74.140625000000, 18.859375000000, 37.179687500000, 1490769999
-0.215576171875, 0.930419921875, -0.136962890625, 58.109375000000, 173.000000000000, 26.031250000000, 1490769999
-0.215576171875, 0.930419921875, -0.136962890625, 58.109375000000, 173.000000000000, 26.031250000000, 1490769999
-0.215576171875, 0.930419921875, -0.136962890625, 58.109375000000, 173.000000000000, 26.031250000000, 1490769999
-0.081787109375, 0.966064453125, -0.248779296875, -11.460937500000, 75.421875000000, -30.265625000000, 1490769999
-0.081787109375, 0.966064453125, -0.248779296875, -11.460937500000, 75.421875000000, -30.265625000000, 1490769999
-0.081787109375, 0.966064453125, -0.248779296875, -11.460937500000, 75.421875000000, -30.265625000000, 1490769999
-0.081787109375, 0.966064453125, -0.248779296875, -11.460937500000, 75.421875000000, -30.265625000000, 1490769999
-0.021484375000, 1.172607421875, -0.264648437500, -142.976562500000, -89.765625000000, -48.492187500000, 1490769999
-0.021484375000, 1.172607421875, -0.264648437500, -142.976562500000, -89.765625000000, -48.492187500000, 1490769999
-0.021484375000, 1.172607421875, -0.264648437500, -142.976562500000, -89.765625000000, -48.492187500000, 1490769999
0.131591796875, 0.925781250000, 0.012695312500, 13.664062500000, -145.359375000000, -38.632812500000, 1490769999
0.131591796875, 0.925781250000, 0.012695312500, 13.664062500000, -145.359375000000, -38.632812500000, 1490769999
0.131591796875, 0.925781250000, 0.012695312500, 13.664062500000, -145.359375000000, -38.632812500000, 1490769999
0.129882812500, 0.915771484375, -0.143798828125, 94.156250000000, -59.945312500000, -6.343750000000, 1490769999
0.129882812500, 0.915771484375, -0.143798828125, 94.156250000000, -59.945312500000, -6.343750000000, 1490769999
0.129882812500, 0.915771484375, -0.143798828125, 94.156250000000, -59.945312500000, -6.343750000000, 1490769999
-0.284912109375, 0.738037109375, -0.294433593750, -131.812500000000, -212.085937500000, -56.046875000000, 1490769999
-0.284912109375, 0.738037109375, -0.294433593750, -131.812500000000, -212.085937500000, -56.046875000000, 1490769999
-0.284912109375, 0.738037109375, -0.294433593750, -131.812500000000, -212.085937500000, -56.046875000000, 1490769999
-0.284912109375, 0.738037109375, -0.294433593750, -131.812500000000, -212.085937500000, -56.046875000000, 1490769999
-0.333251953125, 0.771728515625, -0.263427734375, -77.453125000000, 242.476562500000, 46.625000000000, 1490769999
-0.333251953125, 0.771728515625, -0.263427734375, -77.453125000000, 242.476562500000, 46.625000000000, 1490769999
-0.333251953125, 0.771728515625, -0.263427734375, -77.453125000000, 242.476562500000, 46.625000000000, 1490769999
0.088134765625, 0.659423828125, -0.394775390625, -45.109375000000, 164.828125000000, -25.789062500000, 1490769999
0.088134765625, 0.659423828125, -0.394775390625, -45.109375000000, 164.828125000000, -25.789062500000, 1490769999
0.088134765625, 0.659423828125, -0.394775390625, -45.109375000000, 164.828125000000, -25.789062500000, 1490769999
0.009521484375, 0.818359375000, -0.259521484375, -155.523437500000, 83.445312500000, 4.351562500000, 1490769999
0.009521484375, 0.818359375000, -0.259521484375, -155.523437500000, 83.445312500000, 4.351562500000, 1490769999
0.009521484375, 0.818359375000, -0.259521484375, -155.523437500000, 83.445312500000, 4.351562500000, 1490769999
0.169189453125, 0.644531250000, -0.170654296875, -60.492187500000, -58.382812500000, -51.289062500000, 1490769999
0.169189453125, 0.644531250000, -0.170654296875, -60.492187500000, -58.382812500000, -51.289062500000, 1490769999
0.169189453125, 0.644531250000, -0.170654296875, -60.492187500000, -58.382812500000, -51.289062500000, 1490769999
0.169189453125, 0.644531250000, -0.170654296875, -60.492187500000, -58.382812500000, -51.289062500000, 1490769999
0.121582031250, 0.509765625000, -0.304199218750, -22.664062500000, -161.187500000000, -61.914062500000, 1490769999
0.121582031250, 0.509765625000, -0.304199218750, -22.664062500000, -161.187500000000, -61.914062500000, 1490769999
0.121582031250, 0.509765625000, -0.304199218750, -22.664062500000, -161.187500000000, -61.914062500000, 1490769999
-0.076660156250, 0.364013671875, -0.398437500000, -52.500000000000, -200.281250000000, -47.429687500000, 1490769999
-0.076660156250, 0.364013671875, -0.398437500000, -52.500000000000, -200.281250000000, -47.429687500000, 1490769999
-0.076660156250, 0.364013671875, -0.398437500000, -52.500000000000, -200.281250000000, -47.429687500000, 1490769999
-0.154296875000, 0.528076171875, -0.474609375000, -73.414062500000, -82.234375000000, -24.429687500000, 1490769999
-0.154296875000, 0.528076171875, -0.474609375000, -73.414062500000, -82.234375000000, -24.429687500000, 1490769999
-0.154296875000, 0.528076171875, -0.474609375000, -73.414062500000, -82.234375000000, -24.429687500000, 1490769999
-0.093261718750, 0.555664062500, -0.551513671875, -36.539062500000, -6.781250000000, -24.492187500000, 1490769999
-0.093261718750, 0.555664062500, -0.551513671875, -36.539062500000, -6.781250000000, -24.492187500000, 1490769999
-0.093261718750, 0.555664062500, -0.551513671875, -36.539062500000, -6.781250000000, -24.492187500000, 1490769999
-0.093261718750, 0.555664062500, -0.551513671875, -36.539062500000, -6.781250000000, -24.492187500000, 1490769999
-0.013916015625, 0.574462890625, -0.768310546875, -38.289062500000, -10.078125000000, -5.492187500000, 1490769999
-0.013916015625, 0.574462890625, -0.768310546875, -38.289062500000, -10.078125000000, -5.492187500000, 1490769999
-0.013916015625, 0.574462890625, -0.768310546875, -38.289062500000, -10.078125000000, -5.492187500000, 1490769999
0.009033203125, 0.819824218750, -0.824462890625, -7.062500000000, -53.742187500000, -15.750000000000, 1490769999
0.009033203125, 0.819824218750, -0.824462890625, -7.062500000000, -53.742187500000, -15.750000000000, 1490769999
0.009033203125, 0.819824218750, -0.824462890625, -7.062500000000, -53.742187500000, -15.750000000000, 1490769999
-0.041015625000, 0.692138671875, -0.778320312500, -7.132812500000, 11.765625000000, 6.570312500000, 1490769999
-0.041015625000, 0.692138671875, -0.778320312500, -7.132812500000, 11.765625000000, 6.570312500000, 1490769999
-0.041015625000, 0.692138671875, -0.778320312500, -7.132812500000, 11.765625000000, 6.570312500000, 1490769999
-0.152099609375, 0.586181640625, -0.703613281250, -22.968750000000, -13.843750000000, -8.359375000000, 1490769999
-0.152099609375, 0.586181640625, -0.703613281250, -22.968750000000, -13.843750000000, -8.359375000000, 1490769999
-0.152099609375, 0.586181640625, -0.703613281250, -22.968750000000, -13.843750000000, -8.359375000000, 1490769999
-0.152099609375, 0.586181640625, -0.703613281250, -22.968750000000, -13.843750000000, -8.359375000000, 1490769999
-0.120117187500, 0.643066406250, -0.534423828125, -13.265625000000, 20.968750000000, 0.460937500000, 1490769999
-0.120117187500, 0.643066406250, -0.534423828125, -13.265625000000, 20.968750000000, 0.460937500000, 1490769999
-0.120117187500, 0.643066406250, -0.534423828125, -13.265625000000, 20.968750000000, 0.460937500000, 1490769999
-0.066650390625, 0.698242187500, -0.754394531250, 10.984375000000, -2.343750000000, -4.765625000000, 1490769999
-0.066650390625, 0.698242187500, -0.754394531250, 10.984375000000, -2.343750000000, -4.765625000000, 1490769999
-0.066650390625, 0.698242187500, -0.754394531250, 10.984375000000, -2.343750000000, -4.765625000000, 1490769999
-0.093261718750, 0.664794921875, -0.790771484375, 1.375000000000, -66.882812500000, -14.757812500000, 1490770000
-0.093261718750, 0.664794921875, -0.790771484375, 1.375000000000, -66.882812500000, -14.757812500000, 1490770000
-0.093261718750, 0.664794921875, -0.790771484375, 1.375000000000, -66.882812500000, -14.757812500000, 1490770000
0.000976562500, 0.692138671875, -0.727294921875, -22.804687500000, 46.078125000000, 10.492187500000, 1490770000
0.000976562500, 0.692138671875, -0.727294921875, -22.804687500000, 46.078125000000, 10.492187500000, 1490770000
0.000976562500, 0.692138671875, -0.727294921875, -22.804687500000, 46.078125000000, 10.492187500000, 1490770000
0.000976562500, 0.692138671875, -0.727294921875, -22.804687500000, 46.078125000000, 10.492187500000, 1490770000
-0.110595703125, 0.680664062500, -0.726074218750, -11.351562500000, -6.484375000000, -2.382812500000, 1490770000
-0.110595703125, 0.680664062500, -0.726074218750, -11.351562500000, -6.484375000000, -2.382812500000, 1490770000
-0.110595703125, 0.680664062500, -0.726074218750, -11.351562500000, -6.484375000000, -2.382812500000, 1490770000
-0.110595703125, 0.680664062500, -0.726074218750, -11.351562500000, -6.484375000000, -2.382812500000, 1490770000
-0.110595703125, 0.680664062500, -0.726074218750, -11.351562500000, -6.484375000000, -2.382812500000, 1490770000
-0.132568359375, 0.605468750000, -0.738281250000, -0.617187500000, -24.750000000000, 0.078125000000, 1490770000
-0.132568359375, 0.605468750000, -0.738281250000, -0.617187500000, -24.750000000000, 0.078125000000, 1490770000
-0.132568359375, 0.605468750000, -0.738281250000, -0.617187500000, -24.750000000000, 0.078125000000, 1490770000
-0.132568359375, 0.605468750000, -0.738281250000, -0.617187500000, -24.750000000000, 0.078125000000, 1490770000
-0.039306640625, 0.607177734375, -0.818603515625, -5.757812500000, -1.898437500000, -8.554687500000, 1490770000
-0.039306640625, 0.607177734375, -0.818603515625, -5.757812500000, -1.898437500000, -8.554687500000, 1490770000
-0.039306640625, 0.607177734375, -0.818603515625, -5.757812500000, -1.898437500000, -8.554687500000, 1490770000
-0.039306640625, 0.607177734375, -0.818603515625, -5.757812500000, -1.898437500000, -8.554687500000, 1490770000
-0.072753906250, 0.662597656250, -0.656250000000, -9.335937500000, -3.906250000000, -7.320312500000, 1490770000
-0.072753906250, 0.662597656250, -0.656250000000, -9.335937500000, -3.906250000000, -7.320312500000, 1490770000
-0.072753906250, 0.662597656250, -0.656250000000, -9.335937500000, -3.906250000000, -7.320312500000, 1490770000
-0.102783203125, 0.679199218750, -0.772705078125, -11.367187500000, -22.171875000000, -13.437500000000, 1490770000
-0.102783203125, 0.679199218750, -0.772705078125, -11.367187500000, -22.171875000000, -13.437500000000, 1490770000
-0.102783203125, 0.679199218750, -0.772705078125, -11.367187500000, -22.171875000000, -13.437500000000, 1490770000
-0.147705078125, 0.639648437500, -0.743408203125, -10.921875000000, -26.531250000000, -16.234375000000, 1490770000
-0.147705078125, 0.639648437500, -0.743408203125, -10.921875000000, -26.531250000000, -16.234375000000, 1490770000
-0.147705078125, 0.639648437500, -0.743408203125, -10.921875000000, -26.531250000000, -16.234375000000, 1490770000
-0.199462890625, 0.703613281250, -0.750000000000, -7.703125000000, -6.789062500000, -7.117187500000, 1490770000
-0.199462890625, 0.703613281250, -0.750000000000, -7.703125000000, -6.789062500000, -7.117187500000, 1490770000
-0.199462890625, 0.703613281250, -0.750000000000, -7.703125000000, -6.789062500000, -7.117187500000, 1490770000
-0.199462890625, 0.703613281250, -0.750000000000, -7.703125000000, -6.789062500000, -7.117187500000, 1490770000
-0.116455078125, 0.611816406250, -0.722167968750, -7.328125000000, -0.312500000000, -8.265625000000, 1490770000
-0.116455078125, 0.611816406250, -0.722167968750, -7.328125000000, -0.312500000000, -8.265625000000, 1490770000
-0.116455078125, 0.611816406250, -0.722167968750, -7.328125000000, -0.312500000000, -8.265625000000, 1490770000
-0.226318359375, 0.546875000000, -0.761962890625, -6.515625000000, -8.562500000000, -6.875000000000, 1490770000
-0.226318359375, 0.546875000000, -0.761962890625, -6.515625000000, -8.562500000000, -6.875000000000, 1490770000
-0.226318359375, 0.546875000000, -0.761962890625, -6.515625000000, -8.562500000000, -6.875000000000, 1490770000
-0.114990234375, 0.642333984375, -0.769042968750, -7.187500000000, -11.937500000000, -7.398437500000, 1490770000
-0.114990234375, 0.642333984375, -0.769042968750, -7.187500000000, -11.937500000000, -7.398437500000, 1490770000
-0.114990234375, 0.642333984375, -0.769042968750, -7.187500000000, -11.937500000000, -7.398437500000, 1490770000
-0.141845703125, 0.667236328125, -0.748046875000, 0.015625000000, -0.250000000000, -14.351562500000, 1490770000
-0.141845703125, 0.667236328125, -0.748046875000, 0.015625000000, -0.250000000000, -14.351562500000, 1490770000
-0.141845703125, 0.667236328125, -0.748046875000, 0.015625000000, -0.250000000000, -14.351562500000, 1490770000
-0.141845703125, 0.667236328125, -0.748046875000, 0.015625000000, -0.250000000000, -14.351562500000, 1490770000
-0.100341796875, 0.705322265625, -0.815185546875, -5.429687500000, -16.687500000000, -14.578125000000, 1490770000
-0.100341796875, 0.705322265625, -0.815185546875, -5.429687500000, -16.687500000000, -14.578125000000, 1490770000
-0.100341796875, 0.705322265625, -0.815185546875, -5.429687500000, -16.687500000000, -14.578125000000, 1490770000
-0.159667968750, 0.644531250000, -0.778564453125, -8.562500000000, -13.257812500000, -11.757812500000, 1490770000
-0.159667968750, 0.644531250000, -0.778564453125, -8.562500000000, -13.257812500000, -11.757812500000, 1490770000
-0.159667968750, 0.644531250000, -0.778564453125, -8.562500000000, -13.257812500000, -11.757812500000, 1490770000
-0.216308593750, 0.615234375000, -0.815429687500, -1.726562500000, 2.164062500000, -8.750000000000, 1490770000
-0.216308593750, 0.615234375000, -0.815429687500, -1.726562500000, 2.164062500000, -8.750000000000, 1490770000
-0.216308593750, 0.615234375000, -0.815429687500, -1.726562500000, 2.164062500000, -8.750000000000, 1490770000
-0.135498046875, 0.675048828125, -0.666748046875, -2.515625000000, 4.500000000000, -8.984375000000, 1490770000
-0.135498046875, 0.675048828125, -0.666748046875, -2.515625000000, 4.500000000000, -8.984375000000, 1490770000
-0.135498046875, 0.675048828125, -0.666748046875, -2.515625000000, 4.500000000000, -8.984375000000, 1490770000
-0.135498046875, 0.675048828125, -0.666748046875, -2.515625000000, 4.500000000000, -8.984375000000, 1490770000
-0.188476562500, 0.551269531250, -0.773437500000, 4.164062500000, 5.796875000000, -8.054687500000, 1490770000
-0.188476562500, 0.551269531250, -0.773437500000, 4.164062500000, 5.796875000000, -8.054687500000, 1490770000
-0.096191406250, 0.588378906250, -0.837158203125, -2.640625000000, 2.242187500000, -6.906250000000, 1490770000
-0.096191406250, 0.588378906250, -0.837158203125, -2.640625000000, 2.242187500000, -6.906250000000, 1490770000
-0.096191406250, 0.588378906250, -0.837158203125, -2.640625000000, 2.242187500000, -6.906250000000, 1490770000
-0.096191406250, 0.588378906250, -0.837158203125, -2.640625000000, 2.242187500000, -6.906250000000, 1490770000
-0.096923828125, 0.715087890625, -0.760742187500, -1.226562500000, -1.007812500000, -7.375000000000, 1490770001
-0.096923828125, 0.715087890625, -0.760742187500, -1.226562500000, -1.007812500000, -7.375000000000, 1490770001
-0.096923828125, 0.715087890625, -0.760742187500, -1.226562500000, -1.007812500000, -7.375000000000, 1490770001
-0.105468750000, 0.691406250000, -0.730468750000, 0.109375000000, -0.851562500000, -6.429687500000, 1490770001
-0.105468750000, 0.691406250000, -0.730468750000, 0.109375000000, -0.851562500000, -6.429687500000, 1490770001
-0.105468750000, 0.691406250000, -0.730468750000, 0.109375000000, -0.851562500000, -6.429687500000, 1490770001
-0.105468750000, 0.691406250000, -0.730468750000, 0.109375000000, -0.851562500000, -6.429687500000, 1490770001
-0.189453125000, 0.616455078125, -0.729003906250, -2.218750000000, 2.593750000000, -3.375000000000, 1490770001
-0.189453125000, 0.616455078125, -0.729003906250, -2.218750000000, 2.593750000000, -3.375000000000, 1490770001
-0.189453125000, 0.616455078125, -0.729003906250, -2.218750000000, 2.593750000000, -3.375000000000, 1490770001
-0.113769531250, 0.692138671875, -0.769775390625, -0.648437500000, 2.328125000000, -4.726562500000, 1490770001
-0.113769531250, 0.692138671875, -0.769775390625, -0.648437500000, 2.328125000000, -4.726562500000, 1490770001
-0.113769531250, 0.692138671875, -0.769775390625, -0.648437500000, 2.328125000000, -4.726562500000, 1490770001
-0.113769531250, 0.692138671875, -0.769775390625, -0.648437500000, 2.328125000000, -4.726562500000, 1490770001
-0.060302734375, 0.604492187500, -0.685546875000, -6.375000000000, -1.710937500000, -2.210937500000, 1490770001
-0.060302734375, 0.604492187500, -0.685546875000, -6.375000000000, -1.710937500000, -2.210937500000, 1490770001
-0.060302734375, 0.604492187500, -0.685546875000, -6.375000000000, -1.710937500000, -2.210937500000, 1490770001
-0.060302734375, 0.604492187500, -0.685546875000, -6.375000000000, -1.710937500000, -2.210937500000, 1490770001
-0.060302734375, 0.604492187500, -0.685546875000, -6.375000000000, -1.710937500000, -2.210937500000, 1490770001
-0.137451171875, 0.654052734375, -0.740478515625, -6.429687500000, 3.000000000000, 0.882812500000, 1490770001
-0.137451171875, 0.654052734375, -0.740478515625, -6.429687500000, 3.000000000000, 0.882812500000, 1490770001
-0.137451171875, 0.654052734375, -0.740478515625, -6.429687500000, 3.000000000000, 0.882812500000, 1490770001
-0.137451171875, 0.654052734375, -0.740478515625, -6.429687500000, 3.000000000000, 0.882812500000, 1490770001
-0.201904296875, 0.600097656250, -0.764648437500, -5.593750000000, 8.554687500000, 2.007812500000, 1490770001
-0.201904296875, 0.600097656250, -0.764648437500, -5.593750000000, 8.554687500000, 2.007812500000, 1490770001
-0.201904296875, 0.600097656250, -0.764648437500, -5.593750000000, 8.554687500000, 2.007812500000, 1490770001
-0.204589843750, 0.698486328125, -0.781005859375, -1.359375000000, -0.132812500000, -1.023437500000, 1490770001
-0.204589843750, 0.698486328125, -0.781005859375, -1.359375000000, -0.132812500000, -1.023437500000, 1490770001
-0.204589843750, 0.698486328125, -0.781005859375, -1.359375000000, -0.132812500000, -1.023437500000, 1490770001
-0.132324218750, 0.667480468750, -0.747802734375, -1.218750000000, -0.101562500000, 0.406250000000, 1490770001
-0.214111328125, 0.704833984375, -0.720458984375, -3.289062500000, 4.789062500000, -0.953125000000, 1490770001
-0.100341796875, 0.588378906250, -0.819091796875, -1.773437500000, 1.492187500000, 0.820312500000, 1490770001
-0.100341796875, 0.588378906250, -0.819091796875, -1.773437500000, 1.492187500000, 0.820312500000, 1490770001
-0.093750000000, 0.613037109375, -0.817871093750, -1.335937500000, 0.726562500000, -2.242187500000, 1490770001
-0.093750000000, 0.613037109375, -0.817871093750, -1.335937500000, 0.726562500000, -2.242187500000, 1490770001
-0.093750000000, 0.613037109375, -0.817871093750, -1.335937500000, 0.726562500000, -2.242187500000, 1490770001
-0.136474609375, 0.632812500000, -0.742187500000, -3.078125000000, -0.273437500000, -3.585937500000, 1490770001
-0.136474609375, 0.632812500000, -0.742187500000, -3.078125000000, -0.273437500000, -3.585937500000, 1490770001
-0.136474609375, 0.632812500000, -0.742187500000, -3.078125000000, -0.273437500000, -3.585937500000, 1490770001
-0.136474609375, 0.632812500000, -0.742187500000, -3.078125000000, -0.273437500000, -3.585937500000, 1490770001
-0.136474609375, 0.632812500000, -0.742187500000, -3.078125000000, -0.273437500000, -3.585937500000, 1490770001
-0.079101562500, 0.698486328125, -0.743408203125, -6.015625000000, 1.851562500000, -2.320312500000, 1490770001
-0.079101562500, 0.698486328125, -0.743408203125, -6.015625000000, 1.851562500000, -2.320312500000, 1490770001
-0.079101562500, 0.698486328125, -0.743408203125, -6.015625000000, 1.851562500000, -2.320312500000, 1490770001
-0.079101562500, 0.698486328125, -0.743408203125, -6.015625000000, 1.851562500000, -2.320312500000, 1490770001
-0.079101562500, 0.698486328125, -0.743408203125, -6.015625000000, 1.851562500000, -2.320312500000, 1490770001
-0.130126953125, 0.620605468750, -0.734130859375, -4.914062500000, 4.257812500000, 0.750000000000, 1490770001
-0.130126953125, 0.620605468750, -0.734130859375, -4.914062500000, 4.257812500000, 0.750000000000, 1490770001
-0.130126953125, 0.620605468750, -0.734130859375, -4.914062500000, 4.257812500000, 0.750000000000, 1490770001
-0.144287109375, 0.688720703125, -0.760986328125, -4.945312500000, 3.289062500000, -1.296875000000, 1490770001
-0.144287109375, 0.688720703125, -0.760986328125, -4.945312500000, 3.289062500000, -1.296875000000, 1490770001
-0.144287109375, 0.688720703125, -0.760986328125, -4.945312500000, 3.289062500000, -1.296875000000, 1490770001
-0.110595703125, 0.615966796875, -0.757568359375, -1.914062500000, 4.718750000000, -1.554687500000, 1490770001
-0.110595703125, 0.615966796875, -0.757568359375, -1.914062500000, 4.718750000000, -1.554687500000, 1490770001
-0.110595703125, 0.615966796875, -0.757568359375, -1.914062500000, 4.718750000000, -1.554687500000, 1490770001
-0.169677734375, 0.709716796875, -0.677490234375, -4.414062500000, -0.492187500000, -2.023437500000, 1490770001
-0.169677734375, 0.709716796875, -0.677490234375, -4.414062500000, -0.492187500000, -2.023437500000, 1490770001
-0.169677734375, 0.709716796875, -0.677490234375, -4.414062500000, -0.492187500000, -2.023437500000, 1490770001
-0.169677734375, 0.709716796875, -0.677490234375, -4.414062500000, -0.492187500000, -2.023437500000, 1490770001
-0.095458984375, 0.693847656250, -0.722900390625, -4.664062500000, 5.031250000000, 0.179687500000, 1490770001
-0.095458984375, 0.693847656250, -0.722900390625, -4.664062500000, 5.031250000000, 0.179687500000, 1490770001
-0.095458984375, 0.693847656250, -0.722900390625, -4.664062500000, 5.031250000000, 0.179687500000, 1490770001
-0.137451171875, 0.613525390625, -0.753906250000, -1.359375000000, -0.828125000000, -3.093750000000, 1490770001
-0.137451171875, 0.613525390625, -0.753906250000, -1.359375000000, -0.828125000000, -3.093750000000, 1490770001
-0.137451171875, 0.613525390625, -0.753906250000, -1.359375000000, -0.828125000000, -3.093750000000, 1490770001
-0.198242187500, 0.757812500000, -0.719482421875, -2.953125000000, 0.101562500000, -6.187500000000, 1490770001
-0.198242187500, 0.757812500000, -0.719482421875, -2.953125000000, 0.101562500000, -6.187500000000, 1490770001
-0.198242187500, 0.757812500000, -0.719482421875, -2.953125000000, 0.101562500000, -6.187500000000, 1490770001
-0.194580078125, 0.607666015625, -0.679687500000, -3.578125000000, -2.335937500000, -2.828125000000, 1490770002
-0.194580078125, 0.607666015625, -0.679687500000, -3.578125000000, -2.335937500000, -2.828125000000, 1490770002
-0.194580078125, 0.607666015625, -0.679687500000, -3.578125000000, -2.335937500000, -2.828125000000, 1490770002
-0.152099609375, 0.767089843750, -0.761962890625, -4.859375000000, -0.570312500000, -4.375000000000, 1490770002
-0.152099609375, 0.767089843750, -0.761962890625, -4.859375000000, -0.570312500000, -4.375000000000, 1490770002
-0.152099609375, 0.767089843750, -0.761962890625, -4.859375000000, -0.570312500000, -4.375000000000, 1490770002
-0.152099609375, 0.767089843750, -0.761962890625, -4.859375000000, -0.570312500000, -4.375000000000, 1490770002
-0.217773437500, 0.601318359375, -0.765380859375, -1.875000000000, -2.039062500000, -1.359375000000, 1490770002
-0.217773437500, 0.601318359375, -0.765380859375, -1.875000000000, -2.039062500000, -1.359375000000, 1490770002
-0.217773437500, 0.601318359375, -0.765380859375, -1.875000000000, -2.039062500000, -1.359375000000, 1490770002
-0.101806640625, 0.645019531250, -0.733154296875, -2.562500000000, -5.664062500000, -3.093750000000, 1490770002
-0.101806640625, 0.645019531250, -0.733154296875, -2.562500000000, -5.664062500000, -3.093750000000, 1490770002
-0.101806640625, 0.645019531250, -0.733154296875, -2.562500000000, -5.664062500000, -3.093750000000, 1490770002
-0.159179687500, 0.766601562500, -0.780029296875, -4.210937500000, 1.726562500000, -2.101562500000, 1490770002
-0.159179687500, 0.766601562500, -0.780029296875, -4.210937500000, 1.726562500000, -2.101562500000, 1490770002
-0.159179687500, 0.766601562500, -0.780029296875, -4.210937500000, 1.726562500000, -2.101562500000, 1490770002
-0.159179687500, 0.766601562500, -0.780029296875, -4.210937500000, 1.726562500000, -2.101562500000, 1490770002
