ACC_X,ACC_Y,ACC_Z,G_X,G_Y,G_Z,Unix Time
0.517822265625, -0.756103515625, 0.506591796875, -8.453125000000, 45.054687500000, 8.515625000000, 1490764197
0.517822265625, -0.756103515625, 0.506591796875, -8.453125000000, 45.054687500000, 8.515625000000, 1490764197
0.517822265625, -0.756103515625, 0.506591796875, -8.453125000000, 45.054687500000, 8.515625000000, 1490764197
0.354248046875, -0.887939453125, 0.468750000000, 7.617187500000, 29.078125000000, 11.570312500000, 1490764197
0.354248046875, -0.887939453125, 0.468750000000, 7.617187500000, 29.078125000000, 11.570312500000, 1490764197
0.354248046875, -0.887939453125, 0.468750000000, 7.617187500000, 29.078125000000, 11.570312500000, 1490764197
0.440673828125, -0.724121093750, 0.567871093750, 8.406250000000, -5.257812500000, -12.109375000000, 1490764197
0.440673828125, -0.724121093750, 0.567871093750, 8.406250000000, -5.257812500000, -12.109375000000, 1490764197
0.440673828125, -0.724121093750, 0.567871093750, 8.406250000000, -5.257812500000, -12.109375000000, 1490764197
0.354248046875, -0.926757812500, 0.635498046875, -21.648437500000, 24.179687500000, -2.718750000000, 1490764197
0.354248046875, -0.926757812500, 0.635498046875, -21.648437500000, 24.179687500000, -2.718750000000, 1490764197
0.354248046875, -0.926757812500, 0.635498046875, -21.648437500000, 24.179687500000, -2.718750000000, 1490764197
0.354248046875, -0.926757812500, 0.635498046875, -21.648437500000, 24.179687500000, -2.718750000000, 1490764197
0.284912109375, -0.929199218750, 0.532958984375, -5.351562500000, 1.671875000000, -10.734375000000, 1490764197
0.284912109375, -0.929199218750, 0.532958984375, -5.351562500000, 1.671875000000, -10.734375000000, 1490764197
0.284912109375, -0.929199218750, 0.532958984375, -5.351562500000, 1.671875000000, -10.734375000000, 1490764197
0.451416015625, -0.947021484375, 0.485107421875, -9.367187500000, -45.570312500000, -11.328125000000, 1490764197
0.451416015625, -0.947021484375, 0.485107421875, -9.367187500000, -45.570312500000, -11.328125000000, 1490764197
0.451416015625, -0.947021484375, 0.485107421875, -9.367187500000, -45.570312500000, -11.328125000000, 1490764197
0.345703125000, -0.906250000000, 0.446289062500, -24.343750000000, -50.617187500000, -1.781250000000, 1490764197
0.345703125000, -0.906250000000, 0.446289062500, -24.343750000000, -50.617187500000, -1.781250000000, 1490764197
0.345703125000, -0.906250000000, 0.446289062500, -24.343750000000, -50.617187500000, -1.781250000000, 1490764197
0.235595703125, -0.822998046875, 0.385009765625, -13.179687500000, 1.789062500000, -5.148437500000, 1490764197
0.235595703125, -0.822998046875, 0.385009765625, -13.179687500000, 1.789062500000, -5.148437500000, 1490764197
0.235595703125, -0.822998046875, 0.385009765625, -13.179687500000, 1.789062500000, -5.148437500000, 1490764197
0.235595703125, -0.822998046875, 0.385009765625, -13.179687500000, 1.789062500000, -5.148437500000, 1490764197
0.245849609375, -0.891357421875, 0.388427734375, -0.367187500000, 21.859375000000, 2.601562500000, 1490764197
0.245849609375, -0.891357421875, 0.388427734375, -0.367187500000, 21.859375000000, 2.601562500000, 1490764197
0.245849609375, -0.891357421875, 0.388427734375, -0.367187500000, 21.859375000000, 2.601562500000, 1490764197
0.098632812500, -0.851806640625, 0.531982421875, 11.414062500000, 54.523437500000, -12.820312500000, 1490764197
0.098632812500, -0.851806640625, 0.531982421875, 11.414062500000, 54.523437500000, -12.820312500000, 1490764197
0.098632812500, -0.851806640625, 0.531982421875, 11.414062500000, 54.523437500000, -12.820312500000, 1490764197
0.242919921875, -0.927246093750, 0.754394531250, -11.765625000000, -21.062500000000, -28.734375000000, 1490764197
0.242919921875, -0.927246093750, 0.754394531250, -11.765625000000, -21.062500000000, -28.734375000000, 1490764197
0.242919921875, -0.927246093750, 0.754394531250, -11.765625000000, -21.062500000000, -28.734375000000, 1490764197
0.381835937500, -0.841308593750, 0.424072265625, -29.312500000000, -56.664062500000, -7.867187500000, 1490764198
0.381835937500, -0.841308593750, 0.424072265625, -29.312500000000, -56.664062500000, -7.867187500000, 1490764198
0.381835937500, -0.841308593750, 0.424072265625, -29.312500000000, -56.664062500000, -7.867187500000, 1490764198
0.381835937500, -0.841308593750, 0.424072265625, -29.312500000000, -56.664062500000, -7.867187500000, 1490764198
0.359619140625, -0.768554687500, 0.430908203125, -5.687500000000, 40.804687500000, -3.218750000000, 1490764198
0.359619140625, -0.768554687500, 0.430908203125, -5.687500000000, 40.804687500000, -3.218750000000, 1490764198
0.359619140625, -0.768554687500, 0.430908203125, -5.687500000000, 40.804687500000, -3.218750000000, 1490764198
0.371582031250, -0.660400390625, 0.468261718750, 2.812500000000, 22.023437500000, -0.898437500000, 1490764198
0.371582031250, -0.660400390625, 0.468261718750, 2.812500000000, 22.023437500000, -0.898437500000, 1490764198
0.371582031250, -0.660400390625, 0.468261718750, 2.812500000000, 22.023437500000, -0.898437500000, 1490764198
0.185791015625, -0.740722656250, 0.577880859375, -2.148437500000, 21.367187500000, 5.406250000000, 1490764198
0.185791015625, -0.740722656250, 0.577880859375, -2.148437500000, 21.367187500000, 5.406250000000, 1490764198
0.185791015625, -0.740722656250, 0.577880859375, -2.148437500000, 21.367187500000, 5.406250000000, 1490764198
0.325683593750, -0.825927734375, 0.567138671875, 6.148437500000, 8.015625000000, 4.539062500000, 1490764198
0.289794921875, -0.680664062500, 0.553222656250, 5.851562500000, 2.179687500000, -4.164062500000, 1490764198
0.375976562500, -0.750976562500, 0.637451171875, 8.671875000000, -7.789062500000, -3.234375000000, 1490764198
0.375976562500, -0.750976562500, 0.637451171875, 8.671875000000, -7.789062500000, -3.234375000000, 1490764198
0.375976562500, -0.750976562500, 0.637451171875, 8.671875000000, -7.789062500000, -3.234375000000, 1490764198
0.375976562500, -0.750976562500, 0.637451171875, 8.671875000000, -7.789062500000, -3.234375000000, 1490764198
0.375976562500, -0.750976562500, 0.637451171875, 8.671875000000, -7.789062500000, -3.234375000000, 1490764198
0.405029296875, -0.752441406250, 0.648437500000, -1.476562500000, 4.867187500000, 3.242187500000, 1490764198
0.405029296875, -0.752441406250, 0.648437500000, -1.476562500000, 4.867187500000, 3.242187500000, 1490764198
0.405029296875, -0.752441406250, 0.648437500000, -1.476562500000, 4.867187500000, 3.242187500000, 1490764198
0.310791015625, -0.767578125000, 0.480468750000, -2.687500000000, 14.773437500000, 10.859375000000, 1490764198
0.310791015625, -0.767578125000, 0.480468750000, -2.687500000000, 14.773437500000, 10.859375000000, 1490764198
0.310791015625, -0.767578125000, 0.480468750000, -2.687500000000, 14.773437500000, 10.859375000000, 1490764198
0.320556640625, -0.770996093750, 0.594238281250, 10.453125000000, 11.976562500000, -0.726562500000, 1490764198
0.320556640625, -0.770996093750, 0.594238281250, 10.453125000000, 11.976562500000, -0.726562500000, 1490764198
0.320556640625, -0.770996093750, 0.594238281250, 10.453125000000, 11.976562500000, -0.726562500000, 1490764198
0.320556640625, -0.770996093750, 0.594238281250, 10.453125000000, 11.976562500000, -0.726562500000, 1490764198
0.313964843750, -0.729003906250, 0.704101562500, -1.062500000000, 5.132812500000, 4.234375000000, 1490764198
0.313964843750, -0.729003906250, 0.704101562500, -1.062500000000, 5.132812500000, 4.234375000000, 1490764198
0.313964843750, -0.729003906250, 0.704101562500, -1.062500000000, 5.132812500000, 4.234375000000, 1490764198
0.242431640625, -0.798339843750, 0.706298828125, -20.320312500000, 7.789062500000, 11.312500000000, 1490764198
0.242431640625, -0.798339843750, 0.706298828125, -20.320312500000, 7.789062500000, 11.312500000000, 1490764198
0.242431640625, -0.798339843750, 0.706298828125, -20.320312500000, 7.789062500000, 11.312500000000, 1490764198
0.293945312500, -0.847412109375, 0.687744140625, -2.648437500000, 3.546875000000, 11.625000000000, 1490764198
0.293945312500, -0.847412109375, 0.687744140625, -2.648437500000, 3.546875000000, 11.625000000000, 1490764198
0.293945312500, -0.847412109375, 0.687744140625, -2.648437500000, 3.546875000000, 11.625000000000, 1490764198
0.448242187500, -0.858398437500, 0.706054687500, -20.187500000000, -6.531250000000, 18.695312500000, 1490764198
0.448242187500, -0.858398437500, 0.706054687500, -20.187500000000, -6.531250000000, 18.695312500000, 1490764198
0.448242187500, -0.858398437500, 0.706054687500, -20.187500000000, -6.531250000000, 18.695312500000, 1490764198
0.448242187500, -0.858398437500, 0.706054687500, -20.187500000000, -6.531250000000, 18.695312500000, 1490764198
0.298583984375, -0.894042968750, 0.502929687500, -22.343750000000, -15.273437500000, 12.148437500000, 1490764198
0.298583984375, -0.894042968750, 0.502929687500, -22.343750000000, -15.273437500000, 12.148437500000, 1490764198
0.298583984375, -0.894042968750, 0.502929687500, -22.343750000000, -15.273437500000, 12.148437500000, 1490764198
0.434814453125, -0.766357421875, 0.328369140625, -30.234375000000, -40.359375000000, 7.140625000000, 1490764198
0.434814453125, -0.766357421875, 0.328369140625, -30.234375000000, -40.359375000000, 7.140625000000, 1490764198
0.434814453125, -0.766357421875, 0.328369140625, -30.234375000000, -40.359375000000, 7.140625000000, 1490764198
0.397216796875, -0.700439453125, 0.277832031250, -25.828125000000, -10.578125000000, 7.117187500000, 1490764198
0.397216796875, -0.700439453125, 0.277832031250, -25.828125000000, -10.578125000000, 7.117187500000, 1490764198
0.397216796875, -0.700439453125, 0.277832031250, -25.828125000000, -10.578125000000, 7.117187500000, 1490764198
0.463867187500, -0.733398437500, 0.449707031250, 20.187500000000, 49.234375000000, 12.351562500000, 1490764198
0.463867187500, -0.733398437500, 0.449707031250, 20.187500000000, 49.234375000000, 12.351562500000, 1490764198
0.463867187500, -0.733398437500, 0.449707031250, 20.187500000000, 49.234375000000, 12.351562500000, 1490764198
0.463867187500, -0.733398437500, 0.449707031250, 20.187500000000, 49.234375000000, 12.351562500000, 1490764198
0.527587890625, -0.912109375000, 0.779296875000, 21.703125000000, 22.781250000000, -0.328125000000, 1490764198
0.527587890625, -0.912109375000, 0.779296875000, 21.703125000000, 22.781250000000, -0.328125000000, 1490764198
0.527587890625, -0.912109375000, 0.779296875000, 21.703125000000, 22.781250000000, -0.328125000000, 1490764198
0.315673828125, -0.955322265625, 0.541503906250, 10.476562500000, 9.882812500000, 8.070312500000, 1490764198
0.315673828125, -0.955322265625, 0.541503906250, 10.476562500000, 9.882812500000, 8.070312500000, 1490764198
0.315673828125, -0.955322265625, 0.541503906250, 10.476562500000, 9.882812500000, 8.070312500000, 1490764198
0.299560546875, -0.661132812500, 0.499267578125, 22.250000000000, -19.187500000000, -14.828125000000, 1490764198
0.299560546875, -0.661132812500, 0.499267578125, 22.250000000000, -19.187500000000, -14.828125000000, 1490764198
0.299560546875, -0.661132812500, 0.499267578125, 22.250000000000, -19.187500000000, -14.828125000000, 1490764198
0.302001953125, -0.654785156250, 0.462646484375, -22.882812500000, -18.617187500000, -14.984375000000, 1490764198
0.302001953125, -0.654785156250, 0.462646484375, -22.882812500000, -18.617187500000, -14.984375000000, 1490764198
0.302001953125, -0.654785156250, 0.462646484375, -22.882812500000, -18.617187500000, -14.984375000000, 1490764198
0.302001953125, -0.654785156250, 0.462646484375, -22.882812500000, -18.617187500000, -14.984375000000, 1490764199
0.428710937500, -0.737548828125, 0.578857421875, -5.664062500000, 6.101562500000, -17.750000000000, 1490764199
0.428710937500, -0.737548828125, 0.578857421875, -5.664062500000, 6.101562500000, -17.750000000000, 1490764199
0.428710937500, -0.737548828125, 0.578857421875, -5.664062500000, 6.101562500000, -17.750000000000, 1490764199
0.354492187500, -0.722167968750, 0.604492187500, -10.328125000000, -8.835937500000, -12.656250000000, 1490764199
0.354492187500, -0.722167968750, 0.604492187500, -10.328125000000, -8.835937500000, -12.656250000000, 1490764199
0.354492187500, -0.722167968750, 0.604492187500, -10.328125000000, -8.835937500000, -12.656250000000, 1490764199
0.449707031250, -0.781982421875, 0.573486328125, -4.593750000000, -27.437500000000, -14.765625000000, 1490764199
0.449707031250, -0.781982421875, 0.573486328125, -4.593750000000, -27.437500000000, -14.765625000000, 1490764199
0.449707031250, -0.781982421875, 0.573486328125, -4.593750000000, -27.437500000000, -14.765625000000, 1490764199
0.427490234375, -0.683349609375, 0.541015625000, -3.460937500000, -27.414062500000, -14.187500000000, 1490764199
0.427490234375, -0.683349609375, 0.541015625000, -3.460937500000, -27.414062500000, -14.187500000000, 1490764199
0.427490234375, -0.683349609375, 0.541015625000, -3.460937500000, -27.414062500000, -14.187500000000, 1490764199
0.427490234375, -0.683349609375, 0.541015625000, -3.460937500000, -27.414062500000, -14.187500000000, 1490764199
0.413330078125, -0.766113281250, 0.418945312500, -13.820312500000, -21.054687500000, -8.625000000000, 1490764199
0.413330078125, -0.766113281250, 0.418945312500, -13.820312500000, -21.054687500000, -8.625000000000, 1490764199
0.413330078125, -0.766113281250, 0.418945312500, -13.820312500000, -21.054687500000, -8.625000000000, 1490764199
0.411132812500, -0.699462890625, 0.512939453125, 1.328125000000, 6.203125000000, -7.023437500000, 1490764199
0.411132812500, -0.699462890625, 0.512939453125, 1.328125000000, 6.203125000000, -7.023437500000, 1490764199
0.411132812500, -0.699462890625, 0.512939453125, 1.328125000000, 6.203125000000, -7.023437500000, 1490764199
0.454345703125, -0.736083984375, 0.649169921875, 7.992187500000, 5.000000000000, -14.921875000000, 1490764199
0.454345703125, -0.736083984375, 0.649169921875, 7.992187500000, 5.000000000000, -14.921875000000, 1490764199
0.454345703125, -0.736083984375, 0.649169921875, 7.992187500000, 5.000000000000, -14.921875000000, 1490764199
0.582763671875, -0.767333984375, 0.609375000000, -3.093750000000, 3.093750000000, -8.328125000000, 1490764199
0.582763671875, -0.767333984375, 0.609375000000, -3.093750000000, 3.093750000000, -8.328125000000, 1490764199
0.582763671875, -0.767333984375, 0.609375000000, -3.093750000000, 3.093750000000, -8.328125000000, 1490764199
0.582763671875, -0.767333984375, 0.609375000000, -3.093750000000, 3.093750000000, -8.328125000000, 1490764199
0.435546875000, -0.707031250000, 0.632812500000, -16.164062500000, -7.140625000000, -6.460937500000, 1490764199
0.435546875000, -0.707031250000, 0.632812500000, -16.164062500000, -7.140625000000, -6.460937500000, 1490764199
0.435546875000, -0.707031250000, 0.632812500000, -16.164062500000, -7.140625000000, -6.460937500000, 1490764199
0.491943359375, -0.666015625000, 0.575683593750, -26.304687500000, -5.015625000000, -7.414062500000, 1490764199
0.491943359375, -0.666015625000, 0.575683593750, -26.304687500000, -5.015625000000, -7.414062500000, 1490764199
0.491943359375, -0.666015625000, 0.575683593750, -26.304687500000, -5.015625000000, -7.414062500000, 1490764199
0.406250000000, -0.668212890625, 0.409179687500, -30.671875000000, 31.054687500000, 2.601562500000, 1490764199
0.406250000000, -0.668212890625, 0.409179687500, -30.671875000000, 31.054687500000, 2.601562500000, 1490764199
0.406250000000, -0.668212890625, 0.409179687500, -30.671875000000, 31.054687500000, 2.601562500000, 1490764199
0.322998046875, -0.854492187500, 0.496582031250, -15.898437500000, 18.617187500000, 4.937500000000, 1490764199
0.322998046875, -0.854492187500, 0.496582031250, -15.898437500000, 18.617187500000, 4.937500000000, 1490764199
0.322998046875, -0.854492187500, 0.496582031250, -15.898437500000, 18.617187500000, 4.937500000000, 1490764199
0.322998046875, -0.854492187500, 0.496582031250, -15.898437500000, 18.617187500000, 4.937500000000, 1490764199
0.286376953125, -0.938232421875, 0.424804687500, -5.843750000000, -8.718750000000, -3.937500000000, 1490764199
0.286376953125, -0.938232421875, 0.424804687500, -5.843750000000, -8.718750000000, -3.937500000000, 1490764199
0.286376953125, -0.938232421875, 0.424804687500, -5.843750000000, -8.718750000000, -3.937500000000, 1490764199
0.377441406250, -0.790039062500, 0.608154296875, -0.179687500000, -18.460937500000, -9.875000000000, 1490764199
0.377441406250, -0.790039062500, 0.608154296875, -0.179687500000, -18.460937500000, -9.875000000000, 1490764199
0.377441406250, -0.790039062500, 0.608154296875, -0.179687500000, -18.460937500000, -9.875000000000, 1490764199
0.367431640625, -0.758056640625, 0.586181640625, -30.882812500000, -39.906250000000, -8.125000000000, 1490764199
0.367431640625, -0.758056640625, 0.586181640625, -30.882812500000, -39.906250000000, -8.125000000000, 1490764199
0.367431640625, -0.758056640625, 0.586181640625, -30.882812500000, -39.906250000000, -8.125000000000, 1490764199
0.321289062500, -0.693847656250, 0.375488281250, -9.015625000000, 6.671875000000, -6.312500000000, 1490764199
0.321289062500, -0.693847656250, 0.375488281250, -9.015625000000, 6.671875000000, -6.312500000000, 1490764199
0.321289062500, -0.693847656250, 0.375488281250, -9.015625000000, 6.671875000000, -6.312500000000, 1490764199
0.321289062500, -0.693847656250, 0.375488281250, -9.015625000000, 6.671875000000, -6.312500000000, 1490764199
0.234130859375, -0.721679687500, 0.416748046875, 15.578125000000, 50.929687500000, 2.148437500000, 1490764199
0.234130859375, -0.721679687500, 0.416748046875, 15.578125000000, 50.929687500000, 2.148437500000, 1490764199
0.234130859375, -0.721679687500, 0.416748046875, 15.578125000000, 50.929687500000, 2.148437500000, 1490764199
0.383789062500, -0.807861328125, 0.804443359375, 23.125000000000, 7.203125000000, -10.257812500000, 1490764199
0.383789062500, -0.807861328125, 0.804443359375, 23.125000000000, 7.203125000000, -10.257812500000, 1490764199
0.383789062500, -0.807861328125, 0.804443359375, 23.125000000000, 7.203125000000, -10.257812500000, 1490764199
0.384765625000, -0.897216796875, 0.583740234375, -31.140625000000, -61.046875000000, -3.460937500000, 1490764199
0.384765625000, -0.897216796875, 0.583740234375, -31.140625000000, -61.046875000000, -3.460937500000, 1490764199
0.384765625000, -0.897216796875, 0.583740234375, -31.140625000000, -61.046875000000, -3.460937500000, 1490764199
0.377441406250, -0.711669921875, 0.493652343750, 32.601562500000, 2.242187500000, -12.765625000000, 1490764199
0.377441406250, -0.711669921875, 0.493652343750, 32.601562500000, 2.242187500000, -12.765625000000, 1490764199
0.377441406250, -0.711669921875, 0.493652343750, 32.601562500000, 2.242187500000, -12.765625000000, 1490764199
0.377441406250, -0.711669921875, 0.493652343750, 32.601562500000, 2.242187500000, -12.765625000000, 1490764199
0.299316406250, -0.689941406250, 0.571777343750, 6.421875000000, 22.578125000000, -7.093750000000, 1490764200
0.246582031250, -0.661132812500, 0.548828125000, -3.476562500000, 23.250000000000, -1.960937500000, 1490764200
0.328857421875, -0.718505859375, 0.556884765625, 0.132812500000, 24.054687500000, -2.601562500000, 1490764200
0.328857421875, -0.718505859375, 0.556884765625, 0.132812500000, 24.054687500000, -2.601562500000, 1490764200
0.328857421875, -0.718505859375, 0.556884765625, 0.132812500000, 24.054687500000, -2.601562500000, 1490764200
0.328857421875, -0.718505859375, 0.556884765625, 0.132812500000, 24.054687500000, -2.601562500000, 1490764200
0.231445312500, -0.812988281250, 0.556884765625, 9.492187500000, -4.937500000000, -9.117187500000, 1490764200
0.231445312500, -0.812988281250, 0.556884765625, 9.492187500000, -4.937500000000, -9.117187500000, 1490764200
0.231445312500, -0.812988281250, 0.556884765625, 9.492187500000, -4.937500000000, -9.117187500000, 1490764200
0.424560546875, -0.759765625000, 0.619140625000, 12.937500000000, -7.148437500000, -7.593750000000, 1490764200
0.424560546875, -0.759765625000, 0.619140625000, 12.937500000000, -7.148437500000, -7.593750000000, 1490764200
0.424560546875, -0.759765625000, 0.619140625000, 12.937500000000, -7.148437500000, -7.593750000000, 1490764200
0.451171875000, -0.750976562500, 0.581542968750, -4.125000000000, 8.062500000000, 1.265625000000, 1490764200
0.451171875000, -0.750976562500, 0.581542968750, -4.125000000000, 8.062500000000, 1.265625000000, 1490764200
0.451171875000, -0.750976562500, 0.581542968750, -4.125000000000, 8.062500000000, 1.265625000000, 1490764200
0.451171875000, -0.750976562500, 0.581542968750, -4.125000000000, 8.062500000000, 1.265625000000, 1490764200
0.164062500000, -0.682617187500, 0.419677734375, 3.476562500000, 21.757812500000, 8.171875000000, 1490764200
0.164062500000, -0.682617187500, 0.419677734375, 3.476562500000, 21.757812500000, 8.171875000000, 1490764200
0.164062500000, -0.682617187500, 0.419677734375, 3.476562500000, 21.757812500000, 8.171875000000, 1490764200
0.290771484375, -0.720214843750, 0.624267578125, 11.789062500000, 31.375000000000, 8.000000000000, 1490764200
0.290771484375, -0.720214843750, 0.624267578125, 11.789062500000, 31.375000000000, 8.000000000000, 1490764200
0.290771484375, -0.720214843750, 0.624267578125, 11.789062500000, 31.375000000000, 8.000000000000, 1490764200
0.311767578125, -1.002197265625, 0.717773437500, -19.273437500000, 13.000000000000, 13.578125000000, 1490764200
0.311767578125, -1.002197265625, 0.717773437500, -19.273437500000, 13.000000000000, 13.578125000000, 1490764200
0.311767578125, -1.002197265625, 0.717773437500, -19.273437500000, 13.000000000000, 13.578125000000, 1490764200
0.311767578125, -1.002197265625, 0.717773437500, -19.273437500000, 13.000000000000, 13.578125000000, 1490764200
0.311523437500, -0.926025390625, 0.709472656250, -22.156250000000, 9.335937500000, 14.906250000000, 1490764200
0.311523437500, -0.926025390625, 0.709472656250, -22.156250000000, 9.335937500000, 14.906250000000, 1490764200
0.311523437500, -0.926025390625, 0.709472656250, -22.156250000000, 9.335937500000, 14.906250000000, 1490764200
0.281982421875, -0.908203125000, 0.653320312500, -17.109375000000, 8.187500000000, 10.078125000000, 1490764200
0.281982421875, -0.908203125000, 0.653320312500, -17.109375000000, 8.187500000000, 10.078125000000, 1490764200
0.281982421875, -0.908203125000, 0.653320312500, -17.109375000000, 8.187500000000, 10.078125000000, 1490764200
0.331787109375, -0.894531250000, 0.491210937500, -6.039062500000, 2.718750000000, 7.953125000000, 1490764200
0.331787109375, -0.894531250000, 0.491210937500, -6.039062500000, 2.718750000000, 7.953125000000, 1490764200
0.331787109375, -0.894531250000, 0.491210937500, -6.039062500000, 2.718750000000, 7.953125000000, 1490764200
0.401367187500, -0.612060546875, 0.361328125000, -11.226562500000, -4.085937500000, 10.429687500000, 1490764200
0.401367187500, -0.612060546875, 0.361328125000, -11.226562500000, -4.085937500000, 10.429687500000, 1490764200
0.401367187500, -0.612060546875, 0.361328125000, -11.226562500000, -4.085937500000, 10.429687500000, 1490764200
0.401367187500, -0.612060546875, 0.361328125000, -11.226562500000, -4.085937500000, 10.429687500000, 1490764200
0.339599609375, -0.694580078125, 0.263427734375, -17.140625000000, 35.554687500000, 14.554687500000, 1490764200
0.339599609375, -0.694580078125, 0.263427734375, -17.140625000000, 35.554687500000, 14.554687500000, 1490764200
0.339599609375, -0.694580078125, 0.263427734375, -17.140625000000, 35.554687500000, 14.554687500000, 1490764200
0.302734375000, -0.757324218750, 0.404541015625, 8.750000000000, 31.578125000000, 13.929687500000, 1490764200
0.302734375000, -0.757324218750, 0.404541015625, 8.750000000000, 31.578125000000, 13.929687500000, 1490764200
0.302734375000, -0.757324218750, 0.404541015625, 8.750000000000, 31.578125000000, 13.929687500000, 1490764200
0.287597656250, -0.761474609375, 0.300781250000, 18.203125000000, 38.867187500000, 16.101562500000, 1490764200
0.400634765625, -0.868164062500, 0.632080078125, 12.226562500000, 18.453125000000, 17.914062500000, 1490764200
0.400634765625, -0.868164062500, 0.632080078125, 12.226562500000, 18.453125000000, 17.914062500000, 1490764200
0.400634765625, -0.868164062500, 0.632080078125, 12.226562500000, 18.453125000000, 17.914062500000, 1490764200
0.400634765625, -0.868164062500, 0.632080078125, 12.226562500000, 18.453125000000, 17.914062500000, 1490764200
0.326416015625, -0.839843750000, 0.418701171875, 21.234375000000, 12.609375000000, 11.906250000000, 1490764200
0.236328125000, -0.644531250000, 0.531494140625, 33.742187500000, -2.734375000000, 0.429687500000, 1490764200
0.236328125000, -0.644531250000, 0.531494140625, 33.742187500000, -2.734375000000, 0.429687500000, 1490764200
0.236328125000, -0.644531250000, 0.531494140625, 33.742187500000, -2.734375000000, 0.429687500000, 1490764200
0.236328125000, -0.644531250000, 0.531494140625, 33.742187500000, -2.734375000000, 0.429687500000, 1490764200
0.275634765625, -0.609863281250, 0.586669921875, -8.398437500000, -10.015625000000, -9.476562500000, 1490764200
0.275634765625, -0.609863281250, 0.586669921875, -8.398437500000, -10.015625000000, -9.476562500000, 1490764200
0.275634765625, -0.609863281250, 0.586669921875, -8.398437500000, -10.015625000000, -9.476562500000, 1490764200
0.308837890625, -0.706787109375, 0.513916015625, -10.078125000000, -7.492187500000, -8.929687500000, 1490764200
0.344482421875, -0.680664062500, 0.640625000000, -0.031250000000, 2.226562500000, -15.960937500000, 1490764200
0.455566406250, -0.739746093750, 0.630859375000, -8.531250000000, -19.695312500000, -20.296875000000, 1490764200
0.455566406250, -0.739746093750, 0.630859375000, -8.531250000000, -19.695312500000, -20.296875000000, 1490764200
0.455566406250, -0.739746093750, 0.630859375000, -8.531250000000, -19.695312500000, -20.296875000000, 1490764200
0.309326171875, -0.832275390625, 0.553710937500, 0.757812500000, -28.375000000000, -19.554687500000, 1490764200
0.309326171875, -0.832275390625, 0.553710937500, 0.757812500000, -28.375000000000, -19.554687500000, 1490764200
0.309326171875, -0.832275390625, 0.553710937500, 0.757812500000, -28.375000000000, -19.554687500000, 1490764201
0.309326171875, -0.832275390625, 0.553710937500, 0.757812500000, -28.375000000000, -19.554687500000, 1490764201
0.309326171875, -0.832275390625, 0.553710937500, 0.757812500000, -28.375000000000, -19.554687500000, 1490764201
0.388671875000, -0.683837890625, 0.611816406250, 8.296875000000, -9.710937500000, -18.156250000000, 1490764201
0.388671875000, -0.683837890625, 0.611816406250, 8.296875000000, -9.710937500000, -18.156250000000, 1490764201
0.388671875000, -0.683837890625, 0.611816406250, 8.296875000000, -9.710937500000, -18.156250000000, 1490764201
0.409423828125, -0.663818359375, 0.542480468750, -22.843750000000, -20.570312500000, -13.804687500000, 1490764201
0.409423828125, -0.663818359375, 0.542480468750, -22.843750000000, -20.570312500000, -13.804687500000, 1490764201
0.409423828125, -0.663818359375, 0.542480468750, -22.843750000000, -20.570312500000, -13.804687500000, 1490764201
0.414550781250, -0.679931640625, 0.550048828125, -10.312500000000, -13.148437500000, -16.320312500000, 1490764201
0.414550781250, -0.679931640625, 0.550048828125, -10.312500000000, -13.148437500000, -16.320312500000, 1490764201
0.414550781250, -0.679931640625, 0.550048828125, -10.312500000000, -13.148437500000, -16.320312500000, 1490764201
0.414550781250, -0.679931640625, 0.550048828125, -10.312500000000, -13.148437500000, -16.320312500000, 1490764201
0.350830078125, -0.763671875000, 0.564941406250, -13.656250000000, -3.218750000000, -12.125000000000, 1490764201
0.350830078125, -0.763671875000, 0.564941406250, -13.656250000000, -3.218750000000, -12.125000000000, 1490764201
0.350830078125, -0.763671875000, 0.564941406250, -13.656250000000, -3.218750000000, -12.125000000000, 1490764201
0.428466796875, -0.846679687500, 0.637939453125, -27.179687500000, 10.429687500000, 2.359375000000, 1490764201
0.428466796875, -0.846679687500, 0.637939453125, -27.179687500000, 10.429687500000, 2.359375000000, 1490764201
0.428466796875, -0.846679687500, 0.637939453125, -27.179687500000, 10.429687500000, 2.359375000000, 1490764201
0.387695312500, -0.931396484375, 0.610839843750, -30.140625000000, 9.617187500000, 3.984375000000, 1490764201
0.387695312500, -0.931396484375, 0.610839843750, -30.140625000000, 9.617187500000, 3.984375000000, 1490764201
0.387695312500, -0.931396484375, 0.610839843750, -30.140625000000, 9.617187500000, 3.984375000000, 1490764201
0.287597656250, -0.869384765625, 0.528564453125, -15.203125000000, -4.726562500000, 7.218750000000, 1490764201
0.287597656250, -0.869384765625, 0.528564453125, -15.203125000000, -4.726562500000, 7.218750000000, 1490764201
0.287597656250, -0.869384765625, 0.528564453125, -15.203125000000, -4.726562500000, 7.218750000000, 1490764201
0.287597656250, -0.869384765625, 0.528564453125, -15.203125000000, -4.726562500000, 7.218750000000, 1490764201
0.314453125000, -0.855712890625, 0.412109375000, 3.421875000000, 5.695312500000, -4.156250000000, 1490764201
0.314453125000, -0.855712890625, 0.412109375000, 3.421875000000, 5.695312500000, -4.156250000000, 1490764201
0.314453125000, -0.855712890625, 0.412109375000, 3.421875000000, 5.695312500000, -4.156250000000, 1490764201
0.227294921875, -0.883056640625, 0.478759765625, 0.148437500000, -24.429687500000, -16.656250000000, 1490764201
0.227294921875, -0.883056640625, 0.478759765625, 0.148437500000, -24.429687500000, -16.656250000000, 1490764201
0.227294921875, -0.883056640625, 0.478759765625, 0.148437500000, -24.429687500000, -16.656250000000, 1490764201
0.204833984375, -0.828125000000, 0.477539062500, -16.468750000000, -50.289062500000, -19.929687500000, 1490764201
0.204833984375, -0.828125000000, 0.477539062500, -16.468750000000, -50.289062500000, -19.929687500000, 1490764201
0.204833984375, -0.828125000000, 0.477539062500, -16.468750000000, -50.289062500000, -19.929687500000, 1490764201
0.272705078125, -0.844970703125, 0.569091796875, 14.429687500000, -1.250000000000, -29.648437500000, 1490764201
0.272705078125, -0.844970703125, 0.569091796875, 14.429687500000, -1.250000000000, -29.648437500000, 1490764201
0.272705078125, -0.844970703125, 0.569091796875, 14.429687500000, -1.250000000000, -29.648437500000, 1490764201
0.272705078125, -0.844970703125, 0.569091796875, 14.429687500000, -1.250000000000, -29.648437500000, 1490764201
0.375244140625, -0.807128906250, 0.478271484375, -5.054687500000, -45.296875000000, -29.070312500000, 1490764201
0.375244140625, -0.807128906250, 0.478271484375, -5.054687500000, -45.296875000000, -29.070312500000, 1490764201
0.375244140625, -0.807128906250, 0.478271484375, -5.054687500000, -45.296875000000, -29.070312500000, 1490764201
0.328369140625, -0.777587890625, 0.517578125000, -22.195312500000, -56.203125000000, -11.921875000000, 1490764201
0.328369140625, -0.777587890625, 0.517578125000, -22.195312500000, -56.203125000000, -11.921875000000, 1490764201
0.328369140625, -0.777587890625, 0.517578125000, -22.195312500000, -56.203125000000, -11.921875000000, 1490764201
0.346923828125, -0.734863281250, 0.458740234375, 8.289062500000, -24.953125000000, -11.203125000000, 1490764201
0.346923828125, -0.734863281250, 0.458740234375, 8.289062500000, -24.953125000000, -11.203125000000, 1490764201
0.448730468750, -0.606933593750, 0.483642578125, 5.742187500000, 16.007812500000, -5.507812500000, 1490764201
0.448730468750, -0.606933593750, 0.483642578125, 5.742187500000, 16.007812500000, -5.507812500000, 1490764201
0.448730468750, -0.606933593750, 0.483642578125, 5.742187500000, 16.007812500000, -5.507812500000, 1490764201
0.448730468750, -0.606933593750, 0.483642578125, 5.742187500000, 16.007812500000, -5.507812500000, 1490764201
0.448730468750, -0.606933593750, 0.483642578125, 5.742187500000, 16.007812500000, -5.507812500000, 1490764201
0.249267578125, -0.736816406250, 0.548828125000, 12.000000000000, 23.835937500000, 4.171875000000, 1490764201
0.249267578125, -0.736816406250, 0.548828125000, 12.000000000000, 23.835937500000, 4.171875000000, 1490764201
0.249267578125, -0.736816406250, 0.548828125000, 12.000000000000, 23.835937500000, 4.171875000000, 1490764201
0.375976562500, -0.877929687500, 0.554443359375, 18.882812500000, 31.656250000000, 5.992187500000, 1490764201
0.375976562500, -0.877929687500, 0.554443359375, 18.882812500000, 31.656250000000, 5.992187500000, 1490764201
0.375976562500, -0.877929687500, 0.554443359375, 18.882812500000, 31.656250000000, 5.992187500000, 1490764201
0.390869140625, -0.763916015625, 0.543945312500, 9.687500000000, 10.546875000000, 7.265625000000, 1490764201
0.390869140625, -0.763916015625, 0.543945312500, 9.687500000000, 10.546875000000, 7.265625000000, 1490764201
0.390869140625, -0.763916015625, 0.543945312500, 9.687500000000, 10.546875000000, 7.265625000000, 1490764201
0.306396484375, -0.609375000000, 0.559814453125, 1.906250000000, 27.687500000000, 17.890625000000, 1490764201
0.306396484375, -0.609375000000, 0.559814453125, 1.906250000000, 27.687500000000, 17.890625000000, 1490764201
0.306396484375, -0.609375000000, 0.559814453125, 1.906250000000, 27.687500000000, 17.890625000000, 1490764201
0.240478515625, -0.752929687500, 0.552490234375, -2.804687500000, 26.726562500000, 20.156250000000, 1490764201
0.240478515625, -0.752929687500, 0.552490234375, -2.804687500000, 26.726562500000, 20.156250000000, 1490764201
0.240478515625, -0.752929687500, 0.552490234375, -2.804687500000, 26.726562500000, 20.156250000000, 1490764201
0.240478515625, -0.752929687500, 0.552490234375, -2.804687500000, 26.726562500000, 20.156250000000, 1490764201
0.395019531250, -0.781982421875, 0.546875000000, -27.335937500000, 23.515625000000, 21.437500000000, 1490764202
0.395019531250, -0.781982421875, 0.546875000000, -27.335937500000, 23.515625000000, 21.437500000000, 1490764202
0.395019531250, -0.781982421875, 0.546875000000, -27.335937500000, 23.515625000000, 21.437500000000, 1490764202
0.374267578125, -0.951660156250, 0.652587890625, -28.187500000000, -3.789062500000, 20.750000000000, 1490764202
0.374267578125, -0.951660156250, 0.652587890625, -28.187500000000, -3.789062500000, 20.750000000000, 1490764202
0.374267578125, -0.951660156250, 0.652587890625, -28.187500000000, -3.789062500000, 20.750000000000, 1490764202
0.386718750000, -0.725585937500, 0.347412109375, -29.132812500000, -25.101562500000, 13.117187500000, 1490764202
0.386718750000, -0.725585937500, 0.347412109375, -29.132812500000, -25.101562500000, 13.117187500000, 1490764202
0.386718750000, -0.725585937500, 0.347412109375, -29.132812500000, -25.101562500000, 13.117187500000, 1490764202
0.386718750000, -0.725585937500, 0.347412109375, -29.132812500000, -25.101562500000, 13.117187500000, 1490764202
0.486328125000, -0.888183593750, 0.326660156250, -27.000000000000, 3.218750000000, 15.406250000000, 1490764202
0.486328125000, -0.888183593750, 0.326660156250, -27.000000000000, 3.218750000000, 15.406250000000, 1490764202
0.486328125000, -0.888183593750, 0.326660156250, -27.000000000000, 3.218750000000, 15.406250000000, 1490764202
0.513183593750, -0.887695312500, 0.404052734375, 21.328125000000, 41.992187500000, 20.523437500000, 1490764202
0.513183593750, -0.887695312500, 0.404052734375, 21.328125000000, 41.992187500000, 20.523437500000, 1490764202
0.513183593750, -0.887695312500, 0.404052734375, 21.328125000000, 41.992187500000, 20.523437500000, 1490764202
0.458984375000, -0.863769531250, 0.563476562500, 32.484375000000, 79.976562500000, 23.992187500000, 1490764202
0.458984375000, -0.863769531250, 0.563476562500, 32.484375000000, 79.976562500000, 23.992187500000, 1490764202
0.458984375000, -0.863769531250, 0.563476562500, 32.484375000000, 79.976562500000, 23.992187500000, 1490764202
0.449462890625, -0.839111328125, 0.577392578125, 25.007812500000, 2.507812500000, 2.492187500000, 1490764202
0.449462890625, -0.839111328125, 0.577392578125, 25.007812500000, 2.507812500000, 2.492187500000, 1490764202
0.449462890625, -0.839111328125, 0.577392578125, 25.007812500000, 2.507812500000, 2.492187500000, 1490764202
0.449462890625, -0.839111328125, 0.577392578125, 25.007812500000, 2.507812500000, 2.492187500000, 1490764202
0.437744140625, -0.780273437500, 0.630615234375, 11.992187500000, 10.093750000000, -2.257812500000, 1490764202
0.437744140625, -0.780273437500, 0.630615234375, 11.992187500000, 10.093750000000, -2.257812500000, 1490764202
0.437744140625, -0.780273437500, 0.630615234375, 11.992187500000, 10.093750000000, -2.257812500000, 1490764202
0.360839843750, -0.677978515625, 0.480957031250, -2.218750000000, 17.570312500000, 6.039062500000, 1490764202
0.360839843750, -0.677978515625, 0.480957031250, -2.218750000000, 17.570312500000, 6.039062500000, 1490764202
0.360839843750, -0.677978515625, 0.480957031250, -2.218750000000, 17.570312500000, 6.039062500000, 1490764202
0.378173828125, -0.695800781250, 0.519531250000, 8.742187500000, 11.101562500000, -2.039062500000, 1490764202
0.378173828125, -0.695800781250, 0.519531250000, 8.742187500000, 11.101562500000, -2.039062500000, 1490764202
0.378173828125, -0.695800781250, 0.519531250000, 8.742187500000, 11.101562500000, -2.039062500000, 1490764202
0.371093750000, -0.722900390625, 0.583007812500, 14.804687500000, 5.523437500000, -1.984375000000, 1490764202
0.371093750000, -0.722900390625, 0.583007812500, 14.804687500000, 5.523437500000, -1.984375000000, 1490764202
0.371093750000, -0.722900390625, 0.583007812500, 14.804687500000, 5.523437500000, -1.984375000000, 1490764202
0.371093750000, -0.722900390625, 0.583007812500, 14.804687500000, 5.523437500000, -1.984375000000, 1490764202
0.451416015625, -0.816406250000, 0.537597656250, 7.039062500000, -7.906250000000, -8.718750000000, 1490764202
0.451416015625, -0.816406250000, 0.537597656250, 7.039062500000, -7.906250000000, -8.718750000000, 1490764202
0.451416015625, -0.816406250000, 0.537597656250, 7.039062500000, -7.906250000000, -8.718750000000, 1490764202
0.392578125000, -0.728759765625, 0.499755859375, -2.382812500000, -26.664062500000, -8.390625000000, 1490764202
0.392578125000, -0.728759765625, 0.499755859375, -2.382812500000, -26.664062500000, -8.390625000000, 1490764202
0.392578125000, -0.728759765625, 0.499755859375, -2.382812500000, -26.664062500000, -8.390625000000, 1490764202
0.287597656250, -0.768798828125, 0.556152343750, 0.398437500000, -38.125000000000, -16.609375000000, 1490764202
0.287597656250, -0.768798828125, 0.556152343750, 0.398437500000, -38.125000000000, -16.609375000000, 1490764202
0.287597656250, -0.768798828125, 0.556152343750, 0.398437500000, -38.125000000000, -16.609375000000, 1490764202
0.445556640625, -0.659179687500, 0.547119140625, -17.343750000000, -29.828125000000, -14.875000000000, 1490764202
0.445556640625, -0.659179687500, 0.547119140625, -17.343750000000, -29.828125000000, -14.875000000000, 1490764202
0.445556640625, -0.659179687500, 0.547119140625, -17.343750000000, -29.828125000000, -14.875000000000, 1490764202
0.445556640625, -0.659179687500, 0.547119140625, -17.343750000000, -29.828125000000, -14.875000000000, 1490764202
0.442871093750, -0.766113281250, 0.584716796875, -21.500000000000, -33.429687500000, -19.937500000000, 1490764202
0.442871093750, -0.766113281250, 0.584716796875, -21.500000000000, -33.429687500000, -19.937500000000, 1490764202
0.442871093750, -0.766113281250, 0.584716796875, -21.500000000000, -33.429687500000, -19.937500000000, 1490764202
0.453857421875, -0.724609375000, 0.545410156250, -23.960937500000, -18.992187500000, -17.242187500000, 1490764202
0.453857421875, -0.724609375000, 0.545410156250, -23.960937500000, -18.992187500000, -17.242187500000, 1490764202
0.453857421875, -0.724609375000, 0.545410156250, -23.960937500000, -18.992187500000, -17.242187500000, 1490764202
0.409667968750, -0.886962890625, 0.601074218750, -45.617187500000, 15.015625000000, -7.859375000000, 1490764202
0.409667968750, -0.886962890625, 0.601074218750, -45.617187500000, 15.015625000000, -7.859375000000, 1490764202
0.409667968750, -0.886962890625, 0.601074218750, -45.617187500000, 15.015625000000, -7.859375000000, 1490764202
0.350341796875, -0.921630859375, 0.636962890625, -29.203125000000, 4.250000000000, -17.804687500000, 1490764202
0.350341796875, -0.921630859375, 0.636962890625, -29.203125000000, 4.250000000000, -17.804687500000, 1490764202
0.350341796875, -0.921630859375, 0.636962890625, -29.203125000000, 4.250000000000, -17.804687500000, 1490764202
0.350341796875, -0.921630859375, 0.636962890625, -29.203125000000, 4.250000000000, -17.804687500000, 1490764202
0.380615234375, -0.867187500000, 0.512939453125, -25.679687500000, -43.500000000000, -20.937500000000, 1490764202
0.380615234375, -0.867187500000, 0.512939453125, -25.679687500000, -43.500000000000, -20.937500000000, 1490764202
0.380615234375, -0.867187500000, 0.512939453125, -25.679687500000, -43.500000000000, -20.937500000000, 1490764202
0.397949218750, -0.744873046875, 0.296386718750, -24.976562500000, -27.460937500000, -15.593750000000, 1490764202
0.397949218750, -0.744873046875, 0.296386718750, -24.976562500000, -27.460937500000, -15.593750000000, 1490764202
0.397949218750, -0.744873046875, 0.296386718750, -24.976562500000, -27.460937500000, -15.593750000000, 1490764203
0.383056640625, -0.769531250000, 0.362304687500, -10.914062500000, -38.679687500000, -19.945312500000, 1490764203
0.383056640625, -0.769531250000, 0.362304687500, -10.914062500000, -38.679687500000, -19.945312500000, 1490764203
0.383056640625, -0.769531250000, 0.362304687500, -10.914062500000, -38.679687500000, -19.945312500000, 1490764203
0.239013671875, -0.795898437500, 0.410400390625, -15.906250000000, -13.437500000000, -13.835937500000, 1490764203
0.239013671875, -0.795898437500, 0.410400390625, -15.906250000000, -13.437500000000, -13.835937500000, 1490764203
0.239013671875, -0.795898437500, 0.410400390625, -15.906250000000, -13.437500000000, -13.835937500000, 1490764203
0.399658203125, -0.889404296875, 0.594482421875, 5.937500000000, 24.367187500000, -13.210937500000, 1490764203
0.399658203125, -0.889404296875, 0.594482421875, 5.937500000000, 24.367187500000, -13.210937500000, 1490764203
0.399658203125, -0.889404296875, 0.594482421875, 5.937500000000, 24.367187500000, -13.210937500000, 1490764203
0.399658203125, -0.889404296875, 0.594482421875, 5.937500000000, 24.367187500000, -13.210937500000, 1490764203
0.281494140625, -0.841064453125, 0.605468750000, -12.390625000000, -33.343750000000, -17.375000000000, 1490764203
0.281494140625, -0.841064453125, 0.605468750000, -12.390625000000, -33.343750000000, -17.375000000000, 1490764203
0.281494140625, -0.841064453125, 0.605468750000, -12.390625000000, -33.343750000000, -17.375000000000, 1490764203
0.348144531250, -0.735351562500, 0.495849609375, -15.531250000000, -55.468750000000, -23.765625000000, 1490764203
0.348144531250, -0.735351562500, 0.495849609375, -15.531250000000, -55.468750000000, -23.765625000000, 1490764203
0.348144531250, -0.735351562500, 0.495849609375, -15.531250000000, -55.468750000000, -23.765625000000, 1490764203
0.447753906250, -0.608398437500, 0.502685546875, 0.078125000000, 6.937500000000, -16.687500000000, 1490764203
0.447753906250, -0.608398437500, 0.502685546875, 0.078125000000, 6.937500000000, -16.687500000000, 1490764203
0.447753906250, -0.608398437500, 0.502685546875, 0.078125000000, 6.937500000000, -16.687500000000, 1490764203
0.447753906250, -0.608398437500, 0.502685546875, 0.078125000000, 6.937500000000, -16.687500000000, 1490764203
0.459716796875, -0.663085937500, 0.530761718750, -5.226562500000, 15.187500000000, -11.921875000000, 1490764203
0.459716796875, -0.663085937500, 0.530761718750, -5.226562500000, 15.187500000000, -11.921875000000, 1490764203
0.459716796875, -0.663085937500, 0.530761718750, -5.226562500000, 15.187500000000, -11.921875000000, 1490764203
0.390625000000, -0.763671875000, 0.485351562500, 10.882812500000, 28.125000000000, -0.859375000000, 1490764203
0.390625000000, -0.763671875000, 0.485351562500, 10.882812500000, 28.125000000000, -0.859375000000, 1490764203
0.390625000000, -0.763671875000, 0.485351562500, 10.882812500000, 28.125000000000, -0.859375000000, 1490764203
0.369384765625, -0.814453125000, 0.617675781250, 15.351562500000, 6.757812500000, 2.507812500000, 1490764203
0.312011718750, -0.761962890625, 0.607666015625, 6.398437500000, 0.921875000000, -0.648437500000, 1490764203
0.312011718750, -0.761962890625, 0.607666015625, 6.398437500000, 0.921875000000, -0.648437500000, 1490764203
0.312011718750, -0.761962890625, 0.607666015625, 6.398437500000, 0.921875000000, -0.648437500000, 1490764203
0.312011718750, -0.761962890625, 0.607666015625, 6.398437500000, 0.921875000000, -0.648437500000, 1490764203
0.325683593750, -0.674560546875, 0.532714843750, 8.343750000000, 13.476562500000, 6.304687500000, 1490764203
0.325683593750, -0.674560546875, 0.532714843750, 8.343750000000, 13.476562500000, 6.304687500000, 1490764203
0.325683593750, -0.674560546875, 0.532714843750, 8.343750000000, 13.476562500000, 6.304687500000, 1490764203
0.325683593750, -0.674560546875, 0.532714843750, 8.343750000000, 13.476562500000, 6.304687500000, 1490764203
0.325683593750, -0.674560546875, 0.532714843750, 8.343750000000, 13.476562500000, 6.304687500000, 1490764203
0.337646484375, -0.619873046875, 0.665527343750, 18.890625000000, 23.242187500000, 10.757812500000, 1490764203
0.337646484375, -0.619873046875, 0.665527343750, 18.890625000000, 23.242187500000, 10.757812500000, 1490764203
0.337646484375, -0.619873046875, 0.665527343750, 18.890625000000, 23.242187500000, 10.757812500000, 1490764203
0.284667968750, -0.686767578125, 0.601318359375, 6.617187500000, 21.492187500000, 20.375000000000, 1490764203
0.284667968750, -0.686767578125, 0.601318359375, 6.617187500000, 21.492187500000, 20.375000000000, 1490764203
0.284667968750, -0.686767578125, 0.601318359375, 6.617187500000, 21.492187500000, 20.375000000000, 1490764203
0.343017578125, -0.895507812500, 0.639160156250, -26.703125000000, 19.328125000000, 12.375000000000, 1490764203
0.320312500000, -0.860351562500, 0.559082031250, -22.820312500000, 7.859375000000, 8.609375000000, 1490764203
0.320312500000, -0.860351562500, 0.559082031250, -22.820312500000, 7.859375000000, 8.609375000000, 1490764203
0.398193359375, -0.951904296875, 0.551513671875, -36.445312500000, -6.453125000000, 6.562500000000, 1490764203
0.398193359375, -0.951904296875, 0.551513671875, -36.445312500000, -6.453125000000, 6.562500000000, 1490764203
0.398193359375, -0.951904296875, 0.551513671875, -36.445312500000, -6.453125000000, 6.562500000000, 1490764203
0.398193359375, -0.951904296875, 0.551513671875, -36.445312500000, -6.453125000000, 6.562500000000, 1490764203
0.398193359375, -0.951904296875, 0.551513671875, -36.445312500000, -6.453125000000, 6.562500000000, 1490764203
0.365478515625, -0.815429687500, 0.504394531250, -38.421875000000, -9.117187500000, 7.718750000000, 1490764203
0.365478515625, -0.815429687500, 0.504394531250, -38.421875000000, -9.117187500000, 7.718750000000, 1490764203
0.365478515625, -0.815429687500, 0.504394531250, -38.421875000000, -9.117187500000, 7.718750000000, 1490764203
0.365478515625, -0.815429687500, 0.504394531250, -38.421875000000, -9.117187500000, 7.718750000000, 1490764203
0.365478515625, -0.815429687500, 0.504394531250, -38.421875000000, -9.117187500000, 7.718750000000, 1490764203
0.527343750000, -0.842041015625, 0.354492187500, -13.125000000000, -12.375000000000, 5.273437500000, 1490764203
0.527343750000, -0.842041015625, 0.354492187500, -13.125000000000, -12.375000000000, 5.273437500000, 1490764203
0.527343750000, -0.842041015625, 0.354492187500, -13.125000000000, -12.375000000000, 5.273437500000, 1490764203
0.527343750000, -0.842041015625, 0.354492187500, -13.125000000000, -12.375000000000, 5.273437500000, 1490764203
0.352539062500, -0.736816406250, 0.362060546875, 14.640625000000, 53.742187500000, 32.148437500000, 1490764203
0.352539062500, -0.736816406250, 0.362060546875, 14.640625000000, 53.742187500000, 32.148437500000, 1490764203
0.352539062500, -0.736816406250, 0.362060546875, 14.640625000000, 53.742187500000, 32.148437500000, 1490764203
0.279296875000, -0.784912109375, 0.443847656250, 16.687500000000, 63.500000000000, 30.664062500000, 1490764203
0.279296875000, -0.784912109375, 0.443847656250, 16.687500000000, 63.500000000000, 30.664062500000, 1490764203
0.279296875000, -0.784912109375, 0.443847656250, 16.687500000000, 63.500000000000, 30.664062500000, 1490764203
0.342041015625, -0.841552734375, 0.483642578125, 25.687500000000, 19.765625000000, 13.960937500000, 1490764204
0.342041015625, -0.841552734375, 0.483642578125, 25.687500000000, 19.765625000000, 13.960937500000, 1490764204
0.342041015625, -0.841552734375, 0.483642578125, 25.687500000000, 19.765625000000, 13.960937500000, 1490764204
0.312500000000, -0.820312500000, 0.667236328125, 7.585937500000, 2.148437500000, 16.593750000000, 1490764204
0.312500000000, -0.820312500000, 0.667236328125, 7.585937500000, 2.148437500000, 16.593750000000, 1490764204
0.312500000000, -0.820312500000, 0.667236328125, 7.585937500000, 2.148437500000, 16.593750000000, 1490764204
0.312500000000, -0.820312500000, 0.667236328125, 7.585937500000, 2.148437500000, 16.593750000000, 1490764204
0.305908203125, -0.768798828125, 0.497314453125, -5.437500000000, 7.343750000000, 3.437500000000, 1490764204
0.305908203125, -0.768798828125, 0.497314453125, -5.437500000000, 7.343750000000, 3.437500000000, 1490764204
0.305908203125, -0.768798828125, 0.497314453125, -5.437500000000, 7.343750000000, 3.437500000000, 1490764204
0.380615234375, -0.699707031250, 0.530761718750, 18.734375000000, 4.718750000000, 10.085937500000, 1490764204
0.380615234375, -0.699707031250, 0.530761718750, 18.734375000000, 4.718750000000, 10.085937500000, 1490764204
0.380615234375, -0.699707031250, 0.530761718750, 18.734375000000, 4.718750000000, 10.085937500000, 1490764204
0.450439453125, -0.702880859375, 0.590332031250, 5.695312500000, -7.132812500000, 10.703125000000, 1490764204
0.450439453125, -0.702880859375, 0.590332031250, 5.695312500000, -7.132812500000, 10.703125000000, 1490764204
0.450439453125, -0.702880859375, 0.590332031250, 5.695312500000, -7.132812500000, 10.703125000000, 1490764204
0.405273437500, -0.694580078125, 0.578369140625, -5.765625000000, -18.343750000000, 7.320312500000, 1490764204
0.405273437500, -0.694580078125, 0.578369140625, -5.765625000000, -18.343750000000, 7.320312500000, 1490764204
0.405273437500, -0.694580078125, 0.578369140625, -5.765625000000, -18.343750000000, 7.320312500000, 1490764204
0.405273437500, -0.694580078125, 0.578369140625, -5.765625000000, -18.343750000000, 7.320312500000, 1490764204
0.424072265625, -0.726074218750, 0.562011718750, 9.546875000000, -11.312500000000, -6.164062500000, 1490764204
0.424072265625, -0.726074218750, 0.562011718750, 9.546875000000, -11.312500000000, -6.164062500000, 1490764204
0.424072265625, -0.726074218750, 0.562011718750, 9.546875000000, -11.312500000000, -6.164062500000, 1490764204
0.583740234375, -0.690673828125, 0.708007812500, 5.406250000000, -22.296875000000, -13.507812500000, 1490764204
0.583740234375, -0.690673828125, 0.708007812500, 5.406250000000, -22.296875000000, -13.507812500000, 1490764204
0.583740234375, -0.690673828125, 0.708007812500, 5.406250000000, -22.296875000000, -13.507812500000, 1490764204
0.453125000000, -0.620361328125, 0.479492187500, -10.460937500000, -14.343750000000, -13.273437500000, 1490764204
0.453125000000, -0.620361328125, 0.479492187500, -10.460937500000, -14.343750000000, -13.273437500000, 1490764204
0.453125000000, -0.620361328125, 0.479492187500, -10.460937500000, -14.343750000000, -13.273437500000, 1490764204
0.380371093750, -0.672607421875, 0.496582031250, -0.453125000000, -15.867187500000, -25.062500000000, 1490764204
0.380371093750, -0.672607421875, 0.496582031250, -0.453125000000, -15.867187500000, -25.062500000000, 1490764204
0.380371093750, -0.672607421875, 0.496582031250, -0.453125000000, -15.867187500000, -25.062500000000, 1490764204
0.452392578125, -0.599853515625, 0.636718750000, -11.429687500000, -26.640625000000, -27.281250000000, 1490764204
0.452392578125, -0.599853515625, 0.636718750000, -11.429687500000, -26.640625000000, -27.281250000000, 1490764204
0.452392578125, -0.599853515625, 0.636718750000, -11.429687500000, -26.640625000000, -27.281250000000, 1490764204
0.452392578125, -0.599853515625, 0.636718750000, -11.429687500000, -26.640625000000, -27.281250000000, 1490764204
0.527343750000, -0.767822265625, 0.586425781250, -20.515625000000, -18.281250000000, -28.835937500000, 1490764204
0.527343750000, -0.767822265625, 0.586425781250, -20.515625000000, -18.281250000000, -28.835937500000, 1490764204
0.527343750000, -0.767822265625, 0.586425781250, -20.515625000000, -18.281250000000, -28.835937500000, 1490764204
0.510253906250, -0.751708984375, 0.561279296875, -20.812500000000, -11.109375000000, -21.375000000000, 1490764204
0.510253906250, -0.751708984375, 0.561279296875, -20.812500000000, -11.109375000000, -21.375000000000, 1490764204
0.510253906250, -0.751708984375, 0.561279296875, -20.812500000000, -11.109375000000, -21.375000000000, 1490764204
0.581542968750, -0.833984375000, 0.633789062500, -29.148437500000, -2.000000000000, -12.039062500000, 1490764204
0.581542968750, -0.833984375000, 0.633789062500, -29.148437500000, -2.000000000000, -12.039062500000, 1490764204
0.581542968750, -0.833984375000, 0.633789062500, -29.148437500000, -2.000000000000, -12.039062500000, 1490764204
0.581542968750, -0.833984375000, 0.633789062500, -29.148437500000, -2.000000000000, -12.039062500000, 1490764204
0.449462890625, -0.876220703125, 0.544921875000, -30.468750000000, 16.664062500000, -4.242187500000, 1490764204
0.449462890625, -0.876220703125, 0.544921875000, -30.468750000000, 16.664062500000, -4.242187500000, 1490764204
0.449462890625, -0.876220703125, 0.544921875000, -30.468750000000, 16.664062500000, -4.242187500000, 1490764204
0.351074218750, -0.810058593750, 0.441162109375, -10.921875000000, -5.085937500000, -7.460937500000, 1490764204
0.351074218750, -0.810058593750, 0.441162109375, -10.921875000000, -5.085937500000, -7.460937500000, 1490764204
0.351074218750, -0.810058593750, 0.441162109375, -10.921875000000, -5.085937500000, -7.460937500000, 1490764204
0.294921875000, -0.781738281250, 0.500244140625, -2.117187500000, 3.757812500000, -10.421875000000, 1490764204
0.294921875000, -0.781738281250, 0.500244140625, -2.117187500000, 3.757812500000, -10.421875000000, 1490764204
0.294921875000, -0.781738281250, 0.500244140625, -2.117187500000, 3.757812500000, -10.421875000000, 1490764204
0.194580078125, -0.897460937500, 0.476806640625, 0.945312500000, -6.070312500000, -18.101562500000, 1490764204
0.194580078125, -0.897460937500, 0.476806640625, 0.945312500000, -6.070312500000, -18.101562500000, 1490764204
0.194580078125, -0.897460937500, 0.476806640625, 0.945312500000, -6.070312500000, -18.101562500000, 1490764204
0.194580078125, -0.897460937500, 0.476806640625, 0.945312500000, -6.070312500000, -18.101562500000, 1490764204
0.257568359375, -0.791259765625, 0.549804687500, -1.203125000000, -4.804687500000, -20.250000000000, 1490764204
0.257568359375, -0.791259765625, 0.549804687500, -1.203125000000, -4.804687500000, -20.250000000000, 1490764204
0.257568359375, -0.791259765625, 0.549804687500, -1.203125000000, -4.804687500000, -20.250000000000, 1490764204
0.227539062500, -0.909912109375, 0.535156250000, 2.640625000000, 2.187500000000, -20.539062500000, 1490764204
0.227539062500, -0.909912109375, 0.535156250000, 2.640625000000, 2.187500000000, -20.539062500000, 1490764204
0.227539062500, -0.909912109375, 0.535156250000, 2.640625000000, 2.187500000000, -20.539062500000, 1490764204
0.303955078125, -0.811279296875, 0.650634765625, 3.585937500000, -39.976562500000, -24.351562500000, 1490764204
0.303955078125, -0.811279296875, 0.650634765625, 3.585937500000, -39.976562500000, -24.351562500000, 1490764204
0.303955078125, -0.811279296875, 0.650634765625, 3.585937500000, -39.976562500000, -24.351562500000, 1490764205
0.353759765625, -0.784179687500, 0.526611328125, 4.789062500000, -21.710937500000, -11.656250000000, 1490764205
0.353759765625, -0.784179687500, 0.526611328125, 4.789062500000, -21.710937500000, -11.656250000000, 1490764205
0.353759765625, -0.784179687500, 0.526611328125, 4.789062500000, -21.710937500000, -11.656250000000, 1490764205
0.353759765625, -0.784179687500, 0.526611328125, 4.789062500000, -21.710937500000, -11.656250000000, 1490764205
0.385253906250, -0.626708984375, 0.433105468750, 9.765625000000, 6.500000000000, -12.875000000000, 1490764205
0.385253906250, -0.626708984375, 0.433105468750, 9.765625000000, 6.500000000000, -12.875000000000, 1490764205
0.385253906250, -0.626708984375, 0.433105468750, 9.765625000000, 6.500000000000, -12.875000000000, 1490764205
0.443115234375, -0.673095703125, 0.593017578125, 7.093750000000, 23.632812500000, 4.281250000000, 1490764205
0.443115234375, -0.673095703125, 0.593017578125, 7.093750000000, 23.632812500000, 4.281250000000, 1490764205
0.443115234375, -0.673095703125, 0.593017578125, 7.093750000000, 23.632812500000, 4.281250000000, 1490764205
0.293945312500, -0.684326171875, 0.570068359375, 10.648437500000, 26.812500000000, 3.554687500000, 1490764205
0.293945312500, -0.684326171875, 0.570068359375, 10.648437500000, 26.812500000000, 3.554687500000, 1490764205
0.293945312500, -0.684326171875, 0.570068359375, 10.648437500000, 26.812500000000, 3.554687500000, 1490764205
0.307617187500, -0.747558593750, 0.586914062500, 13.984375000000, 0.468750000000, -1.945312500000, 1490764205
0.307617187500, -0.747558593750, 0.586914062500, 13.984375000000, 0.468750000000, -1.945312500000, 1490764205
0.307617187500, -0.747558593750, 0.586914062500, 13.984375000000, 0.468750000000, -1.945312500000, 1490764205
0.307617187500, -0.747558593750, 0.586914062500, 13.984375000000, 0.468750000000, -1.945312500000, 1490764205
0.433593750000, -0.677978515625, 0.649169921875, 3.390625000000, 2.273437500000, -2.890625000000, 1490764205
0.433593750000, -0.677978515625, 0.649169921875, 3.390625000000, 2.273437500000, -2.890625000000, 1490764205
0.433593750000, -0.677978515625, 0.649169921875, 3.390625000000, 2.273437500000, -2.890625000000, 1490764205
0.373046875000, -0.777343750000, 0.572265625000, -0.914062500000, 5.484375000000, 2.726562500000, 1490764205
0.311035156250, -0.789794921875, 0.547363281250, 4.015625000000, 13.187500000000, 16.195312500000, 1490764205
0.311035156250, -0.789794921875, 0.547363281250, 4.015625000000, 13.187500000000, 16.195312500000, 1490764205
0.311035156250, -0.789794921875, 0.547363281250, 4.015625000000, 13.187500000000, 16.195312500000, 1490764205
0.311035156250, -0.789794921875, 0.547363281250, 4.015625000000, 13.187500000000, 16.195312500000, 1490764205
0.337158203125, -0.890869140625, 0.696289062500, -14.523437500000, 8.015625000000, 13.000000000000, 1490764205
0.337158203125, -0.890869140625, 0.696289062500, -14.523437500000, 8.015625000000, 13.000000000000, 1490764205
0.337158203125, -0.890869140625, 0.696289062500, -14.523437500000, 8.015625000000, 13.000000000000, 1490764205
0.337158203125, -0.890869140625, 0.696289062500, -14.523437500000, 8.015625000000, 13.000000000000, 1490764205
0.393554687500, -0.720703125000, 0.693359375000, -16.296875000000, -8.039062500000, 14.445312500000, 1490764205
0.393554687500, -0.720703125000, 0.693359375000, -16.296875000000, -8.039062500000, 14.445312500000, 1490764205
0.393554687500, -0.720703125000, 0.693359375000, -16.296875000000, -8.039062500000, 14.445312500000, 1490764205
0.309570312500, -0.851318359375, 0.615966796875, -27.070312500000, -2.968750000000, 11.125000000000, 1490764205
0.385253906250, -0.851074218750, 0.542724609375, -37.671875000000, -4.992187500000, 7.117187500000, 1490764205
0.385253906250, -0.851074218750, 0.542724609375, -37.671875000000, -4.992187500000, 7.117187500000, 1490764205
0.385253906250, -0.851074218750, 0.542724609375, -37.671875000000, -4.992187500000, 7.117187500000, 1490764205
0.507812500000, -0.894042968750, 0.541992187500, -24.250000000000, -0.523437500000, 8.250000000000, 1490764205
0.507812500000, -0.894042968750, 0.541992187500, -24.250000000000, -0.523437500000, 8.250000000000, 1490764205
0.507812500000, -0.894042968750, 0.541992187500, -24.250000000000, -0.523437500000, 8.250000000000, 1490764205
0.505859375000, -0.902832031250, 0.300048828125, -40.953125000000, -4.054687500000, 13.539062500000, 1490764205
0.505859375000, -0.902832031250, 0.300048828125, -40.953125000000, -4.054687500000, 13.539062500000, 1490764205
0.505859375000, -0.902832031250, 0.300048828125, -40.953125000000, -4.054687500000, 13.539062500000, 1490764205
0.505859375000, -0.902832031250, 0.300048828125, -40.953125000000, -4.054687500000, 13.539062500000, 1490764205
0.402099609375, -0.835937500000, 0.218017578125, 24.398437500000, 32.640625000000, 23.515625000000, 1490764205
0.402099609375, -0.835937500000, 0.218017578125, 24.398437500000, 32.640625000000, 23.515625000000, 1490764205
0.402099609375, -0.835937500000, 0.218017578125, 24.398437500000, 32.640625000000, 23.515625000000, 1490764205
0.342529296875, -0.833984375000, 0.481689453125, 60.210937500000, 59.351562500000, 23.187500000000, 1490764205
0.342529296875, -0.833984375000, 0.481689453125, 60.210937500000, 59.351562500000, 23.187500000000, 1490764205
0.342529296875, -0.833984375000, 0.481689453125, 60.210937500000, 59.351562500000, 23.187500000000, 1490764205
0.251220703125, -0.894531250000, 0.563964843750, 0.851562500000, 23.921875000000, 1.085937500000, 1490764205
0.251220703125, -0.894531250000, 0.563964843750, 0.851562500000, 23.921875000000, 1.085937500000, 1490764205
0.251220703125, -0.894531250000, 0.563964843750, 0.851562500000, 23.921875000000, 1.085937500000, 1490764205
0.291259765625, -0.733154296875, 0.692382812500, 6.976562500000, 3.289062500000, -13.179687500000, 1490764205
0.291259765625, -0.733154296875, 0.692382812500, 6.976562500000, 3.289062500000, -13.179687500000, 1490764205
0.291259765625, -0.733154296875, 0.692382812500, 6.976562500000, 3.289062500000, -13.179687500000, 1490764205
0.291259765625, -0.733154296875, 0.692382812500, 6.976562500000, 3.289062500000, -13.179687500000, 1490764205
0.394287109375, -0.669189453125, 0.535888671875, -12.500000000000, -11.257812500000, -8.718750000000, 1490764205
0.394287109375, -0.669189453125, 0.535888671875, -12.500000000000, -11.257812500000, -8.718750000000, 1490764205
0.394287109375, -0.669189453125, 0.535888671875, -12.500000000000, -11.257812500000, -8.718750000000, 1490764205
0.317871093750, -0.716796875000, 0.432128906250, -8.789062500000, -18.984375000000, -19.281250000000, 1490764205
0.317871093750, -0.716796875000, 0.432128906250, -8.789062500000, -18.984375000000, -19.281250000000, 1490764205
0.317871093750, -0.716796875000, 0.432128906250, -8.789062500000, -18.984375000000, -19.281250000000, 1490764205
0.444824218750, -0.678955078125, 0.533691406250, 8.640625000000, -3.875000000000, -18.500000000000, 1490764205
0.444824218750, -0.678955078125, 0.533691406250, 8.640625000000, -3.875000000000, -18.500000000000, 1490764205
0.444824218750, -0.678955078125, 0.533691406250, 8.640625000000, -3.875000000000, -18.500000000000, 1490764205
0.306640625000, -0.694335937500, 0.578857421875, -4.078125000000, -8.570312500000, -14.218750000000, 1490764206
0.306640625000, -0.694335937500, 0.578857421875, -4.078125000000, -8.570312500000, -14.218750000000, 1490764206
0.306640625000, -0.694335937500, 0.578857421875, -4.078125000000, -8.570312500000, -14.218750000000, 1490764206
0.306640625000, -0.694335937500, 0.578857421875, -4.078125000000, -8.570312500000, -14.218750000000, 1490764206
0.341064453125, -0.754150390625, 0.496582031250, 15.578125000000, -7.382812500000, -19.312500000000, 1490764206
0.341064453125, -0.754150390625, 0.496582031250, 15.578125000000, -7.382812500000, -19.312500000000, 1490764206
0.341064453125, -0.754150390625, 0.496582031250, 15.578125000000, -7.382812500000, -19.312500000000, 1490764206
0.438720703125, -0.716552734375, 0.708496093750, 11.476562500000, -21.914062500000, -22.789062500000, 1490764206
0.438720703125, -0.716552734375, 0.708496093750, 11.476562500000, -21.914062500000, -22.789062500000, 1490764206
0.438720703125, -0.716552734375, 0.708496093750, 11.476562500000, -21.914062500000, -22.789062500000, 1490764206
0.494140625000, -0.702392578125, 0.486328125000, -6.960937500000, -14.351562500000, -26.015625000000, 1490764206
0.494140625000, -0.702392578125, 0.486328125000, -6.960937500000, -14.351562500000, -26.015625000000, 1490764206
0.494140625000, -0.702392578125, 0.486328125000, -6.960937500000, -14.351562500000, -26.015625000000, 1490764206
0.432617187500, -0.835937500000, 0.566650390625, 5.500000000000, 6.593750000000, -7.664062500000, 1490764206
0.432617187500, -0.835937500000, 0.566650390625, 5.500000000000, 6.593750000000, -7.664062500000, 1490764206
0.432617187500, -0.835937500000, 0.566650390625, 5.500000000000, 6.593750000000, -7.664062500000, 1490764206
0.432617187500, -0.835937500000, 0.566650390625, 5.500000000000, 6.593750000000, -7.664062500000, 1490764206
0.409912109375, -0.728759765625, 0.580810546875, 23.687500000000, 26.656250000000, -1.921875000000, 1490764206
0.409912109375, -0.728759765625, 0.580810546875, 23.687500000000, 26.656250000000, -1.921875000000, 1490764206
0.409912109375, -0.728759765625, 0.580810546875, 23.687500000000, 26.656250000000, -1.921875000000, 1490764206
0.294433593750, -0.788085937500, 0.609130859375, 4.304687500000, 22.375000000000, 5.875000000000, 1490764206
0.294433593750, -0.788085937500, 0.609130859375, 4.304687500000, 22.375000000000, 5.875000000000, 1490764206
0.294433593750, -0.788085937500, 0.609130859375, 4.304687500000, 22.375000000000, 5.875000000000, 1490764206
0.383056640625, -0.876953125000, 0.628417968750, -34.250000000000, 17.890625000000, 4.695312500000, 1490764206
0.383056640625, -0.876953125000, 0.628417968750, -34.250000000000, 17.890625000000, 4.695312500000, 1490764206
0.383056640625, -0.876953125000, 0.628417968750, -34.250000000000, 17.890625000000, 4.695312500000, 1490764206
0.346679687500, -0.848632812500, 0.354248046875, -34.343750000000, -2.148437500000, 12.742187500000, 1490764206
0.346679687500, -0.848632812500, 0.354248046875, -34.343750000000, -2.148437500000, 12.742187500000, 1490764206
0.346679687500, -0.848632812500, 0.354248046875, -34.343750000000, -2.148437500000, 12.742187500000, 1490764206
0.346679687500, -0.848632812500, 0.354248046875, -34.343750000000, -2.148437500000, 12.742187500000, 1490764206
0.333496093750, -0.942871093750, 0.241210937500, -17.218750000000, 0.257812500000, 13.640625000000, 1490764206
0.333496093750, -0.942871093750, 0.241210937500, -17.218750000000, 0.257812500000, 13.640625000000, 1490764206
0.333496093750, -0.942871093750, 0.241210937500, -17.218750000000, 0.257812500000, 13.640625000000, 1490764206
0.255371093750, -0.949462890625, 0.478759765625, 35.289062500000, 10.765625000000, -5.507812500000, 1490764206
0.255371093750, -0.949462890625, 0.478759765625, 35.289062500000, 10.765625000000, -5.507812500000, 1490764206
0.255371093750, -0.949462890625, 0.478759765625, 35.289062500000, 10.765625000000, -5.507812500000, 1490764206
0.380126953125, -0.902587890625, 0.656005859375, -15.492187500000, -37.039062500000, -10.515625000000, 1490764206
0.380126953125, -0.902587890625, 0.656005859375, -15.492187500000, -37.039062500000, -10.515625000000, 1490764206
0.380126953125, -0.902587890625, 0.656005859375, -15.492187500000, -37.039062500000, -10.515625000000, 1490764206
0.212890625000, -0.826416015625, 0.386230468750, -46.070312500000, -54.031250000000, -11.648437500000, 1490764206
0.212890625000, -0.826416015625, 0.386230468750, -46.070312500000, -54.031250000000, -11.648437500000, 1490764206
0.212890625000, -0.826416015625, 0.386230468750, -46.070312500000, -54.031250000000, -11.648437500000, 1490764206
0.212890625000, -0.826416015625, 0.386230468750, -46.070312500000, -54.031250000000, -11.648437500000, 1490764206
0.275390625000, -0.704833984375, 0.349365234375, 2.875000000000, -7.312500000000, -25.562500000000, 1490764206
0.275390625000, -0.704833984375, 0.349365234375, 2.875000000000, -7.312500000000, -25.562500000000, 1490764206
0.275390625000, -0.704833984375, 0.349365234375, 2.875000000000, -7.312500000000, -25.562500000000, 1490764206
0.358398437500, -0.764404296875, 0.597167968750, -4.210937500000, -27.390625000000, -27.570312500000, 1490764206
0.358398437500, -0.764404296875, 0.597167968750, -4.210937500000, -27.390625000000, -27.570312500000, 1490764206
0.358398437500, -0.764404296875, 0.597167968750, -4.210937500000, -27.390625000000, -27.570312500000, 1490764206
0.494384765625, -0.760253906250, 0.530761718750, -16.648437500000, -56.171875000000, -16.375000000000, 1490764206
0.494384765625, -0.760253906250, 0.530761718750, -16.648437500000, -56.171875000000, -16.375000000000, 1490764206
0.494384765625, -0.760253906250, 0.530761718750, -16.648437500000, -56.171875000000, -16.375000000000, 1490764206
0.399414062500, -0.776123046875, 0.471435546875, 14.445312500000, 6.851562500000, -5.828125000000, 1490764206
0.399414062500, -0.776123046875, 0.471435546875, 14.445312500000, 6.851562500000, -5.828125000000, 1490764206
0.399414062500, -0.776123046875, 0.471435546875, 14.445312500000, 6.851562500000, -5.828125000000, 1490764206
0.460937500000, -0.706787109375, 0.565429687500, 0.421875000000, 2.750000000000, -11.148437500000, 1490764206
0.460937500000, -0.706787109375, 0.565429687500, 0.421875000000, 2.750000000000, -11.148437500000, 1490764206
0.460937500000, -0.706787109375, 0.565429687500, 0.421875000000, 2.750000000000, -11.148437500000, 1490764206
0.460937500000, -0.706787109375, 0.565429687500, 0.421875000000, 2.750000000000, -11.148437500000, 1490764206
0.314697265625, -0.671630859375, 0.500000000000, -7.585937500000, -1.570312500000, -7.632812500000, 1490764206
0.314697265625, -0.671630859375, 0.500000000000, -7.585937500000, -1.570312500000, -7.632812500000, 1490764206
0.314697265625, -0.671630859375, 0.500000000000, -7.585937500000, -1.570312500000, -7.632812500000, 1490764206
0.356201171875, -0.774169921875, 0.588867187500, 5.093750000000, -4.007812500000, -7.664062500000, 1490764206
0.356201171875, -0.774169921875, 0.588867187500, 5.093750000000, -4.007812500000, -7.664062500000, 1490764206
0.356201171875, -0.774169921875, 0.588867187500, 5.093750000000, -4.007812500000, -7.664062500000, 1490764206
0.432373046875, -0.652832031250, 0.544433593750, 5.929687500000, 14.632812500000, 0.789062500000, 1490764206
0.432373046875, -0.652832031250, 0.544433593750, 5.929687500000, 14.632812500000, 0.789062500000, 1490764206
0.432373046875, -0.652832031250, 0.544433593750, 5.929687500000, 14.632812500000, 0.789062500000, 1490764206
0.432373046875, -0.652832031250, 0.544433593750, 5.929687500000, 14.632812500000, 0.789062500000, 1490764206
0.290527343750, -0.725341796875, 0.541503906250, 2.539062500000, 24.273437500000, 7.625000000000, 1490764207
0.290527343750, -0.725341796875, 0.541503906250, 2.539062500000, 24.273437500000, 7.625000000000, 1490764207
0.290527343750, -0.725341796875, 0.541503906250, 2.539062500000, 24.273437500000, 7.625000000000, 1490764207
0.301025390625, -0.770263671875, 0.605224609375, 7.851562500000, 28.390625000000, 5.734375000000, 1490764207
0.301025390625, -0.770263671875, 0.605224609375, 7.851562500000, 28.390625000000, 5.734375000000, 1490764207
0.301025390625, -0.770263671875, 0.605224609375, 7.851562500000, 28.390625000000, 5.734375000000, 1490764207
0.312988281250, -0.659912109375, 0.614990234375, 3.429687500000, 13.953125000000, 6.375000000000, 1490764207
0.312988281250, -0.659912109375, 0.614990234375, 3.429687500000, 13.953125000000, 6.375000000000, 1490764207
0.312988281250, -0.659912109375, 0.614990234375, 3.429687500000, 13.953125000000, 6.375000000000, 1490764207
0.306152343750, -0.795166015625, 0.695556640625, -12.414062500000, 21.234375000000, 11.523437500000, 1490764207
0.306152343750, -0.795166015625, 0.695556640625, -12.414062500000, 21.234375000000, 11.523437500000, 1490764207
0.306152343750, -0.795166015625, 0.695556640625, -12.414062500000, 21.234375000000, 11.523437500000, 1490764207
0.306152343750, -0.795166015625, 0.695556640625, -12.414062500000, 21.234375000000, 11.523437500000, 1490764207
0.402587890625, -0.932617187500, 0.616943359375, -34.796875000000, 24.914062500000, 13.492187500000, 1490764207
0.402587890625, -0.932617187500, 0.616943359375, -34.796875000000, 24.914062500000, 13.492187500000, 1490764207
0.402587890625, -0.932617187500, 0.616943359375, -34.796875000000, 24.914062500000, 13.492187500000, 1490764207
0.230468750000, -0.933593750000, 0.564941406250, -20.851562500000, -1.171875000000, 3.593750000000, 1490764207
0.230468750000, -0.933593750000, 0.564941406250, -20.851562500000, -1.171875000000, 3.593750000000, 1490764207
0.230468750000, -0.933593750000, 0.564941406250, -20.851562500000, -1.171875000000, 3.593750000000, 1490764207
0.303466796875, -0.785888671875, 0.439941406250, -22.000000000000, -31.953125000000, -0.445312500000, 1490764207
0.303466796875, -0.785888671875, 0.439941406250, -22.000000000000, -31.953125000000, -0.445312500000, 1490764207
0.303466796875, -0.785888671875, 0.439941406250, -22.000000000000, -31.953125000000, -0.445312500000, 1490764207
0.449951171875, -0.815673828125, 0.342285156250, -19.453125000000, 6.773437500000, 1.484375000000, 1490764207
0.449951171875, -0.815673828125, 0.342285156250, -19.453125000000, 6.773437500000, 1.484375000000, 1490764207
0.449951171875, -0.815673828125, 0.342285156250, -19.453125000000, 6.773437500000, 1.484375000000, 1490764207
0.449951171875, -0.815673828125, 0.342285156250, -19.453125000000, 6.773437500000, 1.484375000000, 1490764207
0.293212890625, -0.777587890625, 0.383544921875, 5.617187500000, 27.781250000000, 17.796875000000, 1490764207
0.293212890625, -0.777587890625, 0.383544921875, 5.617187500000, 27.781250000000, 17.796875000000, 1490764207
0.293212890625, -0.777587890625, 0.383544921875, 5.617187500000, 27.781250000000, 17.796875000000, 1490764207
0.423583984375, -0.891845703125, 0.464355468750, 10.453125000000, 48.867187500000, 13.437500000000, 1490764207
0.423583984375, -0.891845703125, 0.464355468750, 10.453125000000, 48.867187500000, 13.437500000000, 1490764207
0.423583984375, -0.891845703125, 0.464355468750, 10.453125000000, 48.867187500000, 13.437500000000, 1490764207
0.467041015625, -0.968505859375, 0.660156250000, 26.250000000000, 18.890625000000, 14.250000000000, 1490764207
0.467041015625, -0.968505859375, 0.660156250000, 26.250000000000, 18.890625000000, 14.250000000000, 1490764207
0.467041015625, -0.968505859375, 0.660156250000, 26.250000000000, 18.890625000000, 14.250000000000, 1490764207
0.336669921875, -0.900390625000, 0.598876953125, 14.976562500000, -7.515625000000, 13.937500000000, 1490764207
0.336669921875, -0.900390625000, 0.598876953125, 14.976562500000, -7.515625000000, 13.937500000000, 1490764207
0.336669921875, -0.900390625000, 0.598876953125, 14.976562500000, -7.515625000000, 13.937500000000, 1490764207
0.336669921875, -0.900390625000, 0.598876953125, 14.976562500000, -7.515625000000, 13.937500000000, 1490764207
0.227539062500, -0.718750000000, 0.501220703125, -2.640625000000, -26.296875000000, 15.148437500000, 1490764207
0.227539062500, -0.718750000000, 0.501220703125, -2.640625000000, -26.296875000000, 15.148437500000, 1490764207
0.227539062500, -0.718750000000, 0.501220703125, -2.640625000000, -26.296875000000, 15.148437500000, 1490764207
0.245849609375, -0.591796875000, 0.356445312500, -6.742187500000, -29.578125000000, 2.375000000000, 1490764207
0.245849609375, -0.591796875000, 0.356445312500, -6.742187500000, -29.578125000000, 2.375000000000, 1490764207
0.245849609375, -0.591796875000, 0.356445312500, -6.742187500000, -29.578125000000, 2.375000000000, 1490764207
0.454345703125, -0.550292968750, 0.512695312500, -2.726562500000, -28.828125000000, -4.515625000000, 1490764207
0.454345703125, -0.550292968750, 0.512695312500, -2.726562500000, -28.828125000000, -4.515625000000, 1490764207
0.454345703125, -0.550292968750, 0.512695312500, -2.726562500000, -28.828125000000, -4.515625000000, 1490764207
0.502197265625, -0.722167968750, 0.553955078125, -2.296875000000, -54.835937500000, -8.804687500000, 1490764207
0.502197265625, -0.722167968750, 0.553955078125, -2.296875000000, -54.835937500000, -8.804687500000, 1490764207
0.502197265625, -0.722167968750, 0.553955078125, -2.296875000000, -54.835937500000, -8.804687500000, 1490764207
0.502197265625, -0.722167968750, 0.553955078125, -2.296875000000, -54.835937500000, -8.804687500000, 1490764207
0.573974609375, -0.730224609375, 0.562500000000, -7.765625000000, -59.289062500000, -11.343750000000, 1490764207
0.573974609375, -0.730224609375, 0.562500000000, -7.765625000000, -59.289062500000, -11.343750000000, 1490764207
0.553710937500, -0.671875000000, 0.411621093750, -0.359375000000, -40.867187500000, -25.273437500000, 1490764207
0.553710937500, -0.671875000000, 0.411621093750, -0.359375000000, -40.867187500000, -25.273437500000, 1490764207
0.553710937500, -0.671875000000, 0.411621093750, -0.359375000000, -40.867187500000, -25.273437500000, 1490764207
0.553710937500, -0.671875000000, 0.411621093750, -0.359375000000, -40.867187500000, -25.273437500000, 1490764207
0.483154296875, -0.690185546875, 0.371337890625, -17.078125000000, -35.781250000000, -30.507812500000, 1490764207
0.483154296875, -0.690185546875, 0.371337890625, -17.078125000000, -35.781250000000, -30.507812500000, 1490764207
0.483154296875, -0.690185546875, 0.371337890625, -17.078125000000, -35.781250000000, -30.507812500000, 1490764207
0.429199218750, -0.658935546875, 0.442626953125, 1.382812500000, -4.203125000000, -25.437500000000, 1490764207
0.429199218750, -0.658935546875, 0.442626953125, 1.382812500000, -4.203125000000, -25.437500000000, 1490764207
0.429199218750, -0.658935546875, 0.442626953125, 1.382812500000, -4.203125000000, -25.437500000000, 1490764207
0.498779296875, -0.730224609375, 0.477294921875, 7.093750000000, 13.820312500000, -19.484375000000, 1490764208
0.498779296875, -0.730224609375, 0.477294921875, 7.093750000000, 13.820312500000, -19.484375000000, 1490764208
0.498779296875, -0.730224609375, 0.477294921875, 7.093750000000, 13.820312500000, -19.484375000000, 1490764208
0.498779296875, -0.730224609375, 0.477294921875, 7.093750000000, 13.820312500000, -19.484375000000, 1490764208
0.580566406250, -0.809814453125, 0.582031250000, -7.742187500000, 19.625000000000, -7.382812500000, 1490764208
0.580566406250, -0.809814453125, 0.582031250000, -7.742187500000, 19.625000000000, -7.382812500000, 1490764208
0.580566406250, -0.809814453125, 0.582031250000, -7.742187500000, 19.625000000000, -7.382812500000, 1490764208
0.539062500000, -0.780273437500, 0.573486328125, -18.710937500000, 22.281250000000, -8.625000000000, 1490764208
0.539062500000, -0.780273437500, 0.573486328125, -18.710937500000, 22.281250000000, -8.625000000000, 1490764208
0.539062500000, -0.780273437500, 0.573486328125, -18.710937500000, 22.281250000000, -8.625000000000, 1490764208
0.517578125000, -0.786376953125, 0.570556640625, -31.695312500000, 26.125000000000, -0.890625000000, 1490764208
0.517578125000, -0.786376953125, 0.570556640625, -31.695312500000, 26.125000000000, -0.890625000000, 1490764208
0.517578125000, -0.786376953125, 0.570556640625, -31.695312500000, 26.125000000000, -0.890625000000, 1490764208
0.517578125000, -0.786376953125, 0.570556640625, -31.695312500000, 26.125000000000, -0.890625000000, 1490764208
0.438964843750, -0.738281250000, 0.472167968750, -25.828125000000, 29.375000000000, 14.671875000000, 1490764208
0.438964843750, -0.738281250000, 0.472167968750, -25.828125000000, 29.375000000000, 14.671875000000, 1490764208
0.438964843750, -0.738281250000, 0.472167968750, -25.828125000000, 29.375000000000, 14.671875000000, 1490764208
0.301513671875, -0.953369140625, 0.475097656250, -19.914062500000, 18.476562500000, 2.125000000000, 1490764208
0.301513671875, -0.953369140625, 0.475097656250, -19.914062500000, 18.476562500000, 2.125000000000, 1490764208
0.301513671875, -0.953369140625, 0.475097656250, -19.914062500000, 18.476562500000, 2.125000000000, 1490764208
0.343017578125, -0.876464843750, 0.526123046875, -9.671875000000, -15.468750000000, -7.937500000000, 1490764208
0.343017578125, -0.876464843750, 0.526123046875, -9.671875000000, -15.468750000000, -7.937500000000, 1490764208
0.343017578125, -0.876464843750, 0.526123046875, -9.671875000000, -15.468750000000, -7.937500000000, 1490764208
0.224121093750, -0.754882812500, 0.459228515625, -10.750000000000, 7.656250000000, -1.179687500000, 1490764208
0.224121093750, -0.754882812500, 0.459228515625, -10.750000000000, 7.656250000000, -1.179687500000, 1490764208
0.224121093750, -0.754882812500, 0.459228515625, -10.750000000000, 7.656250000000, -1.179687500000, 1490764208
0.224121093750, -0.754882812500, 0.459228515625, -10.750000000000, 7.656250000000, -1.179687500000, 1490764208
0.276367187500, -0.782958984375, 0.434082031250, -12.812500000000, 1.976562500000, -13.882812500000, 1490764208
0.276367187500, -0.782958984375, 0.434082031250, -12.812500000000, 1.976562500000, -13.882812500000, 1490764208
0.276367187500, -0.782958984375, 0.434082031250, -12.812500000000, 1.976562500000, -13.882812500000, 1490764208
0.338378906250, -0.805419921875, 0.537109375000, 1.984375000000, 20.984375000000, -28.828125000000, 1490764208
0.338378906250, -0.805419921875, 0.537109375000, 1.984375000000, 20.984375000000, -28.828125000000, 1490764208
0.338378906250, -0.805419921875, 0.537109375000, 1.984375000000, 20.984375000000, -28.828125000000, 1490764208
0.289062500000, -0.839111328125, 0.614013671875, 3.140625000000, -5.476562500000, -32.937500000000, 1490764208
0.289062500000, -0.839111328125, 0.614013671875, 3.140625000000, -5.476562500000, -32.937500000000, 1490764208
0.289062500000, -0.839111328125, 0.614013671875, 3.140625000000, -5.476562500000, -32.937500000000, 1490764208
0.437744140625, -0.713623046875, 0.422851562500, -9.562500000000, -68.164062500000, -8.429687500000, 1490764208
0.437744140625, -0.713623046875, 0.422851562500, -9.562500000000, -68.164062500000, -8.429687500000, 1490764208
0.437744140625, -0.713623046875, 0.422851562500, -9.562500000000, -68.164062500000, -8.429687500000, 1490764208
0.437744140625, -0.713623046875, 0.422851562500, -9.562500000000, -68.164062500000, -8.429687500000, 1490764208
0.381347656250, -0.643310546875, 0.450927734375, 23.023437500000, -4.859375000000, 1.390625000000, 1490764208
0.381347656250, -0.643310546875, 0.450927734375, 23.023437500000, -4.859375000000, 1.390625000000, 1490764208
0.381347656250, -0.643310546875, 0.450927734375, 23.023437500000, -4.859375000000, 1.390625000000, 1490764208
0.341064453125, -0.669433593750, 0.490722656250, 36.367187500000, 38.703125000000, 13.625000000000, 1490764208
0.341064453125, -0.669433593750, 0.490722656250, 36.367187500000, 38.703125000000, 13.625000000000, 1490764208
0.341064453125, -0.669433593750, 0.490722656250, 36.367187500000, 38.703125000000, 13.625000000000, 1490764208
0.226806640625, -0.765136718750, 0.532226562500, 10.781250000000, 17.445312500000, 12.148437500000, 1490764208
0.226806640625, -0.765136718750, 0.532226562500, 10.781250000000, 17.445312500000, 12.148437500000, 1490764208
0.226806640625, -0.765136718750, 0.532226562500, 10.781250000000, 17.445312500000, 12.148437500000, 1490764208
0.314941406250, -0.794189453125, 0.495117187500, 9.390625000000, -4.554687500000, -8.953125000000, 1490764208
0.314941406250, -0.794189453125, 0.495117187500, 9.390625000000, -4.554687500000, -8.953125000000, 1490764208
0.314941406250, -0.794189453125, 0.495117187500, 9.390625000000, -4.554687500000, -8.953125000000, 1490764208
0.314941406250, -0.794189453125, 0.495117187500, 9.390625000000, -4.554687500000, -8.953125000000, 1490764208
0.402832031250, -0.748046875000, 0.560791015625, 14.054687500000, 8.164062500000, -7.632812500000, 1490764208
0.402832031250, -0.748046875000, 0.560791015625, 14.054687500000, 8.164062500000, -7.632812500000, 1490764208
0.415039062500, -0.827636718750, 0.434082031250, -11.171875000000, -12.382812500000, -0.578125000000, 1490764208
0.415039062500, -0.827636718750, 0.434082031250, -11.171875000000, -12.382812500000, -0.578125000000, 1490764208
0.415039062500, -0.827636718750, 0.434082031250, -11.171875000000, -12.382812500000, -0.578125000000, 1490764208
0.415039062500, -0.827636718750, 0.434082031250, -11.171875000000, -12.382812500000, -0.578125000000, 1490764208
0.398437500000, -0.820312500000, 0.494140625000, 1.406250000000, 16.953125000000, 6.375000000000, 1490764208
0.398437500000, -0.820312500000, 0.494140625000, 1.406250000000, 16.953125000000, 6.375000000000, 1490764208
0.398437500000, -0.820312500000, 0.494140625000, 1.406250000000, 16.953125000000, 6.375000000000, 1490764208
0.422363281250, -0.866943359375, 0.701904296875, -19.937500000000, 18.101562500000, 14.578125000000, 1490764208
0.422363281250, -0.866943359375, 0.701904296875, -19.937500000000, 18.101562500000, 14.578125000000, 1490764208
0.422363281250, -0.866943359375, 0.701904296875, -19.937500000000, 18.101562500000, 14.578125000000, 1490764208
0.422363281250, -0.866943359375, 0.701904296875, -19.937500000000, 18.101562500000, 14.578125000000, 1490764208
0.430419921875, -0.943847656250, 0.489257812500, -23.601562500000, 10.984375000000, 14.585937500000, 1490764208
0.430419921875, -0.943847656250, 0.489257812500, -23.601562500000, 10.984375000000, 14.585937500000, 1490764208
0.430419921875, -0.943847656250, 0.489257812500, -23.601562500000, 10.984375000000, 14.585937500000, 1490764208
0.347900390625, -0.845703125000, 0.459716796875, -19.976562500000, -0.031250000000, 9.320312500000, 1490764209
0.347900390625, -0.845703125000, 0.459716796875, -19.976562500000, -0.031250000000, 9.320312500000, 1490764209
0.347900390625, -0.845703125000, 0.459716796875, -19.976562500000, -0.031250000000, 9.320312500000, 1490764209
0.447265625000, -0.938720703125, 0.462890625000, -10.765625000000, -2.265625000000, 8.281250000000, 1490764209
0.447265625000, -0.938720703125, 0.462890625000, -10.765625000000, -2.265625000000, 8.281250000000, 1490764209
0.447265625000, -0.938720703125, 0.462890625000, -10.765625000000, -2.265625000000, 8.281250000000, 1490764209
0.410888671875, -0.807861328125, 0.238037109375, -5.375000000000, 12.476562500000, 8.796875000000, 1490764209
0.410888671875, -0.807861328125, 0.238037109375, -5.375000000000, 12.476562500000, 8.796875000000, 1490764209
0.410888671875, -0.807861328125, 0.238037109375, -5.375000000000, 12.476562500000, 8.796875000000, 1490764209
0.410888671875, -0.807861328125, 0.238037109375, -5.375000000000, 12.476562500000, 8.796875000000, 1490764209
0.249267578125, -0.829101562500, 0.314941406250, 1.289062500000, 66.265625000000, 18.562500000000, 1490764209
0.249267578125, -0.829101562500, 0.314941406250, 1.289062500000, 66.265625000000, 18.562500000000, 1490764209
0.249267578125, -0.829101562500, 0.314941406250, 1.289062500000, 66.265625000000, 18.562500000000, 1490764209
0.326660156250, -0.836914062500, 0.505859375000, 16.875000000000, 28.007812500000, -10.437500000000, 1490764209
0.326660156250, -0.836914062500, 0.505859375000, 16.875000000000, 28.007812500000, -10.437500000000, 1490764209
0.326660156250, -0.836914062500, 0.505859375000, 16.875000000000, 28.007812500000, -10.437500000000, 1490764209
0.385986328125, -0.835937500000, 0.704589843750, -0.429687500000, 0.523437500000, -7.804687500000, 1490764209
0.385986328125, -0.835937500000, 0.704589843750, -0.429687500000, 0.523437500000, -7.804687500000, 1490764209
0.385986328125, -0.835937500000, 0.704589843750, -0.429687500000, 0.523437500000, -7.804687500000, 1490764209
0.404296875000, -0.796630859375, 0.567382812500, 4.148437500000, 0.093750000000, -8.820312500000, 1490764209
0.404296875000, -0.796630859375, 0.567382812500, 4.148437500000, 0.093750000000, -8.820312500000, 1490764209
0.404296875000, -0.796630859375, 0.567382812500, 4.148437500000, 0.093750000000, -8.820312500000, 1490764209
0.351318359375, -0.767333984375, 0.519287109375, 1.523437500000, -3.500000000000, -11.468750000000, 1490764209
0.416015625000, -0.750976562500, 0.513671875000, 4.242187500000, -11.632812500000, -16.304687500000, 1490764209
0.408935546875, -0.616943359375, 0.529541015625, -6.242187500000, -7.679687500000, -11.593750000000, 1490764209
0.408935546875, -0.616943359375, 0.529541015625, -6.242187500000, -7.679687500000, -11.593750000000, 1490764209
0.408935546875, -0.616943359375, 0.529541015625, -6.242187500000, -7.679687500000, -11.593750000000, 1490764209
0.315185546875, -0.665771484375, 0.486572265625, 1.328125000000, 12.328125000000, -6.398437500000, 1490764209
0.315185546875, -0.665771484375, 0.486572265625, 1.328125000000, 12.328125000000, -6.398437500000, 1490764209
0.315185546875, -0.665771484375, 0.486572265625, 1.328125000000, 12.328125000000, -6.398437500000, 1490764209
0.315185546875, -0.665771484375, 0.486572265625, 1.328125000000, 12.328125000000, -6.398437500000, 1490764209
0.315185546875, -0.665771484375, 0.486572265625, 1.328125000000, 12.328125000000, -6.398437500000, 1490764209
0.353759765625, -0.815185546875, 0.536376953125, 18.695312500000, 6.921875000000, -6.218750000000, 1490764209
0.353759765625, -0.815185546875, 0.536376953125, 18.695312500000, 6.921875000000, -6.218750000000, 1490764209
0.353759765625, -0.815185546875, 0.536376953125, 18.695312500000, 6.921875000000, -6.218750000000, 1490764209
0.353759765625, -0.815185546875, 0.536376953125, 18.695312500000, 6.921875000000, -6.218750000000, 1490764209
0.291992187500, -0.830322265625, 0.562500000000, 1.367187500000, -19.648437500000, -7.203125000000, 1490764209
0.291992187500, -0.830322265625, 0.562500000000, 1.367187500000, -19.648437500000, -7.203125000000, 1490764209
0.291992187500, -0.830322265625, 0.562500000000, 1.367187500000, -19.648437500000, -7.203125000000, 1490764209
0.443847656250, -0.712646484375, 0.474121093750, -10.531250000000, -29.695312500000, -13.265625000000, 1490764209
0.443847656250, -0.712646484375, 0.474121093750, -10.531250000000, -29.695312500000, -13.265625000000, 1490764209
0.443847656250, -0.712646484375, 0.474121093750, -10.531250000000, -29.695312500000, -13.265625000000, 1490764209
0.472656250000, -0.668212890625, 0.406982421875, -3.289062500000, -15.500000000000, -11.804687500000, 1490764209
0.472656250000, -0.668212890625, 0.406982421875, -3.289062500000, -15.500000000000, -11.804687500000, 1490764209
0.472656250000, -0.668212890625, 0.406982421875, -3.289062500000, -15.500000000000, -11.804687500000, 1490764209
0.421142578125, -0.672851562500, 0.490234375000, 8.382812500000, 18.671875000000, -1.679687500000, 1490764209
0.421142578125, -0.672851562500, 0.490234375000, 8.382812500000, 18.671875000000, -1.679687500000, 1490764209
0.421142578125, -0.672851562500, 0.490234375000, 8.382812500000, 18.671875000000, -1.679687500000, 1490764209
0.421142578125, -0.672851562500, 0.490234375000, 8.382812500000, 18.671875000000, -1.679687500000, 1490764209
0.418212890625, -0.743896484375, 0.601318359375, -5.414062500000, 25.554687500000, 10.867187500000, 1490764209
0.418212890625, -0.743896484375, 0.601318359375, -5.414062500000, 25.554687500000, 10.867187500000, 1490764209
0.418212890625, -0.743896484375, 0.601318359375, -5.414062500000, 25.554687500000, 10.867187500000, 1490764209
0.355468750000, -0.860839843750, 0.643798828125, -38.343750000000, 21.679687500000, 14.203125000000, 1490764209
0.355468750000, -0.860839843750, 0.643798828125, -38.343750000000, 21.679687500000, 14.203125000000, 1490764209
0.355468750000, -0.860839843750, 0.643798828125, -38.343750000000, 21.679687500000, 14.203125000000, 1490764209
0.347412109375, -0.877441406250, 0.539306640625, -32.921875000000, -4.484375000000, 6.773437500000, 1490764209
0.347412109375, -0.877441406250, 0.539306640625, -32.921875000000, -4.484375000000, 6.773437500000, 1490764209
0.347412109375, -0.877441406250, 0.539306640625, -32.921875000000, -4.484375000000, 6.773437500000, 1490764209
0.220947265625, -0.946777343750, 0.407226562500, -20.093750000000, -20.093750000000, -3.460937500000, 1490764209
0.220947265625, -0.946777343750, 0.407226562500, -20.093750000000, -20.093750000000, -3.460937500000, 1490764209
0.220947265625, -0.946777343750, 0.407226562500, -20.093750000000, -20.093750000000, -3.460937500000, 1490764209
0.220947265625, -0.946777343750, 0.407226562500, -20.093750000000, -20.093750000000, -3.460937500000, 1490764209
0.309570312500, -0.800292968750, 0.514160156250, 5.328125000000, -18.929687500000, -12.718750000000, 1490764209
0.309570312500, -0.800292968750, 0.514160156250, 5.328125000000, -18.929687500000, -12.718750000000, 1490764209
0.309570312500, -0.800292968750, 0.514160156250, 5.328125000000, -18.929687500000, -12.718750000000, 1490764209
0.219970703125, -0.758544921875, 0.455810546875, -18.507812500000, -29.132812500000, -13.945312500000, 1490764210
0.219970703125, -0.758544921875, 0.455810546875, -18.507812500000, -29.132812500000, -13.945312500000, 1490764210
0.219970703125, -0.758544921875, 0.455810546875, -18.507812500000, -29.132812500000, -13.945312500000, 1490764210
0.213867187500, -0.772460937500, 0.457031250000, -10.976562500000, -26.062500000000, -20.171875000000, 1490764210
0.213867187500, -0.772460937500, 0.457031250000, -10.976562500000, -26.062500000000, -20.171875000000, 1490764210
0.213867187500, -0.772460937500, 0.457031250000, -10.976562500000, -26.062500000000, -20.171875000000, 1490764210
0.342041015625, -0.868652343750, 0.488037109375, -1.320312500000, -1.632812500000, -21.187500000000, 1490764210
0.342041015625, -0.868652343750, 0.488037109375, -1.320312500000, -1.632812500000, -21.187500000000, 1490764210
0.342041015625, -0.868652343750, 0.488037109375, -1.320312500000, -1.632812500000, -21.187500000000, 1490764210
0.342041015625, -0.868652343750, 0.488037109375, -1.320312500000, -1.632812500000, -21.187500000000, 1490764210
0.396972656250, -0.808105468750, 0.563232421875, -9.015625000000, -44.281250000000, -25.265625000000, 1490764210
0.396972656250, -0.808105468750, 0.563232421875, -9.015625000000, -44.281250000000, -25.265625000000, 1490764210
0.396972656250, -0.808105468750, 0.563232421875, -9.015625000000, -44.281250000000, -25.265625000000, 1490764210
0.380615234375, -0.843017578125, 0.427978515625, -8.500000000000, -30.914062500000, -23.296875000000, 1490764210
0.380615234375, -0.843017578125, 0.427978515625, -8.500000000000, -30.914062500000, -23.296875000000, 1490764210
0.380615234375, -0.843017578125, 0.427978515625, -8.500000000000, -30.914062500000, -23.296875000000, 1490764210
0.306884765625, -0.753906250000, 0.542968750000, 5.843750000000, -5.117187500000, -20.421875000000, 1490764210
0.306884765625, -0.753906250000, 0.542968750000, 5.843750000000, -5.117187500000, -20.421875000000, 1490764210
0.306884765625, -0.753906250000, 0.542968750000, 5.843750000000, -5.117187500000, -20.421875000000, 1490764210
0.340332031250, -0.767089843750, 0.527343750000, -2.757812500000, -5.898437500000, -17.375000000000, 1490764210
0.340332031250, -0.767089843750, 0.527343750000, -2.757812500000, -5.898437500000, -17.375000000000, 1490764210
0.340332031250, -0.767089843750, 0.527343750000, -2.757812500000, -5.898437500000, -17.375000000000, 1490764210
0.340332031250, -0.767089843750, 0.527343750000, -2.757812500000, -5.898437500000, -17.375000000000, 1490764210
0.310302734375, -0.704589843750, 0.585693359375, 6.351562500000, 11.390625000000, -16.976562500000, 1490764210
0.310302734375, -0.704589843750, 0.585693359375, 6.351562500000, 11.390625000000, -16.976562500000, 1490764210
0.310302734375, -0.704589843750, 0.585693359375, 6.351562500000, 11.390625000000, -16.976562500000, 1490764210
0.363525390625, -0.724121093750, 0.576416015625, 4.914062500000, -3.007812500000, -5.046875000000, 1490764210
0.363525390625, -0.724121093750, 0.576416015625, 4.914062500000, -3.007812500000, -5.046875000000, 1490764210
0.363525390625, -0.724121093750, 0.576416015625, 4.914062500000, -3.007812500000, -5.046875000000, 1490764210
0.441650390625, -0.779541015625, 0.580078125000, 6.156250000000, -10.328125000000, -1.390625000000, 1490764210
0.441650390625, -0.779541015625, 0.580078125000, 6.156250000000, -10.328125000000, -1.390625000000, 1490764210
0.441650390625, -0.779541015625, 0.580078125000, 6.156250000000, -10.328125000000, -1.390625000000, 1490764210
0.282470703125, -0.736083984375, 0.583251953125, -6.609375000000, 10.421875000000, 6.562500000000, 1490764210
0.282470703125, -0.736083984375, 0.583251953125, -6.609375000000, 10.421875000000, 6.562500000000, 1490764210
0.282470703125, -0.736083984375, 0.583251953125, -6.609375000000, 10.421875000000, 6.562500000000, 1490764210
0.282470703125, -0.736083984375, 0.583251953125, -6.609375000000, 10.421875000000, 6.562500000000, 1490764210
0.282958984375, -0.815185546875, 0.555419921875, 4.132812500000, 15.984375000000, 1.375000000000, 1490764210
0.282958984375, -0.815185546875, 0.555419921875, 4.132812500000, 15.984375000000, 1.375000000000, 1490764210
0.282958984375, -0.815185546875, 0.555419921875, 4.132812500000, 15.984375000000, 1.375000000000, 1490764210
0.291503906250, -0.736083984375, 0.619628906250, -6.921875000000, 6.195312500000, 10.921875000000, 1490764210
0.291503906250, -0.736083984375, 0.619628906250, -6.921875000000, 6.195312500000, 10.921875000000, 1490764210
0.291503906250, -0.736083984375, 0.619628906250, -6.921875000000, 6.195312500000, 10.921875000000, 1490764210
0.449218750000, -0.745849609375, 0.605224609375, -20.851562500000, -7.890625000000, 10.101562500000, 1490764210
0.449218750000, -0.745849609375, 0.605224609375, -20.851562500000, -7.890625000000, 10.101562500000, 1490764210
0.449218750000, -0.745849609375, 0.605224609375, -20.851562500000, -7.890625000000, 10.101562500000, 1490764210
0.352783203125, -0.942138671875, 0.580566406250, -47.562500000000, -0.687500000000, 26.429687500000, 1490764210
0.352783203125, -0.942138671875, 0.580566406250, -47.562500000000, -0.687500000000, 26.429687500000, 1490764210
0.352783203125, -0.942138671875, 0.580566406250, -47.562500000000, -0.687500000000, 26.429687500000, 1490764210
0.352783203125, -0.942138671875, 0.580566406250, -47.562500000000, -0.687500000000, 26.429687500000, 1490764210
0.294189453125, -0.824707031250, 0.382812500000, -23.546875000000, 4.781250000000, 3.531250000000, 1490764210
0.294189453125, -0.824707031250, 0.382812500000, -23.546875000000, 4.781250000000, 3.531250000000, 1490764210
0.294189453125, -0.824707031250, 0.382812500000, -23.546875000000, 4.781250000000, 3.531250000000, 1490764210
0.449707031250, -0.789306640625, 0.405517578125, -12.007812500000, -0.562500000000, 7.421875000000, 1490764210
0.449707031250, -0.789306640625, 0.405517578125, -12.007812500000, -0.562500000000, 7.421875000000, 1490764210
0.449707031250, -0.789306640625, 0.405517578125, -12.007812500000, -0.562500000000, 7.421875000000, 1490764210
0.285156250000, -0.741943359375, 0.365478515625, -0.703125000000, 53.968750000000, 20.820312500000, 1490764210
0.285156250000, -0.741943359375, 0.365478515625, -0.703125000000, 53.968750000000, 20.820312500000, 1490764210
0.285156250000, -0.741943359375, 0.365478515625, -0.703125000000, 53.968750000000, 20.820312500000, 1490764210
0.221435546875, -0.662109375000, 0.401367187500, 6.179687500000, 43.562500000000, 16.250000000000, 1490764210
0.221435546875, -0.662109375000, 0.401367187500, 6.179687500000, 43.562500000000, 16.250000000000, 1490764210
0.221435546875, -0.662109375000, 0.401367187500, 6.179687500000, 43.562500000000, 16.250000000000, 1490764210
0.221435546875, -0.662109375000, 0.401367187500, 6.179687500000, 43.562500000000, 16.250000000000, 1490764210
0.449218750000, -0.898193359375, 0.477050781250, 25.484375000000, 31.687500000000, 14.757812500000, 1490764210
0.449218750000, -0.898193359375, 0.477050781250, 25.484375000000, 31.687500000000, 14.757812500000, 1490764210
0.449218750000, -0.898193359375, 0.477050781250, 25.484375000000, 31.687500000000, 14.757812500000, 1490764210
0.240722656250, -0.895507812500, 0.653808593750, 18.398437500000, 24.242187500000, 13.804687500000, 1490764210
0.240722656250, -0.895507812500, 0.653808593750, 18.398437500000, 24.242187500000, 13.804687500000, 1490764210
0.240722656250, -0.895507812500, 0.653808593750, 18.398437500000, 24.242187500000, 13.804687500000, 1490764210
0.468017578125, -0.766113281250, 0.603759765625, 29.585937500000, 24.500000000000, 6.125000000000, 1490764211
0.468017578125, -0.766113281250, 0.603759765625, 29.585937500000, 24.500000000000, 6.125000000000, 1490764211
0.468017578125, -0.766113281250, 0.603759765625, 29.585937500000, 24.500000000000, 6.125000000000, 1490764211
0.241699218750, -0.779296875000, 0.532226562500, 23.656250000000, 18.460937500000, 4.546875000000, 1490764211
0.241699218750, -0.779296875000, 0.532226562500, 23.656250000000, 18.460937500000, 4.546875000000, 1490764211
0.241699218750, -0.779296875000, 0.532226562500, 23.656250000000, 18.460937500000, 4.546875000000, 1490764211
0.241699218750, -0.779296875000, 0.532226562500, 23.656250000000, 18.460937500000, 4.546875000000, 1490764211
0.304931640625, -0.660400390625, 0.583496093750, 6.960937500000, 5.820312500000, 0.226562500000, 1490764211
0.304931640625, -0.660400390625, 0.583496093750, 6.960937500000, 5.820312500000, 0.226562500000, 1490764211
0.304931640625, -0.660400390625, 0.583496093750, 6.960937500000, 5.820312500000, 0.226562500000, 1490764211
0.334472656250, -0.765380859375, 0.539062500000, -0.085937500000, 5.421875000000, -8.351562500000, 1490764211
0.334472656250, -0.765380859375, 0.539062500000, -0.085937500000, 5.421875000000, -8.351562500000, 1490764211
0.334472656250, -0.765380859375, 0.539062500000, -0.085937500000, 5.421875000000, -8.351562500000, 1490764211
0.405761718750, -0.737060546875, 0.559082031250, -4.898437500000, -15.648437500000, -13.437500000000, 1490764211
0.405761718750, -0.737060546875, 0.559082031250, -4.898437500000, -15.648437500000, -13.437500000000, 1490764211
0.383544921875, -0.720214843750, 0.481201171875, 5.234375000000, -24.679687500000, -18.429687500000, 1490764211
0.383544921875, -0.720214843750, 0.481201171875, 5.234375000000, -24.679687500000, -18.429687500000, 1490764211
0.383544921875, -0.720214843750, 0.481201171875, 5.234375000000, -24.679687500000, -18.429687500000, 1490764211
0.425781250000, -0.682373046875, 0.488525390625, 16.054687500000, 11.843750000000, -6.765625000000, 1490764211
0.425781250000, -0.682373046875, 0.488525390625, 16.054687500000, 11.843750000000, -6.765625000000, 1490764211
0.425781250000, -0.682373046875, 0.488525390625, 16.054687500000, 11.843750000000, -6.765625000000, 1490764211
0.425781250000, -0.682373046875, 0.488525390625, 16.054687500000, 11.843750000000, -6.765625000000, 1490764211
0.425781250000, -0.682373046875, 0.488525390625, 16.054687500000, 11.843750000000, -6.765625000000, 1490764211
0.312255859375, -0.810302734375, 0.580810546875, 7.781250000000, 15.851562500000, -3.820312500000, 1490764211
0.312255859375, -0.810302734375, 0.580810546875, 7.781250000000, 15.851562500000, -3.820312500000, 1490764211
0.312255859375, -0.810302734375, 0.580810546875, 7.781250000000, 15.851562500000, -3.820312500000, 1490764211
0.301025390625, -0.726074218750, 0.628173828125, 2.398437500000, 6.906250000000, -10.343750000000, 1490764211
0.301025390625, -0.726074218750, 0.628173828125, 2.398437500000, 6.906250000000, -10.343750000000, 1490764211
0.301025390625, -0.726074218750, 0.628173828125, 2.398437500000, 6.906250000000, -10.343750000000, 1490764211
0.333496093750, -0.827392578125, 0.689453125000, -32.164062500000, -11.726562500000, -2.406250000000, 1490764211
0.333496093750, -0.827392578125, 0.689453125000, -32.164062500000, -11.726562500000, -2.406250000000, 1490764211
0.333496093750, -0.827392578125, 0.689453125000, -32.164062500000, -11.726562500000, -2.406250000000, 1490764211
0.333496093750, -0.827392578125, 0.689453125000, -32.164062500000, -11.726562500000, -2.406250000000, 1490764211
0.349853515625, -0.894531250000, 0.499755859375, -47.304687500000, -17.515625000000, -3.468750000000, 1490764211
0.349853515625, -0.894531250000, 0.499755859375, -47.304687500000, -17.515625000000, -3.468750000000, 1490764211
0.349853515625, -0.894531250000, 0.499755859375, -47.304687500000, -17.515625000000, -3.468750000000, 1490764211
0.432373046875, -0.953613281250, 0.368652343750, -28.453125000000, -9.867187500000, -0.742187500000, 1490764211
0.432373046875, -0.953613281250, 0.368652343750, -28.453125000000, -9.867187500000, -0.742187500000, 1490764211
0.432373046875, -0.953613281250, 0.368652343750, -28.453125000000, -9.867187500000, -0.742187500000, 1490764211
0.313476562500, -0.863769531250, 0.346923828125, -11.726562500000, -18.578125000000, 3.312500000000, 1490764211
0.313476562500, -0.863769531250, 0.346923828125, -11.726562500000, -18.578125000000, 3.312500000000, 1490764211
0.313476562500, -0.863769531250, 0.346923828125, -11.726562500000, -18.578125000000, 3.312500000000, 1490764211
0.177978515625, -0.899658203125, 0.478027343750, 4.242187500000, 11.648437500000, -11.101562500000, 1490764211
0.177978515625, -0.899658203125, 0.478027343750, 4.242187500000, 11.648437500000, -11.101562500000, 1490764211
0.177978515625, -0.899658203125, 0.478027343750, 4.242187500000, 11.648437500000, -11.101562500000, 1490764211
0.177978515625, -0.899658203125, 0.478027343750, 4.242187500000, 11.648437500000, -11.101562500000, 1490764211
0.221923828125, -0.959228515625, 0.603759765625, -22.570312500000, -31.179687500000, -22.070312500000, 1490764211
0.221923828125, -0.959228515625, 0.603759765625, -22.570312500000, -31.179687500000, -22.070312500000, 1490764211
0.221923828125, -0.959228515625, 0.603759765625, -22.570312500000, -31.179687500000, -22.070312500000, 1490764211
0.223388671875, -0.822265625000, 0.457763671875, -34.570312500000, -55.515625000000, -18.078125000000, 1490764211
0.223388671875, -0.822265625000, 0.457763671875, -34.570312500000, -55.515625000000, -18.078125000000, 1490764211
0.223388671875, -0.822265625000, 0.457763671875, -34.570312500000, -55.515625000000, -18.078125000000, 1490764211
0.239501953125, -0.897949218750, 0.456298828125, -13.101562500000, -10.054687500000, -22.289062500000, 1490764211
0.239501953125, -0.897949218750, 0.456298828125, -13.101562500000, -10.054687500000, -22.289062500000, 1490764211
0.239501953125, -0.897949218750, 0.456298828125, -13.101562500000, -10.054687500000, -22.289062500000, 1490764211
0.386718750000, -0.759277343750, 0.497070312500, 1.515625000000, -10.453125000000, -30.648437500000, 1490764211
0.386718750000, -0.759277343750, 0.497070312500, 1.515625000000, -10.453125000000, -30.648437500000, 1490764211
0.386718750000, -0.759277343750, 0.497070312500, 1.515625000000, -10.453125000000, -30.648437500000, 1490764211
0.386718750000, -0.759277343750, 0.497070312500, 1.515625000000, -10.453125000000, -30.648437500000, 1490764211
0.319580078125, -0.829833984375, 0.550048828125, -21.625000000000, -28.148437500000, -13.078125000000, 1490764211
0.319580078125, -0.829833984375, 0.550048828125, -21.625000000000, -28.148437500000, -13.078125000000, 1490764211
0.319580078125, -0.829833984375, 0.550048828125, -21.625000000000, -28.148437500000, -13.078125000000, 1490764211
0.250000000000, -0.774169921875, 0.508789062500, -0.156250000000, -7.507812500000, -16.914062500000, 1490764211
0.250000000000, -0.774169921875, 0.508789062500, -0.156250000000, -7.507812500000, -16.914062500000, 1490764211
0.250000000000, -0.774169921875, 0.508789062500, -0.156250000000, -7.507812500000, -16.914062500000, 1490764211
0.235595703125, -0.706542968750, 0.526367187500, 9.187500000000, -3.976562500000, -16.351562500000, 1490764212
0.235595703125, -0.706542968750, 0.526367187500, 9.187500000000, -3.976562500000, -16.351562500000, 1490764212
0.235595703125, -0.706542968750, 0.526367187500, 9.187500000000, -3.976562500000, -16.351562500000, 1490764212
0.467285156250, -0.680175781250, 0.629882812500, -13.859375000000, -0.687500000000, -0.132812500000, 1490764212
0.467285156250, -0.680175781250, 0.629882812500, -13.859375000000, -0.687500000000, -0.132812500000, 1490764212
0.467285156250, -0.680175781250, 0.629882812500, -13.859375000000, -0.687500000000, -0.132812500000, 1490764212
0.467285156250, -0.680175781250, 0.629882812500, -13.859375000000, -0.687500000000, -0.132812500000, 1490764212
0.290771484375, -0.815917968750, 0.647216796875, 3.265625000000, 12.171875000000, 2.335937500000, 1490764212
0.290771484375, -0.815917968750, 0.647216796875, 3.265625000000, 12.171875000000, 2.335937500000, 1490764212
0.290771484375, -0.815917968750, 0.647216796875, 3.265625000000, 12.171875000000, 2.335937500000, 1490764212
0.235595703125, -0.823974609375, 0.602539062500, 14.781250000000, 12.265625000000, -5.375000000000, 1490764212
0.235595703125, -0.823974609375, 0.602539062500, 14.781250000000, 12.265625000000, -5.375000000000, 1490764212
0.235595703125, -0.823974609375, 0.602539062500, 14.781250000000, 12.265625000000, -5.375000000000, 1490764212
0.279052734375, -0.751708984375, 0.552246093750, 6.054687500000, 16.414062500000, 0.140625000000, 1490764212
0.279052734375, -0.751708984375, 0.552246093750, 6.054687500000, 16.414062500000, 0.140625000000, 1490764212
0.279052734375, -0.751708984375, 0.552246093750, 6.054687500000, 16.414062500000, 0.140625000000, 1490764212
0.325195312500, -0.781005859375, 0.496826171875, 0.773437500000, 16.281250000000, 7.000000000000, 1490764212
0.325195312500, -0.781005859375, 0.496826171875, 0.773437500000, 16.281250000000, 7.000000000000, 1490764212
0.325195312500, -0.781005859375, 0.496826171875, 0.773437500000, 16.281250000000, 7.000000000000, 1490764212
0.325195312500, -0.781005859375, 0.496826171875, 0.773437500000, 16.281250000000, 7.000000000000, 1490764212
0.334716796875, -0.765136718750, 0.602050781250, 2.867187500000, 15.156250000000, 8.734375000000, 1490764212
0.334716796875, -0.765136718750, 0.602050781250, 2.867187500000, 15.156250000000, 8.734375000000, 1490764212
0.334716796875, -0.765136718750, 0.602050781250, 2.867187500000, 15.156250000000, 8.734375000000, 1490764212
0.238037109375, -0.745117187500, 0.690429687500, 8.937500000000, 9.585937500000, 6.265625000000, 1490764212
0.238037109375, -0.745117187500, 0.690429687500, 8.937500000000, 9.585937500000, 6.265625000000, 1490764212
0.238037109375, -0.745117187500, 0.690429687500, 8.937500000000, 9.585937500000, 6.265625000000, 1490764212
0.290283203125, -0.807617187500, 0.701416015625, -3.328125000000, 11.117187500000, 8.921875000000, 1490764212
0.290283203125, -0.807617187500, 0.701416015625, -3.328125000000, 11.117187500000, 8.921875000000, 1490764212
0.290283203125, -0.807617187500, 0.701416015625, -3.328125000000, 11.117187500000, 8.921875000000, 1490764212
0.392089843750, -0.809082031250, 0.627197265625, -18.960937500000, -12.328125000000, 5.820312500000, 1490764212
0.392089843750, -0.809082031250, 0.627197265625, -18.960937500000, -12.328125000000, 5.820312500000, 1490764212
0.392089843750, -0.809082031250, 0.627197265625, -18.960937500000, -12.328125000000, 5.820312500000, 1490764212
0.392089843750, -0.809082031250, 0.627197265625, -18.960937500000, -12.328125000000, 5.820312500000, 1490764212
0.341064453125, -0.951904296875, 0.574707031250, -25.250000000000, -6.632812500000, 13.609375000000, 1490764212
0.341064453125, -0.951904296875, 0.574707031250, -25.250000000000, -6.632812500000, 13.609375000000, 1490764212
0.341064453125, -0.951904296875, 0.574707031250, -25.250000000000, -6.632812500000, 13.609375000000, 1490764212
0.322753906250, -0.883300781250, 0.528320312500, -21.515625000000, 15.414062500000, 9.039062500000, 1490764212
0.322753906250, -0.883300781250, 0.528320312500, -21.515625000000, 15.414062500000, 9.039062500000, 1490764212
0.322753906250, -0.883300781250, 0.528320312500, -21.515625000000, 15.414062500000, 9.039062500000, 1490764212
0.289062500000, -0.892578125000, 0.498779296875, -26.671875000000, -11.234375000000, 3.703125000000, 1490764212
0.289062500000, -0.892578125000, 0.498779296875, -26.671875000000, -11.234375000000, 3.703125000000, 1490764212
0.289062500000, -0.892578125000, 0.498779296875, -26.671875000000, -11.234375000000, 3.703125000000, 1490764212
0.422607421875, -0.747558593750, 0.447998046875, -20.609375000000, 0.929687500000, 12.234375000000, 1490764212
0.422607421875, -0.747558593750, 0.447998046875, -20.609375000000, 0.929687500000, 12.234375000000, 1490764212
0.422607421875, -0.747558593750, 0.447998046875, -20.609375000000, 0.929687500000, 12.234375000000, 1490764212
0.443359375000, -0.675781250000, 0.511962890625, -2.804687500000, 33.437500000000, 20.570312500000, 1490764212
0.443359375000, -0.675781250000, 0.511962890625, -2.804687500000, 33.437500000000, 20.570312500000, 1490764212
0.443359375000, -0.675781250000, 0.511962890625, -2.804687500000, 33.437500000000, 20.570312500000, 1490764212
0.443359375000, -0.675781250000, 0.511962890625, -2.804687500000, 33.437500000000, 20.570312500000, 1490764212
0.350585937500, -0.669433593750, 0.406738281250, 19.093750000000, 34.023437500000, 13.726562500000, 1490764212
0.350585937500, -0.669433593750, 0.406738281250, 19.093750000000, 34.023437500000, 13.726562500000, 1490764212
0.350585937500, -0.669433593750, 0.406738281250, 19.093750000000, 34.023437500000, 13.726562500000, 1490764212
0.227539062500, -0.685302734375, 0.538818359375, 25.007812500000, 38.382812500000, 16.812500000000, 1490764212
0.227539062500, -0.685302734375, 0.538818359375, 25.007812500000, 38.382812500000, 16.812500000000, 1490764212
0.444824218750, -0.807617187500, 0.765136718750, 13.585937500000, 9.820312500000, 5.695312500000, 1490764212
0.444824218750, -0.807617187500, 0.765136718750, 13.585937500000, 9.820312500000, 5.695312500000, 1490764212
0.444824218750, -0.807617187500, 0.765136718750, 13.585937500000, 9.820312500000, 5.695312500000, 1490764212
0.444824218750, -0.807617187500, 0.765136718750, 13.585937500000, 9.820312500000, 5.695312500000, 1490764212
0.444824218750, -0.807617187500, 0.765136718750, 13.585937500000, 9.820312500000, 5.695312500000, 1490764212
0.309570312500, -0.733886718750, 0.595947265625, 9.492187500000, -6.445312500000, 4.562500000000, 1490764212
0.309570312500, -0.733886718750, 0.595947265625, 9.492187500000, -6.445312500000, 4.562500000000, 1490764212
0.309570312500, -0.733886718750, 0.595947265625, 9.492187500000, -6.445312500000, 4.562500000000, 1490764212
0.301757812500, -0.603759765625, 0.575195312500, 3.585937500000, -12.562500000000, -3.507812500000, 1490764212
0.301757812500, -0.603759765625, 0.575195312500, 3.585937500000, -12.562500000000, -3.507812500000, 1490764212
0.301757812500, -0.603759765625, 0.575195312500, 3.585937500000, -12.562500000000, -3.507812500000, 1490764212
0.307128906250, -0.688720703125, 0.538085937500, 6.312500000000, 0.328125000000, -8.000000000000, 1490764212
0.307128906250, -0.688720703125, 0.538085937500, 6.312500000000, 0.328125000000, -8.000000000000, 1490764212
0.307128906250, -0.688720703125, 0.538085937500, 6.312500000000, 0.328125000000, -8.000000000000, 1490764212
0.458496093750, -0.670898437500, 0.533447265625, 0.968750000000, -3.265625000000, -3.492187500000, 1490764213
0.458496093750, -0.670898437500, 0.533447265625, 0.968750000000, -3.265625000000, -3.492187500000, 1490764213
0.458496093750, -0.670898437500, 0.533447265625, 0.968750000000, -3.265625000000, -3.492187500000, 1490764213
0.458496093750, -0.670898437500, 0.533447265625, 0.968750000000, -3.265625000000, -3.492187500000, 1490764213
0.378662109375, -0.769287109375, 0.575927734375, 5.312500000000, -3.929687500000, -8.531250000000, 1490764213
0.378662109375, -0.769287109375, 0.575927734375, 5.312500000000, -3.929687500000, -8.531250000000, 1490764213
0.378662109375, -0.769287109375, 0.575927734375, 5.312500000000, -3.929687500000, -8.531250000000, 1490764213
0.384033203125, -0.697998046875, 0.606689453125, 16.609375000000, -8.914062500000, -6.546875000000, 1490764213
0.384033203125, -0.697998046875, 0.606689453125, 16.609375000000, -8.914062500000, -6.546875000000, 1490764213
0.384033203125, -0.697998046875, 0.606689453125, 16.609375000000, -8.914062500000, -6.546875000000, 1490764213
0.376464843750, -0.685546875000, 0.542724609375, 0.960937500000, -13.015625000000, -9.000000000000, 1490764213
0.376464843750, -0.685546875000, 0.542724609375, 0.960937500000, -13.015625000000, -9.000000000000, 1490764213
0.376464843750, -0.685546875000, 0.542724609375, 0.960937500000, -13.015625000000, -9.000000000000, 1490764213
0.477294921875, -0.739013671875, 0.602539062500, 0.796875000000, -2.390625000000, -9.804687500000, 1490764213
0.477294921875, -0.739013671875, 0.602539062500, 0.796875000000, -2.390625000000, -9.804687500000, 1490764213
0.477294921875, -0.739013671875, 0.602539062500, 0.796875000000, -2.390625000000, -9.804687500000, 1490764213
0.477294921875, -0.739013671875, 0.602539062500, 0.796875000000, -2.390625000000, -9.804687500000, 1490764213
0.404785156250, -0.715332031250, 0.695556640625, 4.382812500000, 7.085937500000, -8.500000000000, 1490764213
0.404785156250, -0.715332031250, 0.695556640625, 4.382812500000, 7.085937500000, -8.500000000000, 1490764213
0.404785156250, -0.715332031250, 0.695556640625, 4.382812500000, 7.085937500000, -8.500000000000, 1490764213
0.282226562500, -0.679199218750, 0.671386718750, -15.476562500000, 3.585937500000, -9.914062500000, 1490764213
0.282226562500, -0.679199218750, 0.671386718750, -15.476562500000, 3.585937500000, -9.914062500000, 1490764213
0.282226562500, -0.679199218750, 0.671386718750, -15.476562500000, 3.585937500000, -9.914062500000, 1490764213
0.354980468750, -0.881835937500, 0.646240234375, -44.015625000000, 19.203125000000, -24.007812500000, 1490764213
0.354980468750, -0.881835937500, 0.646240234375, -44.015625000000, 19.203125000000, -24.007812500000, 1490764213
0.354980468750, -0.881835937500, 0.646240234375, -44.015625000000, 19.203125000000, -24.007812500000, 1490764213
0.410888671875, -0.964355468750, 0.649902343750, -46.335937500000, -20.250000000000, -17.898437500000, 1490764213
0.410888671875, -0.964355468750, 0.649902343750, -46.335937500000, -20.250000000000, -17.898437500000, 1490764213
0.410888671875, -0.964355468750, 0.649902343750, -46.335937500000, -20.250000000000, -17.898437500000, 1490764213
0.410888671875, -0.964355468750, 0.649902343750, -46.335937500000, -20.250000000000, -17.898437500000, 1490764213
0.368896484375, -0.960693359375, 0.237060546875, -22.890625000000, -42.031250000000, -10.304687500000, 1490764213
0.368896484375, -0.960693359375, 0.237060546875, -22.890625000000, -42.031250000000, -10.304687500000, 1490764213
0.368896484375, -0.960693359375, 0.237060546875, -22.890625000000, -42.031250000000, -10.304687500000, 1490764213
0.232666015625, -0.734863281250, 0.450195312500, 38.726562500000, -14.140625000000, -17.171875000000, 1490764213
0.232666015625, -0.734863281250, 0.450195312500, 38.726562500000, -14.140625000000, -17.171875000000, 1490764213
0.232666015625, -0.734863281250, 0.450195312500, 38.726562500000, -14.140625000000, -17.171875000000, 1490764213
0.188964843750, -0.721435546875, 0.472412109375, -11.078125000000, 8.828125000000, -5.546875000000, 1490764213
0.188964843750, -0.721435546875, 0.472412109375, -11.078125000000, 8.828125000000, -5.546875000000, 1490764213
0.188964843750, -0.721435546875, 0.472412109375, -11.078125000000, 8.828125000000, -5.546875000000, 1490764213
0.160888671875, -0.721435546875, 0.455810546875, -14.179687500000, 8.429687500000, -7.125000000000, 1490764213
0.160888671875, -0.721435546875, 0.455810546875, -14.179687500000, 8.429687500000, -7.125000000000, 1490764213
0.160888671875, -0.721435546875, 0.455810546875, -14.179687500000, 8.429687500000, -7.125000000000, 1490764213
