ACC_X,ACC_Y,ACC_Z,G_X,G_Y,G_Z,Unix Time
-0.070068359375, -0.319580078125, 0.111816406250, 21.656250000000, 54.601562500000, 54.375000000000, 1490686459
-0.070068359375, -0.319580078125, 0.111816406250, 21.656250000000, 54.601562500000, 54.375000000000, 1490686459
-0.070068359375, -0.319580078125, 0.111816406250, 21.656250000000, 54.601562500000, 54.375000000000, 1490686459
-0.070068359375, -0.319580078125, 0.111816406250, 21.656250000000, 54.601562500000, 54.375000000000, 1490686459
0.022705078125, 0.144775390625, -0.030029296875, 7.343750000000, 65.453125000000, 179.539062500000, 1490686459
0.022705078125, 0.144775390625, -0.030029296875, 7.343750000000, 65.453125000000, 179.539062500000, 1490686459
0.022705078125, 0.144775390625, -0.030029296875, 7.343750000000, 65.453125000000, 179.539062500000, 1490686459
-0.052978515625, -0.847412109375, -0.429199218750, -256.000000000000, -256.000000000000, -33.312500000000, 1490686459
-0.052978515625, -0.847412109375, -0.429199218750, -256.000000000000, -256.000000000000, -33.312500000000, 1490686459
-0.052978515625, -0.847412109375, -0.429199218750, -256.000000000000, -256.000000000000, -33.312500000000, 1490686459
-0.052978515625, -0.847412109375, -0.429199218750, -256.000000000000, -256.000000000000, -33.312500000000, 1490686459
-0.177490234375, -1.023681640625, 4.635253906250, 253.992187500000, 109.703125000000, -53.546875000000, 1490686459
-0.177490234375, -1.023681640625, 4.635253906250, 253.992187500000, 109.703125000000, -53.546875000000, 1490686459
-0.177490234375, -1.023681640625, 4.635253906250, 253.992187500000, 109.703125000000, -53.546875000000, 1490686459
0.525146484375, -1.421875000000, 1.101318359375, 100.914062500000, 66.406250000000, -84.304687500000, 1490686459
0.525146484375, -1.421875000000, 1.101318359375, 100.914062500000, 66.406250000000, -84.304687500000, 1490686459
0.525146484375, -1.421875000000, 1.101318359375, 100.914062500000, 66.406250000000, -84.304687500000, 1490686459
0.116699218750, -0.852539062500, 0.101806640625, -121.109375000000, 91.640625000000, 30.414062500000, 1490686459
0.116699218750, -0.852539062500, 0.101806640625, -121.109375000000, 91.640625000000, 30.414062500000, 1490686459
0.116699218750, -0.852539062500, 0.101806640625, -121.109375000000, 91.640625000000, 30.414062500000, 1490686459
0.116699218750, -0.852539062500, 0.101806640625, -121.109375000000, 91.640625000000, 30.414062500000, 1490686459
0.240478515625, -0.507324218750, 0.006835937500, -68.015625000000, -40.812500000000, 27.960937500000, 1490686459
0.240478515625, -0.507324218750, 0.006835937500, -68.015625000000, -40.812500000000, 27.960937500000, 1490686459
0.240478515625, -0.507324218750, 0.006835937500, -68.015625000000, -40.812500000000, 27.960937500000, 1490686459
0.142089843750, -0.043701171875, 0.021728515625, 45.500000000000, -31.453125000000, -46.757812500000, 1490686459
0.142089843750, -0.043701171875, 0.021728515625, 45.500000000000, -31.453125000000, -46.757812500000, 1490686459
0.142089843750, -0.043701171875, 0.021728515625, 45.500000000000, -31.453125000000, -46.757812500000, 1490686459
0.059326171875, -0.080078125000, 0.057128906250, 33.484375000000, 44.687500000000, -52.265625000000, 1490686459
0.059326171875, -0.080078125000, 0.057128906250, 33.484375000000, 44.687500000000, -52.265625000000, 1490686459
0.985839843750, -2.017089843750, 2.843261718750, 253.992187500000, 46.500000000000, -81.117187500000, 1490686459
0.985839843750, -2.017089843750, 2.843261718750, 253.992187500000, 46.500000000000, -81.117187500000, 1490686459
0.985839843750, -2.017089843750, 2.843261718750, 253.992187500000, 46.500000000000, -81.117187500000, 1490686459
0.985839843750, -2.017089843750, 2.843261718750, 253.992187500000, 46.500000000000, -81.117187500000, 1490686459
0.318115234375, -2.754882812500, 0.951416015625, 253.992187500000, 253.992187500000, -120.500000000000, 1490686459
0.318115234375, -2.754882812500, 0.951416015625, 253.992187500000, 253.992187500000, -120.500000000000, 1490686459
0.092529296875, -1.452636718750, 0.348876953125, 3.101562500000, 145.156250000000, -17.273437500000, 1490686459
0.092529296875, -1.452636718750, 0.348876953125, 3.101562500000, 145.156250000000, -17.273437500000, 1490686459
0.092529296875, -1.452636718750, 0.348876953125, 3.101562500000, 145.156250000000, -17.273437500000, 1490686459
-0.215576171875, -1.067626953125, 0.283447265625, -11.835937500000, 106.179687500000, -40.531250000000, 1490686459
-0.106201171875, -0.720703125000, 0.454345703125, 71.671875000000, 107.054687500000, -8.796875000000, 1490686459
-0.106201171875, -0.720703125000, 0.454345703125, 71.671875000000, 107.054687500000, -8.796875000000, 1490686459
-0.106201171875, -0.720703125000, 0.454345703125, 71.671875000000, 107.054687500000, -8.796875000000, 1490686459
-0.106201171875, -0.720703125000, 0.454345703125, 71.671875000000, 107.054687500000, -8.796875000000, 1490686459
0.022949218750, -0.030761718750, 0.036621093750, -40.789062500000, -90.578125000000, -27.000000000000, 1490686459
0.022949218750, -0.030761718750, 0.036621093750, -40.789062500000, -90.578125000000, -27.000000000000, 1490686459
0.022949218750, -0.030761718750, 0.036621093750, -40.789062500000, -90.578125000000, -27.000000000000, 1490686459
0.090820312500, -0.029541015625, 0.064208984375, -20.953125000000, -95.414062500000, 116.726562500000, 1490686459
0.090820312500, -0.029541015625, 0.064208984375, -20.953125000000, -95.414062500000, 116.726562500000, 1490686459
0.090820312500, -0.029541015625, 0.064208984375, -20.953125000000, -95.414062500000, 116.726562500000, 1490686459
0.090820312500, -0.029541015625, 0.064208984375, -20.953125000000, -95.414062500000, 116.726562500000, 1490686459
-0.042968750000, -1.386474609375, -0.103759765625, -256.000000000000, -190.773437500000, 89.867187500000, 1490686460
-0.042968750000, -1.386474609375, -0.103759765625, -256.000000000000, -190.773437500000, 89.867187500000, 1490686460
-0.042968750000, -1.386474609375, -0.103759765625, -256.000000000000, -190.773437500000, 89.867187500000, 1490686460
0.198974609375, -2.008056640625, 0.401611328125, 253.992187500000, 253.992187500000, 13.460937500000, 1490686460
0.198974609375, -2.008056640625, 0.401611328125, 253.992187500000, 253.992187500000, 13.460937500000, 1490686460
0.198974609375, -2.008056640625, 0.401611328125, 253.992187500000, 253.992187500000, 13.460937500000, 1490686460
0.372070312500, -1.239257812500, 0.838134765625, -127.359375000000, 157.492187500000, -47.750000000000, 1490686460
0.372070312500, -1.239257812500, 0.838134765625, -127.359375000000, 157.492187500000, -47.750000000000, 1490686460
0.372070312500, -1.239257812500, 0.838134765625, -127.359375000000, 157.492187500000, -47.750000000000, 1490686460
0.372070312500, -1.239257812500, 0.838134765625, -127.359375000000, 157.492187500000, -47.750000000000, 1490686460
0.101562500000, -0.762451171875, 0.135742187500, -161.023437500000, 9.132812500000, 110.000000000000, 1490686460
0.101562500000, -0.762451171875, 0.135742187500, -161.023437500000, 9.132812500000, 110.000000000000, 1490686460
0.101562500000, -0.762451171875, 0.135742187500, -161.023437500000, 9.132812500000, 110.000000000000, 1490686460
0.313476562500, -0.267089843750, 0.257812500000, 38.132812500000, -17.320312500000, 11.757812500000, 1490686460
0.313476562500, -0.267089843750, 0.257812500000, 38.132812500000, -17.320312500000, 11.757812500000, 1490686460
0.313476562500, -0.267089843750, 0.257812500000, 38.132812500000, -17.320312500000, 11.757812500000, 1490686460
0.132080078125, 0.059814453125, -0.015625000000, 51.734375000000, 106.273437500000, 18.562500000000, 1490686460
0.132080078125, 0.059814453125, -0.015625000000, 51.734375000000, 106.273437500000, 18.562500000000, 1490686460
0.857421875000, -1.094726562500, 0.408203125000, -207.398437500000, 253.992187500000, 182.273437500000, 1490686460
0.857421875000, -1.094726562500, 0.408203125000, -207.398437500000, 253.992187500000, 182.273437500000, 1490686460
0.857421875000, -1.094726562500, 0.408203125000, -207.398437500000, 253.992187500000, 182.273437500000, 1490686460
0.857421875000, -1.094726562500, 0.408203125000, -207.398437500000, 253.992187500000, 182.273437500000, 1490686460
0.916748046875, -1.759521484375, 1.373046875000, 253.992187500000, 253.992187500000, 44.781250000000, 1490686460
0.916748046875, -1.759521484375, 1.373046875000, 253.992187500000, 253.992187500000, 44.781250000000, 1490686460
0.916748046875, -1.759521484375, 1.373046875000, 253.992187500000, 253.992187500000, 44.781250000000, 1490686460
0.916748046875, -1.759521484375, 1.373046875000, 253.992187500000, 253.992187500000, 44.781250000000, 1490686460
0.215087890625, -1.501464843750, 0.424560546875, -214.640625000000, 204.179687500000, 31.734375000000, 1490686460
0.215087890625, -1.501464843750, 0.424560546875, -214.640625000000, 204.179687500000, 31.734375000000, 1490686460
0.215087890625, -1.501464843750, 0.424560546875, -214.640625000000, 204.179687500000, 31.734375000000, 1490686460
-0.214111328125, -0.631103515625, 0.414062500000, 216.109375000000, 195.523437500000, 4.632812500000, 1490686460
0.023437500000, -0.288574218750, 0.139404296875, 105.226562500000, 35.953125000000, -16.132812500000, 1490686460
0.023437500000, -0.288574218750, 0.139404296875, 105.226562500000, 35.953125000000, -16.132812500000, 1490686460
-0.013916015625, -0.042236328125, 0.143554687500, -40.023437500000, -69.125000000000, -23.914062500000, 1490686460
-0.134277343750, 0.141357421875, 0.217285156250, 6.468750000000, -89.015625000000, -23.140625000000, 1490686460
-0.134277343750, 0.141357421875, 0.217285156250, 6.468750000000, -89.015625000000, -23.140625000000, 1490686460
-0.134277343750, 0.141357421875, 0.217285156250, 6.468750000000, -89.015625000000, -23.140625000000, 1490686460
-0.134277343750, 0.141357421875, 0.217285156250, 6.468750000000, -89.015625000000, -23.140625000000, 1490686460
-0.134277343750, 0.141357421875, 0.217285156250, 6.468750000000, -89.015625000000, -23.140625000000, 1490686460
-0.033935546875, 0.114501953125, -0.013916015625, 9.085937500000, -97.937500000000, 46.312500000000, 1490686460
-0.060546875000, -0.432861328125, -0.120605468750, -61.914062500000, -191.867187500000, 152.648437500000, 1490686460
-0.060546875000, -0.432861328125, -0.120605468750, -61.914062500000, -191.867187500000, 152.648437500000, 1490686460
-0.060546875000, -0.432861328125, -0.120605468750, -61.914062500000, -191.867187500000, 152.648437500000, 1490686460
-0.544433593750, -1.183593750000, 1.458496093750, -241.703125000000, -190.406250000000, 26.195312500000, 1490686460
-0.544433593750, -1.183593750000, 1.458496093750, -241.703125000000, -190.406250000000, 26.195312500000, 1490686460
-0.544433593750, -1.183593750000, 1.458496093750, -241.703125000000, -190.406250000000, 26.195312500000, 1490686460
-0.499511718750, -1.169677734375, 1.111816406250, 46.375000000000, -190.640625000000, 65.664062500000, 1490686460
-0.499511718750, -1.169677734375, 1.111816406250, 46.375000000000, -190.640625000000, 65.664062500000, 1490686460
-0.499511718750, -1.169677734375, 1.111816406250, 46.375000000000, -190.640625000000, 65.664062500000, 1490686460
-0.499511718750, -1.169677734375, 1.111816406250, 46.375000000000, -190.640625000000, 65.664062500000, 1490686460
0.362792968750, -1.042724609375, 0.395507812500, -150.679687500000, 21.257812500000, 131.882812500000, 1490686460
0.362792968750, -1.042724609375, 0.395507812500, -150.679687500000, 21.257812500000, 131.882812500000, 1490686460
0.362792968750, -1.042724609375, 0.395507812500, -150.679687500000, 21.257812500000, 131.882812500000, 1490686460
0.279296875000, -0.567871093750, 0.033935546875, 32.250000000000, 16.234375000000, 7.687500000000, 1490686460
0.279296875000, -0.567871093750, 0.033935546875, 32.250000000000, 16.234375000000, 7.687500000000, 1490686460
0.279296875000, -0.567871093750, 0.033935546875, 32.250000000000, 16.234375000000, 7.687500000000, 1490686460
0.204833984375, -0.198242187500, 0.066162109375, 44.093750000000, -68.968750000000, -9.906250000000, 1490686460
0.204833984375, -0.198242187500, 0.066162109375, 44.093750000000, -68.968750000000, -9.906250000000, 1490686460
0.204833984375, -0.198242187500, 0.066162109375, 44.093750000000, -68.968750000000, -9.906250000000, 1490686460
0.075927734375, -0.106689453125, 0.004150390625, 17.796875000000, 36.117187500000, -62.304687500000, 1490686460
0.075927734375, -0.106689453125, 0.004150390625, 17.796875000000, 36.117187500000, -62.304687500000, 1490686460
0.075927734375, -0.106689453125, 0.004150390625, 17.796875000000, 36.117187500000, -62.304687500000, 1490686460
0.075927734375, -0.106689453125, 0.004150390625, 17.796875000000, 36.117187500000, -62.304687500000, 1490686460
2.230468750000, -0.574951171875, 3.402343750000, 20.820312500000, 253.992187500000, 153.031250000000, 1490686460
2.230468750000, -0.574951171875, 3.402343750000, 20.820312500000, 253.992187500000, 153.031250000000, 1490686460
2.230468750000, -0.574951171875, 3.402343750000, 20.820312500000, 253.992187500000, 153.031250000000, 1490686460
0.734863281250, -1.480468750000, 0.963623046875, 53.218750000000, 89.078125000000, 65.625000000000, 1490686460
0.734863281250, -1.480468750000, 0.963623046875, 53.218750000000, 89.078125000000, 65.625000000000, 1490686460
0.734863281250, -1.480468750000, 0.963623046875, 53.218750000000, 89.078125000000, 65.625000000000, 1490686461
0.448974609375, -1.204345703125, 0.704101562500, 70.281250000000, 155.257812500000, 77.835937500000, 1490686461
0.448974609375, -1.204345703125, 0.704101562500, 70.281250000000, 155.257812500000, 77.835937500000, 1490686461
0.448974609375, -1.204345703125, 0.704101562500, 70.281250000000, 155.257812500000, 77.835937500000, 1490686461
0.087158203125, -0.813232421875, 0.061035156250, -101.273437500000, 113.390625000000, 33.289062500000, 1490686461
0.087158203125, -0.813232421875, 0.061035156250, -101.273437500000, 113.390625000000, 33.289062500000, 1490686461
0.087158203125, -0.813232421875, 0.061035156250, -101.273437500000, 113.390625000000, 33.289062500000, 1490686461
0.087158203125, -0.813232421875, 0.061035156250, -101.273437500000, 113.390625000000, 33.289062500000, 1490686461
-0.291259765625, -0.658935546875, 0.345947265625, -22.414062500000, -25.796875000000, -146.750000000000, 1490686461
-0.291259765625, -0.658935546875, 0.345947265625, -22.414062500000, -25.796875000000, -146.750000000000, 1490686461
-0.291259765625, -0.658935546875, 0.345947265625, -22.414062500000, -25.796875000000, -146.750000000000, 1490686461
-0.291259765625, -0.658935546875, 0.345947265625, -22.414062500000, -25.796875000000, -146.750000000000, 1490686461
-0.048095703125, -1.105468750000, 0.558105468750, -148.148437500000, 243.398437500000, -32.179687500000, 1490686461
-0.048095703125, -1.105468750000, 0.558105468750, -148.148437500000, 243.398437500000, -32.179687500000, 1490686461
-0.048095703125, -1.105468750000, 0.558105468750, -148.148437500000, 243.398437500000, -32.179687500000, 1490686461
0.325439453125, -1.057861328125, 0.608642578125, 88.796875000000, -103.609375000000, 11.523437500000, 1490686461
0.325439453125, -1.057861328125, 0.608642578125, 88.796875000000, -103.609375000000, 11.523437500000, 1490686461
0.325439453125, -1.057861328125, 0.608642578125, 88.796875000000, -103.609375000000, 11.523437500000, 1490686461
0.325439453125, -1.057861328125, 0.608642578125, 88.796875000000, -103.609375000000, 11.523437500000, 1490686461
0.325439453125, -1.057861328125, 0.608642578125, 88.796875000000, -103.609375000000, 11.523437500000, 1490686461
0.480468750000, -0.997070312500, 0.763183593750, 26.375000000000, -170.914062500000, 128.335937500000, 1490686461
0.739257812500, -1.077392578125, 0.554931640625, -14.171875000000, 138.625000000000, 210.437500000000, 1490686461
0.739257812500, -1.077392578125, 0.554931640625, -14.171875000000, 138.625000000000, 210.437500000000, 1490686461
0.238281250000, -0.726806640625, 0.095947265625, -41.531250000000, 144.187500000000, 93.070312500000, 1490686461
0.187500000000, -0.695312500000, -0.039550781250, -41.437500000000, 132.429687500000, 82.882812500000, 1490686461
0.187500000000, -0.695312500000, -0.039550781250, -41.437500000000, 132.429687500000, 82.882812500000, 1490686461
0.187500000000, -0.695312500000, -0.039550781250, -41.437500000000, 132.429687500000, 82.882812500000, 1490686461
0.174560546875, -0.562744140625, 0.029541015625, 56.796875000000, 27.890625000000, 97.601562500000, 1490686461
0.174560546875, -0.562744140625, 0.029541015625, 56.796875000000, 27.890625000000, 97.601562500000, 1490686461
0.174560546875, -0.562744140625, 0.029541015625, 56.796875000000, 27.890625000000, 97.601562500000, 1490686461
0.183349609375, -0.642578125000, -0.023437500000, -47.210937500000, 216.382812500000, 35.343750000000, 1490686461
0.183349609375, -0.642578125000, -0.023437500000, -47.210937500000, 216.382812500000, 35.343750000000, 1490686461
0.183349609375, -0.642578125000, -0.023437500000, -47.210937500000, 216.382812500000, 35.343750000000, 1490686461
0.183349609375, -0.642578125000, -0.023437500000, -47.210937500000, 216.382812500000, 35.343750000000, 1490686461
0.501464843750, -1.405517578125, -0.090820312500, -95.296875000000, 253.992187500000, 127.554687500000, 1490686461
0.501464843750, -1.405517578125, -0.090820312500, -95.296875000000, 253.992187500000, 127.554687500000, 1490686461
0.501464843750, -1.405517578125, -0.090820312500, -95.296875000000, 253.992187500000, 127.554687500000, 1490686461
0.294921875000, -1.880371093750, 1.390136718750, 253.992187500000, 131.507812500000, 48.968750000000, 1490686461
0.294921875000, -1.880371093750, 1.390136718750, 253.992187500000, 131.507812500000, 48.968750000000, 1490686461
0.294921875000, -1.880371093750, 1.390136718750, 253.992187500000, 131.507812500000, 48.968750000000, 1490686461
0.498291015625, -1.380615234375, 0.543212890625, -148.898437500000, 8.968750000000, 95.429687500000, 1490686461
0.498291015625, -1.380615234375, 0.543212890625, -148.898437500000, 8.968750000000, 95.429687500000, 1490686461
0.498291015625, -1.380615234375, 0.543212890625, -148.898437500000, 8.968750000000, 95.429687500000, 1490686461
0.488525390625, -0.958251953125, 0.501708984375, 49.914062500000, 134.320312500000, -12.421875000000, 1490686461
0.488525390625, -0.958251953125, 0.501708984375, 49.914062500000, 134.320312500000, -12.421875000000, 1490686461
0.488525390625, -0.958251953125, 0.501708984375, 49.914062500000, 134.320312500000, -12.421875000000, 1490686461
0.488525390625, -0.958251953125, 0.501708984375, 49.914062500000, 134.320312500000, -12.421875000000, 1490686461
-0.130371093750, -0.541748046875, 0.231201171875, -19.445312500000, 86.187500000000, 19.992187500000, 1490686461
-0.130371093750, -0.541748046875, 0.231201171875, -19.445312500000, 86.187500000000, 19.992187500000, 1490686461
-0.130371093750, -0.541748046875, 0.231201171875, -19.445312500000, 86.187500000000, 19.992187500000, 1490686461
-0.258544921875, -0.303955078125, -0.093017578125, -76.718750000000, -99.398437500000, -86.632812500000, 1490686461
-0.258544921875, -0.303955078125, -0.093017578125, -76.718750000000, -99.398437500000, -86.632812500000, 1490686461
-0.258544921875, -0.303955078125, -0.093017578125, -76.718750000000, -99.398437500000, -86.632812500000, 1490686461
-0.101074218750, -0.568359375000, 0.060791015625, -110.789062500000, -196.023437500000, 20.648437500000, 1490686461
-0.101074218750, -0.568359375000, 0.060791015625, -110.789062500000, -196.023437500000, 20.648437500000, 1490686461
-0.101074218750, -0.568359375000, 0.060791015625, -110.789062500000, -196.023437500000, 20.648437500000, 1490686461
0.004638671875, -1.626464843750, 0.179443359375, -3.937500000000, 229.109375000000, 12.476562500000, 1490686461
0.004638671875, -1.626464843750, 0.179443359375, -3.937500000000, 229.109375000000, 12.476562500000, 1490686461
0.004638671875, -1.626464843750, 0.179443359375, -3.937500000000, 229.109375000000, 12.476562500000, 1490686461
-1.007812500000, -2.103515625000, 2.343505859375, 10.679687500000, -256.000000000000, 168.773437500000, 1490686461
-1.007812500000, -2.103515625000, 2.343505859375, 10.679687500000, -256.000000000000, 168.773437500000, 1490686461
-1.007812500000, -2.103515625000, 2.343505859375, 10.679687500000, -256.000000000000, 168.773437500000, 1490686461
-1.007812500000, -2.103515625000, 2.343505859375, 10.679687500000, -256.000000000000, 168.773437500000, 1490686461
-0.250244140625, -1.096435546875, 0.318115234375, -178.679687500000, 14.062500000000, 31.609375000000, 1490686461
-0.250244140625, -1.096435546875, 0.318115234375, -178.679687500000, 14.062500000000, 31.609375000000, 1490686461
-0.250244140625, -1.096435546875, 0.318115234375, -178.679687500000, 14.062500000000, 31.609375000000, 1490686461
0.163330078125, -0.726562500000, 0.174072265625, 43.843750000000, -97.414062500000, 5.156250000000, 1490686462
0.163330078125, -0.726562500000, 0.174072265625, 43.843750000000, -97.414062500000, 5.156250000000, 1490686462
0.163330078125, -0.726562500000, 0.174072265625, 43.843750000000, -97.414062500000, 5.156250000000, 1490686462
0.200683593750, -0.139404296875, 0.040527343750, 24.921875000000, 106.476562500000, -21.835937500000, 1490686462
0.200683593750, -0.139404296875, 0.040527343750, 24.921875000000, 106.476562500000, -21.835937500000, 1490686462
0.200683593750, -0.139404296875, 0.040527343750, 24.921875000000, 106.476562500000, -21.835937500000, 1490686462
0.200683593750, -0.139404296875, 0.040527343750, 24.921875000000, 106.476562500000, -21.835937500000, 1490686462
0.151611328125, 0.131347656250, 0.047363281250, -15.085937500000, 118.257812500000, 24.593750000000, 1490686462
0.151611328125, 0.131347656250, 0.047363281250, -15.085937500000, 118.257812500000, 24.593750000000, 1490686462
0.151611328125, 0.131347656250, 0.047363281250, -15.085937500000, 118.257812500000, 24.593750000000, 1490686462
0.646972656250, -1.439453125000, -0.205078125000, -256.000000000000, 253.992187500000, 36.148437500000, 1490686462
0.646972656250, -1.439453125000, -0.205078125000, -256.000000000000, 253.992187500000, 36.148437500000, 1490686462
0.646972656250, -1.439453125000, -0.205078125000, -256.000000000000, 253.992187500000, 36.148437500000, 1490686462
0.059814453125, -1.562255859375, 2.075439453125, 139.828125000000, -256.000000000000, 65.843750000000, 1490686462
0.059814453125, -1.562255859375, 2.075439453125, 139.828125000000, -256.000000000000, 65.843750000000, 1490686462
0.059814453125, -1.562255859375, 2.075439453125, 139.828125000000, -256.000000000000, 65.843750000000, 1490686462
0.301025390625, -1.357910156250, 0.633056640625, -125.226562500000, -71.914062500000, 80.078125000000, 1490686462
0.301025390625, -1.357910156250, 0.633056640625, -125.226562500000, -71.914062500000, 80.078125000000, 1490686462
0.301025390625, -1.357910156250, 0.633056640625, -125.226562500000, -71.914062500000, 80.078125000000, 1490686462
0.301025390625, -1.357910156250, 0.633056640625, -125.226562500000, -71.914062500000, 80.078125000000, 1490686462
0.554687500000, -1.103759765625, 0.701660156250, 49.625000000000, 133.476562500000, -54.210937500000, 1490686462
0.554687500000, -1.103759765625, 0.701660156250, 49.625000000000, 133.476562500000, -54.210937500000, 1490686462
0.554687500000, -1.103759765625, 0.701660156250, 49.625000000000, 133.476562500000, -54.210937500000, 1490686462
-0.003662109375, -0.497314453125, 0.403076171875, 15.203125000000, 63.390625000000, 6.179687500000, 1490686462
-0.003662109375, -0.497314453125, 0.403076171875, 15.203125000000, 63.390625000000, 6.179687500000, 1490686462
-0.003662109375, -0.497314453125, 0.403076171875, 15.203125000000, 63.390625000000, 6.179687500000, 1490686462
-0.091552734375, 0.028320312500, 0.043212890625, -37.132812500000, -2.976562500000, -29.203125000000, 1490686462
-0.091552734375, 0.028320312500, 0.043212890625, -37.132812500000, -2.976562500000, -29.203125000000, 1490686462
-0.091552734375, 0.028320312500, 0.043212890625, -37.132812500000, -2.976562500000, -29.203125000000, 1490686462
0.062744140625, -0.266357421875, -0.142578125000, -126.828125000000, -172.656250000000, 123.835937500000, 1490686462
0.062744140625, -0.266357421875, -0.142578125000, -126.828125000000, -172.656250000000, 123.835937500000, 1490686462
0.062744140625, -0.266357421875, -0.142578125000, -126.828125000000, -172.656250000000, 123.835937500000, 1490686462
0.062744140625, -0.266357421875, -0.142578125000, -126.828125000000, -172.656250000000, 123.835937500000, 1490686462
-0.462646484375, -1.407470703125, 0.305664062500, -256.000000000000, -256.000000000000, -181.453125000000, 1490686462
-0.462646484375, -1.407470703125, 0.305664062500, -256.000000000000, -256.000000000000, -181.453125000000, 1490686462
-0.462646484375, -1.407470703125, 0.305664062500, -256.000000000000, -256.000000000000, -181.453125000000, 1490686462
0.270019531250, -1.401855468750, 1.371826171875, 253.992187500000, 245.007812500000, -126.500000000000, 1490686462
0.270019531250, -1.401855468750, 1.371826171875, 253.992187500000, 245.007812500000, -126.500000000000, 1490686462
0.270019531250, -1.401855468750, 1.371826171875, 253.992187500000, 245.007812500000, -126.500000000000, 1490686462
-0.178955078125, -1.637939453125, 1.546875000000, -245.125000000000, -256.000000000000, 134.164062500000, 1490686462
-0.178955078125, -1.637939453125, 1.546875000000, -245.125000000000, -256.000000000000, 134.164062500000, 1490686462
-0.178955078125, -1.637939453125, 1.546875000000, -245.125000000000, -256.000000000000, 134.164062500000, 1490686462
0.317382812500, -0.843017578125, 0.375488281250, -245.468750000000, 21.031250000000, 129.648437500000, 1490686462
0.317382812500, -0.843017578125, 0.375488281250, -245.468750000000, 21.031250000000, 129.648437500000, 1490686462
0.317382812500, -0.843017578125, 0.375488281250, -245.468750000000, 21.031250000000, 129.648437500000, 1490686462
0.317382812500, -0.843017578125, 0.375488281250, -245.468750000000, 21.031250000000, 129.648437500000, 1490686462
0.451904296875, -0.540527343750, 0.087646484375, -9.414062500000, 18.554687500000, 30.609375000000, 1490686462
0.451904296875, -0.540527343750, 0.087646484375, -9.414062500000, 18.554687500000, 30.609375000000, 1490686462
0.451904296875, -0.540527343750, 0.087646484375, -9.414062500000, 18.554687500000, 30.609375000000, 1490686462
