ACC_X,ACC_Y,ACC_Z,G_X,G_Y,G_Z,Unix Time
-0.008544921875, -1.829833984375, 0.837158203125, -0.664062500000, 146.679687500000, -44.804687500000, 1490686471
-0.008544921875, -1.829833984375, 0.837158203125, -0.664062500000, 146.679687500000, -44.804687500000, 1490686471
-0.008544921875, -1.829833984375, 0.837158203125, -0.664062500000, 146.679687500000, -44.804687500000, 1490686471
0.078369140625, -1.087646484375, 0.394775390625, -63.304687500000, -42.976562500000, 34.718750000000, 1490686471
0.078369140625, -1.087646484375, 0.394775390625, -63.304687500000, -42.976562500000, 34.718750000000, 1490686471
0.078369140625, -1.087646484375, 0.394775390625, -63.304687500000, -42.976562500000, 34.718750000000, 1490686471
-0.020019531250, -0.458496093750, 0.051025390625, -2.820312500000, 65.796875000000, 0.273437500000, 1490686471
-0.020019531250, -0.458496093750, 0.051025390625, -2.820312500000, 65.796875000000, 0.273437500000, 1490686471
-0.020019531250, -0.458496093750, 0.051025390625, -2.820312500000, 65.796875000000, 0.273437500000, 1490686471
-0.005859375000, 0.105957031250, 0.060302734375, 14.164062500000, -0.835937500000, 1.937500000000, 1490686471
-0.005859375000, 0.105957031250, 0.060302734375, 14.164062500000, -0.835937500000, 1.937500000000, 1490686471
0.022705078125, 0.229248046875, 0.052978515625, 20.062500000000, -5.273437500000, 26.257812500000, 1490686471
0.034179687500, 0.099365234375, 0.039794921875, 30.179687500000, -11.695312500000, 57.601562500000, 1490686471
0.034179687500, 0.099365234375, 0.039794921875, 30.179687500000, -11.695312500000, 57.601562500000, 1490686471
0.034179687500, 0.099365234375, 0.039794921875, 30.179687500000, -11.695312500000, 57.601562500000, 1490686471
0.034179687500, 0.099365234375, 0.039794921875, 30.179687500000, -11.695312500000, 57.601562500000, 1490686471
0.052246093750, -0.545166015625, -0.227294921875, -223.906250000000, -44.351562500000, 40.156250000000, 1490686471
0.052246093750, -0.545166015625, -0.227294921875, -223.906250000000, -44.351562500000, 40.156250000000, 1490686471
0.052246093750, -0.545166015625, -0.227294921875, -223.906250000000, -44.351562500000, 40.156250000000, 1490686471
0.251220703125, -2.123291015625, 0.547851562500, 253.992187500000, 253.992187500000, 45.562500000000, 1490686471
0.251220703125, -2.123291015625, 0.547851562500, 253.992187500000, 253.992187500000, 45.562500000000, 1490686471
0.251220703125, -2.123291015625, 0.547851562500, 253.992187500000, 253.992187500000, 45.562500000000, 1490686471
0.343017578125, -1.803466796875, 1.124267578125, 38.703125000000, 161.390625000000, 33.382812500000, 1490686472
0.343017578125, -1.803466796875, 1.124267578125, 38.703125000000, 161.390625000000, 33.382812500000, 1490686472
0.343017578125, -1.803466796875, 1.124267578125, 38.703125000000, 161.390625000000, 33.382812500000, 1490686472
0.343017578125, -1.803466796875, 1.124267578125, 38.703125000000, 161.390625000000, 33.382812500000, 1490686472
0.019042968750, -0.977050781250, 0.514648437500, -84.585937500000, -34.773437500000, -7.351562500000, 1490686472
0.019042968750, -0.977050781250, 0.514648437500, -84.585937500000, -34.773437500000, -7.351562500000, 1490686472
0.019042968750, -0.977050781250, 0.514648437500, -84.585937500000, -34.773437500000, -7.351562500000, 1490686472
-0.158691406250, -0.620849609375, 0.220458984375, 36.093750000000, 103.468750000000, -64.132812500000, 1490686472
-0.158691406250, -0.620849609375, 0.220458984375, 36.093750000000, 103.468750000000, -64.132812500000, 1490686472
-0.158691406250, -0.620849609375, 0.220458984375, 36.093750000000, 103.468750000000, -64.132812500000, 1490686472
0.011230468750, -0.354248046875, 0.395507812500, 69.718750000000, -45.187500000000, -22.976562500000, 1490686472
0.011230468750, -0.354248046875, 0.395507812500, 69.718750000000, -45.187500000000, -22.976562500000, 1490686472
0.011230468750, -0.354248046875, 0.395507812500, 69.718750000000, -45.187500000000, -22.976562500000, 1490686472
-0.000976562500, 0.089843750000, 0.137207031250, -36.898437500000, -57.906250000000, 1.242187500000, 1490686472
-0.000976562500, 0.089843750000, 0.137207031250, -36.898437500000, -57.906250000000, 1.242187500000, 1490686472
-0.000976562500, 0.089843750000, 0.137207031250, -36.898437500000, -57.906250000000, 1.242187500000, 1490686472
-0.178710937500, -1.038574218750, 0.630859375000, -91.523437500000, -182.132812500000, 6.031250000000, 1490686472
-0.178710937500, -1.038574218750, 0.630859375000, -91.523437500000, -182.132812500000, 6.031250000000, 1490686472
-0.178710937500, -1.038574218750, 0.630859375000, -91.523437500000, -182.132812500000, 6.031250000000, 1490686472
-0.178710937500, -1.038574218750, 0.630859375000, -91.523437500000, -182.132812500000, 6.031250000000, 1490686472
-0.035888671875, -1.573486328125, 0.740234375000, -63.531250000000, -67.914062500000, -34.281250000000, 1490686472
-0.035888671875, -1.573486328125, 0.740234375000, -63.531250000000, -67.914062500000, -34.281250000000, 1490686472
-0.035888671875, -1.573486328125, 0.740234375000, -63.531250000000, -67.914062500000, -34.281250000000, 1490686472
0.042968750000, -1.494628906250, 0.806884765625, 155.476562500000, -67.742187500000, -60.359375000000, 1490686472
0.042968750000, -1.494628906250, 0.806884765625, 155.476562500000, -67.742187500000, -60.359375000000, 1490686472
0.042968750000, -1.494628906250, 0.806884765625, 155.476562500000, -67.742187500000, -60.359375000000, 1490686472
0.113769531250, -0.558837890625, -0.013671875000, -223.851562500000, -7.312500000000, -21.992187500000, 1490686472
0.113769531250, -0.558837890625, -0.013671875000, -223.851562500000, -7.312500000000, -21.992187500000, 1490686472
0.113769531250, -0.558837890625, -0.013671875000, -223.851562500000, -7.312500000000, -21.992187500000, 1490686472
0.113769531250, -0.558837890625, -0.013671875000, -223.851562500000, -7.312500000000, -21.992187500000, 1490686472
0.166259765625, -0.138183593750, -0.037841796875, 27.289062500000, 26.359375000000, -38.804687500000, 1490686472
0.166259765625, -0.138183593750, -0.037841796875, 27.289062500000, 26.359375000000, -38.804687500000, 1490686472
0.166259765625, -0.138183593750, -0.037841796875, 27.289062500000, 26.359375000000, -38.804687500000, 1490686472
0.214355468750, -0.270996093750, -0.024414062500, -24.992187500000, 148.398437500000, -22.500000000000, 1490686472
0.214355468750, -0.270996093750, -0.024414062500, -24.992187500000, 148.398437500000, -22.500000000000, 1490686472
0.214355468750, -0.270996093750, -0.024414062500, -24.992187500000, 148.398437500000, -22.500000000000, 1490686472
0.703369140625, -0.915771484375, 0.078369140625, -193.804687500000, 253.992187500000, 19.250000000000, 1490686472
0.703369140625, -0.915771484375, 0.078369140625, -193.804687500000, 253.992187500000, 19.250000000000, 1490686472
0.703369140625, -0.915771484375, 0.078369140625, -193.804687500000, 253.992187500000, 19.250000000000, 1490686472
0.745849609375, -2.150146484375, -0.201660156250, 227.734375000000, -256.000000000000, 231.570312500000, 1490686472
0.745849609375, -2.150146484375, -0.201660156250, 227.734375000000, -256.000000000000, 231.570312500000, 1490686472
0.745849609375, -2.150146484375, -0.201660156250, 227.734375000000, -256.000000000000, 231.570312500000, 1490686472
0.745849609375, -2.150146484375, -0.201660156250, 227.734375000000, -256.000000000000, 231.570312500000, 1490686472
0.177978515625, -1.938232421875, 1.677246093750, -180.835937500000, 238.601562500000, -59.515625000000, 1490686472
0.177978515625, -1.938232421875, 1.677246093750, -180.835937500000, 238.601562500000, -59.515625000000, 1490686472
0.233154296875, -1.099609375000, 0.105224609375, -256.000000000000, 253.992187500000, -116.531250000000, 1490686472
0.083740234375, -1.286621093750, 0.112060546875, -135.664062500000, 61.437500000000, 127.593750000000, 1490686472
0.156005859375, -1.301269531250, 0.041748046875, 29.109375000000, -69.304687500000, -0.859375000000, 1490686472
-0.265380859375, -0.707763671875, 0.488037109375, 204.562500000000, 26.054687500000, -7.007812500000, 1490686472
-0.265380859375, -0.707763671875, 0.488037109375, 204.562500000000, 26.054687500000, -7.007812500000, 1490686472
-0.265380859375, -0.707763671875, 0.488037109375, 204.562500000000, 26.054687500000, -7.007812500000, 1490686472
-0.265380859375, -0.707763671875, 0.488037109375, 204.562500000000, 26.054687500000, -7.007812500000, 1490686472
-0.077148437500, 0.105712890625, 0.129394531250, 22.703125000000, -106.445312500000, -12.750000000000, 1490686472
-0.077148437500, 0.105712890625, 0.129394531250, 22.703125000000, -106.445312500000, -12.750000000000, 1490686472
-0.077148437500, 0.105712890625, 0.129394531250, 22.703125000000, -106.445312500000, -12.750000000000, 1490686472
-0.077148437500, 0.105712890625, 0.129394531250, 22.703125000000, -106.445312500000, -12.750000000000, 1490686472
-0.018066406250, -0.146484375000, -0.020996093750, -16.757812500000, -118.125000000000, 121.125000000000, 1490686472
-0.018066406250, -0.146484375000, -0.020996093750, -16.757812500000, -118.125000000000, 121.125000000000, 1490686472
-0.018066406250, -0.146484375000, -0.020996093750, -16.757812500000, -118.125000000000, 121.125000000000, 1490686472
-0.998779296875, -1.492675781250, 4.760742187500, -256.000000000000, -256.000000000000, -15.953125000000, 1490686472
-0.998779296875, -1.492675781250, 4.760742187500, -256.000000000000, -256.000000000000, -15.953125000000, 1490686472
-0.998779296875, -1.492675781250, 4.760742187500, -256.000000000000, -256.000000000000, -15.953125000000, 1490686472
-0.885253906250, -0.937255859375, 0.404541015625, 103.484375000000, -152.273437500000, -138.890625000000, 1490686472
-0.885253906250, -0.937255859375, 0.404541015625, 103.484375000000, -152.273437500000, -138.890625000000, 1490686472
-0.885253906250, -0.937255859375, 0.404541015625, 103.484375000000, -152.273437500000, -138.890625000000, 1490686472
0.307373046875, -1.316650390625, 0.413818359375, -55.023437500000, -87.132812500000, 3.281250000000, 1490686472
0.307373046875, -1.316650390625, 0.413818359375, -55.023437500000, -87.132812500000, 3.281250000000, 1490686472
0.307373046875, -1.316650390625, 0.413818359375, -55.023437500000, -87.132812500000, 3.281250000000, 1490686472
0.307373046875, -1.316650390625, 0.413818359375, -55.023437500000, -87.132812500000, 3.281250000000, 1490686473
0.428710937500, -0.966064453125, 0.244873046875, -83.531250000000, 34.148437500000, 42.328125000000, 1490686473
0.428710937500, -0.966064453125, 0.244873046875, -83.531250000000, 34.148437500000, 42.328125000000, 1490686473
0.428710937500, -0.966064453125, 0.244873046875, -83.531250000000, 34.148437500000, 42.328125000000, 1490686473
0.321289062500, -0.255371093750, 0.061767578125, 17.992187500000, -141.890625000000, -42.734375000000, 1490686473
0.321289062500, -0.255371093750, 0.061767578125, 17.992187500000, -141.890625000000, -42.734375000000, 1490686473
0.321289062500, -0.255371093750, 0.061767578125, 17.992187500000, -141.890625000000, -42.734375000000, 1490686473
0.070312500000, 0.117187500000, 0.091796875000, 23.820312500000, -73.531250000000, -59.671875000000, 1490686473
0.070312500000, 0.117187500000, 0.091796875000, 23.820312500000, -73.531250000000, -59.671875000000, 1490686473
0.070312500000, 0.117187500000, 0.091796875000, 23.820312500000, -73.531250000000, -59.671875000000, 1490686473
0.212890625000, -0.216552734375, -0.041992187500, -93.242187500000, 109.078125000000, -54.054687500000, 1490686473
0.212890625000, -0.216552734375, -0.041992187500, -93.242187500000, 109.078125000000, -54.054687500000, 1490686473
0.212890625000, -0.216552734375, -0.041992187500, -93.242187500000, 109.078125000000, -54.054687500000, 1490686473
0.212890625000, -0.216552734375, -0.041992187500, -93.242187500000, 109.078125000000, -54.054687500000, 1490686473
1.423583984375, -2.568359375000, 0.201416015625, -256.000000000000, 253.992187500000, 230.640625000000, 1490686473
1.423583984375, -2.568359375000, 0.201416015625, -256.000000000000, 253.992187500000, 230.640625000000, 1490686473
1.423583984375, -2.568359375000, 0.201416015625, -256.000000000000, 253.992187500000, 230.640625000000, 1490686473
0.490722656250, -2.513183593750, 1.758056640625, 253.992187500000, 80.851562500000, 42.585937500000, 1490686473
0.490722656250, -2.513183593750, 1.758056640625, 253.992187500000, 80.851562500000, 42.585937500000, 1490686473
0.490722656250, -2.513183593750, 1.758056640625, 253.992187500000, 80.851562500000, 42.585937500000, 1490686473
0.179443359375, -1.179931640625, 0.490234375000, -203.664062500000, 8.054687500000, 59.750000000000, 1490686473
0.179443359375, -1.179931640625, 0.490234375000, -203.664062500000, 8.054687500000, 59.750000000000, 1490686473
0.179443359375, -1.179931640625, 0.490234375000, -203.664062500000, 8.054687500000, 59.750000000000, 1490686473
0.047851562500, -0.835693359375, 0.246826171875, 108.218750000000, 127.601562500000, -63.750000000000, 1490686473
0.047851562500, -0.835693359375, 0.246826171875, 108.218750000000, 127.601562500000, -63.750000000000, 1490686473
0.047851562500, -0.835693359375, 0.246826171875, 108.218750000000, 127.601562500000, -63.750000000000, 1490686473
0.047851562500, -0.835693359375, 0.246826171875, 108.218750000000, 127.601562500000, -63.750000000000, 1490686473
-0.176269531250, -0.383300781250, 0.109375000000, 175.328125000000, 38.710937500000, -103.515625000000, 1490686473
-0.176269531250, -0.383300781250, 0.109375000000, 175.328125000000, 38.710937500000, -103.515625000000, 1490686473
-0.176269531250, -0.383300781250, 0.109375000000, 175.328125000000, 38.710937500000, -103.515625000000, 1490686473
-0.082031250000, -0.134521484375, 0.032470703125, -52.757812500000, -148.500000000000, 52.593750000000, 1490686473
-0.082031250000, -0.134521484375, 0.032470703125, -52.757812500000, -148.500000000000, 52.593750000000, 1490686473
-0.082031250000, -0.134521484375, 0.032470703125, -52.757812500000, -148.500000000000, 52.593750000000, 1490686473
-0.075683593750, -0.010986328125, 0.074951171875, -79.679687500000, -129.421875000000, 131.539062500000, 1490686473
-0.075683593750, -0.010986328125, 0.074951171875, -79.679687500000, -129.421875000000, 131.539062500000, 1490686473
-0.075683593750, -0.010986328125, 0.074951171875, -79.679687500000, -129.421875000000, 131.539062500000, 1490686473
-0.658935546875, -2.345214843750, 0.684326171875, -256.000000000000, -256.000000000000, -236.750000000000, 1490686473
-0.658935546875, -2.345214843750, 0.684326171875, -256.000000000000, -256.000000000000, -236.750000000000, 1490686473
-0.658935546875, -2.345214843750, 0.684326171875, -256.000000000000, -256.000000000000, -236.750000000000, 1490686473
-0.658935546875, -2.345214843750, 0.684326171875, -256.000000000000, -256.000000000000, -236.750000000000, 1490686473
0.914062500000, -2.047363281250, 1.926513671875, 185.054687500000, 253.992187500000, -25.148437500000, 1490686473
0.914062500000, -2.047363281250, 1.926513671875, 185.054687500000, 253.992187500000, -25.148437500000, 1490686473
0.914062500000, -2.047363281250, 1.926513671875, 185.054687500000, 253.992187500000, -25.148437500000, 1490686473
-0.150634765625, -1.660644531250, 0.841308593750, -113.398437500000, -253.609375000000, -13.484375000000, 1490686473
-0.150634765625, -1.660644531250, 0.841308593750, -113.398437500000, -253.609375000000, -13.484375000000, 1490686473
-0.150634765625, -1.660644531250, 0.841308593750, -113.398437500000, -253.609375000000, -13.484375000000, 1490686473
0.076171875000, -0.848876953125, 0.154785156250, -104.546875000000, -53.281250000000, 38.257812500000, 1490686473
0.076171875000, -0.848876953125, 0.154785156250, -104.546875000000, -53.281250000000, 38.257812500000, 1490686473
0.076171875000, -0.848876953125, 0.154785156250, -104.546875000000, -53.281250000000, 38.257812500000, 1490686473
0.161132812500, -0.182128906250, 0.070312500000, 29.765625000000, 2.242187500000, -1.125000000000, 1490686473
0.161132812500, -0.182128906250, 0.070312500000, 29.765625000000, 2.242187500000, -1.125000000000, 1490686473
0.161132812500, -0.182128906250, 0.070312500000, 29.765625000000, 2.242187500000, -1.125000000000, 1490686473
0.161132812500, -0.182128906250, 0.070312500000, 29.765625000000, 2.242187500000, -1.125000000000, 1490686473
-0.005615234375, 0.121093750000, 0.031982421875, -22.828125000000, -54.445312500000, -54.390625000000, 1490686473
-0.005615234375, 0.121093750000, 0.031982421875, -22.828125000000, -54.445312500000, -54.390625000000, 1490686473
-0.005615234375, 0.121093750000, 0.031982421875, -22.828125000000, -54.445312500000, -54.390625000000, 1490686473
0.044921875000, 0.026367187500, 0.072509765625, -10.578125000000, 21.570312500000, -56.843750000000, 1490686473
0.044921875000, 0.026367187500, 0.072509765625, -10.578125000000, 21.570312500000, -56.843750000000, 1490686473
0.044921875000, 0.026367187500, 0.072509765625, -10.578125000000, 21.570312500000, -56.843750000000, 1490686473
0.815185546875, -1.734375000000, 0.063720703125, -256.000000000000, 253.992187500000, 163.000000000000, 1490686473
0.815185546875, -1.734375000000, 0.063720703125, -256.000000000000, 253.992187500000, 163.000000000000, 1490686473
0.815185546875, -1.734375000000, 0.063720703125, -256.000000000000, 253.992187500000, 163.000000000000, 1490686473
0.853027343750, -1.711669921875, 1.832031250000, 253.992187500000, 253.992187500000, 45.992187500000, 1490686473
0.853027343750, -1.711669921875, 1.832031250000, 253.992187500000, 253.992187500000, 45.992187500000, 1490686473
0.853027343750, -1.711669921875, 1.832031250000, 253.992187500000, 253.992187500000, 45.992187500000, 1490686473
0.853027343750, -1.711669921875, 1.832031250000, 253.992187500000, 253.992187500000, 45.992187500000, 1490686473
0.235351562500, -1.204833984375, 0.558593750000, -190.718750000000, 15.664062500000, 78.203125000000, 1490686474
0.235351562500, -1.204833984375, 0.558593750000, -190.718750000000, 15.664062500000, 78.203125000000, 1490686474
0.235351562500, -1.204833984375, 0.558593750000, -190.718750000000, 15.664062500000, 78.203125000000, 1490686474
-0.036621093750, -1.281250000000, 0.548339843750, 55.039062500000, 129.890625000000, -6.148437500000, 1490686474
-0.036621093750, -1.281250000000, 0.548339843750, 55.039062500000, 129.890625000000, -6.148437500000, 1490686474
-0.036621093750, -1.281250000000, 0.548339843750, 55.039062500000, 129.890625000000, -6.148437500000, 1490686474
-0.118896484375, -0.468505859375, 0.168457031250, 121.015625000000, 106.031250000000, -83.781250000000, 1490686474
-0.118896484375, -0.468505859375, 0.168457031250, 121.015625000000, 106.031250000000, -83.781250000000, 1490686474
-0.118896484375, -0.468505859375, 0.168457031250, 121.015625000000, 106.031250000000, -83.781250000000, 1490686474
-0.151611328125, -0.015869140625, 0.052246093750, -36.531250000000, -71.554687500000, 2.023437500000, 1490686474
-0.151611328125, -0.015869140625, 0.052246093750, -36.531250000000, -71.554687500000, 2.023437500000, 1490686474
-0.151611328125, -0.015869140625, 0.052246093750, -36.531250000000, -71.554687500000, 2.023437500000, 1490686474
-0.151611328125, -0.015869140625, 0.052246093750, -36.531250000000, -71.554687500000, 2.023437500000, 1490686474
0.068115234375, 0.064208984375, 0.034912109375, -58.078125000000, -132.867187500000, 109.187500000000, 1490686474
0.068115234375, 0.064208984375, 0.034912109375, -58.078125000000, -132.867187500000, 109.187500000000, 1490686474
0.068115234375, 0.064208984375, 0.034912109375, -58.078125000000, -132.867187500000, 109.187500000000, 1490686474
-0.216796875000, -1.030029296875, -0.315673828125, -196.531250000000, -256.000000000000, 64.671875000000, 1490686474
-0.216796875000, -1.030029296875, -0.315673828125, -196.531250000000, -256.000000000000, 64.671875000000, 1490686474
-0.216796875000, -1.030029296875, -0.315673828125, -196.531250000000, -256.000000000000, 64.671875000000, 1490686474
-0.112060546875, -1.649414062500, 1.211425781250, 253.992187500000, 253.992187500000, -209.703125000000, 1490686474
-0.112060546875, -1.649414062500, 1.211425781250, 253.992187500000, 253.992187500000, -209.703125000000, 1490686474
-0.112060546875, -1.649414062500, 1.211425781250, 253.992187500000, 253.992187500000, -209.703125000000, 1490686474
-0.510742187500, -1.794189453125, 0.877929687500, -99.367187500000, -256.000000000000, -58.054687500000, 1490686474
-0.510742187500, -1.794189453125, 0.877929687500, -99.367187500000, -256.000000000000, -58.054687500000, 1490686474
-0.510742187500, -1.794189453125, 0.877929687500, -99.367187500000, -256.000000000000, -58.054687500000, 1490686474
-0.510742187500, -1.794189453125, 0.877929687500, -99.367187500000, -256.000000000000, -58.054687500000, 1490686474
0.005371093750, -0.726318359375, 0.067382812500, -71.921875000000, -216.242187500000, 78.171875000000, 1490686474
0.005371093750, -0.726318359375, 0.067382812500, -71.921875000000, -216.242187500000, 78.171875000000, 1490686474
0.005371093750, -0.726318359375, 0.067382812500, -71.921875000000, -216.242187500000, 78.171875000000, 1490686474
0.167236328125, -0.364746093750, 0.195312500000, -37.726562500000, 31.843750000000, 20.562500000000, 1490686474
0.167236328125, -0.364746093750, 0.195312500000, -37.726562500000, 31.843750000000, 20.562500000000, 1490686474
0.167236328125, -0.364746093750, 0.195312500000, -37.726562500000, 31.843750000000, 20.562500000000, 1490686474
0.154541015625, -0.018798828125, 0.010253906250, 37.273437500000, -47.796875000000, -91.882812500000, 1490686474
0.154541015625, -0.018798828125, 0.010253906250, 37.273437500000, -47.796875000000, -91.882812500000, 1490686474
0.154541015625, -0.018798828125, 0.010253906250, 37.273437500000, -47.796875000000, -91.882812500000, 1490686474
0.156005859375, -0.206787109375, 0.085937500000, -122.343750000000, 54.140625000000, -87.312500000000, 1490686474
0.156005859375, -0.206787109375, 0.085937500000, -122.343750000000, 54.140625000000, -87.312500000000, 1490686474
0.156005859375, -0.206787109375, 0.085937500000, -122.343750000000, 54.140625000000, -87.312500000000, 1490686474
0.361816406250, -0.884765625000, -0.054199218750, -256.000000000000, 207.640625000000, 26.179687500000, 1490686474
0.361816406250, -0.884765625000, -0.054199218750, -256.000000000000, 207.640625000000, 26.179687500000, 1490686474
0.361816406250, -0.884765625000, -0.054199218750, -256.000000000000, 207.640625000000, 26.179687500000, 1490686474
0.361816406250, -0.884765625000, -0.054199218750, -256.000000000000, 207.640625000000, 26.179687500000, 1490686474
0.229492187500, -1.733154296875, 2.509033203125, 251.562500000000, -256.000000000000, -86.289062500000, 1490686474
0.229492187500, -1.733154296875, 2.509033203125, 251.562500000000, -256.000000000000, -86.289062500000, 1490686474
0.229492187500, -1.733154296875, 2.509033203125, 251.562500000000, -256.000000000000, -86.289062500000, 1490686474
0.354492187500, -1.362792968750, 0.698974609375, -251.890625000000, 118.437500000000, -45.187500000000, 1490686474
0.354492187500, -1.362792968750, 0.698974609375, -251.890625000000, 118.437500000000, -45.187500000000, 1490686474
0.354492187500, -1.362792968750, 0.698974609375, -251.890625000000, 118.437500000000, -45.187500000000, 1490686474
0.185791015625, -0.991455078125, 0.654785156250, 14.375000000000, -112.539062500000, -20.390625000000, 1490686474
0.185791015625, -0.991455078125, 0.654785156250, 14.375000000000, -112.539062500000, -20.390625000000, 1490686474
0.185791015625, -0.991455078125, 0.654785156250, 14.375000000000, -112.539062500000, -20.390625000000, 1490686474
0.185791015625, -0.991455078125, 0.654785156250, 14.375000000000, -112.539062500000, -20.390625000000, 1490686474
0.080566406250, -0.235839843750, 0.099853515625, 95.445312500000, 70.539062500000, -99.406250000000, 1490686474
0.080566406250, -0.235839843750, 0.099853515625, 95.445312500000, 70.539062500000, -99.406250000000, 1490686474
0.080566406250, -0.235839843750, 0.099853515625, 95.445312500000, 70.539062500000, -99.406250000000, 1490686474
0.061523437500, 0.093017578125, -0.006103515625, 92.765625000000, -19.031250000000, -101.804687500000, 1490686474
0.061523437500, 0.093017578125, -0.006103515625, 92.765625000000, -19.031250000000, -101.804687500000, 1490686474
0.061523437500, 0.093017578125, -0.006103515625, 92.765625000000, -19.031250000000, -101.804687500000, 1490686474
-0.021972656250, 0.133056640625, 0.087402343750, 26.820312500000, -132.914062500000, 69.718750000000, 1490686474
-0.021972656250, 0.133056640625, 0.087402343750, 26.820312500000, -132.914062500000, 69.718750000000, 1490686474
-0.021972656250, 0.133056640625, 0.087402343750, 26.820312500000, -132.914062500000, 69.718750000000, 1490686474
-0.466308593750, -2.763671875000, -0.977539062500, -256.000000000000, -256.000000000000, 46.148437500000, 1490686474
-0.466308593750, -2.763671875000, -0.977539062500, -256.000000000000, -256.000000000000, 46.148437500000, 1490686474
-0.466308593750, -2.763671875000, -0.977539062500, -256.000000000000, -256.000000000000, 46.148437500000, 1490686474
-0.466308593750, -2.763671875000, -0.977539062500, -256.000000000000, -256.000000000000, 46.148437500000, 1490686474
0.406982421875, -2.336425781250, 0.758056640625, 253.992187500000, 253.992187500000, -147.570312500000, 1490686474
0.406982421875, -2.336425781250, 0.758056640625, 253.992187500000, 253.992187500000, -147.570312500000, 1490686474
0.406982421875, -2.336425781250, 0.758056640625, 253.992187500000, 253.992187500000, -147.570312500000, 1490686474
-0.081787109375, -1.587158203125, 0.725830078125, -50.195312500000, -256.000000000000, 1.476562500000, 1490686475
-0.081787109375, -1.587158203125, 0.725830078125, -50.195312500000, -256.000000000000, 1.476562500000, 1490686475
-0.081787109375, -1.587158203125, 0.725830078125, -50.195312500000, -256.000000000000, 1.476562500000, 1490686475
0.116455078125, -1.105224609375, 0.284667968750, -142.195312500000, -67.070312500000, -23.656250000000, 1490686475
0.116455078125, -1.105224609375, 0.284667968750, -142.195312500000, -67.070312500000, -23.656250000000, 1490686475
0.116455078125, -1.105224609375, 0.284667968750, -142.195312500000, -67.070312500000, -23.656250000000, 1490686475
0.271240234375, -0.339111328125, -0.068359375000, -61.648437500000, -189.203125000000, -63.273437500000, 1490686475
0.271240234375, -0.339111328125, -0.068359375000, -61.648437500000, -189.203125000000, -63.273437500000, 1490686475
0.271240234375, -0.339111328125, -0.068359375000, -61.648437500000, -189.203125000000, -63.273437500000, 1490686475
0.271240234375, -0.339111328125, -0.068359375000, -61.648437500000, -189.203125000000, -63.273437500000, 1490686475
0.134765625000, -0.021484375000, 0.089599609375, -64.703125000000, -213.984375000000, -78.101562500000, 1490686475
0.134765625000, -0.021484375000, 0.089599609375, -64.703125000000, -213.984375000000, -78.101562500000, 1490686475
0.134765625000, -0.021484375000, 0.089599609375, -64.703125000000, -213.984375000000, -78.101562500000, 1490686475
0.035156250000, -0.039062500000, 0.044189453125, -62.601562500000, -108.703125000000, -59.250000000000, 1490686475
0.035156250000, -0.039062500000, 0.044189453125, -62.601562500000, -108.703125000000, -59.250000000000, 1490686475
0.035156250000, -0.039062500000, 0.044189453125, -62.601562500000, -108.703125000000, -59.250000000000, 1490686475
0.156494140625, -1.459228515625, -0.330566406250, -256.000000000000, 168.453125000000, 76.625000000000, 1490686475
0.156494140625, -1.459228515625, -0.330566406250, -256.000000000000, 168.453125000000, 76.625000000000, 1490686475
0.156494140625, -1.459228515625, -0.330566406250, -256.000000000000, 168.453125000000, 76.625000000000, 1490686475
0.793212890625, -2.916992187500, 0.561035156250, 253.992187500000, 248.593750000000, -211.882812500000, 1490686475
0.793212890625, -2.916992187500, 0.561035156250, 253.992187500000, 248.593750000000, -211.882812500000, 1490686475
0.793212890625, -2.916992187500, 0.561035156250, 253.992187500000, 248.593750000000, -211.882812500000, 1490686475
0.396240234375, -1.804199218750, 1.551513671875, 174.632812500000, 56.992187500000, -138.750000000000, 1490686475
0.631103515625, -1.341552734375, 0.720214843750, -188.320312500000, -147.289062500000, 24.234375000000, 1490686475
0.631103515625, -1.341552734375, 0.720214843750, -188.320312500000, -147.289062500000, 24.234375000000, 1490686475
0.631103515625, -1.341552734375, 0.720214843750, -188.320312500000, -147.289062500000, 24.234375000000, 1490686475
0.155517578125, -0.981689453125, 0.375244140625, -24.015625000000, 19.875000000000, -28.617187500000, 1490686475
0.155517578125, -0.981689453125, 0.375244140625, -24.015625000000, 19.875000000000, -28.617187500000, 1490686475
0.155517578125, -0.981689453125, 0.375244140625, -24.015625000000, 19.875000000000, -28.617187500000, 1490686475
0.008300781250, -0.449462890625, 0.162597656250, 76.648437500000, -26.578125000000, -65.359375000000, 1490686475
0.008300781250, -0.449462890625, 0.162597656250, 76.648437500000, -26.578125000000, -65.359375000000, 1490686475
0.008300781250, -0.449462890625, 0.162597656250, 76.648437500000, -26.578125000000, -65.359375000000, 1490686475
-0.080566406250, -0.140380859375, 0.084716796875, 41.148437500000, -130.562500000000, -21.765625000000, 1490686475
-0.080566406250, -0.140380859375, 0.084716796875, 41.148437500000, -130.562500000000, -21.765625000000, 1490686475
-0.080566406250, -0.140380859375, 0.084716796875, 41.148437500000, -130.562500000000, -21.765625000000, 1490686475
0.087646484375, 0.013183593750, -0.021728515625, -10.281250000000, -256.000000000000, -3.882812500000, 1490686475
0.087646484375, 0.013183593750, -0.021728515625, -10.281250000000, -256.000000000000, -3.882812500000, 1490686475
0.087646484375, 0.013183593750, -0.021728515625, -10.281250000000, -256.000000000000, -3.882812500000, 1490686475
0.087646484375, 0.013183593750, -0.021728515625, -10.281250000000, -256.000000000000, -3.882812500000, 1490686475
-0.249267578125, -1.169189453125, -0.481445312500, -256.000000000000, -256.000000000000, 45.000000000000, 1490686475
-0.249267578125, -1.169189453125, -0.481445312500, -256.000000000000, -256.000000000000, 45.000000000000, 1490686475
-0.249267578125, -1.169189453125, -0.481445312500, -256.000000000000, -256.000000000000, 45.000000000000, 1490686475
0.751220703125, -2.701904296875, 1.179199218750, 140.054687500000, 253.992187500000, -133.570312500000, 1490686475
0.751220703125, -2.701904296875, 1.179199218750, 140.054687500000, 253.992187500000, -133.570312500000, 1490686475
0.751220703125, -2.701904296875, 1.179199218750, 140.054687500000, 253.992187500000, -133.570312500000, 1490686475
0.344238281250, -1.979980468750, 1.344726562500, 116.078125000000, -256.000000000000, 52.601562500000, 1490686475
0.344238281250, -1.979980468750, 1.344726562500, 116.078125000000, -256.000000000000, 52.601562500000, 1490686475
0.344238281250, -1.979980468750, 1.344726562500, 116.078125000000, -256.000000000000, 52.601562500000, 1490686475
0.344238281250, -1.979980468750, 1.344726562500, 116.078125000000, -256.000000000000, 52.601562500000, 1490686475
0.249267578125, -1.312011718750, 0.467773437500, -92.554687500000, -58.945312500000, -3.242187500000, 1490686475
0.249267578125, -1.312011718750, 0.467773437500, -92.554687500000, -58.945312500000, -3.242187500000, 1490686475
0.249267578125, -1.312011718750, 0.467773437500, -92.554687500000, -58.945312500000, -3.242187500000, 1490686475
0.233398437500, -0.673583984375, 0.159423828125, -28.906250000000, -81.968750000000, 50.101562500000, 1490686475
0.233398437500, -0.673583984375, 0.159423828125, -28.906250000000, -81.968750000000, 50.101562500000, 1490686475
0.233398437500, -0.673583984375, 0.159423828125, -28.906250000000, -81.968750000000, 50.101562500000, 1490686475
-0.009765625000, -0.181884765625, 0.057617187500, -10.742187500000, -113.343750000000, -32.375000000000, 1490686475
-0.009765625000, -0.181884765625, 0.057617187500, -10.742187500000, -113.343750000000, -32.375000000000, 1490686475
-0.009765625000, -0.181884765625, 0.057617187500, -10.742187500000, -113.343750000000, -32.375000000000, 1490686475
-0.001220703125, 0.036132812500, 0.076416015625, 34.085937500000, -182.210937500000, -65.875000000000, 1490686475
-0.001220703125, 0.036132812500, 0.076416015625, 34.085937500000, -182.210937500000, -65.875000000000, 1490686475
-0.001220703125, 0.036132812500, 0.076416015625, 34.085937500000, -182.210937500000, -65.875000000000, 1490686475
-0.001220703125, 0.036132812500, 0.076416015625, 34.085937500000, -182.210937500000, -65.875000000000, 1490686475
-0.018066406250, -0.234619140625, -0.094238281250, -132.710937500000, 6.101562500000, 36.609375000000, 1490686475
-0.018066406250, -0.234619140625, -0.094238281250, -132.710937500000, 6.101562500000, 36.609375000000, 1490686475
-0.018066406250, -0.234619140625, -0.094238281250, -132.710937500000, 6.101562500000, 36.609375000000, 1490686475
1.372070312500, -2.914306640625, 2.251953125000, -256.000000000000, 126.398437500000, 122.125000000000, 1490686476
1.372070312500, -2.914306640625, 2.251953125000, -256.000000000000, 126.398437500000, 122.125000000000, 1490686476
1.372070312500, -2.914306640625, 2.251953125000, -256.000000000000, 126.398437500000, 122.125000000000, 1490686476
0.754638671875, -1.885742187500, 1.171386718750, 123.937500000000, -71.656250000000, 22.523437500000, 1490686476
0.754638671875, -1.885742187500, 1.171386718750, 123.937500000000, -71.656250000000, 22.523437500000, 1490686476
0.754638671875, -1.885742187500, 1.171386718750, 123.937500000000, -71.656250000000, 22.523437500000, 1490686476
0.151611328125, -1.387207031250, 0.771484375000, -51.562500000000, -3.851562500000, 13.585937500000, 1490686476
0.151611328125, -1.387207031250, 0.771484375000, -51.562500000000, -3.851562500000, 13.585937500000, 1490686476
0.151611328125, -1.387207031250, 0.771484375000, -51.562500000000, -3.851562500000, 13.585937500000, 1490686476
-0.015625000000, -1.098632812500, 0.360839843750, -75.695312500000, -12.421875000000, 15.609375000000, 1490686476
-0.015625000000, -1.098632812500, 0.360839843750, -75.695312500000, -12.421875000000, 15.609375000000, 1490686476
-0.053466796875, -0.306396484375, 0.126220703125, 51.617187500000, -74.929687500000, -71.593750000000, 1490686476
-0.053466796875, -0.306396484375, 0.126220703125, 51.617187500000, -74.929687500000, -71.593750000000, 1490686476
-0.053466796875, -0.306396484375, 0.126220703125, 51.617187500000, -74.929687500000, -71.593750000000, 1490686476
-0.053466796875, -0.306396484375, 0.126220703125, 51.617187500000, -74.929687500000, -71.593750000000, 1490686476
-0.053466796875, -0.306396484375, 0.126220703125, 51.617187500000, -74.929687500000, -71.593750000000, 1490686476
-0.072509765625, -0.026367187500, -0.014404296875, -43.554687500000, -231.632812500000, -99.984375000000, 1490686476
-0.072509765625, -0.026367187500, -0.014404296875, -43.554687500000, -231.632812500000, -99.984375000000, 1490686476
-0.072509765625, -0.026367187500, -0.014404296875, -43.554687500000, -231.632812500000, -99.984375000000, 1490686476
-0.276611328125, -0.670654296875, -0.025634765625, -9.289062500000, -256.000000000000, 75.109375000000, 1490686476
-0.276611328125, -0.670654296875, -0.025634765625, -9.289062500000, -256.000000000000, 75.109375000000, 1490686476
-0.276611328125, -0.670654296875, -0.025634765625, -9.289062500000, -256.000000000000, 75.109375000000, 1490686476
-0.276611328125, -0.670654296875, -0.025634765625, -9.289062500000, -256.000000000000, 75.109375000000, 1490686476
1.156982421875, -2.621826171875, 1.404052734375, 23.867187500000, 253.992187500000, -203.945312500000, 1490686476
1.156982421875, -2.621826171875, 1.404052734375, 23.867187500000, 253.992187500000, -203.945312500000, 1490686476
1.156982421875, -2.621826171875, 1.404052734375, 23.867187500000, 253.992187500000, -203.945312500000, 1490686476
0.644042968750, -1.759521484375, 1.010742187500, -5.593750000000, 155.546875000000, -6.023437500000, 1490686476
0.644042968750, -1.759521484375, 1.010742187500, -5.593750000000, 155.546875000000, -6.023437500000, 1490686476
0.644042968750, -1.759521484375, 1.010742187500, -5.593750000000, 155.546875000000, -6.023437500000, 1490686476
0.444335937500, -1.292968750000, 0.924804687500, -23.031250000000, -152.703125000000, 69.226562500000, 1490686476
0.444335937500, -1.292968750000, 0.924804687500, -23.031250000000, -152.703125000000, 69.226562500000, 1490686476
0.444335937500, -1.292968750000, 0.924804687500, -23.031250000000, -152.703125000000, 69.226562500000, 1490686476
0.055908203125, -0.469970703125, -0.044433593750, -119.289062500000, -197.062500000000, 39.820312500000, 1490686476
0.055908203125, -0.469970703125, -0.044433593750, -119.289062500000, -197.062500000000, 39.820312500000, 1490686476
0.055908203125, -0.469970703125, -0.044433593750, -119.289062500000, -197.062500000000, 39.820312500000, 1490686476
0.011474609375, 0.221679687500, 0.251708984375, 36.125000000000, -256.000000000000, -180.468750000000, 1490686476
0.011474609375, 0.221679687500, 0.251708984375, 36.125000000000, -256.000000000000, -180.468750000000, 1490686476
0.011474609375, 0.221679687500, 0.251708984375, 36.125000000000, -256.000000000000, -180.468750000000, 1490686476
0.011474609375, 0.221679687500, 0.251708984375, 36.125000000000, -256.000000000000, -180.468750000000, 1490686476
0.202148437500, 0.088378906250, 0.116210937500, 7.585937500000, -187.976562500000, -19.187500000000, 1490686476
0.202148437500, 0.088378906250, 0.116210937500, 7.585937500000, -187.976562500000, -19.187500000000, 1490686476
0.202148437500, 0.088378906250, 0.116210937500, 7.585937500000, -187.976562500000, -19.187500000000, 1490686476
-0.018310546875, -0.143798828125, -0.084228515625, -256.000000000000, 64.750000000000, 11.835937500000, 1490686476
-0.018310546875, -0.143798828125, -0.084228515625, -256.000000000000, 64.750000000000, 11.835937500000, 1490686476
-0.018310546875, -0.143798828125, -0.084228515625, -256.000000000000, 64.750000000000, 11.835937500000, 1490686476
2.179931640625, -1.389648437500, 0.710693359375, 253.992187500000, -30.359375000000, -13.375000000000, 1490686476
2.179931640625, -1.389648437500, 0.710693359375, 253.992187500000, -30.359375000000, -13.375000000000, 1490686476
2.179931640625, -1.389648437500, 0.710693359375, 253.992187500000, -30.359375000000, -13.375000000000, 1490686476
2.179931640625, -1.389648437500, 0.710693359375, 253.992187500000, -30.359375000000, -13.375000000000, 1490686476
2.377197265625, -1.364746093750, 1.668457031250, 253.992187500000, -135.195312500000, -256.000000000000, 1490686476
0.229248046875, -0.748535156250, 0.051269531250, -128.273437500000, -14.031250000000, 73.648437500000, 1490686476
0.229248046875, -0.748535156250, 0.051269531250, -128.273437500000, -14.031250000000, 73.648437500000, 1490686476
0.229248046875, -0.748535156250, 0.051269531250, -128.273437500000, -14.031250000000, 73.648437500000, 1490686476
0.229248046875, -0.748535156250, 0.051269531250, -128.273437500000, -14.031250000000, 73.648437500000, 1490686476
0.229248046875, -0.748535156250, 0.051269531250, -128.273437500000, -14.031250000000, 73.648437500000, 1490686476
0.055419921875, -0.515625000000, 0.066650390625, 119.367187500000, 71.078125000000, 2.343750000000, 1490686476
0.055419921875, -0.515625000000, 0.066650390625, 119.367187500000, 71.078125000000, 2.343750000000, 1490686476
0.055419921875, -0.515625000000, 0.066650390625, 119.367187500000, 71.078125000000, 2.343750000000, 1490686476
-0.070068359375, -0.047363281250, -0.075195312500, 123.382812500000, 62.195312500000, -59.031250000000, 1490686476
-0.070068359375, -0.047363281250, -0.075195312500, 123.382812500000, 62.195312500000, -59.031250000000, 1490686476
-0.070068359375, -0.047363281250, -0.075195312500, 123.382812500000, 62.195312500000, -59.031250000000, 1490686476
-0.070068359375, -0.047363281250, -0.075195312500, 86.789062500000, -8.875000000000, -95.148437500000, 1490686476
-0.161621093750, 0.218261718750, -0.076171875000, -12.296875000000, -119.398437500000, 53.890625000000, 1490686476
-0.161621093750, 0.218261718750, -0.076171875000, -12.296875000000, -119.398437500000, 53.890625000000, 1490686476
-0.161621093750, 0.218261718750, -0.076171875000, -12.296875000000, -119.398437500000, 53.890625000000, 1490686476
