ACC_X,ACC_Y,ACC_Z,G_X,G_Y,G_Z,Unix Time
0.219970703125, -0.948486328125, 0.540771484375, -30.093750000000, -65.125000000000, -34.062500000000, 1490687160
0.219970703125, -0.948486328125, 0.540771484375, -30.093750000000, -65.125000000000, -34.062500000000, 1490687160
0.219970703125, -0.948486328125, 0.540771484375, -30.093750000000, -65.125000000000, -34.062500000000, 1490687160
0.202392578125, -0.602050781250, 0.392822265625, -15.375000000000, -37.906250000000, -16.804687500000, 1490687160
0.202392578125, -0.602050781250, 0.392822265625, -15.375000000000, -37.906250000000, -16.804687500000, 1490687160
0.202392578125, -0.602050781250, 0.392822265625, -15.375000000000, -37.906250000000, -16.804687500000, 1490687160
0.261474609375, -0.691894531250, 0.387451171875, 17.828125000000, -27.078125000000, -8.585937500000, 1490687160
0.261474609375, -0.691894531250, 0.387451171875, 17.828125000000, -27.078125000000, -8.585937500000, 1490687160
0.261474609375, -0.691894531250, 0.387451171875, 17.828125000000, -27.078125000000, -8.585937500000, 1490687160
0.110351562500, -0.878906250000, 0.710937500000, -60.156250000000, -15.179687500000, 6.078125000000, 1490687160
0.110351562500, -0.878906250000, 0.710937500000, -60.156250000000, -15.179687500000, 6.078125000000, 1490687160
0.110351562500, -0.878906250000, 0.710937500000, -60.156250000000, -15.179687500000, 6.078125000000, 1490687160
0.110351562500, -0.878906250000, 0.710937500000, -60.156250000000, -15.179687500000, 6.078125000000, 1490687160
0.166259765625, -0.866943359375, 0.401367187500, 22.445312500000, -1.484375000000, 2.882812500000, 1490687160
0.166259765625, -0.866943359375, 0.401367187500, 22.445312500000, -1.484375000000, 2.882812500000, 1490687160
0.166259765625, -0.866943359375, 0.401367187500, 22.445312500000, -1.484375000000, 2.882812500000, 1490687160
0.092041015625, -0.978515625000, 0.750244140625, 49.953125000000, 28.078125000000, -2.953125000000, 1490687160
0.092041015625, -0.978515625000, 0.750244140625, 49.953125000000, 28.078125000000, -2.953125000000, 1490687160
0.092041015625, -0.978515625000, 0.750244140625, 49.953125000000, 28.078125000000, -2.953125000000, 1490687160
0.043701171875, -0.870361328125, 0.692871093750, -29.609375000000, 18.351562500000, -4.296875000000, 1490687160
0.043701171875, -0.870361328125, 0.692871093750, -29.609375000000, 18.351562500000, -4.296875000000, 1490687160
0.043701171875, -0.870361328125, 0.692871093750, -29.609375000000, 18.351562500000, -4.296875000000, 1490687160
0.039306640625, -0.823974609375, 0.522949218750, 24.000000000000, 10.140625000000, 6.914062500000, 1490687160
0.039306640625, -0.823974609375, 0.522949218750, 24.000000000000, 10.140625000000, 6.914062500000, 1490687160
0.039306640625, -0.823974609375, 0.522949218750, 24.000000000000, 10.140625000000, 6.914062500000, 1490687160
0.039306640625, -0.823974609375, 0.522949218750, 24.000000000000, 10.140625000000, 6.914062500000, 1490687160
0.152587890625, -0.747070312500, 0.507080078125, 3.000000000000, -6.070312500000, -8.007812500000, 1490687160
0.152587890625, -0.747070312500, 0.507080078125, 3.000000000000, -6.070312500000, -8.007812500000, 1490687160
0.152587890625, -0.747070312500, 0.507080078125, 3.000000000000, -6.070312500000, -8.007812500000, 1490687160
0.105957031250, -0.785644531250, 0.518554687500, -38.929687500000, -8.132812500000, 2.328125000000, 1490687160
0.105957031250, -0.785644531250, 0.518554687500, -38.929687500000, -8.132812500000, 2.328125000000, 1490687160
0.105957031250, -0.785644531250, 0.518554687500, -38.929687500000, -8.132812500000, 2.328125000000, 1490687160
0.182617187500, -0.824218750000, 0.572265625000, 12.195312500000, 28.117187500000, 9.648437500000, 1490687160
0.182617187500, -0.824218750000, 0.572265625000, 12.195312500000, 28.117187500000, 9.648437500000, 1490687160
0.182617187500, -0.824218750000, 0.572265625000, 12.195312500000, 28.117187500000, 9.648437500000, 1490687160
0.182617187500, -0.824218750000, 0.572265625000, 12.195312500000, 28.117187500000, 9.648437500000, 1490687160
0.182617187500, -0.824218750000, 0.572265625000, 12.195312500000, 28.117187500000, 9.648437500000, 1490687160
0.182617187500, -0.824218750000, 0.572265625000, 12.195312500000, 28.117187500000, 9.648437500000, 1490687160
0.241699218750, -0.839843750000, 0.488037109375, 24.492187500000, 7.125000000000, 7.078125000000, 1490687160
0.241699218750, -0.839843750000, 0.488037109375, 24.492187500000, 7.125000000000, 7.078125000000, 1490687160
0.241699218750, -0.839843750000, 0.488037109375, 24.492187500000, 7.125000000000, 7.078125000000, 1490687160
0.175537109375, -0.733154296875, 0.553710937500, -15.687500000000, 27.007812500000, 16.500000000000, 1490687160
0.175537109375, -0.733154296875, 0.553710937500, -15.687500000000, 27.007812500000, 16.500000000000, 1490687160
0.175537109375, -0.733154296875, 0.553710937500, -15.687500000000, 27.007812500000, 16.500000000000, 1490687160
0.175537109375, -0.733154296875, 0.553710937500, -15.687500000000, 27.007812500000, 16.500000000000, 1490687160
-0.054443359375, -0.991943359375, 0.558349609375, -26.117187500000, 20.367187500000, 0.578125000000, 1490687160
-0.054443359375, -0.991943359375, 0.558349609375, -26.117187500000, 20.367187500000, 0.578125000000, 1490687160
-0.054443359375, -0.991943359375, 0.558349609375, -26.117187500000, 20.367187500000, 0.578125000000, 1490687160
0.168701171875, -0.877929687500, 0.491699218750, 15.992187500000, -19.750000000000, -23.898437500000, 1490687160
0.168701171875, -0.877929687500, 0.491699218750, 15.992187500000, -19.750000000000, -23.898437500000, 1490687160
0.168701171875, -0.877929687500, 0.491699218750, 15.992187500000, -19.750000000000, -23.898437500000, 1490687160
0.168701171875, -0.877929687500, 0.491699218750, 15.992187500000, -19.750000000000, -23.898437500000, 1490687160
0.180175781250, -0.782226562500, 0.565917968750, 17.359375000000, -32.453125000000, -29.585937500000, 1490687160
0.180175781250, -0.782226562500, 0.565917968750, 17.359375000000, -32.453125000000, -29.585937500000, 1490687160
0.180175781250, -0.782226562500, 0.565917968750, 17.359375000000, -32.453125000000, -29.585937500000, 1490687160
0.123535156250, -0.777587890625, 0.484130859375, -22.500000000000, -28.281250000000, -23.460937500000, 1490687160
0.123535156250, -0.777587890625, 0.484130859375, -22.500000000000, -28.281250000000, -23.460937500000, 1490687160
0.123535156250, -0.777587890625, 0.484130859375, -22.500000000000, -28.281250000000, -23.460937500000, 1490687160
0.079345703125, -0.923583984375, 0.534667968750, -21.437500000000, -29.960937500000, -29.429687500000, 1490687160
0.079345703125, -0.923583984375, 0.534667968750, -21.437500000000, -29.960937500000, -29.429687500000, 1490687160
0.079345703125, -0.923583984375, 0.534667968750, -21.437500000000, -29.960937500000, -29.429687500000, 1490687161
0.161132812500, -0.889892578125, 0.495117187500, -16.312500000000, -72.656250000000, -38.070312500000, 1490687161
0.161132812500, -0.889892578125, 0.495117187500, -16.312500000000, -72.656250000000, -38.070312500000, 1490687161
0.161132812500, -0.889892578125, 0.495117187500, -16.312500000000, -72.656250000000, -38.070312500000, 1490687161
0.161132812500, -0.889892578125, 0.495117187500, -16.312500000000, -72.656250000000, -38.070312500000, 1490687161
0.205566406250, -0.738037109375, 0.497558593750, 7.289062500000, -73.851562500000, -36.703125000000, 1490687161
0.205566406250, -0.738037109375, 0.497558593750, 7.289062500000, -73.851562500000, -36.703125000000, 1490687161
0.205566406250, -0.738037109375, 0.497558593750, 7.289062500000, -73.851562500000, -36.703125000000, 1490687161
-0.036132812500, -0.999511718750, 0.770019531250, -23.507812500000, -30.757812500000, -24.976562500000, 1490687161
-0.036132812500, -0.999511718750, 0.770019531250, -23.507812500000, -30.757812500000, -24.976562500000, 1490687161
-0.036132812500, -0.999511718750, 0.770019531250, -23.507812500000, -30.757812500000, -24.976562500000, 1490687161
-0.056884765625, -0.743408203125, 0.395019531250, 28.445312500000, -44.085937500000, -27.820312500000, 1490687161
-0.056884765625, -0.743408203125, 0.395019531250, 28.445312500000, -44.085937500000, -27.820312500000, 1490687161
-0.056884765625, -0.743408203125, 0.395019531250, 28.445312500000, -44.085937500000, -27.820312500000, 1490687161
-0.148925781250, -0.742187500000, 0.778564453125, 29.109375000000, -32.039062500000, -15.890625000000, 1490687161
-0.148925781250, -0.742187500000, 0.778564453125, 29.109375000000, -32.039062500000, -15.890625000000, 1490687161
-0.148925781250, -0.742187500000, 0.778564453125, 29.109375000000, -32.039062500000, -15.890625000000, 1490687161
-0.148925781250, -0.742187500000, 0.778564453125, 29.109375000000, -32.039062500000, -15.890625000000, 1490687161
0.005126953125, -0.801513671875, 0.555664062500, -2.695312500000, -37.406250000000, -16.148437500000, 1490687161
0.005126953125, -0.801513671875, 0.555664062500, -2.695312500000, -37.406250000000, -16.148437500000, 1490687161
0.005126953125, -0.801513671875, 0.555664062500, -2.695312500000, -37.406250000000, -16.148437500000, 1490687161
-0.039062500000, -0.752197265625, 0.652343750000, -1.843750000000, -57.937500000000, -13.398437500000, 1490687161
-0.039062500000, -0.752197265625, 0.652343750000, -1.843750000000, -57.937500000000, -13.398437500000, 1490687161
-0.039062500000, -0.752197265625, 0.652343750000, -1.843750000000, -57.937500000000, -13.398437500000, 1490687161
0.153808593750, -0.684570312500, 0.633300781250, -10.406250000000, -28.414062500000, -15.375000000000, 1490687161
0.153808593750, -0.684570312500, 0.633300781250, -10.406250000000, -28.414062500000, -15.375000000000, 1490687161
0.153808593750, -0.684570312500, 0.633300781250, -10.406250000000, -28.414062500000, -15.375000000000, 1490687161
-0.131347656250, -0.887451171875, 0.616455078125, -6.718750000000, -16.718750000000, -10.023437500000, 1490687161
-0.131347656250, -0.887451171875, 0.616455078125, -6.718750000000, -16.718750000000, -10.023437500000, 1490687161
-0.131347656250, -0.887451171875, 0.616455078125, -6.718750000000, -16.718750000000, -10.023437500000, 1490687161
-0.131347656250, -0.887451171875, 0.616455078125, -6.718750000000, -16.718750000000, -10.023437500000, 1490687161
-0.147949218750, -0.866943359375, 0.698974609375, -11.085937500000, -24.031250000000, -14.093750000000, 1490687161
-0.147949218750, -0.866943359375, 0.698974609375, -11.085937500000, -24.031250000000, -14.093750000000, 1490687161
-0.147949218750, -0.866943359375, 0.698974609375, -11.085937500000, -24.031250000000, -14.093750000000, 1490687161
-0.008300781250, -0.893310546875, 0.546386718750, -9.476562500000, -33.679687500000, -15.148437500000, 1490687161
-0.008300781250, -0.893310546875, 0.546386718750, -9.476562500000, -33.679687500000, -15.148437500000, 1490687161
-0.008300781250, -0.893310546875, 0.546386718750, -9.476562500000, -33.679687500000, -15.148437500000, 1490687161
0.124267578125, -0.913818359375, 0.598876953125, -42.820312500000, -13.492187500000, 1.210937500000, 1490687161
0.124267578125, -0.913818359375, 0.598876953125, -42.820312500000, -13.492187500000, 1.210937500000, 1490687161
0.124267578125, -0.913818359375, 0.598876953125, -42.820312500000, -13.492187500000, 1.210937500000, 1490687161
0.198242187500, -0.969238281250, 0.573486328125, -12.906250000000, 2.250000000000, -14.976562500000, 1490687161
0.198242187500, -0.969238281250, 0.573486328125, -12.906250000000, 2.250000000000, -14.976562500000, 1490687161
0.198242187500, -0.969238281250, 0.573486328125, -12.906250000000, 2.250000000000, -14.976562500000, 1490687161
0.198242187500, -0.969238281250, 0.573486328125, -12.906250000000, 2.250000000000, -14.976562500000, 1490687161
0.146972656250, -0.828613281250, 0.456054687500, 11.492187500000, 20.039062500000, -14.281250000000, 1490687161
0.146972656250, -0.828613281250, 0.456054687500, 11.492187500000, 20.039062500000, -14.281250000000, 1490687161
0.146972656250, -0.828613281250, 0.456054687500, 11.492187500000, 20.039062500000, -14.281250000000, 1490687161
0.130371093750, -0.863769531250, 0.486328125000, 3.546875000000, 28.070312500000, 2.593750000000, 1490687161
0.130371093750, -0.863769531250, 0.486328125000, 3.546875000000, 28.070312500000, 2.593750000000, 1490687161
0.130371093750, -0.863769531250, 0.486328125000, 3.546875000000, 28.070312500000, 2.593750000000, 1490687161
0.207763671875, -0.973876953125, 0.713378906250, -42.507812500000, 4.476562500000, -3.328125000000, 1490687161
0.207763671875, -0.973876953125, 0.713378906250, -42.507812500000, 4.476562500000, -3.328125000000, 1490687161
0.207763671875, -0.973876953125, 0.713378906250, -42.507812500000, 4.476562500000, -3.328125000000, 1490687161
0.050537109375, -0.785400390625, 0.517333984375, 35.031250000000, 6.101562500000, -16.656250000000, 1490687161
0.050537109375, -0.785400390625, 0.517333984375, 35.031250000000, 6.101562500000, -16.656250000000, 1490687161
0.050537109375, -0.785400390625, 0.517333984375, 35.031250000000, 6.101562500000, -16.656250000000, 1490687161
0.050537109375, -0.785400390625, 0.517333984375, 35.031250000000, 6.101562500000, -16.656250000000, 1490687161
0.071777343750, -0.653808593750, 0.539306640625, 11.117187500000, -5.109375000000, -12.164062500000, 1490687161
0.071777343750, -0.653808593750, 0.539306640625, 11.117187500000, -5.109375000000, -12.164062500000, 1490687161
0.071777343750, -0.653808593750, 0.539306640625, 11.117187500000, -5.109375000000, -12.164062500000, 1490687161
0.037353515625, -0.687744140625, 0.522460937500, -22.578125000000, -5.632812500000, -8.906250000000, 1490687161
0.037353515625, -0.687744140625, 0.522460937500, -22.578125000000, -5.632812500000, -8.906250000000, 1490687161
0.037353515625, -0.687744140625, 0.522460937500, -22.578125000000, -5.632812500000, -8.906250000000, 1490687161
0.204589843750, -0.732177734375, 0.594726562500, -21.671875000000, -24.320312500000, -5.796875000000, 1490687161
0.204589843750, -0.732177734375, 0.594726562500, -21.671875000000, -24.320312500000, -5.796875000000, 1490687161
0.204589843750, -0.732177734375, 0.594726562500, -21.671875000000, -24.320312500000, -5.796875000000, 1490687161
0.200683593750, -0.799560546875, 0.535644531250, -14.531250000000, -26.148437500000, -11.968750000000, 1490687162
0.200683593750, -0.799560546875, 0.535644531250, -14.531250000000, -26.148437500000, -11.968750000000, 1490687162
0.200683593750, -0.799560546875, 0.535644531250, -14.531250000000, -26.148437500000, -11.968750000000, 1490687162
0.200683593750, -0.799560546875, 0.535644531250, -14.531250000000, -26.148437500000, -11.968750000000, 1490687162
0.246582031250, -0.853515625000, 0.699218750000, -7.828125000000, -26.468750000000, -20.093750000000, 1490687162
0.246582031250, -0.853515625000, 0.699218750000, -7.828125000000, -26.468750000000, -20.093750000000, 1490687162
0.246582031250, -0.853515625000, 0.699218750000, -7.828125000000, -26.468750000000, -20.093750000000, 1490687162
0.266113281250, -1.005371093750, 0.728759765625, -20.562500000000, -5.148437500000, -8.671875000000, 1490687162
0.266113281250, -1.005371093750, 0.728759765625, -20.562500000000, -5.148437500000, -8.671875000000, 1490687162
0.266113281250, -1.005371093750, 0.728759765625, -20.562500000000, -5.148437500000, -8.671875000000, 1490687162
0.097900390625, -0.907958984375, 0.755859375000, -23.898437500000, -1.218750000000, -5.335937500000, 1490687162
0.097900390625, -0.907958984375, 0.755859375000, -23.898437500000, -1.218750000000, -5.335937500000, 1490687162
0.097900390625, -0.907958984375, 0.755859375000, -23.898437500000, -1.218750000000, -5.335937500000, 1490687162
0.055419921875, -0.622314453125, 0.400878906250, -9.125000000000, -0.570312500000, -1.062500000000, 1490687162
0.055419921875, -0.622314453125, 0.400878906250, -9.125000000000, -0.570312500000, -1.062500000000, 1490687162
0.055419921875, -0.622314453125, 0.400878906250, -9.125000000000, -0.570312500000, -1.062500000000, 1490687162
0.055419921875, -0.622314453125, 0.400878906250, -9.125000000000, -0.570312500000, -1.062500000000, 1490687162
0.021484375000, -0.594726562500, 0.213134765625, -0.007812500000, -84.171875000000, -7.078125000000, 1490687162
0.021484375000, -0.594726562500, 0.213134765625, -0.007812500000, -84.171875000000, -7.078125000000, 1490687162
0.021484375000, -0.594726562500, 0.213134765625, -0.007812500000, -84.171875000000, -7.078125000000, 1490687162
-0.123291015625, -0.724609375000, 0.591796875000, -17.273437500000, -23.539062500000, -28.539062500000, 1490687162
-0.123291015625, -0.724609375000, 0.591796875000, -17.273437500000, -23.539062500000, -28.539062500000, 1490687162
-0.123291015625, -0.724609375000, 0.591796875000, -17.273437500000, -23.539062500000, -28.539062500000, 1490687162
0.119628906250, -1.052978515625, 0.554931640625, -21.953125000000, -15.687500000000, -26.257812500000, 1490687162
0.119628906250, -1.052978515625, 0.554931640625, -21.953125000000, -15.687500000000, -26.257812500000, 1490687162
0.119628906250, -1.052978515625, 0.554931640625, -21.953125000000, -15.687500000000, -26.257812500000, 1490687162
0.115478515625, -0.865234375000, 0.536865234375, 93.859375000000, -24.171875000000, -28.171875000000, 1490687162
0.115478515625, -0.865234375000, 0.536865234375, 93.859375000000, -24.171875000000, -28.171875000000, 1490687162
0.115478515625, -0.865234375000, 0.536865234375, 93.859375000000, -24.171875000000, -28.171875000000, 1490687162
0.051757812500, -0.621826171875, 0.614746093750, -16.562500000000, -10.835937500000, -16.984375000000, 1490687162
0.051757812500, -0.621826171875, 0.614746093750, -16.562500000000, -10.835937500000, -16.984375000000, 1490687162
0.051757812500, -0.621826171875, 0.614746093750, -16.562500000000, -10.835937500000, -16.984375000000, 1490687162
0.051757812500, -0.621826171875, 0.614746093750, -16.562500000000, -10.835937500000, -16.984375000000, 1490687162
0.062011718750, -0.772949218750, 0.362060546875, -22.046875000000, -18.164062500000, -10.539062500000, 1490687162
0.062011718750, -0.772949218750, 0.362060546875, -22.046875000000, -18.164062500000, -10.539062500000, 1490687162
0.062011718750, -0.772949218750, 0.362060546875, -22.046875000000, -18.164062500000, -10.539062500000, 1490687162
0.072753906250, -0.781738281250, 0.549560546875, 8.718750000000, -8.554687500000, -3.796875000000, 1490687162
0.072753906250, -0.781738281250, 0.549560546875, 8.718750000000, -8.554687500000, -3.796875000000, 1490687162
0.072753906250, -0.781738281250, 0.549560546875, 8.718750000000, -8.554687500000, -3.796875000000, 1490687162
0.054687500000, -0.905273437500, 0.612792968750, -13.695312500000, 6.546875000000, -9.703125000000, 1490687162
0.054687500000, -0.905273437500, 0.612792968750, -13.695312500000, 6.546875000000, -9.703125000000, 1490687162
0.054687500000, -0.905273437500, 0.612792968750, -13.695312500000, 6.546875000000, -9.703125000000, 1490687162
0.054687500000, -0.905273437500, 0.612792968750, -13.695312500000, 6.546875000000, -9.703125000000, 1490687162
-0.015625000000, -0.858154296875, 0.675048828125, -21.234375000000, 13.367187500000, 1.820312500000, 1490687162
-0.015625000000, -0.858154296875, 0.675048828125, -21.234375000000, 13.367187500000, 1.820312500000, 1490687162
-0.015625000000, -0.858154296875, 0.675048828125, -21.234375000000, 13.367187500000, 1.820312500000, 1490687162
0.075683593750, -0.938964843750, 0.698486328125, -9.429687500000, 20.695312500000, 3.960937500000, 1490687162
0.075683593750, -0.938964843750, 0.698486328125, -9.429687500000, 20.695312500000, 3.960937500000, 1490687162
0.075683593750, -0.938964843750, 0.698486328125, -9.429687500000, 20.695312500000, 3.960937500000, 1490687162
0.084228515625, -0.705566406250, 0.252441406250, 11.046875000000, 3.757812500000, 2.789062500000, 1490687162
0.084228515625, -0.705566406250, 0.252441406250, 11.046875000000, 3.757812500000, 2.789062500000, 1490687162
0.084228515625, -0.705566406250, 0.252441406250, 11.046875000000, 3.757812500000, 2.789062500000, 1490687162
0.277343750000, -0.583984375000, 0.235107421875, 5.414062500000, 16.484375000000, 2.617187500000, 1490687162
0.277343750000, -0.583984375000, 0.235107421875, 5.414062500000, 16.484375000000, 2.617187500000, 1490687162
0.277343750000, -0.583984375000, 0.235107421875, 5.414062500000, 16.484375000000, 2.617187500000, 1490687162
0.277343750000, -0.583984375000, 0.235107421875, 5.414062500000, 16.484375000000, 2.617187500000, 1490687162
0.112792968750, -0.779541015625, 0.488281250000, -52.875000000000, 46.679687500000, 23.648437500000, 1490687162
0.112792968750, -0.779541015625, 0.488281250000, -52.875000000000, 46.679687500000, 23.648437500000, 1490687162
0.112792968750, -0.779541015625, 0.488281250000, -52.875000000000, 46.679687500000, 23.648437500000, 1490687162
0.112792968750, -0.779541015625, 0.488281250000, -52.875000000000, 46.679687500000, 23.648437500000, 1490687162
0.112792968750, -0.779541015625, 0.488281250000, -52.875000000000, 46.679687500000, 23.648437500000, 1490687162
-0.059326171875, -0.913818359375, 0.590332031250, 7.984375000000, 68.625000000000, 9.093750000000, 1490687162
-0.059326171875, -0.913818359375, 0.590332031250, 7.984375000000, 68.625000000000, 9.093750000000, 1490687162
-0.059326171875, -0.913818359375, 0.590332031250, 7.984375000000, 68.625000000000, 9.093750000000, 1490687162
0.044189453125, -0.806152343750, 0.654541015625, 74.117187500000, -7.132812500000, -6.085937500000, 1490687162
0.044189453125, -0.806152343750, 0.654541015625, 74.117187500000, -7.132812500000, -6.085937500000, 1490687162
0.044189453125, -0.806152343750, 0.654541015625, 74.117187500000, -7.132812500000, -6.085937500000, 1490687163
0.044189453125, -0.806152343750, 0.654541015625, 74.117187500000, -7.132812500000, -6.085937500000, 1490687163
0.044189453125, -0.806152343750, 0.654541015625, 74.117187500000, -7.132812500000, -6.085937500000, 1490687163
0.128417968750, -0.691650390625, 0.701660156250, -14.648437500000, 17.914062500000, -9.859375000000, 1490687163
0.128417968750, -0.691650390625, 0.701660156250, -14.648437500000, 17.914062500000, -9.859375000000, 1490687163
0.128417968750, -0.691650390625, 0.701660156250, -14.648437500000, 17.914062500000, -9.859375000000, 1490687163
-0.017333984375, -0.710449218750, 0.504394531250, -36.812500000000, 3.398437500000, -9.054687500000, 1490687163
-0.017333984375, -0.710449218750, 0.504394531250, -36.812500000000, 3.398437500000, -9.054687500000, 1490687163
-0.017333984375, -0.710449218750, 0.504394531250, -36.812500000000, 3.398437500000, -9.054687500000, 1490687163
0.092285156250, -0.761474609375, 0.493896484375, 12.546875000000, -16.265625000000, -12.570312500000, 1490687163
0.092285156250, -0.761474609375, 0.493896484375, 12.546875000000, -16.265625000000, -12.570312500000, 1490687163
0.092285156250, -0.761474609375, 0.493896484375, 12.546875000000, -16.265625000000, -12.570312500000, 1490687163
0.154541015625, -0.846923828125, 0.697265625000, -8.953125000000, -20.109375000000, -11.125000000000, 1490687163
0.154541015625, -0.846923828125, 0.697265625000, -8.953125000000, -20.109375000000, -11.125000000000, 1490687163
0.154541015625, -0.846923828125, 0.697265625000, -8.953125000000, -20.109375000000, -11.125000000000, 1490687163
0.154541015625, -0.846923828125, 0.697265625000, -8.953125000000, -20.109375000000, -11.125000000000, 1490687163
0.189208984375, -0.884277343750, 0.666015625000, -18.976562500000, -28.304687500000, -10.890625000000, 1490687163
0.189208984375, -0.884277343750, 0.666015625000, -18.976562500000, -28.304687500000, -10.890625000000, 1490687163
0.189208984375, -0.884277343750, 0.666015625000, -18.976562500000, -28.304687500000, -10.890625000000, 1490687163
-0.003662109375, -1.047851562500, 0.726806640625, -24.773437500000, -23.601562500000, -7.757812500000, 1490687163
-0.003662109375, -1.047851562500, 0.726806640625, -24.773437500000, -23.601562500000, -7.757812500000, 1490687163
-0.003662109375, -1.047851562500, 0.726806640625, -24.773437500000, -23.601562500000, -7.757812500000, 1490687163
0.044677734375, -1.151123046875, 0.818603515625, -53.093750000000, -26.125000000000, -11.695312500000, 1490687163
0.044677734375, -1.151123046875, 0.818603515625, -53.093750000000, -26.125000000000, -11.695312500000, 1490687163
0.044677734375, -1.151123046875, 0.818603515625, -53.093750000000, -26.125000000000, -11.695312500000, 1490687163
-0.029541015625, -0.662353515625, 0.342773437500, -0.531250000000, -72.507812500000, -17.296875000000, 1490687163
-0.029541015625, -0.662353515625, 0.342773437500, -0.531250000000, -72.507812500000, -17.296875000000, 1490687163
-0.160400390625, -0.620605468750, 0.407226562500, 10.265625000000, -53.109375000000, -28.265625000000, 1490687163
-0.160400390625, -0.620605468750, 0.407226562500, 10.265625000000, -53.109375000000, -28.265625000000, 1490687163
-0.160400390625, -0.620605468750, 0.407226562500, 10.265625000000, -53.109375000000, -28.265625000000, 1490687163
0.210693359375, -0.875976562500, 0.603515625000, -23.257812500000, -50.062500000000, -32.601562500000, 1490687163
0.210693359375, -0.875976562500, 0.603515625000, -23.257812500000, -50.062500000000, -32.601562500000, 1490687163
0.210693359375, -0.875976562500, 0.603515625000, -23.257812500000, -50.062500000000, -32.601562500000, 1490687163
0.210693359375, -0.875976562500, 0.603515625000, -23.257812500000, -50.062500000000, -32.601562500000, 1490687163
0.210693359375, -0.875976562500, 0.603515625000, -23.257812500000, -50.062500000000, -32.601562500000, 1490687163
0.200195312500, -0.885986328125, 0.442626953125, 6.531250000000, -16.703125000000, -12.250000000000, 1490687163
0.200195312500, -0.885986328125, 0.442626953125, 6.531250000000, -16.703125000000, -12.250000000000, 1490687163
0.200195312500, -0.885986328125, 0.442626953125, 6.531250000000, -16.703125000000, -12.250000000000, 1490687163
0.131591796875, -0.818603515625, 0.625000000000, 46.484375000000, -21.078125000000, -8.312500000000, 1490687163
0.131591796875, -0.818603515625, 0.625000000000, 46.484375000000, -21.078125000000, -8.312500000000, 1490687163
0.131591796875, -0.818603515625, 0.625000000000, 46.484375000000, -21.078125000000, -8.312500000000, 1490687163
0.131591796875, -0.818603515625, 0.625000000000, 46.484375000000, -21.078125000000, -8.312500000000, 1490687163
-0.003173828125, -0.622314453125, 0.547607421875, -50.250000000000, -12.890625000000, 2.539062500000, 1490687163
-0.003173828125, -0.622314453125, 0.547607421875, -50.250000000000, -12.890625000000, 2.539062500000, 1490687163
-0.003173828125, -0.622314453125, 0.547607421875, -50.250000000000, -12.890625000000, 2.539062500000, 1490687163
-0.018310546875, -0.658203125000, 0.483642578125, -9.585937500000, -16.093750000000, 6.406250000000, 1490687163
-0.018310546875, -0.658203125000, 0.483642578125, -9.585937500000, -16.093750000000, 6.406250000000, 1490687163
-0.018310546875, -0.658203125000, 0.483642578125, -9.585937500000, -16.093750000000, 6.406250000000, 1490687163
-0.029785156250, -0.795166015625, 0.689941406250, 11.250000000000, 2.640625000000, 0.632812500000, 1490687163
-0.029785156250, -0.795166015625, 0.689941406250, 11.250000000000, 2.640625000000, 0.632812500000, 1490687163
-0.029785156250, -0.795166015625, 0.689941406250, 11.250000000000, 2.640625000000, 0.632812500000, 1490687163
0.092529296875, -0.848144531250, 0.658203125000, -23.359375000000, 16.546875000000, 1.632812500000, 1490687163
0.092529296875, -0.848144531250, 0.658203125000, -23.359375000000, 16.546875000000, 1.632812500000, 1490687163
0.092529296875, -0.848144531250, 0.658203125000, -23.359375000000, 16.546875000000, 1.632812500000, 1490687163
0.092529296875, -0.848144531250, 0.658203125000, -23.359375000000, 16.546875000000, 1.632812500000, 1490687163
-0.019042968750, -1.065673828125, 0.707519531250, -9.960937500000, 20.625000000000, 5.531250000000, 1490687163
-0.019042968750, -1.065673828125, 0.707519531250, -9.960937500000, 20.625000000000, 5.531250000000, 1490687163
-0.019042968750, -1.065673828125, 0.707519531250, -9.960937500000, 20.625000000000, 5.531250000000, 1490687163
0.104003906250, -1.082763671875, 0.904785156250, -14.859375000000, 9.703125000000, 1.757812500000, 1490687163
0.104003906250, -1.082763671875, 0.904785156250, -14.859375000000, 9.703125000000, 1.757812500000, 1490687163
0.104003906250, -1.082763671875, 0.904785156250, -14.859375000000, 9.703125000000, 1.757812500000, 1490687163
0.150634765625, -1.087890625000, 0.717041015625, -24.085937500000, 14.867187500000, 2.070312500000, 1490687163
0.150634765625, -1.087890625000, 0.717041015625, -24.085937500000, 14.867187500000, 2.070312500000, 1490687163
0.150634765625, -1.087890625000, 0.717041015625, -24.085937500000, 14.867187500000, 2.070312500000, 1490687163
0.107421875000, -0.645507812500, 0.302734375000, -2.046875000000, 0.023437500000, -5.250000000000, 1490687163
0.107421875000, -0.645507812500, 0.302734375000, -2.046875000000, 0.023437500000, -5.250000000000, 1490687163
0.107421875000, -0.645507812500, 0.302734375000, -2.046875000000, 0.023437500000, -5.250000000000, 1490687163
0.107421875000, -0.645507812500, 0.302734375000, -2.046875000000, 0.023437500000, -5.250000000000, 1490687163
0.273925781250, -0.646240234375, 0.287597656250, 0.984375000000, 31.710937500000, -1.265625000000, 1490687164
0.273925781250, -0.646240234375, 0.287597656250, 0.984375000000, 31.710937500000, -1.265625000000, 1490687164
0.273925781250, -0.646240234375, 0.287597656250, 0.984375000000, 31.710937500000, -1.265625000000, 1490687164
0.061035156250, -0.957031250000, 0.689208984375, -37.929687500000, 40.046875000000, 17.593750000000, 1490687164
0.061035156250, -0.957031250000, 0.689208984375, -37.929687500000, 40.046875000000, 17.593750000000, 1490687164
0.061035156250, -0.957031250000, 0.689208984375, -37.929687500000, 40.046875000000, 17.593750000000, 1490687164
0.087646484375, -0.956298828125, 0.451904296875, 34.390625000000, 66.250000000000, 4.468750000000, 1490687164
0.087646484375, -0.956298828125, 0.451904296875, 34.390625000000, 66.250000000000, 4.468750000000, 1490687164
0.087646484375, -0.956298828125, 0.451904296875, 34.390625000000, 66.250000000000, 4.468750000000, 1490687164
0.083740234375, -0.778564453125, 0.599121093750, 67.148437500000, 5.039062500000, -5.210937500000, 1490687164
0.083740234375, -0.778564453125, 0.599121093750, 67.148437500000, 5.039062500000, -5.210937500000, 1490687164
0.083740234375, -0.778564453125, 0.599121093750, 67.148437500000, 5.039062500000, -5.210937500000, 1490687164
0.083740234375, -0.778564453125, 0.599121093750, 67.148437500000, 5.039062500000, -5.210937500000, 1490687164
0.001464843750, -0.673828125000, 0.560791015625, -27.226562500000, 28.476562500000, -4.554687500000, 1490687164
0.001464843750, -0.673828125000, 0.560791015625, -27.226562500000, 28.476562500000, -4.554687500000, 1490687164
0.001464843750, -0.673828125000, 0.560791015625, -27.226562500000, 28.476562500000, -4.554687500000, 1490687164
0.073242187500, -0.761962890625, 0.520263671875, -36.734375000000, 38.781250000000, -2.843750000000, 1490687164
0.075927734375, -0.808837890625, 0.555664062500, 8.156250000000, -9.695312500000, -4.742187500000, 1490687164
0.137939453125, -0.808593750000, 0.639648437500, 8.156250000000, -9.695312500000, -4.742187500000, 1490687164
0.137939453125, -0.808593750000, 0.639648437500, 8.156250000000, -9.695312500000, -4.742187500000, 1490687164
0.119628906250, -0.788818359375, 0.612792968750, -4.195312500000, -18.906250000000, -10.320312500000, 1490687164
0.038574218750, -0.887451171875, 0.716064453125, -17.984375000000, -15.148437500000, -9.531250000000, 1490687164
0.038574218750, -0.887451171875, 0.716064453125, -17.984375000000, -15.148437500000, -9.531250000000, 1490687164
0.038574218750, -0.887451171875, 0.716064453125, -17.984375000000, -15.148437500000, -9.531250000000, 1490687164
0.038574218750, -0.887451171875, 0.716064453125, -17.984375000000, -15.148437500000, -9.531250000000, 1490687164
0.038574218750, -0.887451171875, 0.716064453125, -17.984375000000, -15.148437500000, -9.531250000000, 1490687164
0.121582031250, -1.014892578125, 0.626708984375, -18.609375000000, -27.828125000000, -3.164062500000, 1490687164
0.121582031250, -1.014892578125, 0.626708984375, -18.609375000000, -27.828125000000, -3.164062500000, 1490687164
0.121582031250, -1.014892578125, 0.626708984375, -18.609375000000, -27.828125000000, -3.164062500000, 1490687164
-0.069580078125, -1.148925781250, 0.840820312500, -14.101562500000, -21.835937500000, -4.148437500000, 1490687164
-0.069580078125, -1.148925781250, 0.840820312500, -14.101562500000, -21.835937500000, -4.148437500000, 1490687164
-0.069580078125, -1.148925781250, 0.840820312500, -14.101562500000, -21.835937500000, -4.148437500000, 1490687164
-0.140625000000, -1.012695312500, 0.637207031250, -18.453125000000, -23.359375000000, -14.312500000000, 1490687164
-0.140625000000, -1.012695312500, 0.637207031250, -18.453125000000, -23.359375000000, -14.312500000000, 1490687164
-0.140625000000, -1.012695312500, 0.637207031250, -18.453125000000, -23.359375000000, -14.312500000000, 1490687164
-0.024169921875, -0.700195312500, 0.302001953125, 3.671875000000, -53.507812500000, -11.250000000000, 1490687164
-0.024169921875, -0.700195312500, 0.302001953125, 3.671875000000, -53.507812500000, -11.250000000000, 1490687164
-0.024169921875, -0.700195312500, 0.302001953125, 3.671875000000, -53.507812500000, -11.250000000000, 1490687164
-0.109130859375, -0.633544921875, 0.389648437500, -7.273437500000, -73.695312500000, -20.632812500000, 1490687164
-0.109130859375, -0.633544921875, 0.389648437500, -7.273437500000, -73.695312500000, -20.632812500000, 1490687164
-0.109130859375, -0.633544921875, 0.389648437500, -7.273437500000, -73.695312500000, -20.632812500000, 1490687164
0.032470703125, -0.875000000000, 0.638671875000, -19.296875000000, -52.242187500000, -29.320312500000, 1490687164
0.032470703125, -0.875000000000, 0.638671875000, -19.296875000000, -52.242187500000, -29.320312500000, 1490687164
0.032470703125, -0.875000000000, 0.638671875000, -19.296875000000, -52.242187500000, -29.320312500000, 1490687164
0.032470703125, -0.875000000000, 0.638671875000, -19.296875000000, -52.242187500000, -29.320312500000, 1490687164
0.040771484375, -0.913330078125, 0.409667968750, 11.976562500000, -34.554687500000, -26.789062500000, 1490687164
0.040771484375, -0.913330078125, 0.409667968750, 11.976562500000, -34.554687500000, -26.789062500000, 1490687164
0.040771484375, -0.913330078125, 0.409667968750, 11.976562500000, -34.554687500000, -26.789062500000, 1490687164
-0.079833984375, -0.792236328125, 0.710693359375, 51.390625000000, -51.750000000000, -24.984375000000, 1490687164
-0.079833984375, -0.792236328125, 0.710693359375, 51.390625000000, -51.750000000000, -24.984375000000, 1490687164
-0.079833984375, -0.792236328125, 0.710693359375, 51.390625000000, -51.750000000000, -24.984375000000, 1490687164
-0.079833984375, -0.792236328125, 0.710693359375, 51.390625000000, -51.750000000000, -24.984375000000, 1490687164
0.071777343750, -0.840820312500, 0.626708984375, -4.820312500000, -43.929687500000, -21.476562500000, 1490687164
0.071777343750, -0.840820312500, 0.626708984375, -4.820312500000, -43.929687500000, -21.476562500000, 1490687164
0.078369140625, -0.735351562500, 0.479980468750, -5.031250000000, -39.960937500000, -12.335937500000, 1490687164
0.078369140625, -0.735351562500, 0.479980468750, -5.031250000000, -39.960937500000, -12.335937500000, 1490687164
0.078369140625, -0.735351562500, 0.479980468750, -5.031250000000, -39.960937500000, -12.335937500000, 1490687164
0.078369140625, -0.735351562500, 0.479980468750, -5.031250000000, -39.960937500000, -12.335937500000, 1490687164
-0.060791015625, -0.731689453125, 0.558349609375, 8.070312500000, -23.265625000000, -11.421875000000, 1490687164
-0.060791015625, -0.731689453125, 0.558349609375, 8.070312500000, -23.265625000000, -11.421875000000, 1490687164
-0.060791015625, -0.731689453125, 0.558349609375, 8.070312500000, -23.265625000000, -11.421875000000, 1490687164
0.019531250000, -0.968750000000, 0.649414062500, -18.703125000000, -17.734375000000, -6.945312500000, 1490687164
0.019531250000, -0.968750000000, 0.649414062500, -18.703125000000, -17.734375000000, -6.945312500000, 1490687164
0.019531250000, -0.968750000000, 0.649414062500, -18.703125000000, -17.734375000000, -6.945312500000, 1490687164
0.019531250000, -0.968750000000, 0.649414062500, -18.703125000000, -17.734375000000, -6.945312500000, 1490687164
-0.002929687500, -0.918945312500, 0.646972656250, -15.445312500000, -11.070312500000, 0.523437500000, 1490687165
-0.002929687500, -0.918945312500, 0.646972656250, -15.445312500000, -11.070312500000, 0.523437500000, 1490687165
-0.001708984375, -1.069091796875, 0.735107421875, -37.812500000000, -1.968750000000, 15.031250000000, 1490687165
-0.001708984375, -1.069091796875, 0.735107421875, -37.812500000000, -1.968750000000, 15.031250000000, 1490687165
-0.001708984375, -1.069091796875, 0.735107421875, -37.812500000000, -1.968750000000, 15.031250000000, 1490687165
0.033447265625, -1.111083984375, 0.660644531250, -44.546875000000, 16.875000000000, 13.523437500000, 1490687165
0.033447265625, -1.111083984375, 0.660644531250, -44.546875000000, 16.875000000000, 13.523437500000, 1490687165
0.152099609375, -0.665283203125, 0.256347656250, 13.812500000000, -14.492187500000, -12.421875000000, 1490687165
0.152099609375, -0.665283203125, 0.256347656250, 13.812500000000, -14.492187500000, -12.421875000000, 1490687165
0.152099609375, -0.665283203125, 0.256347656250, 13.812500000000, -14.492187500000, -12.421875000000, 1490687165
0.152099609375, -0.665283203125, 0.256347656250, 13.812500000000, -14.492187500000, -12.421875000000, 1490687165
0.152099609375, -0.665283203125, 0.256347656250, 13.812500000000, -14.492187500000, -12.421875000000, 1490687165
0.152099609375, -0.665283203125, 0.256347656250, 13.812500000000, -14.492187500000, -12.421875000000, 1490687165
0.100097656250, -0.635009765625, 0.463134765625, -33.203125000000, 3.968750000000, -15.500000000000, 1490687165
0.100097656250, -0.635009765625, 0.463134765625, -33.203125000000, 3.968750000000, -15.500000000000, 1490687165
0.100097656250, -0.635009765625, 0.463134765625, -33.203125000000, 3.968750000000, -15.500000000000, 1490687165
0.031738281250, -1.034423828125, 0.690917968750, -43.085937500000, 23.898437500000, -16.203125000000, 1490687165
0.031738281250, -1.034423828125, 0.690917968750, -43.085937500000, 23.898437500000, -16.203125000000, 1490687165
0.031738281250, -1.034423828125, 0.690917968750, -43.085937500000, 23.898437500000, -16.203125000000, 1490687165
0.065429687500, -0.885498046875, 0.315917968750, 31.742187500000, 16.765625000000, -17.078125000000, 1490687165
0.065429687500, -0.885498046875, 0.315917968750, 31.742187500000, 16.765625000000, -17.078125000000, 1490687165
0.065429687500, -0.885498046875, 0.315917968750, 31.742187500000, 16.765625000000, -17.078125000000, 1490687165
0.060546875000, -0.853027343750, 0.690917968750, 34.000000000000, -56.671875000000, -25.796875000000, 1490687165
0.060546875000, -0.853027343750, 0.690917968750, 34.000000000000, -56.671875000000, -25.796875000000, 1490687165
0.060546875000, -0.853027343750, 0.690917968750, 34.000000000000, -56.671875000000, -25.796875000000, 1490687165
0.060546875000, -0.853027343750, 0.690917968750, 34.000000000000, -56.671875000000, -25.796875000000, 1490687165
0.054443359375, -0.701171875000, 0.509765625000, -69.085937500000, -10.460937500000, -15.039062500000, 1490687165
0.054443359375, -0.701171875000, 0.509765625000, -69.085937500000, -10.460937500000, -15.039062500000, 1490687165
0.054443359375, -0.701171875000, 0.509765625000, -69.085937500000, -10.460937500000, -15.039062500000, 1490687165
0.060302734375, -0.664794921875, 0.436035156250, 7.164062500000, -27.007812500000, -19.312500000000, 1490687165
0.060302734375, -0.664794921875, 0.436035156250, 7.164062500000, -27.007812500000, -19.312500000000, 1490687165
0.060302734375, -0.664794921875, 0.436035156250, 7.164062500000, -27.007812500000, -19.312500000000, 1490687165
0.154541015625, -0.720458984375, 0.491455078125, 1.921875000000, -39.835937500000, -19.984375000000, 1490687165
0.154541015625, -0.720458984375, 0.491455078125, 1.921875000000, -39.835937500000, -19.984375000000, 1490687165
0.154541015625, -0.720458984375, 0.491455078125, 1.921875000000, -39.835937500000, -19.984375000000, 1490687165
0.191162109375, -0.937988281250, 0.601562500000, -21.507812500000, -34.757812500000, -18.781250000000, 1490687165
0.191162109375, -0.937988281250, 0.601562500000, -21.507812500000, -34.757812500000, -18.781250000000, 1490687165
0.191162109375, -0.937988281250, 0.601562500000, -21.507812500000, -34.757812500000, -18.781250000000, 1490687165
0.191162109375, -0.937988281250, 0.601562500000, -21.507812500000, -34.757812500000, -18.781250000000, 1490687165
0.103271484375, -0.875244140625, 0.643798828125, -26.156250000000, -33.359375000000, -16.406250000000, 1490687165
0.103271484375, -0.875244140625, 0.643798828125, -26.156250000000, -33.359375000000, -16.406250000000, 1490687165
0.103271484375, -0.875244140625, 0.643798828125, -26.156250000000, -33.359375000000, -16.406250000000, 1490687165
0.075195312500, -1.198242187500, 0.840087890625, -32.476562500000, -34.867187500000, -18.390625000000, 1490687165
0.075195312500, -1.198242187500, 0.840087890625, -32.476562500000, -34.867187500000, -18.390625000000, 1490687165
0.075195312500, -1.198242187500, 0.840087890625, -32.476562500000, -34.867187500000, -18.390625000000, 1490687165
0.054931640625, -0.936767578125, 0.645996093750, -19.234375000000, -15.531250000000, -19.828125000000, 1490687165
0.054931640625, -0.936767578125, 0.645996093750, -19.234375000000, -15.531250000000, -19.828125000000, 1490687165
0.054931640625, -0.936767578125, 0.645996093750, -19.234375000000, -15.531250000000, -19.828125000000, 1490687165
0.031250000000, -0.599609375000, 0.295654296875, 24.914062500000, -85.179687500000, -27.132812500000, 1490687165
0.031250000000, -0.599609375000, 0.295654296875, 24.914062500000, -85.179687500000, -27.132812500000, 1490687165
0.031250000000, -0.599609375000, 0.295654296875, 24.914062500000, -85.179687500000, -27.132812500000, 1490687165
-0.327636718750, -0.600097656250, 0.301269531250, 5.335937500000, -64.789062500000, -41.000000000000, 1490687165
-0.116455078125, -0.625976562500, 0.379394531250, -19.539062500000, -61.914062500000, -45.867187500000, 1490687165
-0.116455078125, -0.625976562500, 0.379394531250, -19.539062500000, -61.914062500000, -45.867187500000, 1490687165
-0.116455078125, -0.625976562500, 0.379394531250, -19.539062500000, -61.914062500000, -45.867187500000, 1490687165
0.179931640625, -1.007812500000, 0.619384765625, -43.695312500000, -39.914062500000, -46.875000000000, 1490687165
0.179931640625, -1.007812500000, 0.619384765625, -43.695312500000, -39.914062500000, -46.875000000000, 1490687165
0.179931640625, -1.007812500000, 0.619384765625, -43.695312500000, -39.914062500000, -46.875000000000, 1490687165
0.176269531250, -1.025634765625, 0.443115234375, 10.835937500000, -11.007812500000, -32.289062500000, 1490687165
0.176269531250, -1.025634765625, 0.443115234375, 10.835937500000, -11.007812500000, -32.289062500000, 1490687165
0.176269531250, -1.025634765625, 0.443115234375, 10.835937500000, -11.007812500000, -32.289062500000, 1490687165
0.006347656250, -0.807373046875, 0.671142578125, 64.476562500000, -62.992187500000, -24.296875000000, 1490687165
0.006347656250, -0.807373046875, 0.671142578125, 64.476562500000, -62.992187500000, -24.296875000000, 1490687165
0.006347656250, -0.807373046875, 0.671142578125, 64.476562500000, -62.992187500000, -24.296875000000, 1490687165
0.006347656250, -0.807373046875, 0.671142578125, 64.476562500000, -62.992187500000, -24.296875000000, 1490687165
0.076171875000, -0.709960937500, 0.582275390625, -45.984375000000, -37.226562500000, -17.125000000000, 1490687165
0.076171875000, -0.709960937500, 0.582275390625, -45.984375000000, -37.226562500000, -17.125000000000, 1490687165
0.076171875000, -0.709960937500, 0.582275390625, -45.984375000000, -37.226562500000, -17.125000000000, 1490687165
0.059814453125, -0.690429687500, 0.410156250000, -18.351562500000, -39.609375000000, -12.695312500000, 1490687166
0.059814453125, -0.690429687500, 0.410156250000, -18.351562500000, -39.609375000000, -12.695312500000, 1490687166
0.059814453125, -0.690429687500, 0.410156250000, -18.351562500000, -39.609375000000, -12.695312500000, 1490687166
-0.004394531250, -0.795898437500, 0.647216796875, 4.960937500000, -19.742187500000, -17.304687500000, 1490687166
-0.004394531250, -0.795898437500, 0.647216796875, 4.960937500000, -19.742187500000, -17.304687500000, 1490687166
-0.004394531250, -0.795898437500, 0.647216796875, 4.960937500000, -19.742187500000, -17.304687500000, 1490687166
-0.016601562500, -1.017333984375, 0.711669921875, -24.421875000000, -4.000000000000, -9.835937500000, 1490687166
-0.016601562500, -1.017333984375, 0.711669921875, -24.421875000000, -4.000000000000, -9.835937500000, 1490687166
-0.016601562500, -1.017333984375, 0.711669921875, -24.421875000000, -4.000000000000, -9.835937500000, 1490687166
-0.016601562500, -1.017333984375, 0.711669921875, -24.421875000000, -4.000000000000, -9.835937500000, 1490687166
-0.019287109375, -1.029052734375, 0.684326171875, -18.000000000000, -3.757812500000, -11.101562500000, 1490687166
-0.019287109375, -1.029052734375, 0.684326171875, -18.000000000000, -3.757812500000, -11.101562500000, 1490687166
0.093261718750, -0.919677734375, 0.784912109375, -45.234375000000, -2.234375000000, -5.156250000000, 1490687166
0.093261718750, -0.919677734375, 0.784912109375, -45.234375000000, -2.234375000000, -5.156250000000, 1490687166
0.093261718750, -0.919677734375, 0.784912109375, -45.234375000000, -2.234375000000, -5.156250000000, 1490687166
0.093261718750, -0.919677734375, 0.784912109375, -45.234375000000, -2.234375000000, -5.156250000000, 1490687166
0.020507812500, -0.789794921875, 0.628662109375, -28.609375000000, 2.429687500000, -17.929687500000, 1490687166
0.020507812500, -0.789794921875, 0.628662109375, -28.609375000000, 2.429687500000, -17.929687500000, 1490687166
0.020507812500, -0.789794921875, 0.628662109375, -28.609375000000, 2.429687500000, -17.929687500000, 1490687166
0.139160156250, -0.614013671875, 0.294677734375, 4.289062500000, 4.929687500000, -12.578125000000, 1490687166
0.139160156250, -0.614013671875, 0.294677734375, 4.289062500000, 4.929687500000, -12.578125000000, 1490687166
0.139160156250, -0.614013671875, 0.294677734375, 4.289062500000, 4.929687500000, -12.578125000000, 1490687166
0.139160156250, -0.614013671875, 0.294677734375, 4.289062500000, 4.929687500000, -12.578125000000, 1490687166
0.326416015625, -0.596435546875, 0.451660156250, -22.046875000000, 14.601562500000, -4.828125000000, 1490687166
0.326416015625, -0.596435546875, 0.451660156250, -22.046875000000, 14.601562500000, -4.828125000000, 1490687166
0.326416015625, -0.596435546875, 0.451660156250, -22.046875000000, 14.601562500000, -4.828125000000, 1490687166
0.145751953125, -1.000732421875, 0.711914062500, -26.078125000000, 34.960937500000, 9.648437500000, 1490687166
0.145751953125, -1.000732421875, 0.711914062500, -26.078125000000, 34.960937500000, 9.648437500000, 1490687166
0.145751953125, -1.000732421875, 0.711914062500, -26.078125000000, 34.960937500000, 9.648437500000, 1490687166
-0.012695312500, -0.950927734375, 0.472412109375, 23.406250000000, 29.281250000000, 10.875000000000, 1490687166
-0.012695312500, -0.950927734375, 0.472412109375, 23.406250000000, 29.281250000000, 10.875000000000, 1490687166
-0.012695312500, -0.950927734375, 0.472412109375, 23.406250000000, 29.281250000000, 10.875000000000, 1490687166
0.077392578125, -0.728759765625, 0.642578125000, 56.289062500000, -38.070312500000, -9.843750000000, 1490687166
0.077392578125, -0.728759765625, 0.642578125000, 56.289062500000, -38.070312500000, -9.843750000000, 1490687166
0.077392578125, -0.728759765625, 0.642578125000, 56.289062500000, -38.070312500000, -9.843750000000, 1490687166
0.077392578125, -0.728759765625, 0.642578125000, 56.289062500000, -38.070312500000, -9.843750000000, 1490687166
0.109863281250, -0.668212890625, 0.565185546875, -43.468750000000, 11.093750000000, -5.234375000000, 1490687166
0.109863281250, -0.668212890625, 0.565185546875, -43.468750000000, 11.093750000000, -5.234375000000, 1490687166
0.109863281250, -0.668212890625, 0.565185546875, -43.468750000000, 11.093750000000, -5.234375000000, 1490687166
0.197509765625, -0.833496093750, 0.575683593750, -17.312500000000, -10.406250000000, -12.210937500000, 1490687166
0.197509765625, -0.833496093750, 0.575683593750, -17.312500000000, -10.406250000000, -12.210937500000, 1490687166
0.197509765625, -0.833496093750, 0.575683593750, -17.312500000000, -10.406250000000, -12.210937500000, 1490687166
0.155029296875, -0.805664062500, 0.635498046875, 19.906250000000, -21.453125000000, -11.000000000000, 1490687166
0.155029296875, -0.805664062500, 0.635498046875, 19.906250000000, -21.453125000000, -11.000000000000, 1490687166
0.155029296875, -0.805664062500, 0.635498046875, 19.906250000000, -21.453125000000, -11.000000000000, 1490687166
0.125244140625, -0.796630859375, 0.680908203125, -16.273437500000, -17.515625000000, -9.187500000000, 1490687166
0.125244140625, -0.796630859375, 0.680908203125, -16.273437500000, -17.515625000000, -9.187500000000, 1490687166
0.125244140625, -0.796630859375, 0.680908203125, -16.273437500000, -17.515625000000, -9.187500000000, 1490687166
0.125244140625, -0.796630859375, 0.680908203125, -16.273437500000, -17.515625000000, -9.187500000000, 1490687166
0.070312500000, -0.887207031250, 0.754882812500, -23.570312500000, -20.554687500000, -6.359375000000, 1490687166
-0.001464843750, -0.989990234375, 0.737792968750, -31.773437500000, -21.367187500000, -7.031250000000, 1490687166
-0.001464843750, -0.989990234375, 0.737792968750, -31.773437500000, -21.367187500000, -7.031250000000, 1490687166
-0.001464843750, -0.989990234375, 0.737792968750, -31.773437500000, -21.367187500000, -7.031250000000, 1490687166
-0.001464843750, -0.989990234375, 0.737792968750, -31.773437500000, -21.367187500000, -7.031250000000, 1490687166
0.113037109375, -0.934082031250, 0.619384765625, -19.093750000000, -4.601562500000, -10.890625000000, 1490687166
0.113037109375, -0.934082031250, 0.619384765625, -19.093750000000, -4.601562500000, -10.890625000000, 1490687166
0.113037109375, -0.934082031250, 0.619384765625, -19.093750000000, -4.601562500000, -10.890625000000, 1490687166
0.033935546875, -0.550292968750, 0.397460937500, 4.500000000000, -39.023437500000, -8.906250000000, 1490687166
0.033935546875, -0.550292968750, 0.397460937500, 4.500000000000, -39.023437500000, -8.906250000000, 1490687166
0.033935546875, -0.550292968750, 0.397460937500, 4.500000000000, -39.023437500000, -8.906250000000, 1490687166
0.033935546875, -0.550292968750, 0.397460937500, 4.500000000000, -39.023437500000, -8.906250000000, 1490687166
0.033935546875, -0.550292968750, 0.397460937500, 4.500000000000, -39.023437500000, -8.906250000000, 1490687166
-0.066650390625, -0.695800781250, 0.341552734375, -3.750000000000, -56.375000000000, -9.007812500000, 1490687166
-0.066650390625, -0.695800781250, 0.341552734375, -3.750000000000, -56.375000000000, -9.007812500000, 1490687166
-0.066650390625, -0.695800781250, 0.341552734375, -3.750000000000, -56.375000000000, -9.007812500000, 1490687166
-0.063964843750, -0.848632812500, 0.592529296875, -53.023437500000, -24.984375000000, -27.101562500000, 1490687166
-0.063964843750, -0.848632812500, 0.592529296875, -53.023437500000, -24.984375000000, -27.101562500000, 1490687166
-0.063964843750, -0.848632812500, 0.592529296875, -53.023437500000, -24.984375000000, -27.101562500000, 1490687167
0.099609375000, -1.114746093750, 0.481445312500, -15.703125000000, 12.617187500000, -8.179687500000, 1490687167
0.099609375000, -1.114746093750, 0.481445312500, -15.703125000000, 12.617187500000, -8.179687500000, 1490687167
0.099609375000, -1.114746093750, 0.481445312500, -15.703125000000, 12.617187500000, -8.179687500000, 1490687167
0.014892578125, -0.820068359375, 0.555664062500, 76.031250000000, -12.515625000000, -7.429687500000, 1490687167
0.014892578125, -0.820068359375, 0.555664062500, 76.031250000000, -12.515625000000, -7.429687500000, 1490687167
0.014892578125, -0.820068359375, 0.555664062500, 76.031250000000, -12.515625000000, -7.429687500000, 1490687167
0.014892578125, -0.820068359375, 0.555664062500, 76.031250000000, -12.515625000000, -7.429687500000, 1490687167
0.058349609375, -0.825927734375, 0.472900390625, -32.328125000000, 7.187500000000, -10.476562500000, 1490687167
0.058349609375, -0.825927734375, 0.472900390625, -32.328125000000, 7.187500000000, -10.476562500000, 1490687167
0.058349609375, -0.825927734375, 0.472900390625, -32.328125000000, 7.187500000000, -10.476562500000, 1490687167
-0.002929687500, -0.836669921875, 0.503417968750, -21.945312500000, 6.734375000000, 8.703125000000, 1490687167
-0.002929687500, -0.836669921875, 0.503417968750, -21.945312500000, 6.734375000000, 8.703125000000, 1490687167
-0.002929687500, -0.836669921875, 0.503417968750, -21.945312500000, 6.734375000000, 8.703125000000, 1490687167
0.082031250000, -0.792236328125, 0.573730468750, 9.515625000000, 17.421875000000, 12.187500000000, 1490687167
0.082031250000, -0.792236328125, 0.573730468750, 9.515625000000, 17.421875000000, 12.187500000000, 1490687167
0.082031250000, -0.792236328125, 0.573730468750, 9.515625000000, 17.421875000000, 12.187500000000, 1490687167
0.075195312500, -0.859619140625, 0.588134765625, 0.359375000000, 21.328125000000, 12.476562500000, 1490687167
0.075195312500, -0.859619140625, 0.588134765625, 0.359375000000, 21.328125000000, 12.476562500000, 1490687167
0.075195312500, -0.859619140625, 0.588134765625, 0.359375000000, 21.328125000000, 12.476562500000, 1490687167
0.075195312500, -0.859619140625, 0.588134765625, 0.359375000000, 21.328125000000, 12.476562500000, 1490687167
-0.017333984375, -0.789550781250, 0.575927734375, -13.156250000000, 9.523437500000, 7.523437500000, 1490687167
-0.017333984375, -0.789550781250, 0.575927734375, -13.156250000000, 9.523437500000, 7.523437500000, 1490687167
-0.017333984375, -0.789550781250, 0.575927734375, -13.156250000000, 9.523437500000, 7.523437500000, 1490687167
0.088623046875, -0.818847656250, 0.545166015625, 6.398437500000, 2.648437500000, 2.039062500000, 1490687167
0.088623046875, -0.818847656250, 0.545166015625, 6.398437500000, 2.648437500000, 2.039062500000, 1490687167
0.088623046875, -0.818847656250, 0.545166015625, 6.398437500000, 2.648437500000, 2.039062500000, 1490687167
0.097412109375, -0.729003906250, 0.544189453125, 1.054687500000, -9.609375000000, -10.507812500000, 1490687167
0.149658203125, -0.880371093750, 0.488281250000, -4.421875000000, -4.078125000000, -4.468750000000, 1490687167
0.078857421875, -0.805664062500, 0.650878906250, -16.835937500000, -2.171875000000, -6.976562500000, 1490687167
0.078857421875, -0.805664062500, 0.650878906250, -16.835937500000, -2.171875000000, -6.976562500000, 1490687167
0.078857421875, -0.805664062500, 0.650878906250, -16.835937500000, -2.171875000000, -6.976562500000, 1490687167
0.078857421875, -0.805664062500, 0.650878906250, -16.835937500000, -2.171875000000, -6.976562500000, 1490687167
0.078857421875, -0.805664062500, 0.650878906250, -16.835937500000, -2.171875000000, -6.976562500000, 1490687167
0.078857421875, -0.805664062500, 0.650878906250, -16.835937500000, -2.171875000000, -6.976562500000, 1490687167
0.090576171875, -0.797119140625, 0.558837890625, -1.289062500000, -0.242187500000, -9.250000000000, 1490687167
0.090576171875, -0.797119140625, 0.558837890625, -1.289062500000, -0.242187500000, -9.250000000000, 1490687167
0.090576171875, -0.797119140625, 0.558837890625, -1.289062500000, -0.242187500000, -9.250000000000, 1490687167
0.090576171875, -0.797119140625, 0.558837890625, -1.289062500000, -0.242187500000, -9.250000000000, 1490687167
0.090576171875, -0.797119140625, 0.558837890625, -1.289062500000, -0.242187500000, -9.250000000000, 1490687167
0.125976562500, -0.818847656250, 0.497802734375, 2.062500000000, -4.171875000000, -12.546875000000, 1490687167
0.125976562500, -0.818847656250, 0.497802734375, 2.062500000000, -4.171875000000, -12.546875000000, 1490687167
0.125976562500, -0.818847656250, 0.497802734375, 2.062500000000, -4.171875000000, -12.546875000000, 1490687167
0.147460937500, -0.804199218750, 0.499023437500, 4.281250000000, 6.234375000000, -6.375000000000, 1490687167
0.147460937500, -0.804199218750, 0.499023437500, 4.281250000000, 6.234375000000, -6.375000000000, 1490687167
0.147460937500, -0.804199218750, 0.499023437500, 4.281250000000, 6.234375000000, -6.375000000000, 1490687167
0.147460937500, -0.804199218750, 0.499023437500, 4.281250000000, 6.234375000000, -6.375000000000, 1490687167
0.129638671875, -0.891357421875, 0.477783203125, 3.664062500000, 12.078125000000, 4.625000000000, 1490687167
0.129638671875, -0.891357421875, 0.477783203125, 3.664062500000, 12.078125000000, 4.625000000000, 1490687167
0.134277343750, -0.887207031250, 0.541748046875, 8.265625000000, 8.132812500000, 3.531250000000, 1490687167
0.134277343750, -0.887207031250, 0.541748046875, 8.265625000000, 8.132812500000, 3.531250000000, 1490687167
0.125488281250, -0.783447265625, 0.646240234375, -4.218750000000, 3.429687500000, 0.601562500000, 1490687167
0.125488281250, -0.783447265625, 0.646240234375, -4.218750000000, 3.429687500000, 0.601562500000, 1490687167
0.125488281250, -0.783447265625, 0.646240234375, -4.218750000000, 3.429687500000, 0.601562500000, 1490687167
0.125488281250, -0.783447265625, 0.646240234375, -4.218750000000, 3.429687500000, 0.601562500000, 1490687167
0.125488281250, -0.783447265625, 0.646240234375, -4.218750000000, 3.429687500000, 0.601562500000, 1490687167
0.125488281250, -0.783447265625, 0.646240234375, -2.156250000000, 3.695312500000, -4.023437500000, 1490687167
0.135009765625, -0.908691406250, 0.552734375000, -1.500000000000, 2.773437500000, -0.867187500000, 1490687167
0.135009765625, -0.908691406250, 0.552734375000, -1.500000000000, 2.773437500000, -0.867187500000, 1490687167
0.135009765625, -0.908691406250, 0.552734375000, -1.500000000000, 2.773437500000, -0.867187500000, 1490687167
0.060791015625, -0.845214843750, 0.565429687500, -10.859375000000, -1.609375000000, 0.742187500000, 1490687167
0.060791015625, -0.845214843750, 0.565429687500, -10.859375000000, -1.609375000000, 0.742187500000, 1490687167
0.060791015625, -0.845214843750, 0.565429687500, -10.859375000000, -1.609375000000, 0.742187500000, 1490687167
0.041015625000, -0.778808593750, 0.581542968750, -10.507812500000, -2.156250000000, -4.968750000000, 1490687167
0.041015625000, -0.778808593750, 0.581542968750, -10.507812500000, -2.156250000000, -4.968750000000, 1490687167
0.041015625000, -0.778808593750, 0.581542968750, -10.507812500000, -2.156250000000, -4.968750000000, 1490687167
0.059570312500, -0.947753906250, 0.590820312500, -4.531250000000, 0.125000000000, -1.710937500000, 1490687168
0.059570312500, -0.947753906250, 0.590820312500, -4.531250000000, 0.125000000000, -1.710937500000, 1490687168
0.037597656250, -0.902587890625, 0.575195312500, -3.632812500000, -6.218750000000, -4.546875000000, 1490687168
0.083251953125, -0.843017578125, 0.499023437500, -7.421875000000, -3.164062500000, -1.906250000000, 1490687168
0.083251953125, -0.843017578125, 0.499023437500, -7.421875000000, -3.164062500000, -1.906250000000, 1490687168
0.083251953125, -0.843017578125, 0.499023437500, -7.421875000000, -3.164062500000, -1.906250000000, 1490687168
0.083251953125, -0.843017578125, 0.499023437500, -7.421875000000, -3.164062500000, -1.906250000000, 1490687168
0.046630859375, -0.834960937500, 0.532470703125, -6.000000000000, -5.414062500000, -1.515625000000, 1490687168
0.046630859375, -0.834960937500, 0.532470703125, -6.000000000000, -5.414062500000, -1.515625000000, 1490687168
0.046630859375, -0.834960937500, 0.532470703125, -6.000000000000, -5.414062500000, -1.515625000000, 1490687168
-0.016601562500, -0.880371093750, 0.484619140625, -3.367187500000, -6.750000000000, -1.476562500000, 1490687168
-0.016601562500, -0.880371093750, 0.484619140625, -3.367187500000, -6.750000000000, -1.476562500000, 1490687168
-0.016601562500, -0.880371093750, 0.484619140625, -3.367187500000, -6.750000000000, -1.476562500000, 1490687168
0.117675781250, -0.732910156250, 0.577148437500, -8.890625000000, -8.523437500000, -4.125000000000, 1490687168
0.117675781250, -0.732910156250, 0.577148437500, -8.890625000000, -8.523437500000, -4.125000000000, 1490687168
0.117675781250, -0.732910156250, 0.577148437500, -8.890625000000, -8.523437500000, -4.125000000000, 1490687168
0.117675781250, -0.732910156250, 0.577148437500, -8.890625000000, -8.523437500000, -4.125000000000, 1490687168
0.061523437500, -0.795898437500, 0.497070312500, -4.500000000000, -5.546875000000, -6.320312500000, 1490687168
0.061523437500, -0.795898437500, 0.497070312500, -4.500000000000, -5.546875000000, -6.320312500000, 1490687168
0.061523437500, -0.795898437500, 0.497070312500, -4.500000000000, -5.546875000000, -6.320312500000, 1490687168
0.136474609375, -0.802246093750, 0.561523437500, -3.382812500000, -8.312500000000, -3.679687500000, 1490687168
0.136474609375, -0.802246093750, 0.561523437500, -3.382812500000, -8.312500000000, -3.679687500000, 1490687168
0.136474609375, -0.802246093750, 0.561523437500, -3.382812500000, -8.312500000000, -3.679687500000, 1490687168
0.194580078125, -0.791015625000, 0.534912109375, -6.953125000000, -6.703125000000, -6.578125000000, 1490687168
0.194580078125, -0.791015625000, 0.534912109375, -6.953125000000, -6.703125000000, -6.578125000000, 1490687168
0.194580078125, -0.791015625000, 0.534912109375, -6.953125000000, -6.703125000000, -6.578125000000, 1490687168
0.146972656250, -0.741943359375, 0.587890625000, -4.226562500000, -4.671875000000, -4.226562500000, 1490687168
0.146972656250, -0.741943359375, 0.587890625000, -4.226562500000, -4.671875000000, -4.226562500000, 1490687168
0.146972656250, -0.741943359375, 0.587890625000, -4.226562500000, -4.671875000000, -4.226562500000, 1490687168
0.146972656250, -0.741943359375, 0.587890625000, -4.226562500000, -4.671875000000, -4.226562500000, 1490687168
0.102539062500, -0.792480468750, 0.556640625000, -5.781250000000, -0.132812500000, -2.382812500000, 1490687168
0.102539062500, -0.792480468750, 0.556640625000, -5.781250000000, -0.132812500000, -2.382812500000, 1490687168
0.102539062500, -0.792480468750, 0.556640625000, -5.781250000000, -0.132812500000, -2.382812500000, 1490687168
0.049316406250, -0.739013671875, 0.547607421875, -1.640625000000, 2.070312500000, -1.734375000000, 1490687168
0.049316406250, -0.739013671875, 0.547607421875, -1.640625000000, 2.070312500000, -1.734375000000, 1490687168
0.049316406250, -0.739013671875, 0.547607421875, -1.640625000000, 2.070312500000, -1.734375000000, 1490687168
0.123779296875, -0.827880859375, 0.600341796875, 1.101562500000, -2.187500000000, -4.968750000000, 1490687168
0.123779296875, -0.827880859375, 0.600341796875, 1.101562500000, -2.187500000000, -4.968750000000, 1490687168
0.123779296875, -0.827880859375, 0.600341796875, 1.101562500000, -2.187500000000, -4.968750000000, 1490687168
0.107910156250, -0.744628906250, 0.539062500000, -1.320312500000, 0.421875000000, -4.679687500000, 1490687168
0.107910156250, -0.744628906250, 0.539062500000, -1.320312500000, 0.421875000000, -4.679687500000, 1490687168
0.107910156250, -0.744628906250, 0.539062500000, -1.320312500000, 0.421875000000, -4.679687500000, 1490687168
0.125488281250, -0.725341796875, 0.583740234375, -4.992187500000, 2.375000000000, -4.757812500000, 1490687168
0.125488281250, -0.725341796875, 0.583740234375, -4.992187500000, 2.375000000000, -4.757812500000, 1490687168
0.125488281250, -0.725341796875, 0.583740234375, -4.992187500000, 2.375000000000, -4.757812500000, 1490687168
0.125488281250, -0.725341796875, 0.583740234375, -4.992187500000, 2.375000000000, -4.757812500000, 1490687168
0.095214843750, -0.898193359375, 0.472656250000, -3.296875000000, 1.210937500000, -0.156250000000, 1490687168
0.116699218750, -0.905029296875, 0.477294921875, -3.906250000000, 2.484375000000, -2.796875000000, 1490687168
0.116699218750, -0.905029296875, 0.477294921875, -3.906250000000, 2.484375000000, -2.796875000000, 1490687168
0.116699218750, -0.905029296875, 0.477294921875, -3.906250000000, 2.484375000000, -2.796875000000, 1490687168
0.100830078125, -0.843017578125, 0.554443359375, 0.046875000000, 1.992187500000, 2.773437500000, 1490687168
0.100830078125, -0.843017578125, 0.554443359375, 0.046875000000, 1.992187500000, 2.773437500000, 1490687168
0.100830078125, -0.843017578125, 0.554443359375, 0.046875000000, 1.992187500000, 2.773437500000, 1490687168
0.100830078125, -0.843017578125, 0.554443359375, 0.046875000000, 1.992187500000, 2.773437500000, 1490687168
0.077880859375, -0.785888671875, 0.548339843750, -5.867187500000, 1.609375000000, -2.179687500000, 1490687168
0.077880859375, -0.785888671875, 0.548339843750, -5.867187500000, 1.609375000000, -2.179687500000, 1490687168
0.077880859375, -0.785888671875, 0.548339843750, -5.867187500000, 1.609375000000, -2.179687500000, 1490687168
0.077880859375, -0.785888671875, 0.548339843750, -5.867187500000, 1.609375000000, -2.179687500000, 1490687168
0.077880859375, -0.785888671875, 0.548339843750, -5.867187500000, 1.609375000000, -2.179687500000, 1490687168
0.137939453125, -0.781982421875, 0.570800781250, -4.585937500000, 1.507812500000, -1.289062500000, 1490687168
0.137939453125, -0.781982421875, 0.570800781250, -4.585937500000, 1.507812500000, -1.289062500000, 1490687168
0.137939453125, -0.781982421875, 0.570800781250, -4.585937500000, 1.507812500000, -1.289062500000, 1490687168
0.033935546875, -0.782226562500, 0.653808593750, -3.945312500000, 2.437500000000, -4.757812500000, 1490687168
0.033935546875, -0.782226562500, 0.653808593750, -3.945312500000, 2.437500000000, -4.757812500000, 1490687168
0.033935546875, -0.782226562500, 0.653808593750, -3.945312500000, 2.437500000000, -4.757812500000, 1490687168
0.133056640625, -0.797119140625, 0.552246093750, -6.835937500000, -2.507812500000, -4.796875000000, 1490687168
0.133056640625, -0.797119140625, 0.552246093750, -6.835937500000, -2.507812500000, -4.796875000000, 1490687168
0.133056640625, -0.797119140625, 0.552246093750, -6.835937500000, -2.507812500000, -4.796875000000, 1490687169
0.133056640625, -0.797119140625, 0.552246093750, -6.835937500000, -2.507812500000, -4.796875000000, 1490687169
0.047119140625, -0.877441406250, 0.556884765625, -3.281250000000, -1.093750000000, -1.851562500000, 1490687169
0.047119140625, -0.877441406250, 0.556884765625, -3.281250000000, -1.093750000000, -1.851562500000, 1490687169
0.047119140625, -0.877441406250, 0.556884765625, -3.281250000000, -1.093750000000, -1.851562500000, 1490687169
0.076171875000, -0.841796875000, 0.566650390625, -10.875000000000, -1.304687500000, -4.039062500000, 1490687169
0.076171875000, -0.841796875000, 0.566650390625, -10.875000000000, -1.304687500000, -4.039062500000, 1490687169
0.076171875000, -0.841796875000, 0.566650390625, -10.875000000000, -1.304687500000, -4.039062500000, 1490687169
0.059082031250, -0.724853515625, 0.632568359375, -5.468750000000, -3.398437500000, -5.109375000000, 1490687169
0.059082031250, -0.724853515625, 0.632568359375, -5.468750000000, -3.398437500000, -5.109375000000, 1490687169
0.059082031250, -0.724853515625, 0.632568359375, -5.468750000000, -3.398437500000, -5.109375000000, 1490687169
0.140380859375, -0.743164062500, 0.643066406250, -1.578125000000, -1.046875000000, -6.742187500000, 1490687169
0.140380859375, -0.743164062500, 0.643066406250, -1.578125000000, -1.046875000000, -6.742187500000, 1490687169
0.140380859375, -0.743164062500, 0.643066406250, -1.578125000000, -1.046875000000, -6.742187500000, 1490687169
0.140380859375, -0.743164062500, 0.643066406250, -1.578125000000, -1.046875000000, -6.742187500000, 1490687169
0.052734375000, -0.772216796875, 0.577392578125, -10.859375000000, -3.421875000000, -8.460937500000, 1490687169
0.052734375000, -0.772216796875, 0.577392578125, -10.859375000000, -3.421875000000, -8.460937500000, 1490687169
0.052734375000, -0.772216796875, 0.577392578125, -10.859375000000, -3.421875000000, -8.460937500000, 1490687169
0.202880859375, -0.826904296875, 0.644287109375, -2.695312500000, -8.609375000000, -8.367187500000, 1490687169
0.202880859375, -0.826904296875, 0.644287109375, -2.695312500000, -8.609375000000, -8.367187500000, 1490687169
0.202880859375, -0.826904296875, 0.644287109375, -2.695312500000, -8.609375000000, -8.367187500000, 1490687169
0.039794921875, -0.896240234375, 0.569091796875, -5.320312500000, -6.296875000000, -5.265625000000, 1490687169
0.039794921875, -0.896240234375, 0.569091796875, -5.320312500000, -6.296875000000, -5.265625000000, 1490687169
0.039794921875, -0.896240234375, 0.569091796875, -5.320312500000, -6.296875000000, -5.265625000000, 1490687169
0.080810546875, -0.781982421875, 0.537109375000, -7.664062500000, -1.695312500000, -4.609375000000, 1490687169
0.080810546875, -0.781982421875, 0.537109375000, -7.664062500000, -1.695312500000, -4.609375000000, 1490687169
0.080810546875, -0.781982421875, 0.537109375000, -7.664062500000, -1.695312500000, -4.609375000000, 1490687169
0.080810546875, -0.781982421875, 0.537109375000, -7.664062500000, -1.695312500000, -4.609375000000, 1490687169
0.208251953125, -0.810058593750, 0.597656250000, -6.679687500000, -6.039062500000, -4.710937500000, 1490687169
0.208251953125, -0.810058593750, 0.597656250000, -6.679687500000, -6.039062500000, -4.710937500000, 1490687169
0.208251953125, -0.810058593750, 0.597656250000, -6.679687500000, -6.039062500000, -4.710937500000, 1490687169
0.150390625000, -0.828125000000, 0.543457031250, -5.500000000000, -1.070312500000, -4.554687500000, 1490687169
0.150390625000, -0.828125000000, 0.543457031250, -5.500000000000, -1.070312500000, -4.554687500000, 1490687169
0.150390625000, -0.828125000000, 0.543457031250, -5.500000000000, -1.070312500000, -4.554687500000, 1490687169
0.041503906250, -0.745117187500, 0.541992187500, -6.500000000000, -2.078125000000, -4.445312500000, 1490687169
0.041503906250, -0.745117187500, 0.541992187500, -6.500000000000, -2.078125000000, -4.445312500000, 1490687169
0.041503906250, -0.745117187500, 0.541992187500, -6.500000000000, -2.078125000000, -4.445312500000, 1490687169
0.095214843750, -0.880615234375, 0.625244140625, -1.976562500000, -2.234375000000, -1.320312500000, 1490687169
0.095214843750, -0.880615234375, 0.625244140625, -1.976562500000, -2.234375000000, -1.320312500000, 1490687169
0.095214843750, -0.880615234375, 0.625244140625, -1.976562500000, -2.234375000000, -1.320312500000, 1490687169
0.095214843750, -0.880615234375, 0.625244140625, -1.976562500000, -2.234375000000, -1.320312500000, 1490687169
0.049560546875, -0.720703125000, 0.536132812500, -1.156250000000, -0.695312500000, -6.320312500000, 1490687169
0.049560546875, -0.720703125000, 0.536132812500, -1.156250000000, -0.695312500000, -6.320312500000, 1490687169
0.049560546875, -0.720703125000, 0.536132812500, -1.156250000000, -0.695312500000, -6.320312500000, 1490687169
0.136230468750, -0.782714843750, 0.557373046875, -3.007812500000, 4.195312500000, -4.984375000000, 1490687169
0.136230468750, -0.782714843750, 0.557373046875, -3.007812500000, 4.195312500000, -4.984375000000, 1490687169
0.136230468750, -0.782714843750, 0.557373046875, -3.007812500000, 4.195312500000, -4.984375000000, 1490687169
0.047119140625, -0.729003906250, 0.590332031250, -1.164062500000, 2.546875000000, -2.882812500000, 1490687169
0.047119140625, -0.729003906250, 0.590332031250, -1.164062500000, 2.546875000000, -2.882812500000, 1490687169
0.047119140625, -0.729003906250, 0.590332031250, -1.164062500000, 2.546875000000, -2.882812500000, 1490687169
0.099853515625, -0.896484375000, 0.634521484375, -3.031250000000, 1.664062500000, -2.929687500000, 1490687169
0.099853515625, -0.896484375000, 0.634521484375, -3.031250000000, 1.664062500000, -2.929687500000, 1490687169
0.099853515625, -0.896484375000, 0.634521484375, -3.031250000000, 1.664062500000, -2.929687500000, 1490687169
0.099853515625, -0.896484375000, 0.634521484375, -3.031250000000, 1.664062500000, -2.929687500000, 1490687169
0.120849609375, -0.747070312500, 0.560546875000, -2.085937500000, 4.921875000000, -2.992187500000, 1490687169
0.120849609375, -0.747070312500, 0.560546875000, -2.085937500000, 4.921875000000, -2.992187500000, 1490687169
0.120849609375, -0.747070312500, 0.560546875000, -2.085937500000, 4.921875000000, -2.992187500000, 1490687169
0.031494140625, -0.746093750000, 0.570312500000, -4.195312500000, 2.031250000000, -1.171875000000, 1490687169
0.031494140625, -0.746093750000, 0.570312500000, -4.195312500000, 2.031250000000, -1.171875000000, 1490687169
0.133789062500, -0.795166015625, 0.626464843750, -6.226562500000, 1.890625000000, -2.109375000000, 1490687169
0.133789062500, -0.795166015625, 0.626464843750, -6.226562500000, 1.890625000000, -2.109375000000, 1490687169
0.133789062500, -0.795166015625, 0.626464843750, -6.226562500000, 1.890625000000, -2.109375000000, 1490687169
0.133789062500, -0.795166015625, 0.626464843750, -6.226562500000, 1.890625000000, -2.109375000000, 1490687169
0.074218750000, -0.882568359375, 0.589843750000, -4.640625000000, 1.414062500000, -1.125000000000, 1490687169
0.074218750000, -0.882568359375, 0.589843750000, -4.640625000000, 1.414062500000, -1.125000000000, 1490687169
0.074218750000, -0.882568359375, 0.589843750000, -4.640625000000, 1.414062500000, -1.125000000000, 1490687169
0.074218750000, -0.882568359375, 0.589843750000, -4.640625000000, 1.414062500000, -1.125000000000, 1490687169
0.148437500000, -0.751464843750, 0.627929687500, -3.062500000000, 3.093750000000, 0.296875000000, 1490687170
0.148437500000, -0.751464843750, 0.627929687500, -3.062500000000, 3.093750000000, 0.296875000000, 1490687170
0.148437500000, -0.751464843750, 0.627929687500, -3.062500000000, 3.093750000000, 0.296875000000, 1490687170
0.054199218750, -0.770751953125, 0.557128906250, -2.296875000000, 4.328125000000, 1.085937500000, 1490687170
0.054199218750, -0.770751953125, 0.557128906250, -2.296875000000, 4.328125000000, 1.085937500000, 1490687170
0.054199218750, -0.770751953125, 0.557128906250, -2.296875000000, 4.328125000000, 1.085937500000, 1490687170
0.112792968750, -0.750976562500, 0.638916015625, -3.109375000000, -0.664062500000, -2.617187500000, 1490687170
0.112792968750, -0.750976562500, 0.638916015625, -3.109375000000, -0.664062500000, -2.617187500000, 1490687170
0.112792968750, -0.750976562500, 0.638916015625, -3.109375000000, -0.664062500000, -2.617187500000, 1490687170
0.053466796875, -0.804443359375, 0.539306640625, -3.796875000000, -0.953125000000, -2.492187500000, 1490687170
0.053466796875, -0.804443359375, 0.539306640625, -3.796875000000, -0.953125000000, -2.492187500000, 1490687170
0.053466796875, -0.804443359375, 0.539306640625, -3.796875000000, -0.953125000000, -2.492187500000, 1490687170
0.053466796875, -0.804443359375, 0.539306640625, -3.796875000000, -0.953125000000, -2.492187500000, 1490687170
0.140625000000, -0.812011718750, 0.601318359375, -3.656250000000, 2.062500000000, -2.742187500000, 1490687170
0.140625000000, -0.812011718750, 0.601318359375, -3.656250000000, 2.062500000000, -2.742187500000, 1490687170
0.140625000000, -0.812011718750, 0.601318359375, -3.656250000000, 2.062500000000, -2.742187500000, 1490687170
0.038085937500, -0.791015625000, 0.549316406250, -8.085937500000, -0.195312500000, -1.007812500000, 1490687170
0.038085937500, -0.791015625000, 0.549316406250, -8.085937500000, -0.195312500000, -1.007812500000, 1490687170
0.038085937500, -0.791015625000, 0.549316406250, -8.085937500000, -0.195312500000, -1.007812500000, 1490687170
0.209472656250, -0.798339843750, 0.627685546875, -3.156250000000, 2.140625000000, 2.015625000000, 1490687170
0.209472656250, -0.798339843750, 0.627685546875, -3.156250000000, 2.140625000000, 2.015625000000, 1490687170
0.209472656250, -0.798339843750, 0.627685546875, -3.156250000000, 2.140625000000, 2.015625000000, 1490687170
0.149169921875, -0.834960937500, 0.593994140625, -4.710937500000, -1.000000000000, -1.960937500000, 1490687170
0.149169921875, -0.834960937500, 0.593994140625, -4.710937500000, -1.000000000000, -1.960937500000, 1490687170
0.149169921875, -0.834960937500, 0.593994140625, -4.710937500000, -1.000000000000, -1.960937500000, 1490687170
0.135742187500, -0.749755859375, 0.542724609375, -5.710937500000, -0.265625000000, -1.648437500000, 1490687170
0.057128906250, -0.799560546875, 0.612548828125, -5.398437500000, 0.914062500000, -3.054687500000, 1490687170
0.057128906250, -0.799560546875, 0.612548828125, -5.398437500000, 0.914062500000, -3.054687500000, 1490687170
0.056884765625, -0.756103515625, 0.499511718750, -6.562500000000, -0.335937500000, 0.257812500000, 1490687170
0.056884765625, -0.756103515625, 0.499511718750, -6.562500000000, -0.335937500000, 0.257812500000, 1490687170
0.056884765625, -0.756103515625, 0.499511718750, -6.562500000000, -0.335937500000, 0.257812500000, 1490687170
0.056884765625, -0.756103515625, 0.499511718750, -6.562500000000, -0.335937500000, 0.257812500000, 1490687170
0.096679687500, -0.805419921875, 0.633056640625, -4.929687500000, -0.945312500000, -2.406250000000, 1490687170
0.096679687500, -0.805419921875, 0.633056640625, -4.929687500000, -0.945312500000, -2.406250000000, 1490687170
0.096679687500, -0.805419921875, 0.633056640625, -4.929687500000, -0.945312500000, -2.406250000000, 1490687170
0.096679687500, -0.805419921875, 0.633056640625, -4.929687500000, -0.945312500000, -2.406250000000, 1490687170
0.096679687500, -0.805419921875, 0.633056640625, -4.929687500000, -0.945312500000, -2.406250000000, 1490687170
0.096679687500, -0.805419921875, 0.633056640625, -4.929687500000, -0.945312500000, -2.406250000000, 1490687170
0.096679687500, -0.805419921875, 0.633056640625, -4.929687500000, -0.945312500000, -2.406250000000, 1490687170
0.045898437500, -0.784423828125, 0.628417968750, -1.335937500000, 1.546875000000, -4.843750000000, 1490687170
0.045898437500, -0.784423828125, 0.628417968750, -1.335937500000, 1.546875000000, -4.843750000000, 1490687170
0.045898437500, -0.784423828125, 0.628417968750, -1.335937500000, 1.546875000000, -4.843750000000, 1490687170
0.151611328125, -0.827148437500, 0.581298828125, -7.453125000000, 1.398437500000, -4.375000000000, 1490687170
0.151611328125, -0.827148437500, 0.581298828125, -7.453125000000, 1.398437500000, -4.375000000000, 1490687170
0.151611328125, -0.827148437500, 0.581298828125, -7.453125000000, 1.398437500000, -4.375000000000, 1490687170
0.091308593750, -0.783935546875, 0.601806640625, -8.046875000000, 2.945312500000, -2.468750000000, 1490687170
0.091308593750, -0.783935546875, 0.601806640625, -8.046875000000, 2.945312500000, -2.468750000000, 1490687170
0.091308593750, -0.783935546875, 0.601806640625, -8.046875000000, 2.945312500000, -2.468750000000, 1490687170
0.140136718750, -0.743896484375, 0.591552734375, -5.703125000000, 2.257812500000, -3.414062500000, 1490687170
0.140136718750, -0.743896484375, 0.591552734375, -5.703125000000, 2.257812500000, -3.414062500000, 1490687170
0.140136718750, -0.743896484375, 0.591552734375, -5.703125000000, 2.257812500000, -3.414062500000, 1490687170
0.140136718750, -0.743896484375, 0.591552734375, -5.703125000000, 2.257812500000, -3.414062500000, 1490687170
