ACC_X,ACC_Y,ACC_Z,G_X,G_Y,G_Z,Unix Time
0.302490234375, 0.223632812500, 0.967773437500, -4.867187500000, -0.648437500000, -1.562500000000, 1490686795
0.397460937500, 0.310302734375, 1.021972656250, -3.226562500000, -0.679687500000, -4.054687500000, 1490686795
0.397460937500, 0.310302734375, 1.021972656250, -3.226562500000, -0.679687500000, -4.054687500000, 1490686795
0.397460937500, 0.310302734375, 1.021972656250, -3.226562500000, -0.679687500000, -4.054687500000, 1490686795
0.397460937500, 0.310302734375, 1.021972656250, -3.226562500000, -0.679687500000, -4.054687500000, 1490686795
0.397460937500, 0.310302734375, 1.021972656250, -3.226562500000, -0.679687500000, -4.054687500000, 1490686795
0.345703125000, 0.232177734375, 1.000244140625, -4.648437500000, -1.148437500000, -3.835937500000, 1490686795
0.345703125000, 0.232177734375, 1.000244140625, -4.648437500000, -1.148437500000, -3.835937500000, 1490686795
0.345703125000, 0.232177734375, 1.000244140625, -4.648437500000, -1.148437500000, -3.835937500000, 1490686795
0.290771484375, 0.227294921875, 0.914306640625, -1.921875000000, -2.445312500000, -4.195312500000, 1490686795
0.347900390625, 0.316650390625, 0.926513671875, -1.921875000000, -2.445312500000, -4.195312500000, 1490686795
0.347900390625, 0.316650390625, 0.926513671875, -1.921875000000, -2.445312500000, -4.195312500000, 1490686795
0.347900390625, 0.316650390625, 0.926513671875, -1.921875000000, -2.445312500000, -4.195312500000, 1490686795
0.347900390625, 0.316650390625, 0.926513671875, -1.921875000000, -2.445312500000, -4.195312500000, 1490686795
0.249023437500, 0.245117187500, 1.009521484375, -3.320312500000, -4.640625000000, -3.304687500000, 1490686795
0.249023437500, 0.245117187500, 1.009521484375, -3.320312500000, -4.640625000000, -3.304687500000, 1490686796
0.249023437500, 0.245117187500, 1.009521484375, -3.320312500000, -4.640625000000, -3.304687500000, 1490686796
0.249023437500, 0.245117187500, 1.009521484375, -3.320312500000, -4.640625000000, -3.304687500000, 1490686796
0.249023437500, 0.245117187500, 1.009521484375, -3.320312500000, -4.640625000000, -3.304687500000, 1490686796
0.335693359375, 0.317138671875, 1.007080078125, -1.156250000000, 0.125000000000, -2.796875000000, 1490686796
0.335693359375, 0.317138671875, 1.007080078125, -1.156250000000, 0.125000000000, -2.796875000000, 1490686796
0.335693359375, 0.317138671875, 1.007080078125, -1.156250000000, 0.125000000000, -2.796875000000, 1490686796
0.222412109375, 0.221923828125, 0.959228515625, -3.648437500000, -0.570312500000, -2.398437500000, 1490686796
0.222412109375, 0.221923828125, 0.959228515625, -3.648437500000, -0.570312500000, -2.398437500000, 1490686796
0.222412109375, 0.221923828125, 0.959228515625, -3.648437500000, -0.570312500000, -2.398437500000, 1490686796
0.343505859375, 0.331298828125, 0.917480468750, -3.976562500000, -0.343750000000, -1.507812500000, 1490686796
0.343505859375, 0.331298828125, 0.917480468750, -3.976562500000, -0.343750000000, -1.507812500000, 1490686796
0.343505859375, 0.331298828125, 0.917480468750, -3.976562500000, -0.343750000000, -1.507812500000, 1490686796
0.343505859375, 0.331298828125, 0.917480468750, -3.976562500000, -0.343750000000, -1.507812500000, 1490686796
0.231445312500, 0.241455078125, 0.951171875000, -3.007812500000, 2.187500000000, -4.140625000000, 1490686796
0.231445312500, 0.241455078125, 0.951171875000, -3.007812500000, 2.187500000000, -4.140625000000, 1490686796
0.231445312500, 0.241455078125, 0.951171875000, -3.007812500000, 2.187500000000, -4.140625000000, 1490686796
0.226806640625, 0.240966796875, 0.936279296875, -4.085937500000, -0.078125000000, -3.414062500000, 1490686796
0.226806640625, 0.240966796875, 0.936279296875, -4.085937500000, -0.078125000000, -3.414062500000, 1490686796
0.352050781250, 0.235107421875, 0.934814453125, -4.187500000000, -0.953125000000, -4.242187500000, 1490686796
0.352050781250, 0.235107421875, 0.934814453125, -4.187500000000, -0.953125000000, -4.242187500000, 1490686796
0.352050781250, 0.235107421875, 0.934814453125, -4.187500000000, -0.953125000000, -4.242187500000, 1490686796
0.352050781250, 0.235107421875, 0.934814453125, -4.187500000000, -0.953125000000, -4.242187500000, 1490686796
0.272216796875, 0.323974609375, 0.966308593750, -3.421875000000, -0.320312500000, -3.531250000000, 1490686796
0.272216796875, 0.323974609375, 0.966308593750, -3.421875000000, -0.320312500000, -3.531250000000, 1490686796
0.272216796875, 0.323974609375, 0.966308593750, -3.421875000000, -0.320312500000, -3.531250000000, 1490686796
0.272216796875, 0.323974609375, 0.966308593750, -3.421875000000, -0.320312500000, -3.531250000000, 1490686796
0.297851562500, 0.324218750000, 0.951416015625, -3.781250000000, -2.195312500000, -4.179687500000, 1490686796
0.297851562500, 0.324218750000, 0.951416015625, -3.781250000000, -2.195312500000, -4.179687500000, 1490686796
0.297851562500, 0.324218750000, 0.951416015625, -3.781250000000, -2.195312500000, -4.179687500000, 1490686796
0.221435546875, 0.262695312500, 0.951904296875, -4.492187500000, -0.031250000000, -2.875000000000, 1490686796
0.221435546875, 0.262695312500, 0.951904296875, -4.492187500000, -0.031250000000, -2.875000000000, 1490686796
0.221435546875, 0.262695312500, 0.951904296875, -4.492187500000, -0.031250000000, -2.875000000000, 1490686796
0.288330078125, 0.246582031250, 0.888671875000, -6.242187500000, -0.796875000000, -4.210937500000, 1490686796
0.288330078125, 0.246582031250, 0.888671875000, -6.242187500000, -0.796875000000, -4.210937500000, 1490686796
0.288330078125, 0.246582031250, 0.888671875000, -6.242187500000, -0.796875000000, -4.210937500000, 1490686796
0.247070312500, 0.325439453125, 0.915283203125, -4.960937500000, -2.242187500000, -4.046875000000, 1490686796
0.247070312500, 0.325439453125, 0.915283203125, -4.960937500000, -2.242187500000, -4.046875000000, 1490686796
0.247070312500, 0.325439453125, 0.915283203125, -4.960937500000, -2.242187500000, -4.046875000000, 1490686796
0.247070312500, 0.325439453125, 0.915283203125, -4.960937500000, -2.242187500000, -4.046875000000, 1490686796
0.292236328125, 0.248535156250, 0.872558593750, -1.375000000000, 0.484375000000, -4.429687500000, 1490686796
0.292236328125, 0.248535156250, 0.872558593750, -1.375000000000, 0.484375000000, -4.429687500000, 1490686796
0.292236328125, 0.248535156250, 0.872558593750, -1.375000000000, 0.484375000000, -4.429687500000, 1490686796
0.297607421875, 0.293212890625, 1.009277343750, -4.007812500000, -0.812500000000, -1.382812500000, 1490686796
0.297607421875, 0.293212890625, 1.009277343750, -4.007812500000, -0.812500000000, -1.382812500000, 1490686796
0.297607421875, 0.293212890625, 1.009277343750, -4.007812500000, -0.812500000000, -1.382812500000, 1490686796
0.297607421875, 0.293212890625, 1.009277343750, -4.007812500000, -0.812500000000, -1.382812500000, 1490686796
0.388183593750, 0.285156250000, 0.915771484375, -3.046875000000, 2.398437500000, -4.437500000000, 1490686796
0.388183593750, 0.285156250000, 0.915771484375, -3.046875000000, 2.398437500000, -4.437500000000, 1490686796
0.388183593750, 0.285156250000, 0.915771484375, -3.046875000000, 2.398437500000, -4.437500000000, 1490686796
0.388183593750, 0.285156250000, 0.915771484375, -3.046875000000, 2.398437500000, -4.437500000000, 1490686796
0.388183593750, 0.285156250000, 0.915771484375, -3.046875000000, 2.398437500000, -4.437500000000, 1490686796
0.388183593750, 0.285156250000, 0.915771484375, -3.046875000000, 2.398437500000, -4.437500000000, 1490686796
0.278076171875, 0.316894531250, 1.007080078125, -4.093750000000, -2.007812500000, -1.507812500000, 1490686796
0.278076171875, 0.316894531250, 1.007080078125, -4.093750000000, -2.007812500000, -1.507812500000, 1490686796
0.278076171875, 0.316894531250, 1.007080078125, -4.093750000000, -2.007812500000, -1.507812500000, 1490686796
0.319580078125, 0.168701171875, 0.938964843750, -3.039062500000, -0.539062500000, -2.671875000000, 1490686796
0.319580078125, 0.168701171875, 0.938964843750, -3.039062500000, -0.539062500000, -2.671875000000, 1490686796
0.319580078125, 0.168701171875, 0.938964843750, -3.039062500000, -0.539062500000, -2.671875000000, 1490686796
0.226806640625, 0.313964843750, 1.021484375000, -3.687500000000, 2.140625000000, -1.539062500000, 1490686796
0.226806640625, 0.313964843750, 1.021484375000, -3.687500000000, 2.140625000000, -1.539062500000, 1490686796
0.226806640625, 0.313964843750, 1.021484375000, -3.687500000000, 2.140625000000, -1.539062500000, 1490686796
0.362792968750, 0.231689453125, 0.869384765625, -3.070312500000, 2.101562500000, -1.007812500000, 1490686796
0.362792968750, 0.231689453125, 0.869384765625, -3.070312500000, 2.101562500000, -1.007812500000, 1490686796
0.362792968750, 0.231689453125, 0.869384765625, -3.070312500000, 2.101562500000, -1.007812500000, 1490686796
0.362792968750, 0.231689453125, 0.869384765625, -3.070312500000, 2.101562500000, -1.007812500000, 1490686796
0.317871093750, 0.342529296875, 0.935302734375, -3.500000000000, 0.109375000000, -4.421875000000, 1490686796
0.317871093750, 0.342529296875, 0.935302734375, -3.500000000000, 0.109375000000, -4.421875000000, 1490686796
0.317871093750, 0.342529296875, 0.935302734375, -3.500000000000, 0.109375000000, -4.421875000000, 1490686796
0.329589843750, 0.315185546875, 0.928466796875, -6.523437500000, 0.585937500000, -1.515625000000, 1490686797
0.329589843750, 0.315185546875, 0.928466796875, -6.523437500000, 0.585937500000, -1.515625000000, 1490686797
0.329589843750, 0.315185546875, 0.928466796875, -6.523437500000, 0.585937500000, -1.515625000000, 1490686797
0.280273437500, 0.166748046875, 1.013916015625, -4.226562500000, -2.093750000000, -4.906250000000, 1490686797
0.280273437500, 0.166748046875, 1.013916015625, -4.226562500000, -2.093750000000, -4.906250000000, 1490686797
0.280273437500, 0.166748046875, 1.013916015625, -4.226562500000, -2.093750000000, -4.906250000000, 1490686797
0.340332031250, 0.282226562500, 0.869384765625, -4.906250000000, -1.789062500000, -4.218750000000, 1490686797
0.340332031250, 0.282226562500, 0.869384765625, -4.906250000000, -1.789062500000, -4.218750000000, 1490686797
0.340332031250, 0.282226562500, 0.869384765625, -4.906250000000, -1.789062500000, -4.218750000000, 1490686797
0.399414062500, 0.276123046875, 0.950195312500, -3.210937500000, 0.632812500000, -2.039062500000, 1490686797
0.332763671875, 0.232910156250, 0.901367187500, -1.710937500000, -2.773437500000, -2.710937500000, 1490686797
0.332763671875, 0.232910156250, 0.901367187500, -1.710937500000, -2.773437500000, -2.710937500000, 1490686797
0.332763671875, 0.232910156250, 0.901367187500, -1.710937500000, -2.773437500000, -2.710937500000, 1490686797
0.335205078125, 0.266357421875, 0.908447265625, -3.640625000000, 2.453125000000, -4.992187500000, 1490686797
0.335205078125, 0.266357421875, 0.908447265625, -3.640625000000, 2.453125000000, -4.992187500000, 1490686797
0.335205078125, 0.266357421875, 0.908447265625, -3.640625000000, 2.453125000000, -4.992187500000, 1490686797
0.383300781250, 0.219970703125, 0.917968750000, -3.296875000000, 0.539062500000, -2.906250000000, 1490686797
0.383300781250, 0.219970703125, 0.917968750000, -3.296875000000, 0.539062500000, -2.906250000000, 1490686797
0.383300781250, 0.219970703125, 0.917968750000, -3.296875000000, 0.539062500000, -2.906250000000, 1490686797
0.331787109375, 0.242187500000, 0.952636718750, -3.164062500000, 2.617187500000, -2.851562500000, 1490686797
0.331787109375, 0.242187500000, 0.952636718750, -3.164062500000, 2.617187500000, -2.851562500000, 1490686797
0.331787109375, 0.242187500000, 0.952636718750, -3.164062500000, 2.617187500000, -2.851562500000, 1490686797
0.331787109375, 0.242187500000, 0.952636718750, -3.164062500000, 2.617187500000, -2.851562500000, 1490686797
0.403076171875, 0.236328125000, 0.917236328125, -3.625000000000, 0.718750000000, -1.445312500000, 1490686797
0.403076171875, 0.236328125000, 0.917236328125, -3.625000000000, 0.718750000000, -1.445312500000, 1490686797
0.403076171875, 0.236328125000, 0.917236328125, -3.625000000000, 0.718750000000, -1.445312500000, 1490686797
0.298583984375, 0.238525390625, 0.923339843750, -4.687500000000, 0.992187500000, -2.578125000000, 1490686797
0.298583984375, 0.238525390625, 0.923339843750, -4.687500000000, 0.992187500000, -2.578125000000, 1490686797
0.298583984375, 0.238525390625, 0.923339843750, -4.687500000000, 0.992187500000, -2.578125000000, 1490686797
0.342041015625, 0.285400390625, 0.931152343750, -6.132812500000, -0.898437500000, -4.554687500000, 1490686797
0.342041015625, 0.285400390625, 0.931152343750, -6.132812500000, -0.898437500000, -4.554687500000, 1490686797
0.342041015625, 0.285400390625, 0.931152343750, -6.132812500000, -0.898437500000, -4.554687500000, 1490686797
0.297119140625, 0.245117187500, 0.990478515625, -3.859375000000, -2.195312500000, -1.070312500000, 1490686797
0.297119140625, 0.245117187500, 0.990478515625, -3.859375000000, -2.195312500000, -1.070312500000, 1490686797
0.297119140625, 0.245117187500, 0.990478515625, -3.859375000000, -2.195312500000, -1.070312500000, 1490686797
0.297119140625, 0.245117187500, 0.990478515625, -3.859375000000, -2.195312500000, -1.070312500000, 1490686797
0.291015625000, 0.217285156250, 0.988769531250, -3.804687500000, 0.273437500000, -5.804687500000, 1490686797
0.291015625000, 0.217285156250, 0.988769531250, -3.804687500000, 0.273437500000, -5.804687500000, 1490686797
0.291015625000, 0.217285156250, 0.988769531250, -3.804687500000, 0.273437500000, -5.804687500000, 1490686797
0.307617187500, 0.184326171875, 0.927978515625, -3.898437500000, 2.953125000000, 0.976562500000, 1490686797
0.307617187500, 0.184326171875, 0.927978515625, -3.898437500000, 2.953125000000, 0.976562500000, 1490686797
0.307617187500, 0.184326171875, 0.927978515625, -3.898437500000, 2.953125000000, 0.976562500000, 1490686797
0.313964843750, 0.272705078125, 0.910888671875, -4.515625000000, -0.734375000000, -4.718750000000, 1490686797
0.313964843750, 0.272705078125, 0.910888671875, -4.515625000000, -0.734375000000, -4.718750000000, 1490686797
0.313964843750, 0.272705078125, 0.910888671875, -4.515625000000, -0.734375000000, -4.718750000000, 1490686797
0.394775390625, 0.375732421875, 1.005371093750, -3.523437500000, -0.937500000000, -2.492187500000, 1490686797
0.394775390625, 0.375732421875, 1.005371093750, -3.523437500000, -0.937500000000, -2.492187500000, 1490686797
0.394775390625, 0.375732421875, 1.005371093750, -3.523437500000, -0.937500000000, -2.492187500000, 1490686797
0.348388671875, 0.242431640625, 1.001464843750, -4.546875000000, -0.625000000000, -2.679687500000, 1490686797
0.348388671875, 0.242431640625, 1.001464843750, -4.546875000000, -0.625000000000, -2.679687500000, 1490686797
0.348388671875, 0.242431640625, 1.001464843750, -4.546875000000, -0.625000000000, -2.679687500000, 1490686797
0.348388671875, 0.242431640625, 1.001464843750, -4.546875000000, -0.625000000000, -2.679687500000, 1490686797
0.330322265625, 0.326660156250, 0.878417968750, -3.625000000000, -0.257812500000, -1.695312500000, 1490686797
0.330322265625, 0.326660156250, 0.878417968750, -3.625000000000, -0.257812500000, -1.695312500000, 1490686797
0.330322265625, 0.326660156250, 0.878417968750, -3.625000000000, -0.257812500000, -1.695312500000, 1490686797
0.319335937500, 0.341308593750, 0.872802734375, -3.343750000000, -0.242187500000, -2.414062500000, 1490686797
0.319335937500, 0.341308593750, 0.872802734375, -3.343750000000, -0.242187500000, -2.414062500000, 1490686797
0.319335937500, 0.341308593750, 0.872802734375, -3.343750000000, -0.242187500000, -2.414062500000, 1490686797
0.309570312500, 0.237792968750, 1.022216796875, -1.648437500000, 0.976562500000, -3.062500000000, 1490686797
0.309570312500, 0.237792968750, 1.022216796875, -1.648437500000, 0.976562500000, -3.062500000000, 1490686797
0.309570312500, 0.237792968750, 1.022216796875, -1.648437500000, 0.976562500000, -3.062500000000, 1490686797
0.309570312500, 0.237792968750, 1.022216796875, -1.648437500000, 0.976562500000, -3.062500000000, 1490686797
0.303466796875, 0.258544921875, 1.024169921875, -1.789062500000, -0.820312500000, -1.226562500000, 1490686797
0.303466796875, 0.258544921875, 1.024169921875, -1.789062500000, -0.820312500000, -1.226562500000, 1490686797
0.303466796875, 0.258544921875, 1.024169921875, -1.789062500000, -0.820312500000, -1.226562500000, 1490686797
0.390869140625, 0.279541015625, 0.962890625000, -6.265625000000, -0.054687500000, -5.906250000000, 1490686797
0.390869140625, 0.279541015625, 0.962890625000, -6.265625000000, -0.054687500000, -5.906250000000, 1490686798
0.390869140625, 0.279541015625, 0.962890625000, -6.265625000000, -0.054687500000, -5.906250000000, 1490686798
0.283935546875, 0.321044921875, 1.009277343750, -3.101562500000, -0.203125000000, -3.546875000000, 1490686798
0.283935546875, 0.321044921875, 1.009277343750, -3.101562500000, -0.203125000000, -3.546875000000, 1490686798
0.283935546875, 0.321044921875, 1.009277343750, -3.101562500000, -0.203125000000, -3.546875000000, 1490686798
0.335205078125, 0.273681640625, 1.015136718750, -6.695312500000, 0.601562500000, 0.023437500000, 1490686798
0.335205078125, 0.273681640625, 1.015136718750, -6.695312500000, 0.601562500000, 0.023437500000, 1490686798
0.335205078125, 0.273681640625, 1.015136718750, -6.695312500000, 0.601562500000, 0.023437500000, 1490686798
0.301269531250, 0.293457031250, 0.913818359375, -3.468750000000, -1.070312500000, -3.281250000000, 1490686798
0.301269531250, 0.293457031250, 0.913818359375, -3.468750000000, -1.070312500000, -3.281250000000, 1490686798
0.301269531250, 0.293457031250, 0.913818359375, -3.468750000000, -1.070312500000, -3.281250000000, 1490686798
0.301269531250, 0.293457031250, 0.913818359375, -3.468750000000, -1.070312500000, -3.281250000000, 1490686798
0.281738281250, 0.286376953125, 0.968750000000, 0.265625000000, -2.382812500000, -4.484375000000, 1490686798
0.281738281250, 0.286376953125, 0.968750000000, 0.265625000000, -2.382812500000, -4.484375000000, 1490686798
0.281738281250, 0.286376953125, 0.968750000000, 0.265625000000, -2.382812500000, -4.484375000000, 1490686798
0.337158203125, 0.314941406250, 1.003417968750, -1.125000000000, -6.562500000000, -3.617187500000, 1490686798
0.337158203125, 0.314941406250, 1.003417968750, -1.125000000000, -6.562500000000, -3.617187500000, 1490686798
0.337158203125, 0.314941406250, 1.003417968750, -1.125000000000, -6.562500000000, -3.617187500000, 1490686798
0.282958984375, 0.321289062500, 0.936279296875, -4.210937500000, -0.718750000000, -6.187500000000, 1490686798
0.282958984375, 0.321289062500, 0.936279296875, -4.210937500000, -0.718750000000, -6.187500000000, 1490686798
0.282958984375, 0.321289062500, 0.936279296875, -4.210937500000, -0.718750000000, -6.187500000000, 1490686798
0.282958984375, 0.321289062500, 0.936279296875, -4.210937500000, -0.718750000000, -6.187500000000, 1490686798
0.227294921875, 0.326416015625, 0.927490234375, -3.179687500000, -0.828125000000, -1.304687500000, 1490686798
0.227294921875, 0.326416015625, 0.927490234375, -3.179687500000, -0.828125000000, -1.304687500000, 1490686798
0.227294921875, 0.326416015625, 0.927490234375, -3.179687500000, -0.828125000000, -1.304687500000, 1490686798
0.309570312500, 0.283691406250, 1.015136718750, -6.257812500000, -2.304687500000, -6.789062500000, 1490686798
0.309570312500, 0.283691406250, 1.015136718750, -6.257812500000, -2.304687500000, -6.789062500000, 1490686798
0.309570312500, 0.283691406250, 1.015136718750, -6.257812500000, -2.304687500000, -6.789062500000, 1490686798
0.307128906250, 0.329101562500, 0.844970703125, -4.312500000000, 0.843750000000, -1.398437500000, 1490686798
0.307128906250, 0.329101562500, 0.844970703125, -4.312500000000, 0.843750000000, -1.398437500000, 1490686798
0.299560546875, 0.322021484375, 0.984619140625, -1.968750000000, -0.562500000000, -3.492187500000, 1490686798
0.299560546875, 0.322021484375, 0.984619140625, -1.968750000000, -0.562500000000, -3.492187500000, 1490686798
0.299560546875, 0.322021484375, 0.984619140625, -1.968750000000, -0.562500000000, -3.492187500000, 1490686798
0.299560546875, 0.322021484375, 0.984619140625, -1.968750000000, -0.562500000000, -3.492187500000, 1490686798
0.299560546875, 0.322021484375, 0.984619140625, -1.968750000000, -0.562500000000, -3.492187500000, 1490686798
0.299560546875, 0.322021484375, 0.984619140625, -1.968750000000, -0.562500000000, -3.492187500000, 1490686798
0.299560546875, 0.322021484375, 0.984619140625, -1.968750000000, -0.562500000000, -3.492187500000, 1490686798
0.293701171875, 0.247802734375, 0.947998046875, -3.109375000000, 0.656250000000, -1.421875000000, 1490686798
0.293701171875, 0.247802734375, 0.947998046875, -3.109375000000, 0.656250000000, -1.421875000000, 1490686798
0.293701171875, 0.247802734375, 0.947998046875, -3.109375000000, 0.656250000000, -1.421875000000, 1490686798
0.293701171875, 0.247802734375, 0.947998046875, -3.109375000000, 0.656250000000, -1.421875000000, 1490686798
0.378173828125, 0.220458984375, 0.915039062500, -4.812500000000, -0.289062500000, -3.835937500000, 1490686798
0.378173828125, 0.220458984375, 0.915039062500, -4.812500000000, -0.289062500000, -3.835937500000, 1490686798
0.378173828125, 0.220458984375, 0.915039062500, -4.812500000000, -0.289062500000, -3.835937500000, 1490686798
0.234863281250, 0.275634765625, 1.022949218750, -4.703125000000, -0.296875000000, -2.328125000000, 1490686798
0.234863281250, 0.275634765625, 1.022949218750, -4.703125000000, -0.296875000000, -2.328125000000, 1490686798
0.234863281250, 0.275634765625, 1.022949218750, -4.703125000000, -0.296875000000, -2.328125000000, 1490686798
0.234863281250, 0.275634765625, 1.022949218750, -4.703125000000, -0.296875000000, -2.328125000000, 1490686798
0.313476562500, 0.239257812500, 1.010742187500, -3.257812500000, -0.500000000000, -6.648437500000, 1490686798
0.313476562500, 0.239257812500, 1.010742187500, -3.257812500000, -0.500000000000, -6.648437500000, 1490686798
0.313476562500, 0.239257812500, 1.010742187500, -3.257812500000, -0.500000000000, -6.648437500000, 1490686798
0.341796875000, 0.276367187500, 0.951904296875, -1.851562500000, 2.421875000000, -3.171875000000, 1490686798
0.341796875000, 0.276367187500, 0.951904296875, -1.851562500000, 2.421875000000, -3.171875000000, 1490686798
0.341796875000, 0.276367187500, 0.951904296875, -1.851562500000, 2.421875000000, -3.171875000000, 1490686798
0.326416015625, 0.385253906250, 0.933349609375, -3.265625000000, -2.414062500000, -6.843750000000, 1490686798
0.326416015625, 0.385253906250, 0.933349609375, -3.265625000000, -2.414062500000, -6.843750000000, 1490686798
0.326416015625, 0.385253906250, 0.933349609375, -3.265625000000, -2.414062500000, -6.843750000000, 1490686798
0.221435546875, 0.328125000000, 0.862060546875, -4.117187500000, 0.468750000000, -6.328125000000, 1490686798
0.221435546875, 0.328125000000, 0.862060546875, -4.117187500000, 0.468750000000, -6.328125000000, 1490686798
0.221435546875, 0.328125000000, 0.862060546875, -4.117187500000, 0.468750000000, -6.328125000000, 1490686798
0.375732421875, 0.317871093750, 0.807861328125, -4.070312500000, -2.867187500000, -1.320312500000, 1490686798
0.335449218750, 0.166259765625, 0.932128906250, -6.382812500000, -0.132812500000, 0.273437500000, 1490686798
0.335449218750, 0.166259765625, 0.932128906250, -6.382812500000, -0.132812500000, 0.273437500000, 1490686798
0.335449218750, 0.166259765625, 0.932128906250, -6.382812500000, -0.132812500000, 0.273437500000, 1490686798
0.322509765625, 0.267822265625, 1.018554687500, -4.929687500000, -0.312500000000, -4.460937500000, 1490686798
0.322509765625, 0.267822265625, 1.018554687500, -4.929687500000, -0.312500000000, -4.460937500000, 1490686798
0.322509765625, 0.267822265625, 1.018554687500, -4.929687500000, -0.312500000000, -4.460937500000, 1490686798
0.382812500000, 0.229003906250, 1.001220703125, -6.093750000000, 0.804687500000, -1.117187500000, 1490686799
0.382812500000, 0.229003906250, 1.001220703125, -6.093750000000, 0.804687500000, -1.117187500000, 1490686799
0.382812500000, 0.229003906250, 1.001220703125, -6.093750000000, 0.804687500000, -1.117187500000, 1490686799
0.318359375000, 0.221191406250, 0.933593750000, -4.726562500000, -0.812500000000, -4.125000000000, 1490686799
0.318359375000, 0.221191406250, 0.933593750000, -4.726562500000, -0.812500000000, -4.125000000000, 1490686799
0.318359375000, 0.221191406250, 0.933593750000, -4.726562500000, -0.812500000000, -4.125000000000, 1490686799
0.318359375000, 0.221191406250, 0.933593750000, -4.882812500000, 0.531250000000, -1.617187500000, 1490686799
0.321289062500, 0.332519531250, 0.940429687500, -3.078125000000, -0.812500000000, -3.960937500000, 1490686799
0.321289062500, 0.332519531250, 0.940429687500, -3.078125000000, -0.812500000000, -3.960937500000, 1490686799
0.321289062500, 0.332519531250, 0.940429687500, -3.078125000000, -0.812500000000, -3.960937500000, 1490686799
0.299804687500, 0.317871093750, 0.960693359375, -4.562500000000, -0.671875000000, -1.000000000000, 1490686799
0.299804687500, 0.317871093750, 0.960693359375, -4.562500000000, -0.671875000000, -1.000000000000, 1490686799
0.299804687500, 0.317871093750, 0.960693359375, -4.562500000000, -0.671875000000, -1.000000000000, 1490686799
0.248046875000, 0.308105468750, 0.935791015625, -4.117187500000, -0.046875000000, 2.617187500000, 1490686799
0.248046875000, 0.308105468750, 0.935791015625, -4.117187500000, -0.046875000000, 2.617187500000, 1490686799
0.248046875000, 0.308105468750, 0.935791015625, -4.117187500000, -0.046875000000, 2.617187500000, 1490686799
0.381591796875, 0.321777343750, 0.924316406250, -4.632812500000, -2.039062500000, -1.796875000000, 1490686799
0.381591796875, 0.321777343750, 0.924316406250, -4.632812500000, -2.039062500000, -1.796875000000, 1490686799
0.381591796875, 0.321777343750, 0.924316406250, -4.632812500000, -2.039062500000, -1.796875000000, 1490686799
0.381591796875, 0.321777343750, 0.924316406250, -4.632812500000, -2.039062500000, -1.796875000000, 1490686799
0.298828125000, 0.287353515625, 0.912597656250, -3.812500000000, -0.593750000000, -1.421875000000, 1490686799
0.298828125000, 0.287353515625, 0.912597656250, -3.812500000000, -0.593750000000, -1.421875000000, 1490686799
0.298828125000, 0.287353515625, 0.912597656250, -3.812500000000, -0.593750000000, -1.421875000000, 1490686799
0.333740234375, 0.326416015625, 0.918457031250, -2.375000000000, -1.273437500000, -2.757812500000, 1490686799
0.333740234375, 0.326416015625, 0.918457031250, -2.375000000000, -1.273437500000, -2.757812500000, 1490686799
0.333740234375, 0.326416015625, 0.918457031250, -2.375000000000, -1.273437500000, -2.757812500000, 1490686799
0.268554687500, 0.245849609375, 0.907714843750, -1.968750000000, -2.734375000000, -3.898437500000, 1490686799
0.268554687500, 0.245849609375, 0.907714843750, -1.968750000000, -2.734375000000, -3.898437500000, 1490686799
0.268554687500, 0.245849609375, 0.907714843750, -1.968750000000, -2.734375000000, -3.898437500000, 1490686799
0.293945312500, 0.160400390625, 1.020263671875, -1.375000000000, 0.640625000000, -3.742187500000, 1490686799
0.293945312500, 0.160400390625, 1.020263671875, -1.375000000000, 0.640625000000, -3.742187500000, 1490686799
0.293945312500, 0.160400390625, 1.020263671875, -1.375000000000, 0.640625000000, -3.742187500000, 1490686799
0.293945312500, 0.160400390625, 1.020263671875, -1.375000000000, 0.640625000000, -3.742187500000, 1490686799
0.229736328125, 0.318847656250, 0.977294921875, -1.617187500000, -0.640625000000, -1.796875000000, 1490686799
0.229736328125, 0.318847656250, 0.977294921875, -1.617187500000, -0.640625000000, -1.796875000000, 1490686799
0.229736328125, 0.318847656250, 0.977294921875, -1.617187500000, -0.640625000000, -1.796875000000, 1490686799
0.399414062500, 0.272705078125, 0.958496093750, -3.656250000000, 0.820312500000, -4.609375000000, 1490686799
0.399414062500, 0.272705078125, 0.958496093750, -3.656250000000, 0.820312500000, -4.609375000000, 1490686799
0.399414062500, 0.272705078125, 0.958496093750, -3.656250000000, 0.820312500000, -4.609375000000, 1490686799
0.345458984375, 0.332031250000, 0.869873046875, -5.296875000000, -0.203125000000, -2.656250000000, 1490686799
0.345458984375, 0.332031250000, 0.869873046875, -5.296875000000, -0.203125000000, -2.656250000000, 1490686799
0.345458984375, 0.332031250000, 0.869873046875, -5.296875000000, -0.203125000000, -2.656250000000, 1490686799
0.399414062500, 0.334716796875, 1.001708984375, -3.687500000000, -0.796875000000, -4.648437500000, 1490686799
0.399414062500, 0.334716796875, 1.001708984375, -3.687500000000, -0.796875000000, -4.648437500000, 1490686799
0.399414062500, 0.334716796875, 1.001708984375, -3.687500000000, -0.796875000000, -4.648437500000, 1490686799
0.399414062500, 0.334716796875, 1.001708984375, -3.687500000000, -0.796875000000, -4.648437500000, 1490686799
0.299560546875, 0.315429687500, 0.859619140625, -6.343750000000, -1.492187500000, -1.453125000000, 1490686799
0.299560546875, 0.315429687500, 0.859619140625, -6.343750000000, -1.492187500000, -1.453125000000, 1490686799
0.299560546875, 0.315429687500, 0.859619140625, -6.343750000000, -1.492187500000, -1.453125000000, 1490686799
0.299560546875, 0.315429687500, 0.859619140625, -6.343750000000, -1.492187500000, -1.453125000000, 1490686799
0.239501953125, 0.252929687500, 0.964111328125, -4.156250000000, -2.312500000000, -4.539062500000, 1490686799
0.242675781250, 0.303466796875, 1.009033203125, -1.195312500000, 1.164062500000, -6.171875000000, 1490686799
0.242675781250, 0.303466796875, 1.009033203125, -1.195312500000, 1.164062500000, -6.171875000000, 1490686799
0.242675781250, 0.303466796875, 1.009033203125, -1.195312500000, 1.164062500000, -6.171875000000, 1490686799
0.242675781250, 0.303466796875, 1.009033203125, -1.195312500000, 1.164062500000, -6.171875000000, 1490686799
0.311279296875, 0.241699218750, 0.910888671875, 3.023437500000, -4.734375000000, -8.820312500000, 1490686799
0.311279296875, 0.241699218750, 0.910888671875, 3.023437500000, -4.734375000000, -8.820312500000, 1490686799
0.311279296875, 0.241699218750, 0.910888671875, 3.023437500000, -4.734375000000, -8.820312500000, 1490686799
0.311279296875, 0.241699218750, 0.910888671875, 3.023437500000, -4.734375000000, -8.820312500000, 1490686799
0.311279296875, 0.241699218750, 0.910888671875, 3.023437500000, -4.734375000000, -8.820312500000, 1490686799
0.311279296875, 0.241699218750, 0.910888671875, 3.023437500000, -4.734375000000, -8.820312500000, 1490686799
0.404052734375, 0.335449218750, 0.948730468750, 2.914062500000, -8.632812500000, -9.781250000000, 1490686799
0.404052734375, 0.335449218750, 0.948730468750, 2.914062500000, -8.632812500000, -9.781250000000, 1490686799
0.404052734375, 0.335449218750, 0.948730468750, 2.914062500000, -8.632812500000, -9.781250000000, 1490686799
0.404052734375, 0.335449218750, 0.948730468750, 2.914062500000, -8.632812500000, -9.781250000000, 1490686799
0.315673828125, 0.327636718750, 0.907226562500, 3.117187500000, -2.953125000000, -3.367187500000, 1490686800
0.315673828125, 0.327636718750, 0.907226562500, 3.117187500000, -2.953125000000, -3.367187500000, 1490686800
0.315673828125, 0.327636718750, 0.907226562500, 3.117187500000, -2.953125000000, -3.367187500000, 1490686800
0.382080078125, 0.240478515625, 0.939208984375, -0.914062500000, -1.382812500000, -4.421875000000, 1490686800
0.339599609375, 0.218750000000, 0.997070312500, -0.914062500000, -1.382812500000, -4.421875000000, 1490686800
0.339599609375, 0.218750000000, 0.997070312500, -0.914062500000, -1.382812500000, -4.421875000000, 1490686800
0.339599609375, 0.218750000000, 0.997070312500, -0.914062500000, -1.382812500000, -4.421875000000, 1490686800
0.274658203125, 0.399414062500, 0.923583984375, -2.382812500000, -0.148437500000, -8.726562500000, 1490686800
0.274658203125, 0.399414062500, 0.923583984375, -2.382812500000, -0.148437500000, -8.726562500000, 1490686800
0.274658203125, 0.399414062500, 0.923583984375, -2.382812500000, -0.148437500000, -8.726562500000, 1490686800
0.221923828125, 0.296142578125, 1.003417968750, -2.500000000000, 3.015625000000, -3.203125000000, 1490686800
0.221923828125, 0.296142578125, 1.003417968750, -2.500000000000, 3.015625000000, -3.203125000000, 1490686800
0.221923828125, 0.296142578125, 1.003417968750, -2.500000000000, 3.015625000000, -3.203125000000, 1490686800
0.383056640625, 0.265625000000, 1.001464843750, 0.234375000000, 2.937500000000, -3.843750000000, 1490686800
0.383056640625, 0.265625000000, 1.001464843750, 0.234375000000, 2.937500000000, -3.843750000000, 1490686800
0.383056640625, 0.265625000000, 1.001464843750, 0.234375000000, 2.937500000000, -3.843750000000, 1490686800
0.317626953125, 0.279296875000, 0.923583984375, -5.523437500000, -5.640625000000, -8.960937500000, 1490686800
0.317626953125, 0.279296875000, 0.923583984375, -5.523437500000, -5.640625000000, -8.960937500000, 1490686800
0.317626953125, 0.279296875000, 0.923583984375, -5.523437500000, -5.640625000000, -8.960937500000, 1490686800
0.317626953125, 0.279296875000, 0.923583984375, -5.523437500000, -5.640625000000, -8.960937500000, 1490686800
0.322509765625, 0.266845703125, 1.020507812500, -18.367187500000, -14.179687500000, -11.898437500000, 1490686800
0.322509765625, 0.266845703125, 1.020507812500, -18.367187500000, -14.179687500000, -11.898437500000, 1490686800
0.322509765625, 0.266845703125, 1.020507812500, -18.367187500000, -14.179687500000, -11.898437500000, 1490686800
0.235595703125, 0.330078125000, 0.946289062500, -15.320312500000, -11.250000000000, -19.531250000000, 1490686800
0.235595703125, 0.330078125000, 0.946289062500, -15.320312500000, -11.250000000000, -19.531250000000, 1490686800
0.235595703125, 0.330078125000, 0.946289062500, -15.320312500000, -11.250000000000, -19.531250000000, 1490686800
0.379150390625, 0.254882812500, 0.915283203125, -11.109375000000, -24.781250000000, -19.750000000000, 1490686800
0.379150390625, 0.254882812500, 0.915283203125, -11.109375000000, -24.781250000000, -19.750000000000, 1490686800
0.379150390625, 0.254882812500, 0.915283203125, -11.109375000000, -24.781250000000, -19.750000000000, 1490686800
0.292968750000, 0.270019531250, 0.916015625000, -23.187500000000, -22.664062500000, -28.515625000000, 1490686800
0.292968750000, 0.270019531250, 0.916015625000, -23.187500000000, -22.664062500000, -28.515625000000, 1490686800
0.292968750000, 0.270019531250, 0.916015625000, -23.187500000000, -22.664062500000, -28.515625000000, 1490686800
0.292968750000, 0.270019531250, 0.916015625000, -23.187500000000, -22.664062500000, -28.515625000000, 1490686800
0.462402343750, 0.241455078125, 0.927490234375, -16.687500000000, -27.851562500000, -35.796875000000, 1490686800
0.462402343750, 0.241455078125, 0.927490234375, -16.687500000000, -27.851562500000, -35.796875000000, 1490686800
0.462402343750, 0.241455078125, 0.927490234375, -16.687500000000, -27.851562500000, -35.796875000000, 1490686800
0.392822265625, 0.332275390625, 0.855468750000, -1.304687500000, -18.796875000000, -39.093750000000, 1490686800
0.392822265625, 0.332275390625, 0.855468750000, -1.304687500000, -18.796875000000, -39.093750000000, 1490686800
0.392822265625, 0.332275390625, 0.855468750000, -1.304687500000, -18.796875000000, -39.093750000000, 1490686800
0.443359375000, 0.240234375000, 0.942626953125, 0.445312500000, -26.906250000000, -46.039062500000, 1490686800
0.443359375000, 0.240234375000, 0.942626953125, 0.445312500000, -26.906250000000, -46.039062500000, 1490686800
0.443359375000, 0.240234375000, 0.942626953125, 0.445312500000, -26.906250000000, -46.039062500000, 1490686800
0.514648437500, 0.315917968750, 0.866699218750, -2.164062500000, -31.554687500000, -29.875000000000, 1490686800
0.491455078125, 0.247558593750, 0.808349609375, -6.125000000000, -42.984375000000, -15.687500000000, 1490686800
0.491455078125, 0.247558593750, 0.808349609375, -6.125000000000, -42.984375000000, -15.687500000000, 1490686800
0.628662109375, 0.162841796875, 0.793457031250, -6.375000000000, -31.539062500000, -25.820312500000, 1490686800
0.628662109375, 0.162841796875, 0.793457031250, -6.375000000000, -31.539062500000, -25.820312500000, 1490686800
0.628662109375, 0.162841796875, 0.793457031250, -6.375000000000, -31.539062500000, -25.820312500000, 1490686800
0.561035156250, 0.218017578125, 0.797363281250, 0.429687500000, -45.140625000000, -18.789062500000, 1490686800
0.561035156250, 0.218017578125, 0.797363281250, 0.429687500000, -45.140625000000, -18.789062500000, 1490686800
0.561035156250, 0.218017578125, 0.797363281250, 0.429687500000, -45.140625000000, -18.789062500000, 1490686800
0.561035156250, 0.218017578125, 0.797363281250, 0.429687500000, -45.140625000000, -18.789062500000, 1490686800
0.600585937500, 0.104492187500, 0.842773437500, -5.687500000000, -40.125000000000, -17.578125000000, 1490686800
0.600585937500, 0.104492187500, 0.842773437500, -5.687500000000, -40.125000000000, -17.578125000000, 1490686800
0.600585937500, 0.104492187500, 0.842773437500, -5.687500000000, -40.125000000000, -17.578125000000, 1490686800
0.600585937500, 0.104492187500, 0.842773437500, -5.687500000000, -40.125000000000, -17.578125000000, 1490686800
0.600585937500, 0.104492187500, 0.842773437500, -5.687500000000, -40.125000000000, -17.578125000000, 1490686800
0.763183593750, 0.104736328125, 0.813232421875, 0.773437500000, -52.773437500000, -22.046875000000, 1490686800
0.763183593750, 0.104736328125, 0.813232421875, 0.773437500000, -52.773437500000, -22.046875000000, 1490686800
0.763183593750, 0.104736328125, 0.813232421875, 0.773437500000, -52.773437500000, -22.046875000000, 1490686800
0.763183593750, 0.104736328125, 0.813232421875, 0.773437500000, -52.773437500000, -22.046875000000, 1490686800
0.763183593750, 0.104736328125, 0.813232421875, 0.773437500000, -52.773437500000, -22.046875000000, 1490686800
0.696289062500, 0.214599609375, 0.835205078125, 2.796875000000, -37.593750000000, -20.812500000000, 1490686800
0.696289062500, 0.214599609375, 0.835205078125, 2.796875000000, -37.593750000000, -20.812500000000, 1490686800
0.696289062500, 0.214599609375, 0.835205078125, 2.796875000000, -37.593750000000, -20.812500000000, 1490686800
0.706054687500, 0.159423828125, 0.669189453125, 3.929687500000, -40.531250000000, -23.734375000000, 1490686800
0.706054687500, 0.159423828125, 0.669189453125, 3.929687500000, -40.531250000000, -23.734375000000, 1490686800
0.706054687500, 0.159423828125, 0.669189453125, 3.929687500000, -40.531250000000, -23.734375000000, 1490686800
0.732666015625, 0.151123046875, 0.676025390625, 7.593750000000, -33.031250000000, -29.875000000000, 1490686801
0.732666015625, 0.151123046875, 0.676025390625, 7.593750000000, -33.031250000000, -29.875000000000, 1490686801
0.732666015625, 0.151123046875, 0.676025390625, 7.593750000000, -33.031250000000, -29.875000000000, 1490686801
0.732666015625, 0.151123046875, 0.676025390625, 7.593750000000, -33.031250000000, -29.875000000000, 1490686801
0.725097656250, 0.207031250000, 0.666259765625, 3.976562500000, -27.632812500000, -27.585937500000, 1490686801
0.725097656250, 0.207031250000, 0.666259765625, 3.976562500000, -27.632812500000, -27.585937500000, 1490686801
0.725097656250, 0.207031250000, 0.666259765625, 3.976562500000, -27.632812500000, -27.585937500000, 1490686801
0.748291015625, -0.002441406250, 0.594726562500, 8.007812500000, -19.679687500000, -36.421875000000, 1490686801
0.748291015625, -0.002441406250, 0.594726562500, 8.007812500000, -19.679687500000, -36.421875000000, 1490686801
0.748291015625, -0.002441406250, 0.594726562500, 8.007812500000, -19.679687500000, -36.421875000000, 1490686801
0.895751953125, 0.070556640625, 0.677490234375, 6.531250000000, -12.101562500000, -39.414062500000, 1490686801
0.895751953125, 0.070556640625, 0.677490234375, 6.531250000000, -12.101562500000, -39.414062500000, 1490686801
0.895751953125, 0.070556640625, 0.677490234375, 6.531250000000, -12.101562500000, -39.414062500000, 1490686801
0.891845703125, 0.138671875000, 0.651123046875, -2.312500000000, -21.609375000000, -21.296875000000, 1490686801
0.891845703125, 0.138671875000, 0.651123046875, -2.312500000000, -21.609375000000, -21.296875000000, 1490686801
0.891845703125, 0.138671875000, 0.651123046875, -2.312500000000, -21.609375000000, -21.296875000000, 1490686801
0.891845703125, 0.138671875000, 0.651123046875, -2.312500000000, -21.609375000000, -21.296875000000, 1490686801
0.722412109375, 0.042236328125, 0.552490234375, -6.546875000000, -38.843750000000, -23.898437500000, 1490686801
0.722412109375, 0.042236328125, 0.552490234375, -6.546875000000, -38.843750000000, -23.898437500000, 1490686801
0.722412109375, 0.042236328125, 0.552490234375, -6.546875000000, -38.843750000000, -23.898437500000, 1490686801
0.779785156250, 0.067871093750, 0.624267578125, -0.515625000000, -33.390625000000, -29.625000000000, 1490686801
0.779785156250, 0.067871093750, 0.624267578125, -0.515625000000, -33.390625000000, -29.625000000000, 1490686801
0.779785156250, 0.067871093750, 0.624267578125, -0.515625000000, -33.390625000000, -29.625000000000, 1490686801
0.821044921875, 0.009521484375, 0.547119140625, -3.515625000000, -25.601562500000, -38.273437500000, 1490686801
0.821044921875, 0.009521484375, 0.547119140625, -3.515625000000, -25.601562500000, -38.273437500000, 1490686801
0.821044921875, 0.009521484375, 0.547119140625, -3.515625000000, -25.601562500000, -38.273437500000, 1490686801
0.805664062500, -0.041748046875, 0.563720703125, -1.757812500000, -33.156250000000, -38.609375000000, 1490686801
0.805664062500, -0.041748046875, 0.563720703125, -1.757812500000, -33.156250000000, -38.609375000000, 1490686801
0.805664062500, -0.041748046875, 0.563720703125, -1.757812500000, -33.156250000000, -38.609375000000, 1490686801
0.805664062500, -0.041748046875, 0.563720703125, -1.757812500000, -33.156250000000, -38.609375000000, 1490686801
0.788818359375, 0.000244140625, 0.576904296875, 3.945312500000, -26.054687500000, -51.687500000000, 1490686801
0.788818359375, 0.000244140625, 0.576904296875, 3.945312500000, -26.054687500000, -51.687500000000, 1490686801
0.788818359375, 0.000244140625, 0.576904296875, 3.945312500000, -26.054687500000, -51.687500000000, 1490686801
0.616943359375, -0.204101562500, 0.492919921875, 4.789062500000, 16.640625000000, -59.554687500000, 1490686801
0.616943359375, -0.204101562500, 0.492919921875, 4.789062500000, 16.640625000000, -59.554687500000, 1490686801
0.616943359375, -0.204101562500, 0.492919921875, 4.789062500000, 16.640625000000, -59.554687500000, 1490686801
0.601318359375, -0.238769531250, 0.510498046875, 41.640625000000, 45.843750000000, -95.085937500000, 1490686801
0.601318359375, -0.238769531250, 0.510498046875, 41.640625000000, 45.843750000000, -95.085937500000, 1490686801
0.601318359375, -0.238769531250, 0.510498046875, 41.640625000000, 45.843750000000, -95.085937500000, 1490686801
0.804443359375, -0.227294921875, 0.524658203125, 31.062500000000, -56.828125000000, -76.992187500000, 1490686801
0.804443359375, -0.227294921875, 0.524658203125, 31.062500000000, -56.828125000000, -76.992187500000, 1490686801
0.804443359375, -0.227294921875, 0.524658203125, 31.062500000000, -56.828125000000, -76.992187500000, 1490686801
0.804443359375, -0.227294921875, 0.524658203125, 31.062500000000, -56.828125000000, -76.992187500000, 1490686801
0.901855468750, -0.372802734375, 0.432617187500, 25.851562500000, 56.687500000000, -94.953125000000, 1490686801
0.901855468750, -0.372802734375, 0.432617187500, 25.851562500000, 56.687500000000, -94.953125000000, 1490686801
0.901855468750, -0.372802734375, 0.432617187500, 25.851562500000, 56.687500000000, -94.953125000000, 1490686801
2.335693359375, -0.357910156250, 0.781982421875, 19.437500000000, 4.460937500000, 58.125000000000, 1490686801
2.335693359375, -0.357910156250, 0.781982421875, 19.437500000000, 4.460937500000, 58.125000000000, 1490686801
2.335693359375, -0.357910156250, 0.781982421875, 19.437500000000, 4.460937500000, 58.125000000000, 1490686801
0.672607421875, -0.360595703125, 0.451416015625, 25.476562500000, -96.695312500000, -43.140625000000, 1490686801
0.672607421875, -0.360595703125, 0.451416015625, 25.476562500000, -96.695312500000, -43.140625000000, 1490686801
0.672607421875, -0.360595703125, 0.451416015625, 25.476562500000, -96.695312500000, -43.140625000000, 1490686801
0.892333984375, -0.342285156250, 0.302246093750, 39.171875000000, -80.523437500000, 29.382812500000, 1490686801
0.892333984375, -0.342285156250, 0.302246093750, 39.171875000000, -80.523437500000, 29.382812500000, 1490686801
0.892333984375, -0.342285156250, 0.302246093750, 39.171875000000, -80.523437500000, 29.382812500000, 1490686801
0.899902343750, -0.395019531250, 0.309570312500, 32.687500000000, -69.132812500000, 29.523437500000, 1490686801
0.862060546875, -0.388916015625, 0.341552734375, 29.367187500000, -56.843750000000, 32.593750000000, 1490686801
0.862060546875, -0.388916015625, 0.341552734375, 29.367187500000, -56.843750000000, 32.593750000000, 1490686801
0.862060546875, -0.388916015625, 0.341552734375, 29.367187500000, -56.843750000000, 32.593750000000, 1490686801
0.870117187500, -0.297851562500, 0.304931640625, 8.007812500000, -26.234375000000, 15.867187500000, 1490686801
0.870117187500, -0.297851562500, 0.304931640625, 8.007812500000, -26.234375000000, 15.867187500000, 1490686801
0.870117187500, -0.297851562500, 0.304931640625, 8.007812500000, -26.234375000000, 15.867187500000, 1490686801
0.800292968750, -0.405273437500, 0.319091796875, 6.429687500000, -29.781250000000, 22.335937500000, 1490686801
0.797363281250, -0.306884765625, 0.285156250000, -12.476562500000, -24.132812500000, 4.968750000000, 1490686801
0.942871093750, -0.438720703125, 0.265625000000, -2.718750000000, -68.875000000000, 15.187500000000, 1490686802
1.067138671875, -0.223876953125, 0.275146484375, 1.757812500000, -53.906250000000, 12.156250000000, 1490686802
1.067138671875, -0.223876953125, 0.275146484375, 1.757812500000, -53.906250000000, 12.156250000000, 1490686802
0.837402343750, -0.316162109375, 0.217285156250, -0.585937500000, -52.281250000000, 12.156250000000, 1490686802
0.837402343750, -0.316162109375, 0.217285156250, -0.585937500000, -52.281250000000, 12.156250000000, 1490686802
0.837402343750, -0.316162109375, 0.217285156250, -0.585937500000, -52.281250000000, 12.156250000000, 1490686802
0.837402343750, -0.316162109375, 0.217285156250, -0.585937500000, -52.281250000000, 12.156250000000, 1490686802
0.873779296875, -0.336425781250, 0.155029296875, 1.609375000000, -55.640625000000, 12.875000000000, 1490686802
0.873779296875, -0.336425781250, 0.155029296875, 1.609375000000, -55.640625000000, 12.875000000000, 1490686802
0.873779296875, -0.336425781250, 0.155029296875, 1.609375000000, -55.640625000000, 12.875000000000, 1490686802
0.873779296875, -0.336425781250, 0.155029296875, 1.609375000000, -55.640625000000, 12.875000000000, 1490686802
0.873779296875, -0.336425781250, 0.155029296875, 1.609375000000, -55.640625000000, 12.875000000000, 1490686802
0.926025390625, -0.223144531250, 0.095458984375, 2.117187500000, -64.257812500000, 22.664062500000, 1490686802
1.016113281250, -0.232910156250, 0.075683593750, 0.867187500000, -60.062500000000, 23.976562500000, 1490686802
1.016113281250, -0.232910156250, 0.075683593750, 0.867187500000, -60.062500000000, 23.976562500000, 1490686802
1.016113281250, -0.232910156250, 0.075683593750, 0.867187500000, -60.062500000000, 23.976562500000, 1490686802
1.016113281250, -0.232910156250, 0.075683593750, 0.867187500000, -60.062500000000, 23.976562500000, 1490686802
0.976562500000, -0.242675781250, -0.022705078125, 4.210937500000, -35.093750000000, 6.171875000000, 1490686802
0.976562500000, -0.242675781250, -0.022705078125, 4.210937500000, -35.093750000000, 6.171875000000, 1490686802
0.976562500000, -0.242675781250, -0.022705078125, 4.210937500000, -35.093750000000, 6.171875000000, 1490686802
0.976562500000, -0.242675781250, -0.022705078125, 4.210937500000, -35.093750000000, 6.171875000000, 1490686802
1.020996093750, -0.322753906250, -0.065185546875, 4.375000000000, -39.046875000000, 6.734375000000, 1490686802
1.020996093750, -0.322753906250, -0.065185546875, 4.375000000000, -39.046875000000, 6.734375000000, 1490686802
1.020996093750, -0.322753906250, -0.065185546875, 4.375000000000, -39.046875000000, 6.734375000000, 1490686802
1.089111328125, -0.342285156250, -0.069580078125, 8.984375000000, -68.492187500000, 13.656250000000, 1490686802
1.089111328125, -0.342285156250, -0.069580078125, 8.984375000000, -68.492187500000, 13.656250000000, 1490686802
1.089111328125, -0.342285156250, -0.069580078125, 8.984375000000, -68.492187500000, 13.656250000000, 1490686802
0.910156250000, -0.173095703125, -0.135009765625, 10.664062500000, -98.593750000000, 9.468750000000, 1490686802
0.910156250000, -0.173095703125, -0.135009765625, 10.664062500000, -98.593750000000, 9.468750000000, 1490686802
0.910156250000, -0.173095703125, -0.135009765625, 10.664062500000, -98.593750000000, 9.468750000000, 1490686802
0.910156250000, -0.173095703125, -0.135009765625, 10.664062500000, -98.593750000000, 9.468750000000, 1490686802
1.133056640625, -0.250000000000, -0.156982421875, 5.898437500000, -126.171875000000, 6.992187500000, 1490686802
1.133056640625, -0.250000000000, -0.156982421875, 5.898437500000, -126.171875000000, 6.992187500000, 1490686802
1.133056640625, -0.250000000000, -0.156982421875, 5.898437500000, -126.171875000000, 6.992187500000, 1490686802
0.845458984375, -0.172851562500, -0.283203125000, 8.085937500000, -197.718750000000, 9.867187500000, 1490686802
0.845458984375, -0.172851562500, -0.283203125000, 8.085937500000, -197.718750000000, 9.867187500000, 1490686802
0.845458984375, -0.172851562500, -0.283203125000, 8.085937500000, -197.718750000000, 9.867187500000, 1490686802
0.784179687500, -0.142333984375, -0.465332031250, 1.125000000000, -233.390625000000, 31.531250000000, 1490686802
0.784179687500, -0.142333984375, -0.465332031250, 1.125000000000, -233.390625000000, 31.531250000000, 1490686802
0.784179687500, -0.142333984375, -0.465332031250, 1.125000000000, -233.390625000000, 31.531250000000, 1490686802
0.614746093750, -0.053466796875, -0.805419921875, 22.218750000000, -187.070312500000, 22.351562500000, 1490686802
0.614746093750, -0.053466796875, -0.805419921875, 22.218750000000, -187.070312500000, 22.351562500000, 1490686802
0.614746093750, -0.053466796875, -0.805419921875, 22.218750000000, -187.070312500000, 22.351562500000, 1490686802
0.614746093750, -0.053466796875, -0.805419921875, 22.218750000000, -187.070312500000, 22.351562500000, 1490686802
0.651611328125, 0.003173828125, -0.844482421875, -6.640625000000, -35.312500000000, -15.765625000000, 1490686802
0.651611328125, 0.003173828125, -0.844482421875, -6.640625000000, -35.312500000000, -15.765625000000, 1490686802
0.651611328125, 0.003173828125, -0.844482421875, -6.640625000000, -35.312500000000, -15.765625000000, 1490686802
0.479003906250, -0.132080078125, -0.654052734375, -8.148437500000, -32.593750000000, -12.695312500000, 1490686802
0.479003906250, -0.132080078125, -0.654052734375, -8.148437500000, -32.593750000000, -12.695312500000, 1490686802
0.479003906250, -0.132080078125, -0.654052734375, -8.148437500000, -32.593750000000, -12.695312500000, 1490686802
0.593750000000, -0.234619140625, -0.700439453125, -7.859375000000, -40.757812500000, -16.531250000000, 1490686802
0.569580078125, -0.141601562500, -0.776611328125, 12.125000000000, -66.656250000000, 10.796875000000, 1490686802
0.569580078125, -0.141601562500, -0.776611328125, 12.125000000000, -66.656250000000, 10.796875000000, 1490686802
0.569580078125, -0.141601562500, -0.776611328125, 12.125000000000, -66.656250000000, 10.796875000000, 1490686802
0.526611328125, -0.094238281250, -0.931152343750, 17.664062500000, -71.718750000000, 14.414062500000, 1490686802
0.526611328125, -0.094238281250, -0.931152343750, 17.664062500000, -71.718750000000, 14.414062500000, 1490686802
0.526611328125, -0.094238281250, -0.931152343750, 17.664062500000, -71.718750000000, 14.414062500000, 1490686802
0.526611328125, -0.094238281250, -0.931152343750, 17.664062500000, -71.718750000000, 14.414062500000, 1490686802
0.347412109375, 0.017822265625, -1.019775390625, 10.046875000000, -43.570312500000, 6.640625000000, 1490686802
0.347412109375, 0.017822265625, -1.019775390625, 10.046875000000, -43.570312500000, 6.640625000000, 1490686802
0.347412109375, 0.017822265625, -1.019775390625, 10.046875000000, -43.570312500000, 6.640625000000, 1490686802
0.347412109375, 0.017822265625, -1.019775390625, 10.046875000000, -43.570312500000, 6.640625000000, 1490686802
0.347412109375, 0.017822265625, -1.019775390625, 10.046875000000, -43.570312500000, 6.640625000000, 1490686802
0.286132812500, -0.144531250000, -0.958984375000, 1.273437500000, -36.203125000000, -2.968750000000, 1490686802
0.404052734375, -0.134033203125, -0.956787109375, -4.679687500000, 0.218750000000, -5.351562500000, 1490686802
0.404052734375, -0.134033203125, -0.956787109375, -4.679687500000, 0.218750000000, -5.351562500000, 1490686802
0.404052734375, -0.134033203125, -0.956787109375, -4.679687500000, 0.218750000000, -5.351562500000, 1490686802
0.404052734375, -0.134033203125, -0.956787109375, -4.679687500000, 0.218750000000, -5.351562500000, 1490686802
0.404052734375, -0.134033203125, -0.956787109375, -4.679687500000, 0.218750000000, -5.351562500000, 1490686803
0.375244140625, -0.139160156250, -0.869628906250, -0.171875000000, -5.000000000000, -2.835937500000, 1490686803
0.375244140625, -0.139160156250, -0.869628906250, -0.171875000000, -5.000000000000, -2.835937500000, 1490686803
0.375244140625, -0.139160156250, -0.869628906250, -0.171875000000, -5.000000000000, -2.835937500000, 1490686803
0.375244140625, -0.139160156250, -0.869628906250, -0.171875000000, -5.000000000000, -2.835937500000, 1490686803
0.402343750000, -0.057861328125, -0.934570312500, 2.414062500000, -2.343750000000, -0.671875000000, 1490686803
0.402343750000, -0.057861328125, -0.934570312500, 2.414062500000, -2.343750000000, -0.671875000000, 1490686803
0.402343750000, -0.057861328125, -0.934570312500, 2.414062500000, -2.343750000000, -0.671875000000, 1490686803
0.402832031250, -0.096679687500, -0.931152343750, 0.710937500000, -0.570312500000, 1.351562500000, 1490686803
0.349853515625, -0.061523437500, -0.878906250000, -6.179687500000, 6.851562500000, 0.570312500000, 1490686803
0.349853515625, -0.061523437500, -0.878906250000, -6.179687500000, 6.851562500000, 0.570312500000, 1490686803
0.349853515625, -0.061523437500, -0.878906250000, -6.179687500000, 6.851562500000, 0.570312500000, 1490686803
0.349853515625, -0.061523437500, -0.878906250000, -6.179687500000, 6.851562500000, 0.570312500000, 1490686803
0.349853515625, -0.061523437500, -0.878906250000, -6.179687500000, 6.851562500000, 0.570312500000, 1490686803
0.349853515625, -0.061523437500, -0.878906250000, -6.179687500000, 6.851562500000, 0.570312500000, 1490686803
0.377685546875, -0.101074218750, -0.924072265625, -4.265625000000, 1.867187500000, 3.062500000000, 1490686803
0.377685546875, -0.101074218750, -0.924072265625, -4.265625000000, 1.867187500000, 3.062500000000, 1490686803
0.377685546875, -0.101074218750, -0.924072265625, -4.265625000000, 1.867187500000, 3.062500000000, 1490686803
0.416259765625, -0.117187500000, -0.910644531250, -6.554687500000, -0.242187500000, 1.242187500000, 1490686803
0.416259765625, -0.117187500000, -0.910644531250, -6.554687500000, -0.242187500000, 1.242187500000, 1490686803
0.416259765625, -0.117187500000, -0.910644531250, -6.554687500000, -0.242187500000, 1.242187500000, 1490686803
0.356933593750, -0.080810546875, -0.882080078125, -1.421875000000, -2.304687500000, -3.757812500000, 1490686803
0.451171875000, -0.064208984375, -0.943115234375, -4.601562500000, -3.179687500000, -2.656250000000, 1490686803
0.451171875000, -0.064208984375, -0.943115234375, -4.601562500000, -3.179687500000, -2.656250000000, 1490686803
0.457763671875, -0.146972656250, -0.850097656250, -4.578125000000, -1.187500000000, 0.148437500000, 1490686803
0.457763671875, -0.146972656250, -0.850097656250, -4.578125000000, -1.187500000000, 0.148437500000, 1490686803
0.457763671875, -0.146972656250, -0.850097656250, -4.578125000000, -1.187500000000, 0.148437500000, 1490686803
0.457763671875, -0.146972656250, -0.850097656250, -4.578125000000, -1.187500000000, 0.148437500000, 1490686803
0.377929687500, -0.126220703125, -0.951660156250, -3.164062500000, -3.367187500000, -4.718750000000, 1490686803
0.377929687500, -0.126220703125, -0.951660156250, -3.164062500000, -3.367187500000, -4.718750000000, 1490686803
0.377929687500, -0.126220703125, -0.951660156250, -3.164062500000, -3.367187500000, -4.718750000000, 1490686803
0.377929687500, -0.126220703125, -0.951660156250, -3.164062500000, -3.367187500000, -4.718750000000, 1490686803
0.377929687500, -0.126220703125, -0.951660156250, -3.164062500000, -3.367187500000, -4.718750000000, 1490686803
0.388671875000, -0.039794921875, -0.907470703125, -6.218750000000, -4.039062500000, -3.015625000000, 1490686803
0.388671875000, -0.039794921875, -0.907470703125, -6.218750000000, -4.039062500000, -3.015625000000, 1490686803
0.388671875000, -0.039794921875, -0.907470703125, -6.218750000000, -4.039062500000, -3.015625000000, 1490686803
0.388671875000, -0.039794921875, -0.907470703125, -6.218750000000, -4.039062500000, -3.015625000000, 1490686803
0.468750000000, -0.077148437500, -0.923095703125, -3.375000000000, -1.640625000000, -1.867187500000, 1490686803
0.468750000000, -0.077148437500, -0.923095703125, -3.375000000000, -1.640625000000, -1.867187500000, 1490686803
0.468750000000, -0.077148437500, -0.923095703125, -3.375000000000, -1.640625000000, -1.867187500000, 1490686803
0.310302734375, -0.076416015625, -0.950927734375, -3.312500000000, -3.140625000000, -2.218750000000, 1490686803
0.445556640625, -0.131103515625, -0.951416015625, -3.718750000000, -4.882812500000, -4.828125000000, 1490686803
0.445556640625, -0.131103515625, -0.951416015625, -3.718750000000, -4.882812500000, -4.828125000000, 1490686803
0.445556640625, -0.131103515625, -0.951416015625, -3.718750000000, -4.882812500000, -4.828125000000, 1490686803
