ACC_X,ACC_Y,ACC_Z,G_X,G_Y,G_Z,Unix Time
-0.204101562500, -0.789794921875, 0.535156250000, -1.203125000000, 2.515625000000, -2.703125000000, 1490686628
-0.036865234375, -0.812255859375, 0.485107421875, -3.562500000000, 2.117187500000, 0.796875000000, 1490686628
-0.036865234375, -0.812255859375, 0.485107421875, -3.562500000000, 2.117187500000, 0.796875000000, 1490686628
-0.036865234375, -0.812255859375, 0.485107421875, -3.562500000000, 2.117187500000, 0.796875000000, 1490686628
-0.036865234375, -0.812255859375, 0.485107421875, -3.562500000000, 2.117187500000, 0.796875000000, 1490686628
-0.165283203125, -0.739746093750, 0.573730468750, -5.664062500000, 2.507812500000, -3.281250000000, 1490686628
-0.198486328125, -0.797607421875, 0.557861328125, -3.492187500000, 4.648437500000, -1.242187500000, 1490686628
-0.198486328125, -0.797607421875, 0.557861328125, -3.492187500000, 4.648437500000, -1.242187500000, 1490686628
-0.198486328125, -0.797607421875, 0.557861328125, -3.492187500000, 4.648437500000, -1.242187500000, 1490686628
-0.198486328125, -0.797607421875, 0.557861328125, -3.492187500000, 4.648437500000, -1.242187500000, 1490686628
-0.128173828125, -0.835449218750, 0.583007812500, -8.500000000000, 0.445312500000, 0.382812500000, 1490686628
-0.128173828125, -0.835449218750, 0.583007812500, -8.500000000000, 0.445312500000, 0.382812500000, 1490686628
-0.128173828125, -0.835449218750, 0.583007812500, -8.500000000000, 0.445312500000, 0.382812500000, 1490686628
-0.128173828125, -0.835449218750, 0.583007812500, -8.500000000000, 0.445312500000, 0.382812500000, 1490686628
-0.128173828125, -0.835449218750, 0.583007812500, -8.500000000000, 0.445312500000, 0.382812500000, 1490686628
-0.032470703125, -0.884033203125, 0.589355468750, -6.726562500000, -0.265625000000, -1.843750000000, 1490686628
-0.032470703125, -0.884033203125, 0.589355468750, -6.726562500000, -0.265625000000, -1.843750000000, 1490686628
-0.032470703125, -0.884033203125, 0.589355468750, -6.726562500000, -0.265625000000, -1.843750000000, 1490686628
-0.188720703125, -0.863281250000, 0.572753906250, -7.710937500000, -2.226562500000, -1.484375000000, 1490686628
-0.188720703125, -0.863281250000, 0.572753906250, -7.710937500000, -2.226562500000, -1.484375000000, 1490686628
-0.188720703125, -0.863281250000, 0.572753906250, -7.710937500000, -2.226562500000, -1.484375000000, 1490686628
-0.132812500000, -0.877929687500, 0.648925781250, -7.257812500000, 0.132812500000, -0.320312500000, 1490686628
-0.132812500000, -0.877929687500, 0.648925781250, -7.257812500000, 0.132812500000, -0.320312500000, 1490686628
-0.132812500000, -0.877929687500, 0.648925781250, -7.257812500000, 0.132812500000, -0.320312500000, 1490686628
-0.132812500000, -0.877929687500, 0.648925781250, -7.257812500000, 0.132812500000, -0.320312500000, 1490686628
-0.157226562500, -0.782714843750, 0.418701171875, -5.179687500000, -4.882812500000, -1.492187500000, 1490686628
-0.157226562500, -0.782714843750, 0.418701171875, -5.179687500000, -4.882812500000, -1.492187500000, 1490686628
-0.157226562500, -0.782714843750, 0.418701171875, -5.179687500000, -4.882812500000, -1.492187500000, 1490686628
-0.201416015625, -0.808105468750, 0.630615234375, -1.515625000000, 5.023437500000, -5.171875000000, 1490686628
-0.201416015625, -0.808105468750, 0.630615234375, -1.515625000000, 5.023437500000, -5.171875000000, 1490686628
-0.201416015625, -0.808105468750, 0.630615234375, -1.515625000000, 5.023437500000, -5.171875000000, 1490686628
-0.126708984375, -0.855712890625, 0.496093750000, -3.632812500000, -2.421875000000, -1.492187500000, 1490686628
-0.126708984375, -0.855712890625, 0.496093750000, -3.632812500000, -2.421875000000, -1.492187500000, 1490686628
-0.126708984375, -0.855712890625, 0.496093750000, -3.632812500000, -2.421875000000, -1.492187500000, 1490686628
-0.126708984375, -0.855712890625, 0.496093750000, -3.632812500000, -2.421875000000, -1.492187500000, 1490686628
-0.126708984375, -0.855712890625, 0.496093750000, -3.632812500000, -2.421875000000, -1.492187500000, 1490686628
-0.051269531250, -0.822509765625, 0.573486328125, 0.039062500000, 1.835937500000, -3.453125000000, 1490686628
-0.051269531250, -0.822509765625, 0.573486328125, 0.039062500000, 1.835937500000, -3.453125000000, 1490686628
-0.051269531250, -0.822509765625, 0.573486328125, 0.039062500000, 1.835937500000, -3.453125000000, 1490686628
-0.195800781250, -0.811035156250, 0.471435546875, -6.140625000000, -0.085937500000, -4.468750000000, 1490686628
-0.096679687500, -0.824218750000, 0.559570312500, -6.140625000000, -0.085937500000, -4.468750000000, 1490686628
-0.096679687500, -0.824218750000, 0.559570312500, -6.140625000000, -0.085937500000, -4.468750000000, 1490686628
-0.096679687500, -0.824218750000, 0.559570312500, -6.140625000000, -0.085937500000, -4.468750000000, 1490686628
-0.096679687500, -0.824218750000, 0.559570312500, -6.140625000000, -0.085937500000, -4.468750000000, 1490686628
-0.115478515625, -0.722167968750, 0.593261718750, -1.289062500000, 1.335937500000, -2.867187500000, 1490686628
-0.115478515625, -0.722167968750, 0.593261718750, -1.289062500000, 1.335937500000, -2.867187500000, 1490686628
-0.032714843750, -0.887939453125, 0.629150390625, -6.414062500000, 6.023437500000, -3.054687500000, 1490686628
-0.032714843750, -0.887939453125, 0.629150390625, -6.414062500000, 6.023437500000, -3.054687500000, 1490686628
-0.032714843750, -0.887939453125, 0.629150390625, -6.414062500000, 6.023437500000, -3.054687500000, 1490686628
-0.114990234375, -0.825683593750, 0.593505859375, -4.187500000000, 4.257812500000, -4.601562500000, 1490686628
-0.114990234375, -0.825683593750, 0.593505859375, -4.187500000000, 4.257812500000, -4.601562500000, 1490686628
-0.114990234375, -0.825683593750, 0.593505859375, -4.187500000000, 4.257812500000, -4.601562500000, 1490686628
-0.114990234375, -0.825683593750, 0.593505859375, -4.187500000000, 4.257812500000, -4.601562500000, 1490686628
-0.114990234375, -0.825683593750, 0.593505859375, -4.187500000000, 4.257812500000, -4.601562500000, 1490686628
-0.260986328125, -0.897460937500, 0.580322265625, -3.132812500000, 2.492187500000, -1.953125000000, 1490686628
-0.260986328125, -0.897460937500, 0.580322265625, -3.132812500000, 2.492187500000, -1.953125000000, 1490686628
-0.260986328125, -0.897460937500, 0.580322265625, -3.132812500000, 2.492187500000, -1.953125000000, 1490686628
-0.098144531250, -0.858886718750, 0.577148437500, -6.523437500000, 1.828125000000, -6.437500000000, 1490686628
-0.098144531250, -0.858886718750, 0.577148437500, -6.523437500000, 1.828125000000, -6.437500000000, 1490686628
-0.098144531250, -0.858886718750, 0.577148437500, -6.523437500000, 1.828125000000, -6.437500000000, 1490686628
-0.100585937500, -0.826416015625, 0.590332031250, -5.039062500000, 0.578125000000, -2.390625000000, 1490686628
-0.100585937500, -0.826416015625, 0.590332031250, -5.039062500000, 0.578125000000, -2.390625000000, 1490686628
-0.100585937500, -0.826416015625, 0.590332031250, -5.039062500000, 0.578125000000, -2.390625000000, 1490686628
-0.100585937500, -0.826416015625, 0.590332031250, -5.039062500000, 0.578125000000, -2.390625000000, 1490686628
-0.265136718750, -0.886718750000, 0.479736328125, -1.265625000000, 4.539062500000, -6.289062500000, 1490686628
-0.265136718750, -0.886718750000, 0.479736328125, -1.265625000000, 4.539062500000, -6.289062500000, 1490686628
-0.265136718750, -0.886718750000, 0.479736328125, -1.265625000000, 4.539062500000, -6.289062500000, 1490686628
-0.195068359375, -0.810791015625, 0.635253906250, -4.851562500000, 1.398437500000, -4.585937500000, 1490686629
-0.195068359375, -0.810791015625, 0.635253906250, -4.851562500000, 1.398437500000, -4.585937500000, 1490686629
-0.195068359375, -0.810791015625, 0.635253906250, -4.851562500000, 1.398437500000, -4.585937500000, 1490686629
-0.116699218750, -0.804931640625, 0.485839843750, -1.906250000000, 2.851562500000, -2.812500000000, 1490686629
-0.121093750000, -0.737060546875, 0.489990234375, -1.843750000000, 1.859375000000, -1.843750000000, 1490686629
-0.121093750000, -0.737060546875, 0.489990234375, -1.843750000000, 1.859375000000, -1.843750000000, 1490686629
-0.144531250000, -0.803955078125, 0.499023437500, -3.593750000000, 0.929687500000, -3.484375000000, 1490686629
-0.097412109375, -0.812500000000, 0.568359375000, -6.695312500000, -0.437500000000, -1.429687500000, 1490686629
-0.097412109375, -0.812500000000, 0.568359375000, -6.695312500000, -0.437500000000, -1.429687500000, 1490686629
-0.097412109375, -0.812500000000, 0.568359375000, -6.695312500000, -0.437500000000, -1.429687500000, 1490686629
-0.097412109375, -0.812500000000, 0.568359375000, -6.695312500000, -0.437500000000, -1.429687500000, 1490686629
-0.116455078125, -0.878417968750, 0.572753906250, -1.460937500000, 1.921875000000, -4.070312500000, 1490686629
-0.116455078125, -0.878417968750, 0.572753906250, -1.460937500000, 1.921875000000, -4.070312500000, 1490686629
-0.116455078125, -0.878417968750, 0.572753906250, -1.460937500000, 1.921875000000, -4.070312500000, 1490686629
-0.116455078125, -0.878417968750, 0.572753906250, -1.460937500000, 1.921875000000, -4.070312500000, 1490686629
-0.116455078125, -0.878417968750, 0.572753906250, -1.460937500000, 1.921875000000, -4.070312500000, 1490686629
-0.267578125000, -0.790771484375, 0.485839843750, -3.406250000000, 1.132812500000, -3.640625000000, 1490686629
-0.267578125000, -0.790771484375, 0.485839843750, -3.406250000000, 1.132812500000, -3.640625000000, 1490686629
-0.267578125000, -0.790771484375, 0.485839843750, -3.406250000000, 1.132812500000, -3.640625000000, 1490686629
-0.189697265625, -0.819580078125, 0.629638671875, -3.296875000000, 2.914062500000, -3.492187500000, 1490686629
-0.189697265625, -0.819580078125, 0.629638671875, -3.296875000000, 2.914062500000, -3.492187500000, 1490686629
-0.189697265625, -0.819580078125, 0.629638671875, -3.296875000000, 2.914062500000, -3.492187500000, 1490686629
-0.189697265625, -0.819580078125, 0.629638671875, -3.062500000000, 2.812500000000, -1.726562500000, 1490686629
-0.102783203125, -0.795898437500, 0.482421875000, -3.078125000000, 1.554687500000, -1.195312500000, 1490686629
-0.102783203125, -0.795898437500, 0.482421875000, -3.078125000000, 1.554687500000, -1.195312500000, 1490686629
-0.102783203125, -0.795898437500, 0.482421875000, -3.078125000000, 1.554687500000, -1.195312500000, 1490686629
-0.185302734375, -0.781494140625, 0.499267578125, -3.390625000000, 1.250000000000, -6.421875000000, 1490686629
-0.185302734375, -0.781494140625, 0.499267578125, -3.390625000000, 1.250000000000, -6.421875000000, 1490686629
-0.185302734375, -0.781494140625, 0.499267578125, -3.390625000000, 1.250000000000, -6.421875000000, 1490686629
-0.206298828125, -0.794921875000, 0.578369140625, -4.914062500000, 4.398437500000, -4.984375000000, 1490686629
-0.206298828125, -0.794921875000, 0.578369140625, -4.914062500000, 4.398437500000, -4.984375000000, 1490686629
-0.192382812500, -0.783447265625, 0.638427734375, -3.507812500000, -2.648437500000, -5.226562500000, 1490686629
-0.154296875000, -0.809082031250, 0.591064453125, -4.367187500000, 1.015625000000, -5.406250000000, 1490686629
-0.141601562500, -0.805419921875, 0.577148437500, -4.875000000000, -0.695312500000, -2.320312500000, 1490686629
-0.141601562500, -0.805419921875, 0.577148437500, -4.875000000000, -0.695312500000, -2.320312500000, 1490686629
-0.141601562500, -0.805419921875, 0.577148437500, -4.875000000000, -0.695312500000, -2.320312500000, 1490686629
-0.141601562500, -0.805419921875, 0.577148437500, -4.875000000000, -0.695312500000, -2.320312500000, 1490686629
-0.141601562500, -0.805419921875, 0.577148437500, -4.875000000000, -0.695312500000, -2.320312500000, 1490686629
-0.141601562500, -0.805419921875, 0.577148437500, -4.875000000000, -0.695312500000, -2.320312500000, 1490686629
-0.141601562500, -0.805419921875, 0.577148437500, -4.875000000000, -0.695312500000, -2.320312500000, 1490686629
-0.134521484375, -0.949462890625, 0.505371093750, -2.218750000000, 2.820312500000, -4.304687500000, 1490686629
-0.134521484375, -0.949462890625, 0.505371093750, -2.218750000000, 2.820312500000, -4.304687500000, 1490686629
-0.134521484375, -0.949462890625, 0.505371093750, -2.218750000000, 2.820312500000, -4.304687500000, 1490686629
-0.134521484375, -0.949462890625, 0.505371093750, -2.218750000000, 2.820312500000, -4.304687500000, 1490686629
-0.134521484375, -0.949462890625, 0.505371093750, -2.218750000000, 2.820312500000, -4.304687500000, 1490686629
-0.176513671875, -0.841308593750, 0.521728515625, -4.750000000000, 2.281250000000, -4.031250000000, 1490686629
-0.176513671875, -0.841308593750, 0.521728515625, -4.750000000000, 2.281250000000, -4.031250000000, 1490686629
-0.176513671875, -0.841308593750, 0.521728515625, -4.750000000000, 2.281250000000, -4.031250000000, 1490686629
-0.176513671875, -0.841308593750, 0.521728515625, -4.750000000000, 2.281250000000, -4.031250000000, 1490686629
-0.277343750000, -0.795166015625, 0.484619140625, -3.070312500000, 1.515625000000, -4.640625000000, 1490686629
-0.277343750000, -0.795166015625, 0.484619140625, -3.070312500000, 1.515625000000, -4.640625000000, 1490686629
-0.277343750000, -0.795166015625, 0.484619140625, -3.070312500000, 1.515625000000, -4.640625000000, 1490686629
-0.281005859375, -0.879150390625, 0.493164062500, -3.390625000000, 0.078125000000, -4.914062500000, 1490686629
-0.281005859375, -0.879150390625, 0.493164062500, -3.390625000000, 0.078125000000, -4.914062500000, 1490686629
-0.281005859375, -0.879150390625, 0.493164062500, -3.390625000000, 0.078125000000, -4.914062500000, 1490686629
-0.281005859375, -0.879150390625, 0.493164062500, -3.390625000000, 0.078125000000, -4.914062500000, 1490686629
-0.281005859375, -0.879150390625, 0.493164062500, -3.390625000000, 0.078125000000, -4.914062500000, 1490686629
-0.200927734375, -0.880615234375, 0.493652343750, -3.414062500000, 2.085937500000, -2.617187500000, 1490686629
-0.200927734375, -0.880615234375, 0.493652343750, -3.414062500000, 2.085937500000, -2.617187500000, 1490686629
-0.200927734375, -0.880615234375, 0.493652343750, -3.414062500000, 2.085937500000, -2.617187500000, 1490686629
-0.200927734375, -0.880615234375, 0.493652343750, -3.414062500000, 2.085937500000, -2.617187500000, 1490686629
-0.200927734375, -0.880615234375, 0.493652343750, -3.414062500000, 2.085937500000, -2.617187500000, 1490686629
-0.161865234375, -0.800781250000, 0.508300781250, -3.265625000000, 1.593750000000, -4.476562500000, 1490686629
-0.161865234375, -0.800781250000, 0.508300781250, -3.265625000000, 1.593750000000, -4.476562500000, 1490686629
-0.161865234375, -0.800781250000, 0.508300781250, -3.265625000000, 1.593750000000, -4.476562500000, 1490686629
-0.213867187500, -0.805419921875, 0.627441406250, -3.109375000000, -0.445312500000, -4.859375000000, 1490686630
-0.213867187500, -0.805419921875, 0.627441406250, -3.109375000000, -0.445312500000, -4.859375000000, 1490686630
-0.213867187500, -0.805419921875, 0.627441406250, -3.109375000000, -0.445312500000, -4.859375000000, 1490686630
-0.123779296875, -0.791992187500, 0.533691406250, 0.898437500000, 2.843750000000, -4.554687500000, 1490686630
-0.123779296875, -0.791992187500, 0.533691406250, 0.898437500000, 2.843750000000, -4.554687500000, 1490686630
-0.123779296875, -0.791992187500, 0.533691406250, 0.898437500000, 2.843750000000, -4.554687500000, 1490686630
-0.188232421875, -0.839843750000, 0.498779296875, -5.343750000000, 0.523437500000, -3.171875000000, 1490686630
-0.188232421875, -0.839843750000, 0.498779296875, -5.343750000000, 0.523437500000, -3.171875000000, 1490686630
-0.188232421875, -0.839843750000, 0.498779296875, -5.343750000000, 0.523437500000, -3.171875000000, 1490686630
-0.188232421875, -0.839843750000, 0.498779296875, -5.343750000000, 0.523437500000, -3.171875000000, 1490686630
-0.250000000000, -0.895263671875, 0.490722656250, -5.671875000000, -1.960937500000, -1.945312500000, 1490686630
-0.250000000000, -0.895263671875, 0.490722656250, -5.671875000000, -1.960937500000, -1.945312500000, 1490686630
-0.250000000000, -0.895263671875, 0.490722656250, -5.671875000000, -1.960937500000, -1.945312500000, 1490686630
-0.202636718750, -0.831298828125, 0.542968750000, -3.570312500000, -2.359375000000, -4.679687500000, 1490686630
-0.202636718750, -0.831298828125, 0.542968750000, -3.570312500000, -2.359375000000, -4.679687500000, 1490686630
-0.202636718750, -0.831298828125, 0.542968750000, -3.570312500000, -2.359375000000, -4.679687500000, 1490686630
-0.178710937500, -0.821289062500, 0.493164062500, -8.898437500000, -2.625000000000, -4.640625000000, 1490686630
-0.178710937500, -0.821289062500, 0.493164062500, -8.898437500000, -2.625000000000, -4.640625000000, 1490686630
-0.117187500000, -0.747070312500, 0.576171875000, -6.304687500000, 1.039062500000, -1.281250000000, 1490686630
-0.117187500000, -0.747070312500, 0.576171875000, -6.304687500000, 1.039062500000, -1.281250000000, 1490686630
-0.117187500000, -0.747070312500, 0.576171875000, -6.304687500000, 1.039062500000, -1.281250000000, 1490686630
-0.117187500000, -0.747070312500, 0.576171875000, -6.304687500000, 1.039062500000, -1.281250000000, 1490686630
-0.117187500000, -0.747070312500, 0.576171875000, -6.304687500000, 1.039062500000, -1.281250000000, 1490686630
-0.201171875000, -0.832275390625, 0.483398437500, -4.078125000000, -0.898437500000, -1.257812500000, 1490686630
-0.201171875000, -0.832275390625, 0.483398437500, -4.078125000000, -0.898437500000, -1.257812500000, 1490686630
-0.201171875000, -0.832275390625, 0.483398437500, -4.078125000000, -0.898437500000, -1.257812500000, 1490686630
-0.323730468750, -0.834472656250, 0.558105468750, -3.054687500000, -2.320312500000, -4.203125000000, 1490686630
-0.323730468750, -0.834472656250, 0.558105468750, -3.054687500000, -2.320312500000, -4.203125000000, 1490686630
-0.323730468750, -0.834472656250, 0.558105468750, -3.054687500000, -2.320312500000, -4.203125000000, 1490686630
-0.104248046875, -0.885009765625, 0.524658203125, -4.656250000000, 0.679687500000, -4.195312500000, 1490686630
-0.104248046875, -0.885009765625, 0.524658203125, -4.656250000000, 0.679687500000, -4.195312500000, 1490686630
-0.125000000000, -0.953369140625, 0.493164062500, -1.054687500000, 0.671875000000, -2.179687500000, 1490686630
-0.125000000000, -0.953369140625, 0.493164062500, -1.054687500000, 0.671875000000, -2.179687500000, 1490686630
-0.125000000000, -0.953369140625, 0.493164062500, -1.054687500000, 0.671875000000, -2.179687500000, 1490686630
-0.107666015625, -0.850341796875, 0.572753906250, -1.289062500000, -2.609375000000, -1.203125000000, 1490686630
-0.107666015625, -0.850341796875, 0.572753906250, -1.289062500000, -2.609375000000, -1.203125000000, 1490686630
-0.107666015625, -0.850341796875, 0.572753906250, -1.289062500000, -2.609375000000, -1.203125000000, 1490686630
-0.107666015625, -0.850341796875, 0.572753906250, -1.289062500000, -2.609375000000, -1.203125000000, 1490686630
-0.187744140625, -0.851318359375, 0.491699218750, 2.093750000000, -1.718750000000, -4.328125000000, 1490686630
-0.134277343750, -0.727539062500, 0.573486328125, 2.093750000000, -1.718750000000, -4.328125000000, 1490686630
-0.134277343750, -0.727539062500, 0.573486328125, 2.093750000000, -1.718750000000, -4.328125000000, 1490686630
-0.134277343750, -0.727539062500, 0.573486328125, 2.093750000000, -1.718750000000, -4.328125000000, 1490686630
-0.075927734375, -0.836669921875, 0.566406250000, 2.257812500000, -2.273437500000, -1.867187500000, 1490686630
-0.075927734375, -0.836669921875, 0.566406250000, 2.257812500000, -2.273437500000, -1.867187500000, 1490686630
-0.075927734375, -0.836669921875, 0.566406250000, 2.257812500000, -2.273437500000, -1.867187500000, 1490686630
-0.230468750000, -0.833984375000, 0.504882812500, 8.187500000000, -7.132812500000, -5.882812500000, 1490686630
-0.230468750000, -0.833984375000, 0.504882812500, 8.187500000000, -7.132812500000, -5.882812500000, 1490686630
-0.230468750000, -0.833984375000, 0.504882812500, 8.187500000000, -7.132812500000, -5.882812500000, 1490686630
-0.165283203125, -0.827392578125, 0.563476562500, -3.914062500000, -10.531250000000, -13.789062500000, 1490686630
-0.144531250000, -0.823486328125, 0.511962890625, -3.914062500000, -10.531250000000, -13.789062500000, 1490686630
-0.144531250000, -0.823486328125, 0.511962890625, -3.914062500000, -10.531250000000, -13.789062500000, 1490686630
-0.144531250000, -0.823486328125, 0.511962890625, -3.914062500000, -10.531250000000, -13.789062500000, 1490686630
-0.212402343750, -0.771972656250, 0.530517578125, 5.914062500000, -13.843750000000, -13.140625000000, 1490686630
-0.212402343750, -0.771972656250, 0.530517578125, 5.914062500000, -13.843750000000, -13.140625000000, 1490686630
-0.212402343750, -0.771972656250, 0.530517578125, 5.914062500000, -13.843750000000, -13.140625000000, 1490686630
-0.168457031250, -0.831787109375, 0.631835937500, 44.007812500000, 0.507812500000, -18.843750000000, 1490686630
-0.168457031250, -0.831787109375, 0.631835937500, 44.007812500000, 0.507812500000, -18.843750000000, 1490686630
-0.168457031250, -0.831787109375, 0.631835937500, 44.007812500000, 0.507812500000, -18.843750000000, 1490686630
-0.205810546875, -0.803955078125, 0.582763671875, 18.515625000000, -3.523437500000, -7.445312500000, 1490686630
-0.237792968750, -0.838134765625, 0.515136718750, 57.000000000000, 28.234375000000, -12.718750000000, 1490686630
-0.237792968750, -0.838134765625, 0.515136718750, 57.000000000000, 28.234375000000, -12.718750000000, 1490686630
-0.221679687500, -0.728759765625, 0.553466796875, 50.710937500000, -5.203125000000, 4.476562500000, 1490686630
-0.247558593750, -0.705322265625, 0.503173828125, 50.710937500000, -5.203125000000, 4.476562500000, 1490686630
-0.247558593750, -0.705322265625, 0.503173828125, 50.710937500000, -5.203125000000, 4.476562500000, 1490686630
-0.247558593750, -0.705322265625, 0.503173828125, 50.710937500000, -5.203125000000, 4.476562500000, 1490686630
-0.247558593750, -0.705322265625, 0.503173828125, 50.710937500000, -5.203125000000, 4.476562500000, 1490686631
-0.247558593750, -0.705322265625, 0.503173828125, 50.710937500000, -5.203125000000, 4.476562500000, 1490686631
-0.247558593750, -0.705322265625, 0.503173828125, 50.710937500000, -5.203125000000, 4.476562500000, 1490686631
-0.115478515625, -0.543212890625, 0.394042968750, 35.476562500000, 1.718750000000, -11.156250000000, 1490686631
-0.115478515625, -0.543212890625, 0.394042968750, 35.476562500000, 1.718750000000, -11.156250000000, 1490686631
-0.115478515625, -0.543212890625, 0.394042968750, 35.476562500000, 1.718750000000, -11.156250000000, 1490686631
-0.143554687500, -0.480712890625, 0.296630859375, 12.039062500000, 9.359375000000, -5.234375000000, 1490686631
-0.143554687500, -0.480712890625, 0.296630859375, 12.039062500000, 9.359375000000, -5.234375000000, 1490686631
-0.143554687500, -0.480712890625, 0.296630859375, 12.039062500000, 9.359375000000, -5.234375000000, 1490686631
-0.143554687500, -0.480712890625, 0.296630859375, 12.039062500000, 9.359375000000, -5.234375000000, 1490686631
-0.212646484375, -0.629638671875, 0.234863281250, -10.125000000000, 23.578125000000, 13.570312500000, 1490686631
-0.212646484375, -0.629638671875, 0.234863281250, -10.125000000000, 23.578125000000, 13.570312500000, 1490686631
-0.212646484375, -0.629638671875, 0.234863281250, -10.125000000000, 23.578125000000, 13.570312500000, 1490686631
-0.233398437500, -0.611572265625, 0.344726562500, -5.960937500000, 11.796875000000, 31.390625000000, 1490686631
-0.233398437500, -0.611572265625, 0.344726562500, -5.960937500000, 11.796875000000, 31.390625000000, 1490686631
-0.233398437500, -0.611572265625, 0.344726562500, -5.960937500000, 11.796875000000, 31.390625000000, 1490686631
-0.165283203125, -0.749755859375, 0.226806640625, -20.726562500000, 22.554687500000, 4.835937500000, 1490686631
-0.165283203125, -0.749755859375, 0.226806640625, -20.726562500000, 22.554687500000, 4.835937500000, 1490686631
-0.165283203125, -0.749755859375, 0.226806640625, -20.726562500000, 22.554687500000, 4.835937500000, 1490686631
-0.194824218750, -1.225097656250, 0.464599609375, -30.921875000000, -3.203125000000, -22.468750000000, 1490686631
-0.194824218750, -1.225097656250, 0.464599609375, -30.921875000000, -3.203125000000, -22.468750000000, 1490686631
-0.194824218750, -1.225097656250, 0.464599609375, -30.921875000000, -3.203125000000, -22.468750000000, 1490686631
-0.194824218750, -1.225097656250, 0.464599609375, -30.921875000000, -3.203125000000, -22.468750000000, 1490686631
-0.198242187500, -1.583984375000, 0.298583984375, -16.164062500000, -5.195312500000, 4.742187500000, 1490686631
-0.198242187500, -1.583984375000, 0.298583984375, -16.164062500000, -5.195312500000, 4.742187500000, 1490686631
-0.332763671875, -1.759277343750, 0.338623046875, 18.875000000000, -11.328125000000, 15.296875000000, 1490686631
-0.159423828125, -1.537109375000, 0.620605468750, 100.218750000000, 46.265625000000, -24.992187500000, 1490686631
-0.104980468750, -1.437744140625, 0.520019531250, 73.343750000000, 46.570312500000, -11.601562500000, 1490686631
-0.237548828125, -1.261718750000, 0.359863281250, 64.046875000000, 0.546875000000, 22.140625000000, 1490686631
-0.237548828125, -1.261718750000, 0.359863281250, 64.046875000000, 0.546875000000, 22.140625000000, 1490686631
-0.237548828125, -1.261718750000, 0.359863281250, 64.046875000000, 0.546875000000, 22.140625000000, 1490686631
-0.269531250000, -0.670410156250, 0.325195312500, 29.726562500000, -34.171875000000, -21.109375000000, 1490686631
-0.269531250000, -0.670410156250, 0.325195312500, 29.726562500000, -34.171875000000, -21.109375000000, 1490686631
-0.269531250000, -0.670410156250, 0.325195312500, 29.726562500000, -34.171875000000, -21.109375000000, 1490686631
-0.269531250000, -0.670410156250, 0.325195312500, 29.726562500000, -34.171875000000, -21.109375000000, 1490686631
-0.269531250000, -0.670410156250, 0.325195312500, 29.726562500000, -34.171875000000, -21.109375000000, 1490686631
-0.094726562500, -0.575683593750, 0.045654296875, 30.976562500000, -56.664062500000, -13.148437500000, 1490686631
-0.094726562500, -0.575683593750, 0.045654296875, 30.976562500000, -56.664062500000, -13.148437500000, 1490686631
-0.094726562500, -0.575683593750, 0.045654296875, 30.976562500000, -56.664062500000, -13.148437500000, 1490686631
-0.020996093750, -0.539062500000, 0.201904296875, -34.734375000000, -48.968750000000, -0.437500000000, 1490686631
-0.020996093750, -0.539062500000, 0.201904296875, -34.734375000000, -48.968750000000, -0.437500000000, 1490686631
-0.020996093750, -0.539062500000, 0.201904296875, -34.734375000000, -48.968750000000, -0.437500000000, 1490686631
-0.004394531250, -0.668457031250, 0.271240234375, -68.093750000000, -8.648437500000, -4.421875000000, 1490686631
-0.004394531250, -0.668457031250, 0.271240234375, -68.093750000000, -8.648437500000, -4.421875000000, 1490686631
-0.004394531250, -0.668457031250, 0.271240234375, -68.093750000000, -8.648437500000, -4.421875000000, 1490686631
-0.029052734375, -0.828857421875, 0.212646484375, -19.562500000000, -49.437500000000, 8.656250000000, 1490686631
-0.029052734375, -0.828857421875, 0.212646484375, -19.562500000000, -49.437500000000, 8.656250000000, 1490686631
-0.029052734375, -0.828857421875, 0.212646484375, -19.562500000000, -49.437500000000, 8.656250000000, 1490686631
-0.029052734375, -0.828857421875, 0.212646484375, -19.562500000000, -49.437500000000, 8.656250000000, 1490686631
-0.072998046875, -0.900634765625, 0.221923828125, 15.531250000000, -65.648437500000, 29.843750000000, 1490686631
-0.072998046875, -0.900634765625, 0.221923828125, 15.531250000000, -65.648437500000, 29.843750000000, 1490686631
-0.072998046875, -0.900634765625, 0.221923828125, 15.531250000000, -65.648437500000, 29.843750000000, 1490686631
-0.011962890625, -0.875732421875, 0.391357421875, 26.960937500000, -43.148437500000, 33.132812500000, 1490686631
-0.052490234375, -0.808349609375, 0.307861328125, -45.625000000000, -20.078125000000, 30.843750000000, 1490686631
-0.266357421875, -1.118408203125, 0.537597656250, -100.632812500000, -9.140625000000, 39.367187500000, 1490686631
-0.266357421875, -1.118408203125, 0.537597656250, -100.632812500000, -9.140625000000, 39.367187500000, 1490686631
-0.266357421875, -1.118408203125, 0.537597656250, -100.632812500000, -9.140625000000, 39.367187500000, 1490686631
-0.459228515625, -1.683105468750, 0.414306640625, -132.546875000000, -3.187500000000, -17.585937500000, 1490686631
-0.459228515625, -1.683105468750, 0.414306640625, -132.546875000000, -3.187500000000, -17.585937500000, 1490686631
-0.459228515625, -1.683105468750, 0.414306640625, -132.546875000000, -3.187500000000, -17.585937500000, 1490686631
-0.459228515625, -1.683105468750, 0.414306640625, -132.546875000000, -3.187500000000, -17.585937500000, 1490686631
-0.458740234375, -1.309082031250, 0.234130859375, 31.679687500000, -73.312500000000, 22.984375000000, 1490686631
-0.549560546875, -1.268310546875, 0.186523437500, 100.859375000000, -62.929687500000, 20.117187500000, 1490686631
-0.516845703125, -1.211669921875, 0.396972656250, 160.625000000000, -26.789062500000, -20.703125000000, 1490686631
-0.210449218750, -0.906738281250, 0.496826171875, 194.187500000000, 146.109375000000, -83.539062500000, 1490686631
-0.210449218750, -0.906738281250, 0.496826171875, 194.187500000000, 146.109375000000, -83.539062500000, 1490686631
-0.210449218750, -0.906738281250, 0.496826171875, 194.187500000000, 146.109375000000, -83.539062500000, 1490686631
-0.210449218750, -0.906738281250, 0.496826171875, 194.187500000000, 146.109375000000, -83.539062500000, 1490686631
-0.036376953125, -0.847656250000, 0.514892578125, 57.898437500000, 197.914062500000, -60.164062500000, 1490686632
-0.036376953125, -0.847656250000, 0.514892578125, 57.898437500000, 197.914062500000, -60.164062500000, 1490686632
-0.025146484375, -0.578125000000, 0.113769531250, -84.867187500000, -73.726562500000, 45.437500000000, 1490686632
-0.025146484375, -0.578125000000, 0.113769531250, -84.867187500000, -73.726562500000, 45.437500000000, 1490686632
-0.025146484375, -0.578125000000, 0.113769531250, -84.867187500000, -73.726562500000, 45.437500000000, 1490686632
-0.025146484375, -0.578125000000, 0.113769531250, -84.867187500000, -73.726562500000, 45.437500000000, 1490686632
-0.025146484375, -0.578125000000, 0.113769531250, -84.867187500000, -73.726562500000, 45.437500000000, 1490686632
-0.251464843750, -0.682128906250, 0.265625000000, -2.734375000000, -17.570312500000, 23.320312500000, 1490686632
-0.251464843750, -0.682128906250, 0.265625000000, -2.734375000000, -17.570312500000, 23.320312500000, 1490686632
-0.251464843750, -0.682128906250, 0.265625000000, -2.734375000000, -17.570312500000, 23.320312500000, 1490686632
-0.233886718750, -0.579589843750, 0.104003906250, 31.093750000000, 58.890625000000, -3.226562500000, 1490686632
-0.233886718750, -0.579589843750, 0.104003906250, 31.093750000000, 58.890625000000, -3.226562500000, 1490686632
-0.233886718750, -0.579589843750, 0.104003906250, 31.093750000000, 58.890625000000, -3.226562500000, 1490686632
-0.067626953125, -0.978027343750, 0.383789062500, -134.578125000000, 124.078125000000, 18.843750000000, 1490686632
0.025634765625, -1.338134765625, 0.688720703125, -134.578125000000, 124.078125000000, 18.843750000000, 1490686632
-0.116943359375, -1.910400390625, 0.701660156250, -162.796875000000, 122.804687500000, 19.117187500000, 1490686632
-0.047607421875, -1.628906250000, 0.341552734375, -96.296875000000, -11.929687500000, 3.296875000000, 1490686632
-0.047607421875, -1.628906250000, 0.341552734375, -96.296875000000, -11.929687500000, 3.296875000000, 1490686632
-0.047607421875, -1.628906250000, 0.341552734375, -96.296875000000, -11.929687500000, 3.296875000000, 1490686632
-0.047607421875, -1.628906250000, 0.341552734375, -96.296875000000, -11.929687500000, 3.296875000000, 1490686632
-0.047607421875, -1.628906250000, 0.341552734375, -96.296875000000, -11.929687500000, 3.296875000000, 1490686632
-0.243408203125, -1.500000000000, 0.356201171875, 150.476562500000, -67.632812500000, 6.500000000000, 1490686632
-0.243408203125, -1.500000000000, 0.356201171875, 150.476562500000, -67.632812500000, 6.500000000000, 1490686632
-0.243408203125, -1.500000000000, 0.356201171875, 150.476562500000, -67.632812500000, 6.500000000000, 1490686632
-0.243408203125, -1.500000000000, 0.356201171875, 150.476562500000, -67.632812500000, 6.500000000000, 1490686632
-0.262451171875, -1.235351562500, 0.902099609375, 34.234375000000, 125.429687500000, -65.718750000000, 1490686632
-0.262451171875, -1.235351562500, 0.902099609375, 34.234375000000, 125.429687500000, -65.718750000000, 1490686632
-0.262451171875, -1.235351562500, 0.902099609375, 34.234375000000, 125.429687500000, -65.718750000000, 1490686632
-0.262451171875, -1.235351562500, 0.902099609375, 34.234375000000, 125.429687500000, -65.718750000000, 1490686632
-0.152099609375, -0.687988281250, 0.259521484375, -28.953125000000, -126.617187500000, -11.210937500000, 1490686632
-0.152099609375, -0.687988281250, 0.259521484375, -28.953125000000, -126.617187500000, -11.210937500000, 1490686632
-0.152099609375, -0.687988281250, 0.259521484375, -28.953125000000, -126.617187500000, -11.210937500000, 1490686632
-0.152099609375, -0.687988281250, 0.259521484375, -28.953125000000, -126.617187500000, -11.210937500000, 1490686632
0.010009765625, -0.429199218750, 0.135253906250, 13.382812500000, -58.093750000000, -2.664062500000, 1490686632
0.010009765625, -0.429199218750, 0.135253906250, 13.382812500000, -58.093750000000, -2.664062500000, 1490686632
0.010009765625, -0.429199218750, 0.135253906250, 13.382812500000, -58.093750000000, -2.664062500000, 1490686632
0.035644531250, -0.436035156250, 0.199462890625, -6.226562500000, 6.468750000000, -30.687500000000, 1490686632
0.035644531250, -0.436035156250, 0.199462890625, -6.226562500000, 6.468750000000, -30.687500000000, 1490686632
-0.003173828125, -0.640869140625, 0.301757812500, -10.820312500000, 31.140625000000, -3.671875000000, 1490686632
-0.003173828125, -0.640869140625, 0.301757812500, -10.820312500000, 31.140625000000, -3.671875000000, 1490686632
-0.003173828125, -0.640869140625, 0.301757812500, -10.820312500000, 31.140625000000, -3.671875000000, 1490686632
-0.003173828125, -0.640869140625, 0.301757812500, -10.820312500000, 31.140625000000, -3.671875000000, 1490686632
-0.070556640625, -0.611816406250, 0.233886718750, -3.359375000000, -56.312500000000, 10.015625000000, 1490686632
-0.070556640625, -0.611816406250, 0.233886718750, -3.359375000000, -56.312500000000, 10.015625000000, 1490686632
-0.070556640625, -0.611816406250, 0.233886718750, -3.359375000000, -56.312500000000, 10.015625000000, 1490686632
-0.070556640625, -0.611816406250, 0.233886718750, -3.359375000000, -56.312500000000, 10.015625000000, 1490686632
-0.028564453125, -0.622802734375, 0.242431640625, 36.882812500000, -59.195312500000, 1.687500000000, 1490686632
-0.028564453125, -0.622802734375, 0.242431640625, 36.882812500000, -59.195312500000, 1.687500000000, 1490686632
-0.431152343750, -1.123046875000, 0.739013671875, -56.679687500000, 70.023437500000, 5.765625000000, 1490686632
-0.431152343750, -1.123046875000, 0.739013671875, -56.679687500000, 70.023437500000, 5.765625000000, 1490686632
-0.431152343750, -1.123046875000, 0.739013671875, -56.679687500000, 70.023437500000, 5.765625000000, 1490686632
-0.431152343750, -1.123046875000, 0.739013671875, -56.679687500000, 70.023437500000, 5.765625000000, 1490686632
-0.270507812500, -1.480957031250, 0.395996093750, -119.304687500000, 55.789062500000, -10.296875000000, 1490686632
-0.270507812500, -1.480957031250, 0.395996093750, -119.304687500000, 55.789062500000, -10.296875000000, 1490686632
-0.270507812500, -1.480957031250, 0.395996093750, -119.304687500000, 55.789062500000, -10.296875000000, 1490686632
-0.366210937500, -1.191162109375, 1.128417968750, -32.968750000000, -57.164062500000, 15.640625000000, 1490686632
-0.366210937500, -1.191162109375, 1.128417968750, -32.968750000000, -57.164062500000, 15.640625000000, 1490686632
-0.366210937500, -1.191162109375, 1.128417968750, -32.968750000000, -57.164062500000, 15.640625000000, 1490686632
-0.366210937500, -1.191162109375, 1.128417968750, -32.968750000000, -57.164062500000, 15.640625000000, 1490686632
-0.225097656250, -0.735595703125, 0.180908203125, -52.023437500000, 34.742187500000, -5.109375000000, 1490686632
-0.225097656250, -0.735595703125, 0.180908203125, -52.023437500000, 34.742187500000, -5.109375000000, 1490686632
-0.225097656250, -0.735595703125, 0.180908203125, -52.023437500000, 34.742187500000, -5.109375000000, 1490686632
-0.225097656250, -0.735595703125, 0.180908203125, -52.023437500000, 34.742187500000, -5.109375000000, 1490686632
-0.225097656250, -0.735595703125, 0.180908203125, -52.023437500000, 34.742187500000, -5.109375000000, 1490686632
-0.218750000000, -0.554199218750, 0.143310546875, 48.546875000000, 21.460937500000, -12.148437500000, 1490686632
-0.218750000000, -0.554199218750, 0.143310546875, 48.546875000000, 21.460937500000, -12.148437500000, 1490686632
-0.218750000000, -0.554199218750, 0.143310546875, 48.546875000000, 21.460937500000, -12.148437500000, 1490686633
-0.218750000000, -0.554199218750, 0.143310546875, 48.546875000000, 21.460937500000, -12.148437500000, 1490686633
-0.144531250000, -0.642578125000, 0.324707031250, -42.414062500000, -32.218750000000, -4.085937500000, 1490686633
-0.144531250000, -0.642578125000, 0.324707031250, -42.414062500000, -32.218750000000, -4.085937500000, 1490686633
-0.144531250000, -0.642578125000, 0.324707031250, -42.414062500000, -32.218750000000, -4.085937500000, 1490686633
-0.144531250000, -0.642578125000, 0.324707031250, -42.414062500000, -32.218750000000, -4.085937500000, 1490686633
-0.192871093750, -0.499511718750, 0.199218750000, -78.976562500000, -10.140625000000, 27.750000000000, 1490686633
-0.192871093750, -0.499511718750, 0.199218750000, -78.976562500000, -10.140625000000, 27.750000000000, 1490686633
-0.192871093750, -0.499511718750, 0.199218750000, -78.976562500000, -10.140625000000, 27.750000000000, 1490686633
-0.233642578125, -0.644287109375, 0.271972656250, -2.554687500000, -8.000000000000, 15.375000000000, 1490686633
-0.233642578125, -0.644287109375, 0.271972656250, -2.554687500000, -8.000000000000, 15.375000000000, 1490686633
-0.233642578125, -0.644287109375, 0.271972656250, -2.554687500000, -8.000000000000, 15.375000000000, 1490686633
-0.041015625000, -0.734863281250, 0.249267578125, -23.390625000000, 26.781250000000, -21.460937500000, 1490686633
-0.041015625000, -0.734863281250, 0.249267578125, -23.390625000000, 26.781250000000, -21.460937500000, 1490686633
-0.041015625000, -0.734863281250, 0.249267578125, -23.390625000000, 26.781250000000, -21.460937500000, 1490686633
0.064453125000, -1.304443359375, 0.645996093750, -126.554687500000, 3.078125000000, -3.750000000000, 1490686633
0.064453125000, -1.304443359375, 0.645996093750, -126.554687500000, 3.078125000000, -3.750000000000, 1490686633
0.064453125000, -1.304443359375, 0.645996093750, -126.554687500000, 3.078125000000, -3.750000000000, 1490686633
0.064453125000, -1.304443359375, 0.645996093750, -126.554687500000, 3.078125000000, -3.750000000000, 1490686633
-0.049560546875, -1.688964843750, 0.507324218750, 21.710937500000, -47.984375000000, -5.945312500000, 1490686633
-0.049560546875, -1.688964843750, 0.507324218750, 21.710937500000, -47.984375000000, -5.945312500000, 1490686633
-0.049560546875, -1.688964843750, 0.507324218750, 21.710937500000, -47.984375000000, -5.945312500000, 1490686633
-0.046875000000, -1.372070312500, 0.701660156250, 132.898437500000, 27.703125000000, -25.710937500000, 1490686633
-0.046875000000, -1.372070312500, 0.701660156250, 132.898437500000, 27.703125000000, -25.710937500000, 1490686633
-0.046875000000, -1.372070312500, 0.701660156250, 132.898437500000, 27.703125000000, -25.710937500000, 1490686633
-0.270019531250, -1.116943359375, 0.623535156250, -4.757812500000, -6.945312500000, -21.492187500000, 1490686633
-0.270019531250, -1.116943359375, 0.623535156250, -4.757812500000, -6.945312500000, -21.492187500000, 1490686633
-0.270019531250, -1.116943359375, 0.623535156250, -4.757812500000, -6.945312500000, -21.492187500000, 1490686633
-0.216796875000, -0.551757812500, 0.226074218750, 9.312500000000, -6.828125000000, -34.382812500000, 1490686633
-0.216796875000, -0.551757812500, 0.226074218750, 9.312500000000, -6.828125000000, -34.382812500000, 1490686633
-0.216796875000, -0.551757812500, 0.226074218750, 9.312500000000, -6.828125000000, -34.382812500000, 1490686633
-0.216796875000, -0.551757812500, 0.226074218750, 9.312500000000, -6.828125000000, -34.382812500000, 1490686633
-0.079345703125, -0.297607421875, 0.196289062500, 44.859375000000, -0.976562500000, -36.750000000000, 1490686633
-0.079345703125, -0.297607421875, 0.196289062500, 44.859375000000, -0.976562500000, -36.750000000000, 1490686633
-0.079345703125, -0.297607421875, 0.196289062500, 44.859375000000, -0.976562500000, -36.750000000000, 1490686633
0.062744140625, -0.227539062500, 0.084960937500, 2.289062500000, -28.335937500000, -18.265625000000, 1490686633
0.062744140625, -0.227539062500, 0.084960937500, 2.289062500000, -28.335937500000, -18.265625000000, 1490686633
0.062744140625, -0.227539062500, 0.084960937500, 2.289062500000, -28.335937500000, -18.265625000000, 1490686633
-0.024414062500, -0.629882812500, 0.205078125000, -55.351562500000, -36.906250000000, 34.867187500000, 1490686633
-0.024414062500, -0.629882812500, 0.205078125000, -55.351562500000, -36.906250000000, 34.867187500000, 1490686633
-0.024414062500, -0.629882812500, 0.205078125000, -55.351562500000, -36.906250000000, 34.867187500000, 1490686633
-0.228271484375, -0.776123046875, 0.176269531250, -8.539062500000, -109.781250000000, 29.546875000000, 1490686633
-0.228271484375, -0.776123046875, 0.176269531250, -8.539062500000, -109.781250000000, 29.546875000000, 1490686633
-0.228271484375, -0.776123046875, 0.176269531250, -8.539062500000, -109.781250000000, 29.546875000000, 1490686633
-0.228271484375, -0.776123046875, 0.176269531250, -8.539062500000, -109.781250000000, 29.546875000000, 1490686633
-0.228271484375, -0.776123046875, 0.176269531250, -8.539062500000, -109.781250000000, 29.546875000000, 1490686633
-0.290527343750, -1.274169921875, 0.593261718750, 25.632812500000, -81.664062500000, -22.179687500000, 1490686633
-0.290527343750, -1.274169921875, 0.593261718750, 25.632812500000, -81.664062500000, -22.179687500000, 1490686633
-0.290527343750, -1.274169921875, 0.593261718750, 25.632812500000, -81.664062500000, -22.179687500000, 1490686633
-0.310791015625, -1.841308593750, 0.828369140625, -61.015625000000, 21.289062500000, -28.851562500000, 1490686633
-0.310791015625, -1.841308593750, 0.828369140625, -61.015625000000, 21.289062500000, -28.851562500000, 1490686633
-0.310791015625, -1.841308593750, 0.828369140625, -61.015625000000, 21.289062500000, -28.851562500000, 1490686633
-0.310791015625, -1.841308593750, 0.828369140625, -61.015625000000, 21.289062500000, -28.851562500000, 1490686633
-0.182373046875, -1.228027343750, 0.648437500000, 130.289062500000, 23.359375000000, 9.468750000000, 1490686633
-0.182373046875, -1.228027343750, 0.648437500000, 130.289062500000, 23.359375000000, 9.468750000000, 1490686633
-0.182373046875, -1.228027343750, 0.648437500000, 130.289062500000, 23.359375000000, 9.468750000000, 1490686633
-0.182373046875, -1.228027343750, 0.648437500000, 130.289062500000, 23.359375000000, 9.468750000000, 1490686633
-0.182373046875, -1.228027343750, 0.648437500000, 130.289062500000, 23.359375000000, 9.468750000000, 1490686633
-0.265380859375, -0.973388671875, 0.820800781250, 52.929687500000, 16.914062500000, -3.148437500000, 1490686633
-0.265380859375, -0.973388671875, 0.820800781250, 52.929687500000, 16.914062500000, -3.148437500000, 1490686633
-0.265380859375, -0.973388671875, 0.820800781250, 52.929687500000, 16.914062500000, -3.148437500000, 1490686633
-0.067138671875, -0.597900390625, 0.294677734375, -25.031250000000, -6.109375000000, 7.718750000000, 1490686633
-0.067138671875, -0.597900390625, 0.294677734375, -25.031250000000, -6.109375000000, 7.718750000000, 1490686633
-0.067138671875, -0.597900390625, 0.294677734375, -25.031250000000, -6.109375000000, 7.718750000000, 1490686633
-0.134521484375, -0.411132812500, 0.185791015625, -30.695312500000, -25.085937500000, -12.335937500000, 1490686633
-0.134521484375, -0.411132812500, 0.185791015625, -30.695312500000, -25.085937500000, -12.335937500000, 1490686633
-0.134521484375, -0.411132812500, 0.185791015625, -30.695312500000, -25.085937500000, -12.335937500000, 1490686633
-0.055908203125, -0.417724609375, 0.207763671875, -42.703125000000, -4.046875000000, -20.656250000000, 1490686634
-0.055908203125, -0.417724609375, 0.207763671875, -42.703125000000, -4.046875000000, -20.656250000000, 1490686634
-0.055908203125, -0.417724609375, 0.207763671875, -42.703125000000, -4.046875000000, -20.656250000000, 1490686634
-0.055908203125, -0.417724609375, 0.207763671875, -42.703125000000, -4.046875000000, -20.656250000000, 1490686634
-0.121582031250, -0.311523437500, 0.201904296875, -44.945312500000, 29.468750000000, -7.890625000000, 1490686634
-0.121582031250, -0.311523437500, 0.201904296875, -44.945312500000, 29.468750000000, -7.890625000000, 1490686634
-0.121582031250, -0.311523437500, 0.201904296875, -44.945312500000, 29.468750000000, -7.890625000000, 1490686634
0.021972656250, -0.788574218750, 0.293701171875, -108.023437500000, 66.390625000000, 15.453125000000, 1490686634
0.021972656250, -0.788574218750, 0.293701171875, -108.023437500000, 66.390625000000, 15.453125000000, 1490686634
0.021972656250, -0.788574218750, 0.293701171875, -108.023437500000, 66.390625000000, 15.453125000000, 1490686634
-0.172607421875, -1.082031250000, 1.192138671875, -148.890625000000, 34.757812500000, -2.515625000000, 1490686634
-0.172607421875, -1.082031250000, 1.192138671875, -148.890625000000, 34.757812500000, -2.515625000000, 1490686634
0.125000000000, -1.522460937500, 0.629150390625, 85.781250000000, 26.500000000000, -5.992187500000, 1490686634
0.125000000000, -1.522460937500, 0.629150390625, 85.781250000000, 26.500000000000, -5.992187500000, 1490686634
0.125000000000, -1.522460937500, 0.629150390625, 85.781250000000, 26.500000000000, -5.992187500000, 1490686634
0.125000000000, -1.522460937500, 0.629150390625, 85.781250000000, 26.500000000000, -5.992187500000, 1490686634
0.125000000000, -1.522460937500, 0.629150390625, 85.781250000000, 26.500000000000, -5.992187500000, 1490686634
-0.050048828125, -1.183593750000, 0.958251953125, 98.515625000000, -13.718750000000, 11.554687500000, 1490686634
-0.050048828125, -1.183593750000, 0.958251953125, 98.515625000000, -13.718750000000, 11.554687500000, 1490686634
-0.050048828125, -1.183593750000, 0.958251953125, 98.515625000000, -13.718750000000, 11.554687500000, 1490686634
