ACC_X,ACC_Y,ACC_Z,G_X,G_Y,G_Z,Unix Time
0.246093750000, -0.962402343750, 0.342773437500, 0.132812500000, 12.429687500000, -1.546875000000, 1490697891
0.246093750000, -0.962402343750, 0.342773437500, 0.132812500000, 12.429687500000, -1.546875000000, 1490697891
0.246093750000, -0.962402343750, 0.342773437500, 0.132812500000, 12.429687500000, -1.546875000000, 1490697891
0.183105468750, -0.949462890625, 0.392578125000, 0.570312500000, 19.031250000000, -1.984375000000, 1490697891
0.183105468750, -0.949462890625, 0.392578125000, 0.570312500000, 19.031250000000, -1.984375000000, 1490697891
0.183105468750, -0.949462890625, 0.392578125000, 0.570312500000, 19.031250000000, -1.984375000000, 1490697891
0.183105468750, -0.949462890625, 0.392578125000, 0.570312500000, 19.031250000000, -1.984375000000, 1490697891
0.141113281250, -0.935546875000, 0.227783203125, -1.250000000000, 12.046875000000, -7.937500000000, 1490697891
0.141113281250, -0.935546875000, 0.227783203125, -1.250000000000, 12.046875000000, -7.937500000000, 1490697891
0.141113281250, -0.935546875000, 0.227783203125, -1.250000000000, 12.046875000000, -7.937500000000, 1490697891
0.253417968750, -0.951660156250, 0.278808593750, 0.398437500000, 5.335937500000, -7.093750000000, 1490697891
0.253417968750, -0.951660156250, 0.278808593750, 0.398437500000, 5.335937500000, -7.093750000000, 1490697891
0.253417968750, -0.951660156250, 0.278808593750, 0.398437500000, 5.335937500000, -7.093750000000, 1490697891
0.217529296875, -0.919677734375, 0.380126953125, -1.039062500000, -0.195312500000, -7.796875000000, 1490697891
0.217529296875, -0.919677734375, 0.380126953125, -1.039062500000, -0.195312500000, -7.796875000000, 1490697891
0.217529296875, -0.919677734375, 0.380126953125, -1.039062500000, -0.195312500000, -7.796875000000, 1490697891
0.217529296875, -0.919677734375, 0.380126953125, -1.039062500000, -0.195312500000, -7.796875000000, 1490697891
0.217529296875, -0.919677734375, 0.380126953125, -1.039062500000, -0.195312500000, -7.796875000000, 1490697891
0.219970703125, -0.913085937500, 0.291992187500, 1.765625000000, -2.093750000000, -9.562500000000, 1490697891
0.196289062500, -1.027343750000, 0.229003906250, 2.250000000000, -6.695312500000, -12.414062500000, 1490697891
0.196289062500, -1.027343750000, 0.229003906250, 2.250000000000, -6.695312500000, -12.414062500000, 1490697891
0.196289062500, -1.027343750000, 0.229003906250, 2.250000000000, -6.695312500000, -12.414062500000, 1490697891
0.196289062500, -1.027343750000, 0.229003906250, 2.250000000000, -6.695312500000, -12.414062500000, 1490697891
0.105224609375, -0.937500000000, 0.250000000000, -6.476562500000, -4.304687500000, -8.765625000000, 1490697891
0.105224609375, -0.937500000000, 0.250000000000, -6.476562500000, -4.304687500000, -8.765625000000, 1490697891
0.105224609375, -0.937500000000, 0.250000000000, -6.476562500000, -4.304687500000, -8.765625000000, 1490697891
0.215820312500, -0.931396484375, 0.302978515625, -6.320312500000, -4.500000000000, -4.742187500000, 1490697891
0.215820312500, -0.931396484375, 0.302978515625, -6.320312500000, -4.500000000000, -4.742187500000, 1490697891
0.215820312500, -0.931396484375, 0.302978515625, -6.320312500000, -4.500000000000, -4.742187500000, 1490697891
0.095214843750, -0.918945312500, 0.256835937500, -10.929687500000, -3.984375000000, -1.843750000000, 1490697891
0.095214843750, -0.918945312500, 0.256835937500, -10.929687500000, -3.984375000000, -1.843750000000, 1490697891
0.095214843750, -0.918945312500, 0.256835937500, -10.929687500000, -3.984375000000, -1.843750000000, 1490697891
0.095214843750, -0.918945312500, 0.256835937500, -10.929687500000, -3.984375000000, -1.843750000000, 1490697891
0.197753906250, -1.041992187500, 0.224853515625, -4.742187500000, -7.593750000000, -1.562500000000, 1490697891
0.197753906250, -1.041992187500, 0.224853515625, -4.742187500000, -7.593750000000, -1.562500000000, 1490697891
0.197753906250, -1.041992187500, 0.224853515625, -4.742187500000, -7.593750000000, -1.562500000000, 1490697891
0.187011718750, -1.016357421875, 0.315185546875, -3.554687500000, -7.398437500000, -1.984375000000, 1490697892
0.187011718750, -1.016357421875, 0.315185546875, -3.554687500000, -7.398437500000, -1.984375000000, 1490697892
0.187011718750, -1.016357421875, 0.315185546875, -3.554687500000, -7.398437500000, -1.984375000000, 1490697892
0.317138671875, -0.972167968750, 0.298339843750, -8.578125000000, -7.335937500000, 0.539062500000, 1490697892
0.317138671875, -0.972167968750, 0.298339843750, -8.578125000000, -7.335937500000, 0.539062500000, 1490697892
0.317138671875, -0.972167968750, 0.298339843750, -8.578125000000, -7.335937500000, 0.539062500000, 1490697892
0.250732421875, -0.977539062500, 0.331054687500, -7.195312500000, -3.664062500000, 2.070312500000, 1490697892
0.250732421875, -0.977539062500, 0.331054687500, -7.195312500000, -3.664062500000, 2.070312500000, 1490697892
0.250732421875, -0.977539062500, 0.331054687500, -7.195312500000, -3.664062500000, 2.070312500000, 1490697892
0.250732421875, -0.977539062500, 0.331054687500, -7.195312500000, -3.664062500000, 2.070312500000, 1490697892
0.191162109375, -0.846191406250, 0.297851562500, -8.289062500000, -6.843750000000, -3.000000000000, 1490697892
0.191162109375, -0.846191406250, 0.297851562500, -8.289062500000, -6.843750000000, -3.000000000000, 1490697892
0.191162109375, -0.846191406250, 0.297851562500, -8.289062500000, -6.843750000000, -3.000000000000, 1490697892
0.229980468750, -0.966796875000, 0.229003906250, -5.578125000000, -5.750000000000, -0.476562500000, 1490697892
0.277343750000, -0.976074218750, 0.400390625000, -6.382812500000, -8.757812500000, -0.242187500000, 1490697892
0.277343750000, -0.976074218750, 0.400390625000, -6.382812500000, -8.757812500000, -0.242187500000, 1490697892
0.277343750000, -0.976074218750, 0.400390625000, -6.382812500000, -8.757812500000, -0.242187500000, 1490697892
0.277343750000, -0.976074218750, 0.400390625000, -6.382812500000, -8.757812500000, -0.242187500000, 1490697892
0.277343750000, -0.976074218750, 0.400390625000, -6.382812500000, -8.757812500000, -0.242187500000, 1490697892
0.159912109375, -0.871093750000, 0.267089843750, -6.101562500000, -6.523437500000, -1.632812500000, 1490697892
0.247314453125, -0.974853515625, 0.332763671875, -6.101562500000, -6.523437500000, -1.632812500000, 1490697892
0.247314453125, -0.974853515625, 0.332763671875, -6.101562500000, -6.523437500000, -1.632812500000, 1490697892
0.095947265625, -0.931884765625, 0.174560546875, -7.718750000000, -4.085937500000, -2.968750000000, 1490697892
0.095947265625, -0.931884765625, 0.174560546875, -7.718750000000, -4.085937500000, -2.968750000000, 1490697892
0.095947265625, -0.931884765625, 0.174560546875, -7.718750000000, -4.085937500000, -2.968750000000, 1490697892
0.095947265625, -0.931884765625, 0.174560546875, -7.718750000000, -4.085937500000, -2.968750000000, 1490697892
0.392333984375, -0.973632812500, 0.313232421875, -6.218750000000, -3.234375000000, -3.500000000000, 1490697892
0.392333984375, -0.973632812500, 0.313232421875, -6.218750000000, -3.234375000000, -3.500000000000, 1490697892
0.392333984375, -0.973632812500, 0.313232421875, -6.218750000000, -3.234375000000, -3.500000000000, 1490697892
0.235107421875, -0.904296875000, 0.242919921875, -5.593750000000, 0.367187500000, -1.070312500000, 1490697892
0.235107421875, -0.904296875000, 0.242919921875, -5.593750000000, 0.367187500000, -1.070312500000, 1490697892
0.235107421875, -0.904296875000, 0.242919921875, -5.593750000000, 0.367187500000, -1.070312500000, 1490697892
0.264892578125, -0.956787109375, 0.341064453125, -1.539062500000, 1.109375000000, -5.000000000000, 1490697892
0.264892578125, -0.956787109375, 0.341064453125, -1.539062500000, 1.109375000000, -5.000000000000, 1490697892
0.264892578125, -0.956787109375, 0.341064453125, -1.539062500000, 1.109375000000, -5.000000000000, 1490697892
0.264892578125, -0.956787109375, 0.341064453125, -1.539062500000, 1.109375000000, -5.000000000000, 1490697892
0.272705078125, -0.879882812500, 0.282958984375, -3.609375000000, -2.078125000000, -1.664062500000, 1490697892
0.272705078125, -0.879882812500, 0.282958984375, -3.609375000000, -2.078125000000, -1.664062500000, 1490697892
0.272705078125, -0.879882812500, 0.282958984375, -3.609375000000, -2.078125000000, -1.664062500000, 1490697892
0.185546875000, -0.939453125000, 0.283203125000, -5.953125000000, 1.632812500000, -2.687500000000, 1490697892
0.185546875000, -0.939453125000, 0.283203125000, -5.953125000000, 1.632812500000, -2.687500000000, 1490697892
0.185546875000, -0.939453125000, 0.283203125000, -5.953125000000, 1.632812500000, -2.687500000000, 1490697892
0.219726562500, -0.967285156250, 0.384277343750, -4.562500000000, 0.585937500000, -2.929687500000, 1490697892
0.219726562500, -0.967285156250, 0.384277343750, -4.562500000000, 0.585937500000, -2.929687500000, 1490697892
0.219726562500, -0.967285156250, 0.384277343750, -4.562500000000, 0.585937500000, -2.929687500000, 1490697892
0.327392578125, -1.066894531250, 0.381835937500, -6.992187500000, 0.992187500000, -6.390625000000, 1490697892
0.327392578125, -1.066894531250, 0.381835937500, -6.992187500000, 0.992187500000, -6.390625000000, 1490697892
0.327392578125, -1.066894531250, 0.381835937500, -6.992187500000, 0.992187500000, -6.390625000000, 1490697892
0.327392578125, -1.066894531250, 0.381835937500, -6.992187500000, 0.992187500000, -6.390625000000, 1490697892
0.274169921875, -0.861816406250, 0.232910156250, -3.250000000000, -2.117187500000, -3.109375000000, 1490697892
0.274169921875, -0.861816406250, 0.232910156250, -3.250000000000, -2.117187500000, -3.109375000000, 1490697892
0.274169921875, -0.861816406250, 0.232910156250, -3.250000000000, -2.117187500000, -3.109375000000, 1490697892
0.212158203125, -0.958251953125, 0.338378906250, -4.804687500000, 0.687500000000, -4.812500000000, 1490697892
0.212158203125, -0.958251953125, 0.338378906250, -4.804687500000, 0.687500000000, -4.812500000000, 1490697892
0.212158203125, -0.958251953125, 0.338378906250, -4.804687500000, 0.687500000000, -4.812500000000, 1490697892
0.160888671875, -0.942382812500, 0.340087890625, 0.406250000000, 0.890625000000, -3.500000000000, 1490697892
0.160888671875, -0.942382812500, 0.340087890625, 0.406250000000, 0.890625000000, -3.500000000000, 1490697892
0.160888671875, -0.942382812500, 0.340087890625, 0.406250000000, 0.890625000000, -3.500000000000, 1490697892
0.209716796875, -0.952880859375, 0.251464843750, -4.765625000000, 0.992187500000, -3.328125000000, 1490697892
0.209716796875, -0.952880859375, 0.251464843750, -4.765625000000, 0.992187500000, -3.328125000000, 1490697892
0.209716796875, -0.952880859375, 0.251464843750, -4.765625000000, 0.992187500000, -3.328125000000, 1490697892
0.253173828125, -1.002441406250, 0.331298828125, -1.429687500000, 0.750000000000, -3.710937500000, 1490697892
0.239746093750, -0.868652343750, 0.257324218750, -4.445312500000, -1.546875000000, -1.898437500000, 1490697892
0.239746093750, -0.868652343750, 0.257324218750, -4.445312500000, -1.546875000000, -1.898437500000, 1490697892
0.270507812500, -1.015380859375, 0.312744140625, -1.195312500000, 0.070312500000, -3.367187500000, 1490697892
0.270507812500, -1.015380859375, 0.312744140625, -1.195312500000, 0.070312500000, -3.367187500000, 1490697893
0.277099609375, -0.954101562500, 0.302734375000, -6.312500000000, 2.843750000000, -4.859375000000, 1490697893
0.277099609375, -0.954101562500, 0.302734375000, -6.312500000000, 2.843750000000, -4.859375000000, 1490697893
0.277099609375, -0.954101562500, 0.302734375000, -6.312500000000, 2.843750000000, -4.859375000000, 1490697893
0.277099609375, -0.954101562500, 0.302734375000, -6.312500000000, 2.843750000000, -4.859375000000, 1490697893
0.277099609375, -0.954101562500, 0.302734375000, -6.312500000000, 2.843750000000, -4.859375000000, 1490697893
0.277099609375, -0.954101562500, 0.302734375000, -6.312500000000, 2.843750000000, -4.859375000000, 1490697893
0.289306640625, -1.014892578125, 0.304199218750, -2.500000000000, 2.398437500000, -3.968750000000, 1490697893
0.289306640625, -1.014892578125, 0.304199218750, -2.500000000000, 2.398437500000, -3.968750000000, 1490697893
0.289306640625, -1.014892578125, 0.304199218750, -2.500000000000, 2.398437500000, -3.968750000000, 1490697893
0.217529296875, -0.909179687500, 0.323242187500, 1.968750000000, -1.195312500000, -6.687500000000, 1490697893
0.217529296875, -0.909179687500, 0.323242187500, 1.968750000000, -1.195312500000, -6.687500000000, 1490697893
0.217529296875, -0.909179687500, 0.323242187500, 1.968750000000, -1.195312500000, -6.687500000000, 1490697893
0.238037109375, -0.966796875000, 0.235107421875, 0.187500000000, -3.359375000000, -4.546875000000, 1490697893
0.238037109375, -0.966796875000, 0.235107421875, 0.187500000000, -3.359375000000, -4.546875000000, 1490697893
0.238037109375, -0.966796875000, 0.235107421875, 0.187500000000, -3.359375000000, -4.546875000000, 1490697893
0.228271484375, -0.934814453125, 0.238769531250, 0.085937500000, -6.281250000000, -3.195312500000, 1490697893
0.181152343750, -0.906982421875, 0.298828125000, -0.789062500000, -7.062500000000, -10.093750000000, 1490697893
0.181152343750, -0.906982421875, 0.298828125000, -0.789062500000, -7.062500000000, -10.093750000000, 1490697893
0.181152343750, -0.906982421875, 0.298828125000, -0.789062500000, -7.062500000000, -10.093750000000, 1490697893
0.181152343750, -0.906982421875, 0.298828125000, -0.789062500000, -7.062500000000, -10.093750000000, 1490697893
0.181152343750, -0.906982421875, 0.298828125000, -0.789062500000, -7.062500000000, -10.093750000000, 1490697893
0.184570312500, -0.947021484375, 0.259521484375, 1.500000000000, -5.351562500000, -10.664062500000, 1490697893
0.181884765625, -1.014404296875, 0.273925781250, -2.437500000000, -8.390625000000, -8.492187500000, 1490697893
0.181884765625, -1.014404296875, 0.273925781250, -2.437500000000, -8.390625000000, -8.492187500000, 1490697893
0.181884765625, -1.014404296875, 0.273925781250, -2.437500000000, -8.390625000000, -8.492187500000, 1490697893
0.284667968750, -0.969238281250, 0.275878906250, -4.171875000000, -1.445312500000, -7.039062500000, 1490697893
0.284667968750, -0.969238281250, 0.275878906250, -4.171875000000, -1.445312500000, -7.039062500000, 1490697893
0.284667968750, -0.969238281250, 0.275878906250, -4.171875000000, -1.445312500000, -7.039062500000, 1490697893
0.171386718750, -1.008056640625, 0.239257812500, 0.476562500000, -2.625000000000, -7.609375000000, 1490697893
0.171386718750, -1.008056640625, 0.239257812500, 0.476562500000, -2.625000000000, -7.609375000000, 1490697893
0.171386718750, -1.008056640625, 0.239257812500, 0.476562500000, -2.625000000000, -7.609375000000, 1490697893
0.248291015625, -0.989013671875, 0.243408203125, -2.046875000000, -2.390625000000, -9.312500000000, 1490697893
0.248291015625, -0.989013671875, 0.243408203125, -2.046875000000, -2.390625000000, -9.312500000000, 1490697893
0.248291015625, -0.989013671875, 0.243408203125, -2.046875000000, -2.390625000000, -9.312500000000, 1490697893
0.248291015625, -0.989013671875, 0.243408203125, -2.046875000000, -2.390625000000, -9.312500000000, 1490697893
0.252441406250, -0.951660156250, 0.225830078125, -1.875000000000, -4.187500000000, -5.281250000000, 1490697893
0.252441406250, -0.951660156250, 0.225830078125, -1.875000000000, -4.187500000000, -5.281250000000, 1490697893
0.252441406250, -0.951660156250, 0.225830078125, -1.875000000000, -4.187500000000, -5.281250000000, 1490697893
0.176025390625, -0.961181640625, 0.184082031250, -5.265625000000, -1.250000000000, -10.265625000000, 1490697893
0.176025390625, -0.961181640625, 0.184082031250, -5.265625000000, -1.250000000000, -10.265625000000, 1490697893
0.176025390625, -0.961181640625, 0.184082031250, -5.265625000000, -1.250000000000, -10.265625000000, 1490697893
0.253906250000, -0.912109375000, 0.318847656250, -2.890625000000, 0.750000000000, -10.140625000000, 1490697893
0.253906250000, -0.912109375000, 0.318847656250, -2.890625000000, 0.750000000000, -10.140625000000, 1490697893
0.253906250000, -0.912109375000, 0.318847656250, -2.890625000000, 0.750000000000, -10.140625000000, 1490697893
0.159423828125, -0.922607421875, 0.324218750000, -2.867187500000, -2.773437500000, -10.148437500000, 1490697893
0.159423828125, -0.922607421875, 0.324218750000, -2.867187500000, -2.773437500000, -10.148437500000, 1490697893
0.159423828125, -0.922607421875, 0.324218750000, -2.867187500000, -2.773437500000, -10.148437500000, 1490697893
0.159423828125, -0.922607421875, 0.324218750000, -2.867187500000, -2.773437500000, -10.148437500000, 1490697893
0.169433593750, -0.868896484375, 0.385742187500, -4.460937500000, -2.390625000000, -3.343750000000, 1490697893
0.169433593750, -0.868896484375, 0.385742187500, -4.460937500000, -2.390625000000, -3.343750000000, 1490697893
0.169433593750, -0.868896484375, 0.385742187500, -4.460937500000, -2.390625000000, -3.343750000000, 1490697893
0.160888671875, -1.002197265625, 0.221679687500, -6.460937500000, -0.460937500000, -5.484375000000, 1490697893
0.160888671875, -1.002197265625, 0.221679687500, -6.460937500000, -0.460937500000, -5.484375000000, 1490697893
0.160888671875, -1.002197265625, 0.221679687500, -6.460937500000, -0.460937500000, -5.484375000000, 1490697893
0.251220703125, -0.908203125000, 0.178466796875, -8.179687500000, -2.242187500000, -3.234375000000, 1490697893
0.251220703125, -0.908203125000, 0.178466796875, -8.179687500000, -2.242187500000, -3.234375000000, 1490697893
0.251220703125, -0.908203125000, 0.178466796875, -8.179687500000, -2.242187500000, -3.234375000000, 1490697893
0.156738281250, -0.926025390625, 0.169433593750, -4.523437500000, -2.132812500000, -6.726562500000, 1490697893
0.156738281250, -0.926025390625, 0.169433593750, -4.523437500000, -2.132812500000, -6.726562500000, 1490697893
0.156738281250, -0.926025390625, 0.169433593750, -4.523437500000, -2.132812500000, -6.726562500000, 1490697893
0.156738281250, -0.926025390625, 0.169433593750, -4.523437500000, -2.132812500000, -6.726562500000, 1490697893
0.212158203125, -0.867187500000, 0.164550781250, -3.218750000000, -2.992187500000, -5.046875000000, 1490697893
0.212158203125, -0.867187500000, 0.164550781250, -3.218750000000, -2.992187500000, -5.046875000000, 1490697893
0.212158203125, -0.867187500000, 0.164550781250, -3.218750000000, -2.992187500000, -5.046875000000, 1490697893
0.213623046875, -0.993408203125, 0.382568359375, -3.382812500000, 0.015625000000, -8.234375000000, 1490697893
0.213623046875, -0.993408203125, 0.382568359375, -3.382812500000, 0.015625000000, -8.234375000000, 1490697893
0.213623046875, -0.993408203125, 0.382568359375, -3.382812500000, 0.015625000000, -8.234375000000, 1490697893
0.256591796875, -1.050292968750, 0.228027343750, -14.296875000000, 6.851562500000, -5.273437500000, 1490697894
0.256591796875, -1.050292968750, 0.228027343750, -14.296875000000, 6.851562500000, -5.273437500000, 1490697894
0.256591796875, -1.050292968750, 0.228027343750, -14.296875000000, 6.851562500000, -5.273437500000, 1490697894
0.217041015625, -0.958007812500, 0.241699218750, 0.625000000000, 6.750000000000, -9.625000000000, 1490697894
0.217041015625, -0.958007812500, 0.241699218750, 0.625000000000, 6.750000000000, -9.625000000000, 1490697894
0.217041015625, -0.958007812500, 0.241699218750, 0.625000000000, 6.750000000000, -9.625000000000, 1490697894
0.217041015625, -0.958007812500, 0.241699218750, 0.625000000000, 6.750000000000, -9.625000000000, 1490697894
0.121826171875, -1.027832031250, 0.332519531250, 0.757812500000, 7.617187500000, -5.117187500000, 1490697894
0.121826171875, -1.027832031250, 0.332519531250, 0.757812500000, 7.617187500000, -5.117187500000, 1490697894
0.121826171875, -1.027832031250, 0.332519531250, 0.757812500000, 7.617187500000, -5.117187500000, 1490697894
0.217041015625, -0.967041015625, 0.223632812500, -1.382812500000, 10.859375000000, -7.921875000000, 1490697894
0.217041015625, -0.967041015625, 0.223632812500, -1.382812500000, 10.859375000000, -7.921875000000, 1490697894
0.217041015625, -0.967041015625, 0.223632812500, -1.382812500000, 10.859375000000, -7.921875000000, 1490697894
0.268066406250, -0.918701171875, 0.239501953125, 0.335937500000, 5.914062500000, -10.265625000000, 1490697894
0.268066406250, -0.918701171875, 0.239501953125, 0.335937500000, 5.914062500000, -10.265625000000, 1490697894
0.268066406250, -0.918701171875, 0.239501953125, 0.335937500000, 5.914062500000, -10.265625000000, 1490697894
0.138183593750, -0.969482421875, 0.176513671875, -3.914062500000, 8.796875000000, -5.132812500000, 1490697894
0.138183593750, -0.969482421875, 0.176513671875, -3.914062500000, 8.796875000000, -5.132812500000, 1490697894
0.217529296875, -1.027343750000, 0.241455078125, -2.523437500000, 0.414062500000, -9.656250000000, 1490697894
0.217529296875, -1.027343750000, 0.241455078125, -2.523437500000, 0.414062500000, -9.656250000000, 1490697894
0.217529296875, -1.027343750000, 0.241455078125, -2.523437500000, 0.414062500000, -9.656250000000, 1490697894
0.217529296875, -1.027343750000, 0.241455078125, -2.523437500000, 0.414062500000, -9.656250000000, 1490697894
0.120117187500, -0.857666015625, 0.204345703125, -1.632812500000, -2.765625000000, -9.070312500000, 1490697894
0.139160156250, -0.972900390625, 0.244628906250, -2.812500000000, 4.656250000000, -9.351562500000, 1490697894
0.139160156250, -0.972900390625, 0.244628906250, -2.812500000000, 4.656250000000, -9.351562500000, 1490697894
0.139160156250, -0.972900390625, 0.244628906250, -2.812500000000, 4.656250000000, -9.351562500000, 1490697894
0.127441406250, -1.015625000000, 0.271728515625, 2.359375000000, 2.570312500000, -5.312500000000, 1490697894
0.127441406250, -1.015625000000, 0.271728515625, 2.359375000000, 2.570312500000, -5.312500000000, 1490697894
0.127441406250, -1.015625000000, 0.271728515625, 2.359375000000, 2.570312500000, -5.312500000000, 1490697894
0.188964843750, -0.928222656250, 0.182128906250, -2.101562500000, -0.500000000000, -6.000000000000, 1490697894
0.188964843750, -0.928222656250, 0.182128906250, -2.101562500000, -0.500000000000, -6.000000000000, 1490697894
0.188964843750, -0.928222656250, 0.182128906250, -2.101562500000, -0.500000000000, -6.000000000000, 1490697894
0.188964843750, -0.928222656250, 0.182128906250, -2.101562500000, -0.500000000000, -6.000000000000, 1490697894
0.120849609375, -1.007324218750, 0.193603515625, 0.171875000000, 0.070312500000, -9.078125000000, 1490697894
0.120849609375, -1.007324218750, 0.193603515625, 0.171875000000, 0.070312500000, -9.078125000000, 1490697894
0.120849609375, -1.007324218750, 0.193603515625, 0.171875000000, 0.070312500000, -9.078125000000, 1490697894
0.111328125000, -0.964599609375, 0.168701171875, -0.898437500000, 0.640625000000, -8.226562500000, 1490697894
0.111328125000, -0.964599609375, 0.168701171875, -0.898437500000, 0.640625000000, -8.226562500000, 1490697894
0.111328125000, -0.964599609375, 0.168701171875, -0.898437500000, 0.640625000000, -8.226562500000, 1490697894
0.212646484375, -0.998535156250, 0.242187500000, -2.031250000000, -4.859375000000, -6.726562500000, 1490697894
0.212646484375, -0.998535156250, 0.242187500000, -2.031250000000, -4.859375000000, -6.726562500000, 1490697894
0.212646484375, -0.998535156250, 0.242187500000, -2.031250000000, -4.859375000000, -6.726562500000, 1490697894
0.125000000000, -0.914306640625, 0.314941406250, 2.617187500000, -17.046875000000, -5.195312500000, 1490697894
0.125000000000, -0.914306640625, 0.314941406250, 2.617187500000, -17.046875000000, -5.195312500000, 1490697894
0.125000000000, -0.914306640625, 0.314941406250, 2.617187500000, -17.046875000000, -5.195312500000, 1490697894
0.125000000000, -0.914306640625, 0.314941406250, 2.617187500000, -17.046875000000, -5.195312500000, 1490697894
0.266357421875, -0.952148437500, 0.119140625000, -10.429687500000, -8.046875000000, -5.304687500000, 1490697894
0.266357421875, -0.952148437500, 0.119140625000, -10.429687500000, -8.046875000000, -5.304687500000, 1490697894
0.266357421875, -0.952148437500, 0.119140625000, -10.429687500000, -8.046875000000, -5.304687500000, 1490697894
0.109619140625, -0.981201171875, 0.218750000000, -2.851562500000, -3.164062500000, -0.179687500000, 1490697894
0.109619140625, -0.981201171875, 0.218750000000, -2.851562500000, -3.164062500000, -0.179687500000, 1490697894
0.109619140625, -0.981201171875, 0.218750000000, -2.851562500000, -3.164062500000, -0.179687500000, 1490697894
0.053710937500, -1.005615234375, 0.218261718750, -3.429687500000, 0.570312500000, -4.601562500000, 1490697894
0.053710937500, -1.005615234375, 0.218261718750, -3.429687500000, 0.570312500000, -4.601562500000, 1490697894
0.053710937500, -1.005615234375, 0.218261718750, -3.429687500000, 0.570312500000, -4.601562500000, 1490697894
0.212158203125, -0.966064453125, 0.262207031250, -2.968750000000, -11.921875000000, -10.203125000000, 1490697894
0.212158203125, -0.966064453125, 0.262207031250, -2.968750000000, -11.921875000000, -10.203125000000, 1490697894
0.212158203125, -0.966064453125, 0.262207031250, -2.968750000000, -11.921875000000, -10.203125000000, 1490697894
0.212158203125, -0.966064453125, 0.262207031250, -2.968750000000, -11.921875000000, -10.203125000000, 1490697894
0.191162109375, -0.924316406250, 0.157470703125, 0.148437500000, -12.226562500000, -7.023437500000, 1490697894
0.191162109375, -0.924316406250, 0.157470703125, 0.148437500000, -12.226562500000, -7.023437500000, 1490697894
0.191162109375, -0.924316406250, 0.157470703125, 0.148437500000, -12.226562500000, -7.023437500000, 1490697894
0.216552734375, -1.018310546875, 0.206542968750, -1.914062500000, -1.039062500000, -3.656250000000, 1490697894
0.216552734375, -1.018310546875, 0.206542968750, -1.914062500000, -1.039062500000, -3.656250000000, 1490697894
0.216552734375, -1.018310546875, 0.206542968750, -1.914062500000, -1.039062500000, -3.656250000000, 1490697894
0.194824218750, -0.917480468750, 0.268554687500, -5.382812500000, -0.117187500000, -4.179687500000, 1490697894
0.210449218750, -1.085205078125, 0.180908203125, -12.406250000000, 1.382812500000, -4.875000000000, 1490697895
0.210449218750, -1.085205078125, 0.180908203125, -12.406250000000, 1.382812500000, -4.875000000000, 1490697895
0.210449218750, -1.085205078125, 0.180908203125, -12.406250000000, 1.382812500000, -4.875000000000, 1490697895
0.210449218750, -1.085205078125, 0.180908203125, -12.406250000000, 1.382812500000, -4.875000000000, 1490697895
0.210449218750, -1.085205078125, 0.180908203125, -12.406250000000, 1.382812500000, -4.875000000000, 1490697895
0.210449218750, -1.085205078125, 0.180908203125, -12.406250000000, 1.382812500000, -4.875000000000, 1490697895
0.108398437500, -1.017578125000, 0.135742187500, -8.117187500000, -0.343750000000, -4.414062500000, 1490697895
0.108398437500, -1.017578125000, 0.135742187500, -8.117187500000, -0.343750000000, -4.414062500000, 1490697895
0.108398437500, -1.017578125000, 0.135742187500, -8.117187500000, -0.343750000000, -4.414062500000, 1490697895
0.123779296875, -0.908935546875, 0.056884765625, -8.132812500000, -1.554687500000, -11.234375000000, 1490697895
0.123779296875, -0.908935546875, 0.056884765625, -8.132812500000, -1.554687500000, -11.234375000000, 1490697895
0.123779296875, -0.908935546875, 0.056884765625, -8.132812500000, -1.554687500000, -11.234375000000, 1490697895
0.205566406250, -1.002685546875, 0.071044921875, -7.210937500000, -1.476562500000, -12.390625000000, 1490697895
0.205566406250, -1.002685546875, 0.071044921875, -7.210937500000, -1.476562500000, -12.390625000000, 1490697895
0.205566406250, -1.002685546875, 0.071044921875, -7.210937500000, -1.476562500000, -12.390625000000, 1490697895
0.154541015625, -0.977294921875, 0.147949218750, 12.351562500000, -6.273437500000, -15.093750000000, 1490697895
0.154541015625, -0.977294921875, 0.147949218750, 12.351562500000, -6.273437500000, -15.093750000000, 1490697895
0.154541015625, -0.977294921875, 0.147949218750, 12.351562500000, -6.273437500000, -15.093750000000, 1490697895
0.154541015625, -0.977294921875, 0.147949218750, 12.351562500000, -6.273437500000, -15.093750000000, 1490697895
0.077880859375, -0.873535156250, 0.155029296875, 10.390625000000, -5.406250000000, -15.406250000000, 1490697895
0.077880859375, -0.873535156250, 0.155029296875, 10.390625000000, -5.406250000000, -15.406250000000, 1490697895
0.077880859375, -0.873535156250, 0.155029296875, 10.390625000000, -5.406250000000, -15.406250000000, 1490697895
0.140625000000, -0.958740234375, -0.030761718750, 8.156250000000, 4.640625000000, -15.218750000000, 1490697895
0.140625000000, -0.958740234375, -0.030761718750, 8.156250000000, 4.640625000000, -15.218750000000, 1490697895
0.140625000000, -0.958740234375, -0.030761718750, 8.156250000000, 4.640625000000, -15.218750000000, 1490697895
-0.008056640625, -0.931640625000, 0.040039062500, 16.148437500000, 1.953125000000, -13.328125000000, 1490697895
-0.008056640625, -0.931640625000, 0.040039062500, 16.148437500000, 1.953125000000, -13.328125000000, 1490697895
0.091796875000, -0.809082031250, 0.061279296875, 35.546875000000, 14.015625000000, -13.632812500000, 1490697895
0.091796875000, -0.809082031250, 0.061279296875, 35.546875000000, 14.015625000000, -13.632812500000, 1490697895
0.091796875000, -0.809082031250, 0.061279296875, 35.546875000000, 14.015625000000, -13.632812500000, 1490697895
0.091796875000, -0.809082031250, 0.061279296875, 35.546875000000, 14.015625000000, -13.632812500000, 1490697895
0.015625000000, -0.812744140625, -0.024169921875, 35.085937500000, 9.507812500000, -11.125000000000, 1490697895
-0.005615234375, -0.669433593750, -0.016357421875, 41.265625000000, 8.734375000000, -9.101562500000, 1490697895
-0.005615234375, -0.669433593750, -0.016357421875, 41.265625000000, 8.734375000000, -9.101562500000, 1490697895
-0.005615234375, -0.669433593750, -0.016357421875, 44.554687500000, 4.070312500000, -11.398437500000, 1490697895
0.062500000000, -0.545898437500, 0.070068359375, 44.523437500000, -1.601562500000, -4.867187500000, 1490697895
0.062500000000, -0.545898437500, 0.070068359375, 44.523437500000, -1.601562500000, -4.867187500000, 1490697895
0.062500000000, -0.545898437500, 0.070068359375, 44.523437500000, -1.601562500000, -4.867187500000, 1490697895
0.069824218750, -0.415527343750, -0.021728515625, 56.921875000000, -21.664062500000, -0.867187500000, 1490697895
0.069824218750, -0.415527343750, -0.021728515625, 56.921875000000, -21.664062500000, -0.867187500000, 1490697895
0.069824218750, -0.415527343750, -0.021728515625, 56.921875000000, -21.664062500000, -0.867187500000, 1490697895
-0.035644531250, -0.398193359375, -0.009033203125, 73.585937500000, -30.148437500000, -31.625000000000, 1490697895
-0.035644531250, -0.398193359375, -0.009033203125, 73.585937500000, -30.148437500000, -31.625000000000, 1490697895
-0.035644531250, -0.398193359375, -0.009033203125, 73.585937500000, -30.148437500000, -31.625000000000, 1490697895
-0.035644531250, -0.398193359375, -0.009033203125, 73.585937500000, -30.148437500000, -31.625000000000, 1490697895
0.051025390625, -0.168701171875, 0.062744140625, -0.664062500000, -37.117187500000, -9.796875000000, 1490697895
0.051025390625, -0.168701171875, 0.062744140625, -0.664062500000, -37.117187500000, -9.796875000000, 1490697895
0.051025390625, -0.168701171875, 0.062744140625, -0.664062500000, -37.117187500000, -9.796875000000, 1490697895
0.071289062500, -0.393554687500, 0.008789062500, -51.171875000000, -26.554687500000, -1.335937500000, 1490697895
0.071289062500, -0.393554687500, 0.008789062500, -51.171875000000, -26.554687500000, -1.335937500000, 1490697895
0.071289062500, -0.393554687500, 0.008789062500, -51.171875000000, -26.554687500000, -1.335937500000, 1490697895
-0.028564453125, -0.796875000000, -0.139892578125, -215.953125000000, 44.453125000000, 51.187500000000, 1490697895
-0.028564453125, -0.796875000000, -0.139892578125, -215.953125000000, 44.453125000000, 51.187500000000, 1490697895
-0.028564453125, -0.796875000000, -0.139892578125, -215.953125000000, 44.453125000000, 51.187500000000, 1490697895
0.017578125000, -0.662109375000, -0.012451171875, -201.492187500000, 53.468750000000, 69.312500000000, 1490697895
0.017578125000, -0.662109375000, -0.012451171875, -201.492187500000, 53.468750000000, 69.312500000000, 1490697895
0.017578125000, -0.662109375000, -0.012451171875, -201.492187500000, 53.468750000000, 69.312500000000, 1490697895
0.017578125000, -0.662109375000, -0.012451171875, -201.492187500000, 53.468750000000, 69.312500000000, 1490697895
0.096191406250, -2.095214843750, -0.009277343750, -252.015625000000, 55.265625000000, 57.710937500000, 1490697895
0.096191406250, -2.095214843750, -0.009277343750, -252.015625000000, 55.265625000000, 57.710937500000, 1490697895
0.096191406250, -2.095214843750, -0.009277343750, -252.015625000000, 55.265625000000, 57.710937500000, 1490697895
0.486083984375, -2.772460937500, 0.239257812500, 68.148437500000, 85.101562500000, 44.539062500000, 1490697895
0.486083984375, -2.772460937500, 0.239257812500, 68.148437500000, 85.101562500000, 44.539062500000, 1490697895
0.486083984375, -2.772460937500, 0.239257812500, 68.148437500000, 85.101562500000, 44.539062500000, 1490697895
0.696777343750, -4.725585937500, -0.067871093750, 253.992187500000, -10.460937500000, -58.617187500000, 1490697895
0.696777343750, -4.725585937500, -0.067871093750, 253.992187500000, -10.460937500000, -58.617187500000, 1490697895
0.696777343750, -4.725585937500, -0.067871093750, 253.992187500000, -10.460937500000, -58.617187500000, 1490697895
0.180908203125, -1.202392578125, 0.257080078125, -256.000000000000, -22.835937500000, -7.078125000000, 1490697896
0.180908203125, -1.202392578125, 0.257080078125, -256.000000000000, -22.835937500000, -7.078125000000, 1490697896
0.180908203125, -1.202392578125, 0.257080078125, -256.000000000000, -22.835937500000, -7.078125000000, 1490697896
0.180908203125, -1.202392578125, 0.257080078125, -256.000000000000, -22.835937500000, -7.078125000000, 1490697896
0.061035156250, -0.057373046875, 0.048339843750, -204.664062500000, 156.781250000000, -73.484375000000, 1490697896
0.061035156250, -0.057373046875, 0.048339843750, -204.664062500000, 156.781250000000, -73.484375000000, 1490697896
0.061035156250, -0.057373046875, 0.048339843750, -204.664062500000, 156.781250000000, -73.484375000000, 1490697896
0.053222656250, -0.044189453125, -0.080322265625, -114.468750000000, -35.242187500000, -30.414062500000, 1490697896
0.053222656250, -0.044189453125, -0.080322265625, -114.468750000000, -35.242187500000, -30.414062500000, 1490697896
0.053222656250, -0.044189453125, -0.080322265625, -114.468750000000, -35.242187500000, -30.414062500000, 1490697896
-0.145019531250, -0.139160156250, 0.021484375000, -121.828125000000, -138.914062500000, 47.062500000000, 1490697896
-0.145019531250, -0.139160156250, 0.021484375000, -121.828125000000, -138.914062500000, 47.062500000000, 1490697896
-0.145019531250, -0.139160156250, 0.021484375000, -121.828125000000, -138.914062500000, 47.062500000000, 1490697896
0.020263671875, -0.008544921875, 0.048828125000, -78.906250000000, -254.304687500000, 113.242187500000, 1490697896
0.020263671875, -0.008544921875, 0.048828125000, -78.906250000000, -254.304687500000, 113.242187500000, 1490697896
0.020263671875, -0.008544921875, 0.048828125000, -78.906250000000, -254.304687500000, 113.242187500000, 1490697896
0.020263671875, -0.008544921875, 0.048828125000, -78.906250000000, -254.304687500000, 113.242187500000, 1490697896
0.044677734375, 0.097900390625, 0.096923828125, -97.171875000000, -30.773437500000, 28.171875000000, 1490697896
0.044677734375, 0.097900390625, 0.096923828125, -97.171875000000, -30.773437500000, 28.171875000000, 1490697896
0.044677734375, 0.097900390625, 0.096923828125, -97.171875000000, -30.773437500000, 28.171875000000, 1490697896
0.083007812500, 0.256103515625, 0.190917968750, -167.437500000000, 253.992187500000, 88.382812500000, 1490697896
0.083007812500, 0.256103515625, 0.190917968750, -167.437500000000, 253.992187500000, 88.382812500000, 1490697896
0.083007812500, 0.256103515625, 0.190917968750, -167.437500000000, 253.992187500000, 88.382812500000, 1490697896
0.669433593750, 0.394531250000, 3.361572265625, 12.242187500000, 253.992187500000, 55.148437500000, 1490697896
0.669433593750, 0.394531250000, 3.361572265625, 12.242187500000, 253.992187500000, 55.148437500000, 1490697896
0.669433593750, 0.394531250000, 3.361572265625, 12.242187500000, 253.992187500000, 55.148437500000, 1490697896
0.245849609375, -0.871826171875, 2.315673828125, -163.531250000000, 45.515625000000, 9.406250000000, 1490697896
0.245849609375, -0.871826171875, 2.315673828125, -163.531250000000, 45.515625000000, 9.406250000000, 1490697896
0.245849609375, -0.871826171875, 2.315673828125, -163.531250000000, 45.515625000000, 9.406250000000, 1490697896
0.245849609375, -0.871826171875, 2.315673828125, -163.531250000000, 45.515625000000, 9.406250000000, 1490697896
0.424072265625, -0.485351562500, 2.415039062500, -256.000000000000, 127.093750000000, -23.625000000000, 1490697896
0.424072265625, -0.485351562500, 2.415039062500, -256.000000000000, 127.093750000000, -23.625000000000, 1490697896
0.424072265625, -0.485351562500, 2.415039062500, -256.000000000000, 127.093750000000, -23.625000000000, 1490697896
-0.042236328125, 0.692382812500, 1.814697265625, -55.750000000000, -55.070312500000, 36.468750000000, 1490697896
-0.042236328125, 0.692382812500, 1.814697265625, -55.750000000000, -55.070312500000, 36.468750000000, 1490697896
-0.042236328125, 0.692382812500, 1.814697265625, -55.750000000000, -55.070312500000, 36.468750000000, 1490697896
0.005859375000, 0.178466796875, 1.209716796875, -61.203125000000, -84.492187500000, 38.226562500000, 1490697896
0.005859375000, 0.178466796875, 1.209716796875, -61.203125000000, -84.492187500000, 38.226562500000, 1490697896
0.005859375000, 0.178466796875, 1.209716796875, -61.203125000000, -84.492187500000, 38.226562500000, 1490697896
0.192626953125, 0.264404296875, 0.592285156250, -44.273437500000, -134.726562500000, 26.843750000000, 1490697896
0.192626953125, 0.264404296875, 0.592285156250, -44.273437500000, -134.726562500000, 26.843750000000, 1490697896
0.192626953125, 0.264404296875, 0.592285156250, -44.273437500000, -134.726562500000, 26.843750000000, 1490697896
0.192626953125, 0.264404296875, 0.592285156250, -44.273437500000, -134.726562500000, 26.843750000000, 1490697896
0.106933593750, 0.174316406250, 0.518554687500, -15.710937500000, -119.203125000000, 15.507812500000, 1490697896
0.106933593750, 0.174316406250, 0.518554687500, -15.710937500000, -119.203125000000, 15.507812500000, 1490697896
0.106933593750, 0.174316406250, 0.518554687500, -15.710937500000, -119.203125000000, 15.507812500000, 1490697896
0.223144531250, 0.432861328125, 0.778808593750, -15.992187500000, -18.914062500000, -18.273437500000, 1490697896
0.223144531250, 0.432861328125, 0.778808593750, -15.992187500000, -18.914062500000, -18.273437500000, 1490697896
0.223144531250, 0.432861328125, 0.778808593750, -15.992187500000, -18.914062500000, -18.273437500000, 1490697896
0.602783203125, 0.116699218750, 1.107177734375, -33.367187500000, -32.914062500000, -24.359375000000, 1490697896
0.602783203125, 0.116699218750, 1.107177734375, -33.367187500000, -32.914062500000, -24.359375000000, 1490697896
0.602783203125, 0.116699218750, 1.107177734375, -33.367187500000, -32.914062500000, -24.359375000000, 1490697896
0.881347656250, 0.311523437500, 1.245361328125, -29.820312500000, -25.945312500000, -18.304687500000, 1490697896
0.881347656250, 0.311523437500, 1.245361328125, -29.820312500000, -25.945312500000, -18.304687500000, 1490697896
0.881347656250, 0.311523437500, 1.245361328125, -29.820312500000, -25.945312500000, -18.304687500000, 1490697896
0.881347656250, 0.311523437500, 1.245361328125, -29.820312500000, -25.945312500000, -18.304687500000, 1490697896
0.597656250000, 0.289794921875, 1.017333984375, -32.007812500000, -16.898437500000, 13.789062500000, 1490697896
0.597656250000, 0.289794921875, 1.017333984375, -32.007812500000, -16.898437500000, 13.789062500000, 1490697896
0.597656250000, 0.289794921875, 1.017333984375, -32.007812500000, -16.898437500000, 13.789062500000, 1490697896
0.563720703125, 0.168701171875, 0.959472656250, -32.718750000000, -22.695312500000, -20.890625000000, 1490697896
0.563720703125, 0.168701171875, 0.959472656250, -32.718750000000, -22.695312500000, -20.890625000000, 1490697896
0.563720703125, 0.168701171875, 0.959472656250, -32.718750000000, -22.695312500000, -20.890625000000, 1490697896
0.502685546875, 0.117431640625, 0.613037109375, -19.234375000000, -11.046875000000, -11.265625000000, 1490697896
0.502685546875, 0.117431640625, 0.613037109375, -19.234375000000, -11.046875000000, -11.265625000000, 1490697896
0.502685546875, 0.117431640625, 0.613037109375, -19.234375000000, -11.046875000000, -11.265625000000, 1490697896
0.491210937500, -0.324707031250, 0.611328125000, -9.960937500000, 31.343750000000, -31.062500000000, 1490697897
0.491210937500, -0.324707031250, 0.611328125000, -9.960937500000, 31.343750000000, -31.062500000000, 1490697897
0.562500000000, -0.104980468750, 0.740722656250, -14.046875000000, 29.742187500000, 9.781250000000, 1490697897
0.562500000000, -0.104980468750, 0.740722656250, -14.046875000000, 29.742187500000, 9.781250000000, 1490697897
0.562500000000, -0.104980468750, 0.740722656250, -14.046875000000, 29.742187500000, 9.781250000000, 1490697897
0.562500000000, -0.104980468750, 0.740722656250, -14.046875000000, 29.742187500000, 9.781250000000, 1490697897
0.562500000000, -0.104980468750, 0.740722656250, -14.046875000000, 29.742187500000, 9.781250000000, 1490697897
0.643310546875, 0.022216796875, 0.807373046875, -1.156250000000, 40.250000000000, 32.898437500000, 1490697897
0.643310546875, 0.022216796875, 0.807373046875, -1.156250000000, 40.250000000000, 32.898437500000, 1490697897
0.643310546875, 0.022216796875, 0.807373046875, -1.156250000000, 40.250000000000, 32.898437500000, 1490697897
0.573730468750, 0.077636718750, 1.075927734375, -21.578125000000, 110.703125000000, 23.812500000000, 1490697897
0.573730468750, 0.077636718750, 1.075927734375, -21.578125000000, 110.703125000000, 23.812500000000, 1490697897
0.573730468750, 0.077636718750, 1.075927734375, -21.578125000000, 110.703125000000, 23.812500000000, 1490697897
0.474121093750, 0.312255859375, 1.382568359375, 7.867187500000, 21.554687500000, 35.054687500000, 1490697897
0.474121093750, 0.312255859375, 1.382568359375, 7.867187500000, 21.554687500000, 35.054687500000, 1490697897
0.474121093750, 0.312255859375, 1.382568359375, 7.867187500000, 21.554687500000, 35.054687500000, 1490697897
0.474121093750, 0.312255859375, 1.382568359375, 7.867187500000, 21.554687500000, 35.054687500000, 1490697897
0.401123046875, 0.558593750000, 1.291748046875, -12.328125000000, 47.070312500000, 47.773437500000, 1490697897
0.401123046875, 0.558593750000, 1.291748046875, -12.328125000000, 47.070312500000, 47.773437500000, 1490697897
0.039062500000, 0.557617187500, 1.070312500000, 1.437500000000, 5.609375000000, 18.492187500000, 1490697897
0.039062500000, 0.557617187500, 1.070312500000, 1.437500000000, 5.609375000000, 18.492187500000, 1490697897
0.039062500000, 0.557617187500, 1.070312500000, 1.437500000000, 5.609375000000, 18.492187500000, 1490697897
0.039062500000, 0.557617187500, 1.070312500000, 1.437500000000, 5.609375000000, 18.492187500000, 1490697897
0.038574218750, 0.236083984375, 0.718261718750, 5.164062500000, -4.492187500000, -33.640625000000, 1490697897
0.038574218750, 0.236083984375, 0.718261718750, 5.164062500000, -4.492187500000, -33.640625000000, 1490697897
0.038574218750, 0.236083984375, 0.718261718750, 5.164062500000, -4.492187500000, -33.640625000000, 1490697897
0.337402343750, -0.005615234375, 0.853759765625, -8.390625000000, 24.203125000000, -35.281250000000, 1490697897
0.337402343750, -0.005615234375, 0.853759765625, -8.390625000000, 24.203125000000, -35.281250000000, 1490697897
0.337402343750, -0.005615234375, 0.853759765625, -8.390625000000, 24.203125000000, -35.281250000000, 1490697897
0.337402343750, -0.005615234375, 0.853759765625, -8.390625000000, 24.203125000000, -35.281250000000, 1490697897
0.363525390625, -0.013671875000, 1.056640625000, -18.617187500000, -37.335937500000, -10.039062500000, 1490697897
0.363525390625, -0.013671875000, 1.056640625000, -18.617187500000, -37.335937500000, -10.039062500000, 1490697897
0.363525390625, -0.013671875000, 1.056640625000, -18.617187500000, -37.335937500000, -10.039062500000, 1490697897
0.450439453125, 0.186279296875, 1.188232421875, 0.125000000000, -42.664062500000, 18.390625000000, 1490697897
0.450439453125, 0.186279296875, 1.188232421875, 0.125000000000, -42.664062500000, 18.390625000000, 1490697897
0.450439453125, 0.186279296875, 1.188232421875, 0.125000000000, -42.664062500000, 18.390625000000, 1490697897
0.405761718750, 0.227050781250, 1.053466796875, 11.726562500000, 9.835937500000, 14.406250000000, 1490697897
0.405761718750, 0.227050781250, 1.053466796875, 11.726562500000, 9.835937500000, 14.406250000000, 1490697897
0.225830078125, 0.057128906250, 0.982666015625, -6.734375000000, -5.203125000000, -1.921875000000, 1490697897
0.225830078125, 0.057128906250, 0.982666015625, -6.734375000000, -5.203125000000, -1.921875000000, 1490697897
0.225830078125, 0.057128906250, 0.982666015625, -6.734375000000, -5.203125000000, -1.921875000000, 1490697897
0.225830078125, 0.057128906250, 0.982666015625, -6.734375000000, -5.203125000000, -1.921875000000, 1490697897
0.225830078125, 0.057128906250, 0.982666015625, -6.734375000000, -5.203125000000, -1.921875000000, 1490697897
0.228271484375, 0.324707031250, 0.883789062500, -20.390625000000, -14.039062500000, 7.789062500000, 1490697897
0.228271484375, 0.324707031250, 0.883789062500, -20.390625000000, -14.039062500000, 7.789062500000, 1490697897
0.228271484375, 0.324707031250, 0.883789062500, -20.390625000000, -14.039062500000, 7.789062500000, 1490697897
0.292968750000, 0.392578125000, 0.944335937500, -11.570312500000, -16.000000000000, 8.773437500000, 1490697897
0.292968750000, 0.392578125000, 0.944335937500, -11.570312500000, -16.000000000000, 8.773437500000, 1490697897
0.292968750000, 0.392578125000, 0.944335937500, -11.570312500000, -16.000000000000, 8.773437500000, 1490697897
0.237304687500, 0.330810546875, 0.914062500000, -3.390625000000, -8.593750000000, -7.656250000000, 1490697897
0.237304687500, 0.330810546875, 0.914062500000, -3.390625000000, -8.593750000000, -7.656250000000, 1490697897
0.237304687500, 0.330810546875, 0.914062500000, -3.390625000000, -8.593750000000, -7.656250000000, 1490697897
0.394775390625, 0.165527343750, 1.019287109375, -0.187500000000, 0.406250000000, -14.664062500000, 1490697897
0.394775390625, 0.165527343750, 1.019287109375, -0.187500000000, 0.406250000000, -14.664062500000, 1490697897
0.394775390625, 0.165527343750, 1.019287109375, -0.187500000000, 0.406250000000, -14.664062500000, 1490697897
0.394775390625, 0.165527343750, 1.019287109375, -0.187500000000, 0.406250000000, -14.664062500000, 1490697897
0.344482421875, 0.144775390625, 1.022705078125, -6.632812500000, -2.898437500000, -5.382812500000, 1490697897
0.344482421875, 0.144775390625, 1.022705078125, -6.632812500000, -2.898437500000, -5.382812500000, 1490697897
0.344482421875, 0.144775390625, 1.022705078125, -6.632812500000, -2.898437500000, -5.382812500000, 1490697897
0.309082031250, 0.196533203125, 0.956298828125, -3.132812500000, 1.625000000000, 0.804687500000, 1490697897
0.309082031250, 0.196533203125, 0.956298828125, -3.132812500000, 1.625000000000, 0.804687500000, 1490697897
0.309082031250, 0.196533203125, 0.956298828125, -3.132812500000, 1.625000000000, 0.804687500000, 1490697897
0.256103515625, 0.174316406250, 0.924072265625, -3.070312500000, -2.585937500000, -0.687500000000, 1490697897
0.256103515625, 0.174316406250, 0.924072265625, -3.070312500000, -2.585937500000, -0.687500000000, 1490697897
0.256103515625, 0.174316406250, 0.924072265625, -3.070312500000, -2.585937500000, -0.687500000000, 1490697897
0.360839843750, 0.267089843750, 0.982177734375, -4.234375000000, -13.046875000000, 9.093750000000, 1490697897
0.360839843750, 0.267089843750, 0.982177734375, -4.234375000000, -13.046875000000, 9.093750000000, 1490697897
0.360839843750, 0.267089843750, 0.982177734375, -4.234375000000, -13.046875000000, 9.093750000000, 1490697897
0.360839843750, 0.267089843750, 0.982177734375, -4.234375000000, -13.046875000000, 9.093750000000, 1490697897
0.246826171875, 0.172851562500, 0.958007812500, -2.851562500000, 6.500000000000, -4.476562500000, 1490697898
0.246826171875, 0.172851562500, 0.958007812500, -2.851562500000, 6.500000000000, -4.476562500000, 1490697898
0.246826171875, 0.172851562500, 0.958007812500, -2.851562500000, 6.500000000000, -4.476562500000, 1490697898
0.246826171875, 0.172851562500, 0.958007812500, -2.851562500000, 6.500000000000, -4.476562500000, 1490697898
0.246826171875, 0.172851562500, 0.958007812500, -2.851562500000, 6.500000000000, -4.476562500000, 1490697898
0.246826171875, 0.172851562500, 0.958007812500, -2.851562500000, 6.500000000000, -4.476562500000, 1490697898
0.439208984375, 0.256103515625, 0.932128906250, -5.023437500000, 0.421875000000, -3.828125000000, 1490697898
0.439208984375, 0.256103515625, 0.932128906250, -5.023437500000, 0.421875000000, -3.828125000000, 1490697898
0.439208984375, 0.256103515625, 0.932128906250, -5.023437500000, 0.421875000000, -3.828125000000, 1490697898
0.282226562500, 0.184082031250, 0.971191406250, -3.234375000000, -1.679687500000, -1.835937500000, 1490697898
0.282226562500, 0.184082031250, 0.971191406250, -3.234375000000, -1.679687500000, -1.835937500000, 1490697898
0.282226562500, 0.184082031250, 0.971191406250, -3.234375000000, -1.679687500000, -1.835937500000, 1490697898
0.282226562500, 0.184082031250, 0.971191406250, -3.234375000000, -1.679687500000, -1.835937500000, 1490697898
0.305175781250, 0.256347656250, 0.959228515625, -4.875000000000, -6.718750000000, -1.875000000000, 1490697898
0.305175781250, 0.256347656250, 0.959228515625, -4.875000000000, -6.718750000000, -1.875000000000, 1490697898
0.305175781250, 0.256347656250, 0.959228515625, -4.875000000000, -6.718750000000, -1.875000000000, 1490697898
0.312744140625, 0.164550781250, 0.951416015625, -6.054687500000, -1.609375000000, 2.226562500000, 1490697898
0.312744140625, 0.164550781250, 0.951416015625, -6.054687500000, -1.609375000000, 2.226562500000, 1490697898
0.312744140625, 0.164550781250, 0.951416015625, -6.054687500000, -1.609375000000, 2.226562500000, 1490697898
0.283691406250, 0.260742187500, 0.963378906250, -3.421875000000, -6.976562500000, 0.625000000000, 1490697898
0.378906250000, 0.245361328125, 0.925048828125, -6.406250000000, -14.976562500000, -4.531250000000, 1490697898
0.406250000000, 0.294433593750, 1.016113281250, -6.406250000000, -14.976562500000, -4.531250000000, 1490697898
0.406250000000, 0.294433593750, 1.016113281250, -6.406250000000, -14.976562500000, -4.531250000000, 1490697898
0.406250000000, 0.294433593750, 1.016113281250, -6.406250000000, -14.976562500000, -4.531250000000, 1490697898
0.346679687500, 0.244873046875, 0.966308593750, -3.843750000000, -12.101562500000, 0.265625000000, 1490697898
0.346679687500, 0.244873046875, 0.966308593750, -3.843750000000, -12.101562500000, 0.265625000000, 1490697898
0.346679687500, 0.244873046875, 0.966308593750, -3.843750000000, -12.101562500000, 0.265625000000, 1490697898
0.346679687500, 0.244873046875, 0.966308593750, -3.843750000000, -12.101562500000, 0.265625000000, 1490697898
0.346679687500, 0.244873046875, 0.966308593750, -3.843750000000, -12.101562500000, 0.265625000000, 1490697898
0.307617187500, 0.232421875000, 0.856933593750, -4.789062500000, -10.585937500000, 2.242187500000, 1490697898
0.307617187500, 0.232421875000, 0.856933593750, -4.789062500000, -10.585937500000, 2.242187500000, 1490697898
0.307617187500, 0.232421875000, 0.856933593750, -4.789062500000, -10.585937500000, 2.242187500000, 1490697898
0.381591796875, 0.321289062500, 1.024902343750, -1.359375000000, -10.875000000000, 1.367187500000, 1490697898
0.381591796875, 0.321289062500, 1.024902343750, -1.359375000000, -10.875000000000, 1.367187500000, 1490697898
0.381591796875, 0.321289062500, 1.024902343750, -1.359375000000, -10.875000000000, 1.367187500000, 1490697898
0.354492187500, 0.181396484375, 0.945800781250, -3.093750000000, -9.234375000000, -4.054687500000, 1490697898
0.354492187500, 0.181396484375, 0.945800781250, -3.093750000000, -9.234375000000, -4.054687500000, 1490697898
0.354492187500, 0.181396484375, 0.945800781250, -3.093750000000, -9.234375000000, -4.054687500000, 1490697898
0.354492187500, 0.181396484375, 0.945800781250, -3.093750000000, -9.234375000000, -4.054687500000, 1490697898
0.373535156250, 0.233642578125, 0.853759765625, -3.843750000000, -9.234375000000, -0.851562500000, 1490697898
0.373535156250, 0.233642578125, 0.853759765625, -3.843750000000, -9.234375000000, -0.851562500000, 1490697898
0.373535156250, 0.233642578125, 0.853759765625, -3.843750000000, -9.234375000000, -0.851562500000, 1490697898
0.511718750000, 0.321289062500, 0.942626953125, -4.859375000000, -6.398437500000, -1.937500000000, 1490697898
0.511718750000, 0.321289062500, 0.942626953125, -4.859375000000, -6.398437500000, -1.937500000000, 1490697898
0.511718750000, 0.321289062500, 0.942626953125, -4.859375000000, -6.398437500000, -1.937500000000, 1490697898
0.437500000000, 0.324462890625, 0.931152343750, -1.562500000000, 0.109375000000, -4.734375000000, 1490697898
0.437500000000, 0.324462890625, 0.931152343750, -1.562500000000, 0.109375000000, -4.734375000000, 1490697898
0.437500000000, 0.324462890625, 0.931152343750, -1.562500000000, 0.109375000000, -4.734375000000, 1490697898
0.358398437500, 0.239746093750, 0.889892578125, -4.226562500000, 1.906250000000, -2.906250000000, 1490697898
0.358398437500, 0.239746093750, 0.889892578125, -4.226562500000, 1.906250000000, -2.906250000000, 1490697898
0.358398437500, 0.239746093750, 0.889892578125, -4.226562500000, 1.906250000000, -2.906250000000, 1490697898
0.358398437500, 0.239746093750, 0.889892578125, -4.226562500000, 1.906250000000, -2.906250000000, 1490697898
0.408447265625, 0.241699218750, 0.914062500000, -1.343750000000, -3.015625000000, -5.421875000000, 1490697898
0.408447265625, 0.241699218750, 0.914062500000, -1.343750000000, -3.015625000000, -5.421875000000, 1490697898
0.408447265625, 0.241699218750, 0.914062500000, -1.343750000000, -3.015625000000, -5.421875000000, 1490697898
0.491943359375, 0.336181640625, 0.867675781250, -3.781250000000, 4.085937500000, -3.203125000000, 1490697898
0.491943359375, 0.336181640625, 0.867675781250, -3.781250000000, 4.085937500000, -3.203125000000, 1490697898
0.491943359375, 0.336181640625, 0.867675781250, -3.781250000000, 4.085937500000, -3.203125000000, 1490697898
0.373046875000, 0.262939453125, 0.983886718750, -8.226562500000, -2.656250000000, -4.171875000000, 1490697898
0.373046875000, 0.262939453125, 0.983886718750, -8.226562500000, -2.656250000000, -4.171875000000, 1490697898
0.373046875000, 0.262939453125, 0.983886718750, -8.226562500000, -2.656250000000, -4.171875000000, 1490697898
0.361572265625, 0.320556640625, 0.948486328125, -10.125000000000, -1.015625000000, 0.070312500000, 1490697898
0.361572265625, 0.320556640625, 0.948486328125, -10.125000000000, -1.015625000000, 0.070312500000, 1490697898
0.361572265625, 0.320556640625, 0.948486328125, -10.125000000000, -1.015625000000, 0.070312500000, 1490697898
0.361572265625, 0.320556640625, 0.948486328125, -10.125000000000, -1.015625000000, 0.070312500000, 1490697898
0.448730468750, 0.223876953125, 0.953369140625, -5.539062500000, -2.773437500000, -2.789062500000, 1490697898
0.448730468750, 0.223876953125, 0.953369140625, -5.539062500000, -2.773437500000, -2.789062500000, 1490697898
0.448730468750, 0.223876953125, 0.953369140625, -5.539062500000, -2.773437500000, -2.789062500000, 1490697899
0.356201171875, 0.272705078125, 0.864990234375, -3.632812500000, 0.195312500000, -3.773437500000, 1490697899
0.356201171875, 0.272705078125, 0.864990234375, -3.632812500000, 0.195312500000, -3.773437500000, 1490697899
0.356201171875, 0.272705078125, 0.864990234375, -3.632812500000, 0.195312500000, -3.773437500000, 1490697899
0.505371093750, 0.355957031250, 0.956054687500, -5.500000000000, -2.945312500000, -3.109375000000, 1490697899
0.505371093750, 0.355957031250, 0.956054687500, -5.500000000000, -2.945312500000, -3.109375000000, 1490697899
0.505371093750, 0.355957031250, 0.956054687500, -5.500000000000, -2.945312500000, -3.109375000000, 1490697899
0.502197265625, 0.169433593750, 0.856689453125, -5.054687500000, 1.414062500000, -3.062500000000, 1490697899
0.502197265625, 0.169433593750, 0.856689453125, -5.054687500000, 1.414062500000, -3.062500000000, 1490697899
0.502197265625, 0.169433593750, 0.856689453125, -5.054687500000, 1.414062500000, -3.062500000000, 1490697899
0.502197265625, 0.169433593750, 0.856689453125, -5.054687500000, 1.414062500000, -3.062500000000, 1490697899
0.394775390625, 0.170166015625, 0.935791015625, -3.898437500000, -0.640625000000, -3.929687500000, 1490697899
0.394775390625, 0.170166015625, 0.935791015625, -3.898437500000, -0.640625000000, -3.929687500000, 1490697899
0.394775390625, 0.170166015625, 0.935791015625, -3.898437500000, -0.640625000000, -3.929687500000, 1490697899
0.406494140625, 0.261718750000, 0.924316406250, -3.039062500000, 1.320312500000, -4.718750000000, 1490697899
0.406494140625, 0.261718750000, 0.924316406250, -3.039062500000, 1.320312500000, -4.718750000000, 1490697899
0.406494140625, 0.261718750000, 0.924316406250, -3.039062500000, 1.320312500000, -4.718750000000, 1490697899
0.456542968750, 0.220214843750, 0.897216796875, -1.828125000000, 0.148437500000, -1.960937500000, 1490697899
0.456542968750, 0.220214843750, 0.897216796875, -1.828125000000, 0.148437500000, -1.960937500000, 1490697899
0.456542968750, 0.220214843750, 0.897216796875, -1.828125000000, 0.148437500000, -1.960937500000, 1490697899
0.360107421875, 0.314208984375, 0.862792968750, -3.296875000000, 0.234375000000, -6.484375000000, 1490697899
0.360107421875, 0.314208984375, 0.862792968750, -3.296875000000, 0.234375000000, -6.484375000000, 1490697899
0.360107421875, 0.314208984375, 0.862792968750, -3.296875000000, 0.234375000000, -6.484375000000, 1490697899
0.360107421875, 0.314208984375, 0.862792968750, -3.296875000000, 0.234375000000, -6.484375000000, 1490697899
0.330810546875, 0.185302734375, 0.952148437500, -1.828125000000, -0.703125000000, -1.539062500000, 1490697899
0.330810546875, 0.185302734375, 0.952148437500, -1.828125000000, -0.703125000000, -1.539062500000, 1490697899
0.330810546875, 0.185302734375, 0.952148437500, -1.828125000000, -0.703125000000, -1.539062500000, 1490697899
0.449951171875, 0.284423828125, 0.960449218750, -4.757812500000, -1.750000000000, -4.937500000000, 1490697899
0.449951171875, 0.284423828125, 0.960449218750, -4.757812500000, -1.750000000000, -4.937500000000, 1490697899
0.449951171875, 0.284423828125, 0.960449218750, -4.757812500000, -1.750000000000, -4.937500000000, 1490697899
0.352783203125, 0.268310546875, 0.955078125000, -4.117187500000, 2.031250000000, -3.695312500000, 1490697899
0.352783203125, 0.268310546875, 0.955078125000, -4.117187500000, 2.031250000000, -3.695312500000, 1490697899
0.352783203125, 0.268310546875, 0.955078125000, -4.117187500000, 2.031250000000, -3.695312500000, 1490697899
0.347900390625, 0.196044921875, 0.947509765625, -1.476562500000, -2.796875000000, -1.273437500000, 1490697899
0.347900390625, 0.196044921875, 0.947509765625, -1.476562500000, -2.796875000000, -1.273437500000, 1490697899
0.347900390625, 0.196044921875, 0.947509765625, -1.843750000000, 1.046875000000, -4.015625000000, 1490697899
0.420898437500, 0.243652343750, 1.013183593750, -1.656250000000, -0.906250000000, -3.687500000000, 1490697899
0.420898437500, 0.243652343750, 1.013183593750, -1.656250000000, -0.906250000000, -3.687500000000, 1490697899
0.420898437500, 0.243652343750, 1.013183593750, -1.656250000000, -0.906250000000, -3.687500000000, 1490697899
0.420898437500, 0.243652343750, 1.013183593750, -1.656250000000, -0.906250000000, -3.687500000000, 1490697899
0.306640625000, 0.265380859375, 0.858154296875, -4.195312500000, 2.804687500000, -8.210937500000, 1490697899
0.306640625000, 0.265380859375, 0.858154296875, -4.195312500000, 2.804687500000, -8.210937500000, 1490697899
0.306640625000, 0.265380859375, 0.858154296875, -4.195312500000, 2.804687500000, -8.210937500000, 1490697899
0.363525390625, 0.322753906250, 0.967041015625, -4.843750000000, -1.234375000000, -4.281250000000, 1490697899
0.363525390625, 0.322753906250, 0.967041015625, -4.843750000000, -1.234375000000, -4.281250000000, 1490697899
0.363525390625, 0.322753906250, 0.967041015625, -4.843750000000, -1.234375000000, -4.281250000000, 1490697899
0.379150390625, 0.168701171875, 0.932128906250, -4.734375000000, 2.335937500000, -6.796875000000, 1490697899
0.379150390625, 0.168701171875, 0.932128906250, -4.734375000000, 2.335937500000, -6.796875000000, 1490697899
0.379150390625, 0.168701171875, 0.932128906250, -4.734375000000, 2.335937500000, -6.796875000000, 1490697899
0.379150390625, 0.168701171875, 0.932128906250, -4.734375000000, 2.335937500000, -6.796875000000, 1490697899
0.404541015625, 0.274658203125, 1.008544921875, -4.734375000000, -2.070312500000, -4.414062500000, 1490697899
0.404541015625, 0.274658203125, 1.008544921875, -4.734375000000, -2.070312500000, -4.414062500000, 1490697899
0.404541015625, 0.274658203125, 1.008544921875, -4.734375000000, -2.070312500000, -4.414062500000, 1490697899
0.388916015625, 0.272216796875, 0.945556640625, -4.656250000000, 0.281250000000, -5.812500000000, 1490697899
0.388916015625, 0.272216796875, 0.945556640625, -4.656250000000, 0.281250000000, -5.812500000000, 1490697899
0.306640625000, 0.322753906250, 0.953857421875, -1.039062500000, 0.070312500000, -4.398437500000, 1490697899
0.306640625000, 0.322753906250, 0.953857421875, -1.039062500000, 0.070312500000, -4.398437500000, 1490697899
0.306640625000, 0.322753906250, 0.953857421875, -1.039062500000, 0.070312500000, -4.398437500000, 1490697899
0.306640625000, 0.322753906250, 0.953857421875, -1.039062500000, 0.070312500000, -4.398437500000, 1490697899
0.306640625000, 0.322753906250, 0.953857421875, -1.039062500000, 0.070312500000, -4.398437500000, 1490697899
0.398681640625, 0.198730468750, 0.871826171875, -3.851562500000, 2.546875000000, -5.210937500000, 1490697899
0.398681640625, 0.198730468750, 0.871826171875, -3.851562500000, 2.546875000000, -5.210937500000, 1490697899
0.398681640625, 0.198730468750, 0.871826171875, -3.851562500000, 2.546875000000, -5.210937500000, 1490697899
0.357666015625, 0.218994140625, 1.001220703125, -3.890625000000, -2.179687500000, -3.976562500000, 1490697899
0.357666015625, 0.218994140625, 1.001220703125, -3.890625000000, -2.179687500000, -3.976562500000, 1490697899
0.357666015625, 0.218994140625, 1.001220703125, -3.890625000000, -2.179687500000, -3.976562500000, 1490697899
0.443603515625, 0.243896484375, 0.864257812500, -6.710937500000, 2.804687500000, -3.343750000000, 1490697900
0.350585937500, 0.221923828125, 1.002929687500, -4.109375000000, 2.156250000000, -3.507812500000, 1490697900
0.350585937500, 0.208496093750, 1.006347656250, -4.679687500000, -2.015625000000, -3.437500000000, 1490697900
0.350585937500, 0.208496093750, 1.006347656250, -4.679687500000, -2.015625000000, -3.437500000000, 1490697900
0.398925781250, 0.182861328125, 0.951416015625, -3.515625000000, 1.179687500000, -3.304687500000, 1490697900
0.299560546875, 0.250976562500, 0.930908203125, -4.914062500000, -0.703125000000, -3.367187500000, 1490697900
0.299560546875, 0.250976562500, 0.930908203125, -4.914062500000, -0.703125000000, -3.367187500000, 1490697900
0.299560546875, 0.250976562500, 0.930908203125, -4.914062500000, -0.703125000000, -3.367187500000, 1490697900
0.299560546875, 0.250976562500, 0.930908203125, -4.914062500000, -0.703125000000, -3.367187500000, 1490697900
0.299560546875, 0.250976562500, 0.930908203125, -4.914062500000, -0.703125000000, -3.367187500000, 1490697900
0.437744140625, 0.226318359375, 0.863525390625, -3.585937500000, 2.234375000000, -4.523437500000, 1490697900
0.437744140625, 0.226318359375, 0.863525390625, -3.585937500000, 2.234375000000, -4.523437500000, 1490697900
0.437744140625, 0.226318359375, 0.863525390625, -3.585937500000, 2.234375000000, -4.523437500000, 1490697900
0.394775390625, 0.328125000000, 0.914794921875, -4.390625000000, -0.257812500000, -4.648437500000, 1490697900
0.394775390625, 0.328125000000, 0.914794921875, -4.390625000000, -0.257812500000, -4.648437500000, 1490697900
0.394775390625, 0.328125000000, 0.914794921875, -4.390625000000, -0.257812500000, -4.648437500000, 1490697900
0.425292968750, 0.331054687500, 0.947998046875, -4.578125000000, 0.429687500000, -3.648437500000, 1490697900
0.425292968750, 0.331054687500, 0.947998046875, -4.578125000000, 0.429687500000, -3.648437500000, 1490697900
0.425292968750, 0.331054687500, 0.947998046875, -4.578125000000, 0.429687500000, -3.648437500000, 1490697900
0.460693359375, 0.168212890625, 0.941162109375, -6.750000000000, -2.468750000000, -3.664062500000, 1490697900
0.460693359375, 0.168212890625, 0.941162109375, -6.750000000000, -2.468750000000, -3.664062500000, 1490697900
0.460693359375, 0.168212890625, 0.941162109375, -6.750000000000, -2.468750000000, -3.664062500000, 1490697900
0.460693359375, 0.168212890625, 0.941162109375, -6.750000000000, -2.468750000000, -3.664062500000, 1490697900
0.291748046875, 0.269042968750, 0.863769531250, -3.132812500000, 3.070312500000, -4.820312500000, 1490697900
0.291748046875, 0.269042968750, 0.863769531250, -3.132812500000, 3.070312500000, -4.820312500000, 1490697900
0.291748046875, 0.269042968750, 0.863769531250, -3.132812500000, 3.070312500000, -4.820312500000, 1490697900
0.381103515625, 0.313720703125, 0.872558593750, -1.710937500000, -1.570312500000, -5.562500000000, 1490697900
0.381103515625, 0.313720703125, 0.872558593750, -1.710937500000, -1.570312500000, -5.562500000000, 1490697900
0.381103515625, 0.313720703125, 0.872558593750, -1.710937500000, -1.570312500000, -5.562500000000, 1490697900
0.513916015625, 0.279296875000, 0.875000000000, -3.640625000000, 2.960937500000, -3.632812500000, 1490697900
0.513916015625, 0.279296875000, 0.875000000000, -3.640625000000, 2.960937500000, -3.632812500000, 1490697900
0.513916015625, 0.279296875000, 0.875000000000, -3.640625000000, 2.960937500000, -3.632812500000, 1490697900
0.387207031250, 0.320800781250, 0.945800781250, -4.328125000000, 2.234375000000, -4.265625000000, 1490697900
0.387207031250, 0.320800781250, 0.945800781250, -4.328125000000, 2.234375000000, -4.265625000000, 1490697900
0.387207031250, 0.320800781250, 0.945800781250, -4.328125000000, 2.234375000000, -4.265625000000, 1490697900
0.387207031250, 0.320800781250, 0.945800781250, -4.328125000000, 2.234375000000, -4.265625000000, 1490697900
0.361328125000, 0.328857421875, 0.866210937500, -4.062500000000, 0.054687500000, -3.203125000000, 1490697900
0.361328125000, 0.328857421875, 0.866210937500, -4.062500000000, 0.054687500000, -3.203125000000, 1490697900
0.361328125000, 0.328857421875, 0.866210937500, -4.062500000000, 0.054687500000, -3.203125000000, 1490697900
0.397216796875, 0.174072265625, 0.895507812500, -4.445312500000, -2.039062500000, -1.710937500000, 1490697900
0.397216796875, 0.174072265625, 0.895507812500, -4.445312500000, -2.039062500000, -1.710937500000, 1490697900
0.397216796875, 0.174072265625, 0.895507812500, -4.445312500000, -2.039062500000, -1.710937500000, 1490697900
0.353759765625, 0.350830078125, 0.965576171875, -3.382812500000, 0.757812500000, -2.929687500000, 1490697900
0.353759765625, 0.350830078125, 0.965576171875, -3.382812500000, 0.757812500000, -2.929687500000, 1490697900
0.353759765625, 0.350830078125, 0.965576171875, -3.382812500000, 0.757812500000, -2.929687500000, 1490697900
0.369628906250, 0.259765625000, 0.963378906250, -3.289062500000, 2.671875000000, -2.000000000000, 1490697900
0.369628906250, 0.259765625000, 0.963378906250, -3.289062500000, 2.671875000000, -2.000000000000, 1490697900
0.369628906250, 0.259765625000, 0.963378906250, -3.289062500000, 2.671875000000, -2.000000000000, 1490697900
0.369628906250, 0.259765625000, 0.963378906250, -3.289062500000, 2.671875000000, -2.000000000000, 1490697900
0.359375000000, 0.242431640625, 1.018310546875, -3.914062500000, 0.539062500000, -4.953125000000, 1490697900
0.359375000000, 0.242431640625, 1.018310546875, -3.914062500000, 0.539062500000, -4.953125000000, 1490697900
0.359375000000, 0.242431640625, 1.018310546875, -3.914062500000, 0.539062500000, -4.953125000000, 1490697900
0.306152343750, 0.293457031250, 0.920654296875, -4.507812500000, 0.140625000000, -4.312500000000, 1490697900
0.306152343750, 0.293457031250, 0.920654296875, -4.507812500000, 0.140625000000, -4.312500000000, 1490697900
0.306152343750, 0.293457031250, 0.920654296875, -4.507812500000, 0.140625000000, -4.312500000000, 1490697900
0.344970703125, 0.226074218750, 0.810546875000, -1.882812500000, 0.398437500000, -3.281250000000, 1490697900
0.344970703125, 0.226074218750, 0.810546875000, -1.882812500000, 0.398437500000, -3.281250000000, 1490697900
0.344970703125, 0.226074218750, 0.810546875000, -1.882812500000, 0.398437500000, -3.281250000000, 1490697900
0.400390625000, 0.335205078125, 0.949218750000, -2.859375000000, 0.585937500000, -4.875000000000, 1490697900
0.400390625000, 0.335205078125, 0.949218750000, -2.859375000000, 0.585937500000, -4.875000000000, 1490697900
0.400390625000, 0.335205078125, 0.949218750000, -2.859375000000, 0.585937500000, -4.875000000000, 1490697900
0.400390625000, 0.335205078125, 0.949218750000, -2.859375000000, 0.585937500000, -4.875000000000, 1490697900
0.436279296875, 0.231445312500, 0.939208984375, -3.046875000000, -0.851562500000, -3.484375000000, 1490697900
0.436279296875, 0.231445312500, 0.939208984375, -3.046875000000, -0.851562500000, -3.484375000000, 1490697900
0.436279296875, 0.231445312500, 0.939208984375, -3.046875000000, -0.851562500000, -3.484375000000, 1490697900
0.347900390625, 0.287841796875, 0.918701171875, -4.437500000000, -2.187500000000, -6.742187500000, 1490697900
0.347900390625, 0.287841796875, 0.918701171875, -4.437500000000, -2.187500000000, -6.742187500000, 1490697900
0.347900390625, 0.287841796875, 0.918701171875, -4.437500000000, -2.187500000000, -6.742187500000, 1490697900
0.503173828125, 0.267822265625, 0.916259765625, -4.765625000000, 2.859375000000, -4.109375000000, 1490697901
0.503173828125, 0.267822265625, 0.916259765625, -4.765625000000, 2.859375000000, -4.109375000000, 1490697901
0.503173828125, 0.267822265625, 0.916259765625, -4.765625000000, 2.859375000000, -4.109375000000, 1490697901
0.346679687500, 0.225585937500, 0.965576171875, -4.109375000000, -0.296875000000, -3.640625000000, 1490697901
0.346679687500, 0.225585937500, 0.965576171875, -4.109375000000, -0.296875000000, -3.640625000000, 1490697901
0.346679687500, 0.225585937500, 0.965576171875, -4.109375000000, -0.296875000000, -3.640625000000, 1490697901
0.346679687500, 0.225585937500, 0.965576171875, -4.109375000000, -0.296875000000, -3.640625000000, 1490697901
0.364990234375, 0.247070312500, 0.856445312500, -3.421875000000, -2.882812500000, -4.406250000000, 1490697901
0.364990234375, 0.247070312500, 0.856445312500, -3.421875000000, -2.882812500000, -4.406250000000, 1490697901
0.364990234375, 0.247070312500, 0.856445312500, -3.421875000000, -2.882812500000, -4.406250000000, 1490697901
0.437744140625, 0.286376953125, 0.947509765625, -1.335937500000, 1.617187500000, -3.757812500000, 1490697901
0.437744140625, 0.286376953125, 0.947509765625, -1.335937500000, 1.617187500000, -3.757812500000, 1490697901
0.437744140625, 0.286376953125, 0.947509765625, -1.335937500000, 1.617187500000, -3.757812500000, 1490697901
