ACC_X,ACC_Y,ACC_Z,G_X,G_Y,G_Z,Unix Time
-0.127197265625, -0.830078125000, 0.586914062500, -3.218750000000, 12.343750000000, -10.710937500000, 1490763073
-0.127197265625, -0.830078125000, 0.586914062500, -3.218750000000, 12.343750000000, -10.710937500000, 1490763073
-0.127197265625, -0.830078125000, 0.586914062500, -3.218750000000, 12.343750000000, -10.710937500000, 1490763073
-0.097900390625, -0.917236328125, 0.478027343750, 0.835937500000, 13.882812500000, -7.523437500000, 1490763074
-0.097900390625, -0.917236328125, 0.478027343750, 0.835937500000, 13.882812500000, -7.523437500000, 1490763074
-0.097900390625, -0.917236328125, 0.478027343750, 0.835937500000, 13.882812500000, -7.523437500000, 1490763074
-0.216552734375, -0.805908203125, 0.583496093750, 4.632812500000, 5.742187500000, -15.945312500000, 1490763074
-0.216552734375, -0.805908203125, 0.583496093750, 4.632812500000, 5.742187500000, -15.945312500000, 1490763074
-0.216552734375, -0.805908203125, 0.583496093750, 4.632812500000, 5.742187500000, -15.945312500000, 1490763074
-0.172607421875, -0.849609375000, 0.521728515625, -1.789062500000, -4.539062500000, -17.679687500000, 1490763074
-0.172607421875, -0.849609375000, 0.521728515625, -1.789062500000, -4.539062500000, -17.679687500000, 1490763074
-0.172607421875, -0.849609375000, 0.521728515625, -1.789062500000, -4.539062500000, -17.679687500000, 1490763074
-0.172607421875, -0.849609375000, 0.521728515625, -1.789062500000, -4.539062500000, -17.679687500000, 1490763074
-0.135498046875, -0.844970703125, 0.496093750000, -6.078125000000, -3.320312500000, -17.726562500000, 1490763074
-0.161376953125, -0.898437500000, 0.643554687500, 6.695312500000, -1.578125000000, -16.226562500000, 1490763074
-0.161376953125, -0.898437500000, 0.643554687500, 6.695312500000, -1.578125000000, -16.226562500000, 1490763074
-0.161376953125, -0.898437500000, 0.643554687500, 6.695312500000, -1.578125000000, -16.226562500000, 1490763074
-0.161376953125, -0.898437500000, 0.643554687500, 6.695312500000, -1.578125000000, -16.226562500000, 1490763074
-0.161376953125, -0.898437500000, 0.643554687500, 6.695312500000, -1.578125000000, -16.226562500000, 1490763074
-0.196533203125, -0.786621093750, 0.581298828125, 4.679687500000, -7.046875000000, -12.015625000000, 1490763074
-0.196533203125, -0.786621093750, 0.581298828125, 4.679687500000, -7.046875000000, -12.015625000000, 1490763074
-0.196533203125, -0.786621093750, 0.581298828125, 4.679687500000, -7.046875000000, -12.015625000000, 1490763074
-0.196533203125, -0.786621093750, 0.581298828125, 4.679687500000, -7.046875000000, -12.015625000000, 1490763074
-0.184082031250, -0.804931640625, 0.485595703125, 0.007812500000, -1.390625000000, -3.453125000000, 1490763074
-0.184082031250, -0.804931640625, 0.485595703125, 0.007812500000, -1.390625000000, -3.453125000000, 1490763074
-0.184082031250, -0.804931640625, 0.485595703125, 0.007812500000, -1.390625000000, -3.453125000000, 1490763074
-0.109130859375, -0.826171875000, 0.489501953125, -0.500000000000, 3.773437500000, -2.046875000000, 1490763074
-0.109130859375, -0.826171875000, 0.489501953125, -0.500000000000, 3.773437500000, -2.046875000000, 1490763074
-0.109130859375, -0.826171875000, 0.489501953125, -0.500000000000, 3.773437500000, -2.046875000000, 1490763074
-0.053955078125, -0.834472656250, 0.499511718750, -0.554687500000, 5.875000000000, -0.164062500000, 1490763074
-0.124511718750, -0.748779296875, 0.556884765625, -0.265625000000, -8.039062500000, 6.468750000000, 1490763074
-0.124511718750, -0.748779296875, 0.556884765625, -0.265625000000, -8.039062500000, 6.468750000000, 1490763074
-0.124511718750, -0.748779296875, 0.556884765625, -0.265625000000, -8.039062500000, 6.468750000000, 1490763074
-0.124511718750, -0.748779296875, 0.556884765625, -0.265625000000, -8.039062500000, 6.468750000000, 1490763074
-0.124511718750, -0.748779296875, 0.556884765625, -0.265625000000, -8.039062500000, 6.468750000000, 1490763074
-0.207519531250, -0.789550781250, 0.530761718750, 1.820312500000, -10.929687500000, 6.554687500000, 1490763074
-0.125244140625, -0.877197265625, 0.521484375000, 4.226562500000, -10.023437500000, 3.187500000000, 1490763074
-0.125244140625, -0.877197265625, 0.521484375000, 4.226562500000, -10.023437500000, 3.187500000000, 1490763074
-0.125244140625, -0.877197265625, 0.521484375000, 4.226562500000, -10.023437500000, 3.187500000000, 1490763074
-0.049072265625, -0.900146484375, 0.528076171875, 2.187500000000, -7.359375000000, 5.500000000000, 1490763074
-0.049072265625, -0.900146484375, 0.528076171875, 2.187500000000, -7.359375000000, 5.500000000000, 1490763074
-0.049072265625, -0.900146484375, 0.528076171875, 2.187500000000, -7.359375000000, 5.500000000000, 1490763074
-0.138671875000, -0.794677734375, 0.484863281250, -0.843750000000, -9.179687500000, 13.203125000000, 1490763074
-0.138671875000, -0.794677734375, 0.484863281250, -0.843750000000, -9.179687500000, 13.203125000000, 1490763074
-0.138671875000, -0.794677734375, 0.484863281250, -0.843750000000, -9.179687500000, 13.203125000000, 1490763074
-0.040039062500, -1.018798828125, 0.461914062500, 6.242187500000, -10.773437500000, 18.640625000000, 1490763074
-0.040039062500, -1.018798828125, 0.461914062500, 6.242187500000, -10.773437500000, 18.640625000000, 1490763074
-0.040039062500, -1.018798828125, 0.461914062500, 6.242187500000, -10.773437500000, 18.640625000000, 1490763074
-0.040039062500, -1.018798828125, 0.461914062500, 6.242187500000, -10.773437500000, 18.640625000000, 1490763074
0.154052734375, -0.916992187500, 0.578857421875, 1.812500000000, -8.304687500000, 19.851562500000, 1490763074
0.154052734375, -0.916992187500, 0.578857421875, 1.812500000000, -8.304687500000, 19.851562500000, 1490763074
0.154052734375, -0.916992187500, 0.578857421875, 1.812500000000, -8.304687500000, 19.851562500000, 1490763074
-0.022949218750, -0.794677734375, 0.510986328125, -2.250000000000, -12.523437500000, 11.929687500000, 1490763074
-0.022949218750, -0.794677734375, 0.510986328125, -2.250000000000, -12.523437500000, 11.929687500000, 1490763074
-0.022949218750, -0.794677734375, 0.510986328125, -2.250000000000, -12.523437500000, 11.929687500000, 1490763074
0.005859375000, -0.940185546875, 0.529785156250, 12.195312500000, -8.406250000000, 12.593750000000, 1490763074
0.005859375000, -0.940185546875, 0.529785156250, 12.195312500000, -8.406250000000, 12.593750000000, 1490763074
0.005859375000, -0.940185546875, 0.529785156250, 12.195312500000, -8.406250000000, 12.593750000000, 1490763074
-0.129638671875, -0.856201171875, 0.426025390625, 2.273437500000, 5.148437500000, 11.492187500000, 1490763074
-0.129638671875, -0.856201171875, 0.426025390625, 2.273437500000, 5.148437500000, 11.492187500000, 1490763074
-0.129638671875, -0.856201171875, 0.426025390625, 2.273437500000, 5.148437500000, 11.492187500000, 1490763074
-0.129638671875, -0.856201171875, 0.426025390625, 2.273437500000, 5.148437500000, 11.492187500000, 1490763074
-0.091552734375, -0.968017578125, 0.528076171875, 4.625000000000, -3.195312500000, 15.765625000000, 1490763074
-0.091552734375, -0.968017578125, 0.528076171875, 4.625000000000, -3.195312500000, 15.765625000000, 1490763074
-0.091552734375, -0.968017578125, 0.528076171875, 4.625000000000, -3.195312500000, 15.765625000000, 1490763074
-0.195800781250, -0.987548828125, 0.429199218750, 5.453125000000, -13.539062500000, 18.421875000000, 1490763074
-0.195800781250, -0.987548828125, 0.429199218750, 5.453125000000, -13.539062500000, 18.421875000000, 1490763074
-0.195800781250, -0.987548828125, 0.429199218750, 5.453125000000, -13.539062500000, 18.421875000000, 1490763074
-0.073730468750, -0.909423828125, 0.563476562500, -7.062500000000, -20.968750000000, -2.750000000000, 1490763074
-0.073730468750, -0.909423828125, 0.563476562500, -7.062500000000, -20.968750000000, -2.750000000000, 1490763074
-0.073730468750, -0.909423828125, 0.563476562500, -7.062500000000, -20.968750000000, -2.750000000000, 1490763074
-0.008544921875, -0.832763671875, 0.469970703125, 4.851562500000, -15.203125000000, -7.304687500000, 1490763075
-0.008544921875, -0.832763671875, 0.469970703125, 4.851562500000, -15.203125000000, -7.304687500000, 1490763075
-0.008544921875, -0.832763671875, 0.469970703125, 4.851562500000, -15.203125000000, -7.304687500000, 1490763075
-0.008544921875, -0.832763671875, 0.469970703125, 4.851562500000, -15.203125000000, -7.304687500000, 1490763075
0.076416015625, -0.856689453125, 0.528076171875, -9.000000000000, -21.507812500000, 16.906250000000, 1490763075
0.076416015625, -0.856689453125, 0.528076171875, -9.000000000000, -21.507812500000, 16.906250000000, 1490763075
0.076416015625, -0.856689453125, 0.528076171875, -9.000000000000, -21.507812500000, 16.906250000000, 1490763075
0.094726562500, -0.878662109375, 0.550292968750, -26.132812500000, -13.242187500000, 42.531250000000, 1490763075
0.094726562500, -0.878662109375, 0.550292968750, -26.132812500000, -13.242187500000, 42.531250000000, 1490763075
0.094726562500, -0.878662109375, 0.550292968750, -26.132812500000, -13.242187500000, 42.531250000000, 1490763075
-0.073730468750, -0.908691406250, 0.483886718750, -28.117187500000, -7.023437500000, 3.648437500000, 1490763075
-0.073730468750, -0.908691406250, 0.483886718750, -28.117187500000, -7.023437500000, 3.648437500000, 1490763075
-0.028564453125, -0.947265625000, 0.584228515625, 58.421875000000, -30.039062500000, -35.484375000000, 1490763075
-0.028564453125, -0.947265625000, 0.584228515625, 58.421875000000, -30.039062500000, -35.484375000000, 1490763075
-0.028564453125, -0.947265625000, 0.584228515625, 58.421875000000, -30.039062500000, -35.484375000000, 1490763075
-0.028564453125, -0.947265625000, 0.584228515625, 58.421875000000, -30.039062500000, -35.484375000000, 1490763075
-0.028564453125, -0.947265625000, 0.584228515625, 58.421875000000, -30.039062500000, -35.484375000000, 1490763075
0.148681640625, -0.842041015625, 0.480468750000, -27.031250000000, -61.953125000000, -25.937500000000, 1490763075
0.148681640625, -0.842041015625, 0.480468750000, -27.031250000000, -61.953125000000, -25.937500000000, 1490763075
0.148681640625, -0.842041015625, 0.480468750000, -27.031250000000, -61.953125000000, -25.937500000000, 1490763075
0.191406250000, -1.005371093750, 0.440917968750, -37.085937500000, -32.468750000000, 6.468750000000, 1490763075
0.191406250000, -1.005371093750, 0.440917968750, -37.085937500000, -32.468750000000, 6.468750000000, 1490763075
0.191406250000, -1.005371093750, 0.440917968750, -37.085937500000, -32.468750000000, 6.468750000000, 1490763075
0.110839843750, -0.905761718750, 0.508056640625, -0.523437500000, -13.867187500000, -4.000000000000, 1490763075
0.110839843750, -0.905761718750, 0.508056640625, -0.523437500000, -13.867187500000, -4.000000000000, 1490763075
0.110839843750, -0.905761718750, 0.508056640625, -0.523437500000, -13.867187500000, -4.000000000000, 1490763075
-0.007080078125, -0.967285156250, 0.579833984375, 1.546875000000, -1.875000000000, -11.210937500000, 1490763075
-0.007080078125, -0.967285156250, 0.579833984375, 1.546875000000, -1.875000000000, -11.210937500000, 1490763075
-0.007080078125, -0.967285156250, 0.579833984375, 1.546875000000, -1.875000000000, -11.210937500000, 1490763075
-0.007080078125, -0.967285156250, 0.579833984375, 1.546875000000, -1.875000000000, -11.210937500000, 1490763075
0.129394531250, -0.864501953125, 0.526611328125, -9.281250000000, -8.781250000000, -9.414062500000, 1490763075
0.129394531250, -0.864501953125, 0.526611328125, -9.281250000000, -8.781250000000, -9.414062500000, 1490763075
0.129394531250, -0.864501953125, 0.526611328125, -9.281250000000, -8.781250000000, -9.414062500000, 1490763075
0.018798828125, -0.862548828125, 0.488769531250, -16.859375000000, 2.351562500000, -8.406250000000, 1490763075
0.018798828125, -0.862548828125, 0.488769531250, -16.859375000000, 2.351562500000, -8.406250000000, 1490763075
0.018798828125, -0.862548828125, 0.488769531250, -16.859375000000, 2.351562500000, -8.406250000000, 1490763075
0.048095703125, -0.853515625000, 0.489257812500, -11.515625000000, 11.515625000000, -6.445312500000, 1490763075
0.048095703125, -0.853515625000, 0.489257812500, -11.515625000000, 11.515625000000, -6.445312500000, 1490763075
0.048095703125, -0.853515625000, 0.489257812500, -11.515625000000, 11.515625000000, -6.445312500000, 1490763075
0.016357421875, -0.929931640625, 0.562988281250, 3.554687500000, 1.890625000000, -14.945312500000, 1490763075
0.016357421875, -0.929931640625, 0.562988281250, 3.554687500000, 1.890625000000, -14.945312500000, 1490763075
0.016357421875, -0.929931640625, 0.562988281250, 3.554687500000, 1.890625000000, -14.945312500000, 1490763075
0.083740234375, -0.957031250000, 0.593261718750, -7.703125000000, -15.570312500000, -14.375000000000, 1490763075
0.083740234375, -0.957031250000, 0.593261718750, -7.703125000000, -15.570312500000, -14.375000000000, 1490763075
0.083740234375, -0.957031250000, 0.593261718750, -7.703125000000, -15.570312500000, -14.375000000000, 1490763075
0.083740234375, -0.957031250000, 0.593261718750, -7.703125000000, -15.570312500000, -14.375000000000, 1490763075
0.089843750000, -1.001464843750, 0.452392578125, -8.304687500000, -8.687500000000, -14.296875000000, 1490763075
0.089843750000, -1.001464843750, 0.452392578125, -8.304687500000, -8.687500000000, -14.296875000000, 1490763075
0.089843750000, -1.001464843750, 0.452392578125, -8.304687500000, -8.687500000000, -14.296875000000, 1490763075
0.030029296875, -1.022949218750, 0.539794921875, 3.476562500000, -4.085937500000, -13.015625000000, 1490763075
0.030029296875, -1.022949218750, 0.539794921875, 3.476562500000, -4.085937500000, -13.015625000000, 1490763075
0.030029296875, -1.022949218750, 0.539794921875, 3.476562500000, -4.085937500000, -13.015625000000, 1490763075
0.138671875000, -0.945068359375, 0.509277343750, 4.812500000000, -14.343750000000, -12.757812500000, 1490763075
0.138671875000, -0.945068359375, 0.509277343750, 4.812500000000, -14.343750000000, -12.757812500000, 1490763075
0.138671875000, -0.945068359375, 0.509277343750, 4.812500000000, -14.343750000000, -12.757812500000, 1490763075
0.138671875000, -0.945068359375, 0.509277343750, 4.812500000000, -14.343750000000, -12.757812500000, 1490763075
0.095703125000, -1.005126953125, 0.500976562500, 4.531250000000, -2.695312500000, -5.609375000000, 1490763075
0.095703125000, -1.005126953125, 0.500976562500, 4.531250000000, -2.695312500000, -5.609375000000, 1490763075
0.095703125000, -1.005126953125, 0.500976562500, 4.531250000000, -2.695312500000, -5.609375000000, 1490763075
0.116455078125, -0.896972656250, 0.465820312500, -2.093750000000, 11.820312500000, 4.593750000000, 1490763075
0.116455078125, -0.896972656250, 0.465820312500, -2.093750000000, 11.820312500000, 4.593750000000, 1490763075
0.116455078125, -0.896972656250, 0.465820312500, -2.093750000000, 11.820312500000, 4.593750000000, 1490763075
0.148437500000, -0.989501953125, 0.509033203125, -2.960937500000, 26.953125000000, 12.828125000000, 1490763075
0.148437500000, -0.989501953125, 0.509033203125, -2.960937500000, 26.953125000000, 12.828125000000, 1490763075
0.148437500000, -0.989501953125, 0.509033203125, -2.960937500000, 26.953125000000, 12.828125000000, 1490763075
-0.024414062500, -0.943847656250, 0.562988281250, 2.531250000000, 28.664062500000, 12.484375000000, 1490763075
-0.024414062500, -0.943847656250, 0.562988281250, 2.531250000000, 28.664062500000, 12.484375000000, 1490763075
-0.024414062500, -0.943847656250, 0.562988281250, 2.531250000000, 28.664062500000, 12.484375000000, 1490763075
-0.024414062500, -0.943847656250, 0.562988281250, 2.531250000000, 28.664062500000, 12.484375000000, 1490763075
0.069335937500, -0.981201171875, 0.479003906250, -3.460937500000, 17.289062500000, 12.507812500000, 1490763076
0.069335937500, -0.981201171875, 0.479003906250, -3.460937500000, 17.289062500000, 12.507812500000, 1490763076
0.069335937500, -0.981201171875, 0.479003906250, -3.460937500000, 17.289062500000, 12.507812500000, 1490763076
-0.030517578125, -0.887939453125, 0.519531250000, -6.210937500000, 13.367187500000, 9.734375000000, 1490763076
-0.030517578125, -0.887939453125, 0.519531250000, -6.210937500000, 13.367187500000, 9.734375000000, 1490763076
-0.030517578125, -0.887939453125, 0.519531250000, -6.210937500000, 13.367187500000, 9.734375000000, 1490763076
0.038818359375, -0.804199218750, 0.428466796875, -1.500000000000, 13.390625000000, 3.976562500000, 1490763076
0.038818359375, -0.804199218750, 0.428466796875, -1.500000000000, 13.390625000000, 3.976562500000, 1490763076
0.038818359375, -0.804199218750, 0.428466796875, -1.500000000000, 13.390625000000, 3.976562500000, 1490763076
0.050292968750, -0.890380859375, 0.503662109375, 0.351562500000, 5.046875000000, -1.101562500000, 1490763076
0.050292968750, -0.890380859375, 0.503662109375, 0.351562500000, 5.046875000000, -1.101562500000, 1490763076
0.050292968750, -0.890380859375, 0.503662109375, 0.351562500000, 5.046875000000, -1.101562500000, 1490763076
0.050292968750, -0.890380859375, 0.503662109375, 0.351562500000, 5.046875000000, -1.101562500000, 1490763076
0.010986328125, -1.093505859375, 0.447753906250, -8.484375000000, 1.945312500000, -6.304687500000, 1490763076
0.010986328125, -1.093505859375, 0.447753906250, -8.484375000000, 1.945312500000, -6.304687500000, 1490763076
0.010986328125, -1.093505859375, 0.447753906250, -8.484375000000, 1.945312500000, -6.304687500000, 1490763076
0.126220703125, -0.939453125000, 0.430664062500, -1.585937500000, -9.289062500000, -6.234375000000, 1490763076
0.126220703125, -0.939453125000, 0.430664062500, -1.585937500000, -9.289062500000, -6.234375000000, 1490763076
0.126220703125, -0.939453125000, 0.430664062500, -1.585937500000, -9.289062500000, -6.234375000000, 1490763076
0.082763671875, -0.955322265625, 0.429199218750, -8.023437500000, 0.359375000000, -4.062500000000, 1490763076
0.082763671875, -0.955322265625, 0.429199218750, -8.023437500000, 0.359375000000, -4.062500000000, 1490763076
0.082763671875, -0.955322265625, 0.429199218750, -8.023437500000, 0.359375000000, -4.062500000000, 1490763076
0.082763671875, -0.955322265625, 0.429199218750, -8.023437500000, 0.359375000000, -4.062500000000, 1490763076
-0.003417968750, -0.918212890625, 0.459960937500, -3.601562500000, 0.453125000000, 0.468750000000, 1490763076
-0.003417968750, -0.918212890625, 0.459960937500, -3.601562500000, 0.453125000000, 0.468750000000, 1490763076
-0.003417968750, -0.918212890625, 0.459960937500, -3.601562500000, 0.453125000000, 0.468750000000, 1490763076
-0.003417968750, -0.918212890625, 0.459960937500, -3.601562500000, 0.453125000000, 0.468750000000, 1490763076
-0.003417968750, -0.918212890625, 0.459960937500, -3.601562500000, 0.453125000000, 0.468750000000, 1490763076
0.056640625000, -0.956298828125, 0.434570312500, -6.664062500000, 1.531250000000, 0.679687500000, 1490763076
-0.075927734375, -0.909179687500, 0.455810546875, -6.664062500000, 1.531250000000, 0.679687500000, 1490763076
-0.075927734375, -0.909179687500, 0.455810546875, -6.664062500000, 1.531250000000, 0.679687500000, 1490763076
-0.075927734375, -0.909179687500, 0.455810546875, -6.664062500000, 1.531250000000, 0.679687500000, 1490763076
0.218750000000, -1.012207031250, 0.506347656250, -6.445312500000, 1.765625000000, -1.867187500000, 1490763076
0.218750000000, -1.012207031250, 0.506347656250, -6.445312500000, 1.765625000000, -1.867187500000, 1490763076
0.218750000000, -1.012207031250, 0.506347656250, -6.445312500000, 1.765625000000, -1.867187500000, 1490763076
0.048583984375, -0.861083984375, 0.507812500000, -1.414062500000, 2.492187500000, -3.421875000000, 1490763076
0.048583984375, -0.861083984375, 0.507812500000, -1.414062500000, 2.492187500000, -3.421875000000, 1490763076
0.048583984375, -0.861083984375, 0.507812500000, -1.414062500000, 2.492187500000, -3.421875000000, 1490763076
0.048583984375, -0.861083984375, 0.507812500000, -1.414062500000, 2.492187500000, -3.421875000000, 1490763076
0.094238281250, -0.878173828125, 0.468261718750, -4.140625000000, 1.601562500000, -3.789062500000, 1490763076
0.094238281250, -0.878173828125, 0.468261718750, -4.140625000000, 1.601562500000, -3.789062500000, 1490763076
0.094238281250, -0.878173828125, 0.468261718750, -4.140625000000, 1.601562500000, -3.789062500000, 1490763076
0.126708984375, -0.784912109375, 0.412841796875, -1.882812500000, 1.234375000000, -6.203125000000, 1490763076
0.126708984375, -0.784912109375, 0.412841796875, -1.882812500000, 1.234375000000, -6.203125000000, 1490763076
0.126708984375, -0.784912109375, 0.412841796875, -1.882812500000, 1.234375000000, -6.203125000000, 1490763076
0.142089843750, -0.853759765625, 0.472412109375, -4.476562500000, 3.250000000000, -1.382812500000, 1490763076
0.142089843750, -0.853759765625, 0.472412109375, -4.476562500000, 3.250000000000, -1.382812500000, 1490763076
0.142089843750, -0.853759765625, 0.472412109375, -4.476562500000, 3.250000000000, -1.382812500000, 1490763076
0.094482421875, -0.848144531250, 0.427734375000, -4.140625000000, 7.109375000000, -4.312500000000, 1490763076
0.094482421875, -0.848144531250, 0.427734375000, -4.140625000000, 7.109375000000, -4.312500000000, 1490763076
0.094482421875, -0.848144531250, 0.427734375000, -4.140625000000, 7.109375000000, -4.312500000000, 1490763076
0.094482421875, -0.848144531250, 0.427734375000, -4.140625000000, 7.109375000000, -4.312500000000, 1490763076
-0.020996093750, -0.977783203125, 0.484863281250, 0.843750000000, 7.500000000000, -2.492187500000, 1490763076
-0.020996093750, -0.977783203125, 0.484863281250, 0.843750000000, 7.500000000000, -2.492187500000, 1490763076
-0.020996093750, -0.977783203125, 0.484863281250, 0.843750000000, 7.500000000000, -2.492187500000, 1490763076
0.043457031250, -0.959472656250, 0.518310546875, -1.351562500000, 7.265625000000, -0.945312500000, 1490763076
0.043457031250, -0.959472656250, 0.518310546875, -1.351562500000, 7.265625000000, -0.945312500000, 1490763076
0.043457031250, -0.959472656250, 0.518310546875, -1.351562500000, 7.265625000000, -0.945312500000, 1490763076
0.146484375000, -0.863525390625, 0.488769531250, 0.195312500000, 5.820312500000, -0.195312500000, 1490763076
0.146484375000, -0.863525390625, 0.488769531250, 0.195312500000, 5.820312500000, -0.195312500000, 1490763076
0.146484375000, -0.863525390625, 0.488769531250, 0.195312500000, 5.820312500000, -0.195312500000, 1490763076
0.141601562500, -0.944091796875, 0.434814453125, -1.539062500000, 8.476562500000, -4.007812500000, 1490763076
0.141601562500, -0.944091796875, 0.434814453125, -1.539062500000, 8.476562500000, -4.007812500000, 1490763076
0.141601562500, -0.944091796875, 0.434814453125, -1.539062500000, 8.476562500000, -4.007812500000, 1490763076
0.141601562500, -0.944091796875, 0.434814453125, -1.539062500000, 8.476562500000, -4.007812500000, 1490763076
0.120361328125, -0.871582031250, 0.468261718750, 2.531250000000, 4.625000000000, 0.664062500000, 1490763077
0.120361328125, -0.871582031250, 0.468261718750, 2.531250000000, 4.625000000000, 0.664062500000, 1490763077
0.120361328125, -0.871582031250, 0.468261718750, 2.531250000000, 4.625000000000, 0.664062500000, 1490763077
0.034179687500, -0.849365234375, 0.460693359375, -1.640625000000, 4.140625000000, -1.328125000000, 1490763077
0.034179687500, -0.849365234375, 0.460693359375, -1.640625000000, 4.140625000000, -1.328125000000, 1490763077
0.034179687500, -0.849365234375, 0.460693359375, -1.640625000000, 4.140625000000, -1.328125000000, 1490763077
0.077880859375, -0.899902343750, 0.348388671875, -0.601562500000, -1.453125000000, -5.000000000000, 1490763077
0.077880859375, -0.899902343750, 0.348388671875, -0.601562500000, -1.453125000000, -5.000000000000, 1490763077
0.077880859375, -0.899902343750, 0.348388671875, -0.601562500000, -1.453125000000, -5.000000000000, 1490763077
-0.021240234375, -0.919433593750, 0.508789062500, 3.304687500000, 0.148437500000, 0.281250000000, 1490763077
-0.021240234375, -0.919433593750, 0.508789062500, 3.304687500000, 0.148437500000, 0.281250000000, 1490763077
-0.021240234375, -0.919433593750, 0.508789062500, 3.304687500000, 0.148437500000, 0.281250000000, 1490763077
-0.021240234375, -0.919433593750, 0.508789062500, 3.304687500000, 0.148437500000, 0.281250000000, 1490763077
-0.007568359375, -0.939697265625, 0.530517578125, 15.937500000000, -13.039062500000, -5.007812500000, 1490763077
-0.007568359375, -0.939697265625, 0.530517578125, 15.937500000000, -13.039062500000, -5.007812500000, 1490763077
-0.007568359375, -0.939697265625, 0.530517578125, 15.937500000000, -13.039062500000, -5.007812500000, 1490763077
-0.015869140625, -0.947021484375, 0.659179687500, 6.968750000000, 2.171875000000, -4.976562500000, 1490763077
-0.015869140625, -0.947021484375, 0.659179687500, 6.968750000000, 2.171875000000, -4.976562500000, 1490763077
-0.015869140625, -0.947021484375, 0.659179687500, 6.968750000000, 2.171875000000, -4.976562500000, 1490763077
-0.049316406250, -0.841796875000, 0.637207031250, 15.781250000000, -28.171875000000, -8.671875000000, 1490763077
-0.049316406250, -0.841796875000, 0.637207031250, 15.781250000000, -28.171875000000, -8.671875000000, 1490763077
-0.049316406250, -0.841796875000, 0.637207031250, 15.781250000000, -28.171875000000, -8.671875000000, 1490763077
0.116699218750, -0.657958984375, 0.619140625000, 50.570312500000, -50.890625000000, -7.648437500000, 1490763077
0.116699218750, -0.657958984375, 0.619140625000, 50.570312500000, -50.890625000000, -7.648437500000, 1490763077
0.116699218750, -0.657958984375, 0.619140625000, 50.570312500000, -50.890625000000, -7.648437500000, 1490763077
0.116699218750, -0.657958984375, 0.619140625000, 50.570312500000, -50.890625000000, -7.648437500000, 1490763077
0.169189453125, -0.760253906250, 0.758056640625, 36.742187500000, -37.023437500000, 1.296875000000, 1490763077
0.169189453125, -0.760253906250, 0.758056640625, 36.742187500000, -37.023437500000, 1.296875000000, 1490763077
0.096191406250, -0.838134765625, 0.776611328125, 1.906250000000, 26.984375000000, 26.429687500000, 1490763077
0.096191406250, -0.838134765625, 0.776611328125, 1.906250000000, 26.984375000000, 26.429687500000, 1490763077
0.096191406250, -0.838134765625, 0.776611328125, 1.906250000000, 26.984375000000, 26.429687500000, 1490763077
0.096191406250, -0.838134765625, 0.776611328125, 1.906250000000, 26.984375000000, 26.429687500000, 1490763077
0.131347656250, -0.741699218750, 0.537109375000, 25.250000000000, 44.507812500000, 17.898437500000, 1490763077
0.131347656250, -0.741699218750, 0.537109375000, 25.250000000000, 44.507812500000, 17.898437500000, 1490763077
0.131347656250, -0.741699218750, 0.537109375000, 25.250000000000, 44.507812500000, 17.898437500000, 1490763077
-0.013916015625, -0.769287109375, 0.483398437500, 40.195312500000, 6.679687500000, 26.570312500000, 1490763077
-0.013916015625, -0.769287109375, 0.483398437500, 40.195312500000, 6.679687500000, 26.570312500000, 1490763077
-0.013916015625, -0.769287109375, 0.483398437500, 40.195312500000, 6.679687500000, 26.570312500000, 1490763077
-0.013916015625, -0.769287109375, 0.483398437500, 40.195312500000, 6.679687500000, 26.570312500000, 1490763077
0.063720703125, -0.628906250000, 0.451416015625, 30.914062500000, -11.070312500000, 22.273437500000, 1490763077
0.063720703125, -0.628906250000, 0.451416015625, 30.914062500000, -11.070312500000, 22.273437500000, 1490763077
0.063720703125, -0.628906250000, 0.451416015625, 30.914062500000, -11.070312500000, 22.273437500000, 1490763077
-0.020996093750, -0.669677734375, 0.260498046875, 29.601562500000, -46.796875000000, 8.085937500000, 1490763077
-0.020996093750, -0.669677734375, 0.260498046875, 29.601562500000, -46.796875000000, 8.085937500000, 1490763077
-0.020996093750, -0.669677734375, 0.260498046875, 29.601562500000, -46.796875000000, 8.085937500000, 1490763077
0.113525390625, -0.610107421875, 0.318603515625, 30.976562500000, -0.140625000000, -2.867187500000, 1490763077
0.113525390625, -0.610107421875, 0.318603515625, 30.976562500000, -0.140625000000, -2.867187500000, 1490763077
0.113525390625, -0.610107421875, 0.318603515625, 30.976562500000, -0.140625000000, -2.867187500000, 1490763077
0.148925781250, -0.642822265625, 0.303710937500, 69.062500000000, -21.984375000000, -18.882812500000, 1490763077
0.148925781250, -0.642822265625, 0.303710937500, 69.062500000000, -21.984375000000, -18.882812500000, 1490763077
0.148925781250, -0.642822265625, 0.303710937500, 69.062500000000, -21.984375000000, -18.882812500000, 1490763077
0.148925781250, -0.642822265625, 0.303710937500, 69.062500000000, -21.984375000000, -18.882812500000, 1490763077
0.032958984375, -0.575195312500, 0.354003906250, 90.859375000000, 2.554687500000, -3.648437500000, 1490763077
0.032958984375, -0.575195312500, 0.354003906250, 90.859375000000, 2.554687500000, -3.648437500000, 1490763077
0.032958984375, -0.575195312500, 0.354003906250, 90.859375000000, 2.554687500000, -3.648437500000, 1490763077
-0.044189453125, -0.458496093750, 0.242675781250, 51.687500000000, 18.898437500000, 1.507812500000, 1490763077
-0.044189453125, -0.458496093750, 0.242675781250, 51.687500000000, 18.898437500000, 1.507812500000, 1490763077
-0.044189453125, -0.458496093750, 0.242675781250, 51.687500000000, 18.898437500000, 1.507812500000, 1490763077
-0.014648437500, -0.372558593750, 0.386474609375, 58.242187500000, -4.882812500000, 20.523437500000, 1490763077
-0.014648437500, -0.372558593750, 0.386474609375, 58.242187500000, -4.882812500000, 20.523437500000, 1490763077
-0.014648437500, -0.372558593750, 0.386474609375, 58.242187500000, -4.882812500000, 20.523437500000, 1490763077
-0.074462890625, 0.014404296875, 0.394531250000, 78.312500000000, 1.281250000000, -16.046875000000, 1490763077
-0.074462890625, 0.014404296875, 0.394531250000, 78.312500000000, 1.281250000000, -16.046875000000, 1490763077
-0.074462890625, 0.014404296875, 0.394531250000, 78.312500000000, 1.281250000000, -16.046875000000, 1490763077
-0.074462890625, 0.014404296875, 0.394531250000, 78.312500000000, 1.281250000000, -16.046875000000, 1490763077
-0.018066406250, 0.046386718750, 0.086425781250, 67.804687500000, -52.195312500000, -2.515625000000, 1490763077
-0.018066406250, 0.046386718750, 0.086425781250, 67.804687500000, -52.195312500000, -2.515625000000, 1490763077
-0.018066406250, 0.046386718750, 0.086425781250, 67.804687500000, -52.195312500000, -2.515625000000, 1490763078
0.145751953125, 0.279541015625, 0.232666015625, -17.632812500000, -2.156250000000, 15.296875000000, 1490763078
0.145751953125, 0.279541015625, 0.232666015625, -17.632812500000, -2.156250000000, 15.296875000000, 1490763078
0.145751953125, 0.279541015625, 0.232666015625, -17.632812500000, -2.156250000000, 15.296875000000, 1490763078
0.156250000000, 0.033203125000, 0.413330078125, 253.992187500000, -256.000000000000, 253.992187500000, 1490763078
0.156250000000, 0.033203125000, 0.413330078125, 253.992187500000, -256.000000000000, 253.992187500000, 1490763078
0.156250000000, 0.033203125000, 0.413330078125, 253.992187500000, -256.000000000000, 253.992187500000, 1490763078
1.070800781250, -1.960693359375, 4.469970703125, 253.992187500000, 22.906250000000, 21.304687500000, 1490763078
1.070800781250, -1.960693359375, 4.469970703125, 253.992187500000, 22.906250000000, 21.304687500000, 1490763078
1.070800781250, -1.960693359375, 4.469970703125, 253.992187500000, 22.906250000000, 21.304687500000, 1490763078
1.070800781250, -1.960693359375, 4.469970703125, 253.992187500000, 22.906250000000, 21.304687500000, 1490763078
1.070800781250, -1.960693359375, 4.469970703125, 253.992187500000, 22.906250000000, 21.304687500000, 1490763078
0.107421875000, -0.397460937500, -0.469970703125, 231.640625000000, 215.093750000000, -150.367187500000, 1490763078
0.107421875000, -0.397460937500, -0.469970703125, 231.640625000000, 215.093750000000, -150.367187500000, 1490763078
0.107421875000, -0.397460937500, -0.469970703125, 231.640625000000, 215.093750000000, -150.367187500000, 1490763078
0.107421875000, -0.397460937500, -0.469970703125, 231.640625000000, 215.093750000000, -150.367187500000, 1490763078
0.107421875000, -0.397460937500, -0.469970703125, 231.640625000000, 215.093750000000, -150.367187500000, 1490763078
0.008056640625, 0.174560546875, -0.482910156250, 165.515625000000, 2.539062500000, -91.171875000000, 1490763078
0.008056640625, 0.174560546875, -0.482910156250, 165.515625000000, 2.539062500000, -91.171875000000, 1490763078
0.008056640625, 0.174560546875, -0.482910156250, 165.515625000000, 2.539062500000, -91.171875000000, 1490763078
0.055664062500, 0.012695312500, -0.709716796875, -30.515625000000, -33.789062500000, 31.859375000000, 1490763078
0.055664062500, 0.012695312500, -0.709716796875, -30.515625000000, -33.789062500000, 31.859375000000, 1490763078
0.055664062500, 0.012695312500, -0.709716796875, -30.515625000000, -33.789062500000, 31.859375000000, 1490763078
0.055664062500, 0.012695312500, -0.709716796875, -30.515625000000, -33.789062500000, 31.859375000000, 1490763078
0.142089843750, -0.141113281250, -0.459228515625, -51.007812500000, -8.625000000000, 11.296875000000, 1490763078
0.142089843750, -0.141113281250, -0.459228515625, -51.007812500000, -8.625000000000, 11.296875000000, 1490763078
0.142089843750, -0.141113281250, -0.459228515625, -51.007812500000, -8.625000000000, 11.296875000000, 1490763078
0.124511718750, -0.833496093750, -0.305664062500, -5.921875000000, 46.140625000000, -7.718750000000, 1490763078
0.124511718750, -0.833496093750, -0.305664062500, -5.921875000000, 46.140625000000, -7.718750000000, 1490763078
0.124511718750, -0.833496093750, -0.305664062500, -5.921875000000, 46.140625000000, -7.718750000000, 1490763078
0.159179687500, 0.338623046875, -0.593017578125, -226.218750000000, 62.664062500000, -6.593750000000, 1490763078
0.159179687500, 0.338623046875, -0.593017578125, -226.218750000000, 62.664062500000, -6.593750000000, 1490763078
0.159179687500, 0.338623046875, -0.593017578125, -226.218750000000, 62.664062500000, -6.593750000000, 1490763078
0.223144531250, -0.382812500000, -0.997802734375, -87.273437500000, 10.796875000000, -5.429687500000, 1490763078
0.223144531250, -0.382812500000, -0.997802734375, -87.273437500000, 10.796875000000, -5.429687500000, 1490763078
0.223144531250, -0.382812500000, -0.997802734375, -87.273437500000, 10.796875000000, -5.429687500000, 1490763078
0.223144531250, -0.382812500000, -0.997802734375, -87.273437500000, 10.796875000000, -5.429687500000, 1490763078
0.387695312500, -0.684814453125, -1.618896484375, -41.507812500000, -10.062500000000, -4.671875000000, 1490763078
0.387695312500, -0.684814453125, -1.618896484375, -41.507812500000, -10.062500000000, -4.671875000000, 1490763078
0.387695312500, -0.684814453125, -1.618896484375, -41.507812500000, -10.062500000000, -4.671875000000, 1490763078
0.313476562500, -0.747558593750, -1.768554687500, 0.578125000000, -19.421875000000, -1.476562500000, 1490763078
0.313476562500, -0.747558593750, -1.768554687500, 0.578125000000, -19.421875000000, -1.476562500000, 1490763078
0.313476562500, -0.747558593750, -1.768554687500, 0.578125000000, -19.421875000000, -1.476562500000, 1490763078
0.059326171875, -0.406982421875, -1.120117187500, 61.968750000000, -30.992187500000, 26.468750000000, 1490763078
0.059326171875, -0.406982421875, -1.120117187500, 61.968750000000, -30.992187500000, 26.468750000000, 1490763078
0.059326171875, -0.406982421875, -1.120117187500, 61.968750000000, -30.992187500000, 26.468750000000, 1490763078
0.187011718750, -0.210449218750, -0.256347656250, 86.609375000000, -55.585937500000, -12.304687500000, 1490763078
0.187011718750, -0.210449218750, -0.256347656250, 86.609375000000, -55.585937500000, -12.304687500000, 1490763078
0.187011718750, -0.210449218750, -0.256347656250, 86.609375000000, -55.585937500000, -12.304687500000, 1490763078
0.187011718750, -0.210449218750, -0.256347656250, 86.609375000000, -55.585937500000, -12.304687500000, 1490763078
0.125976562500, -0.210449218750, -0.495361328125, 48.242187500000, 9.320312500000, -74.976562500000, 1490763078
0.125976562500, -0.210449218750, -0.495361328125, 48.242187500000, 9.320312500000, -74.976562500000, 1490763078
0.125976562500, -0.210449218750, -0.495361328125, 48.242187500000, 9.320312500000, -74.976562500000, 1490763078
0.070312500000, -0.167724609375, -0.849853515625, -19.835937500000, -33.671875000000, -12.703125000000, 1490763078
0.070312500000, -0.167724609375, -0.849853515625, -19.835937500000, -33.671875000000, -12.703125000000, 1490763078
0.070312500000, -0.167724609375, -0.849853515625, -19.835937500000, -33.671875000000, -12.703125000000, 1490763078
0.039062500000, -0.332031250000, -0.877929687500, 34.460937500000, -7.382812500000, -8.640625000000, 1490763078
0.039062500000, -0.332031250000, -0.877929687500, 34.460937500000, -7.382812500000, -8.640625000000, 1490763078
0.039062500000, -0.332031250000, -0.877929687500, 34.460937500000, -7.382812500000, -8.640625000000, 1490763078
0.064453125000, -0.232910156250, -0.944580078125, 43.539062500000, 16.781250000000, -11.593750000000, 1490763078
0.064453125000, -0.232910156250, -0.944580078125, 43.539062500000, 16.781250000000, -11.593750000000, 1490763078
0.064453125000, -0.232910156250, -0.944580078125, 43.539062500000, 16.781250000000, -11.593750000000, 1490763078
0.064453125000, -0.232910156250, -0.944580078125, 43.539062500000, 16.781250000000, -11.593750000000, 1490763078
0.056396484375, -0.171142578125, -1.054199218750, -37.390625000000, -6.500000000000, -37.070312500000, 1490763078
0.056396484375, -0.171142578125, -1.054199218750, -37.390625000000, -6.500000000000, -37.070312500000, 1490763078
0.056396484375, -0.171142578125, -1.054199218750, -37.390625000000, -6.500000000000, -37.070312500000, 1490763078
-0.035156250000, -0.243652343750, -1.070068359375, 2.906250000000, -12.726562500000, -1.882812500000, 1490763079
-0.035156250000, -0.243652343750, -1.070068359375, 2.906250000000, -12.726562500000, -1.882812500000, 1490763079
-0.035156250000, -0.243652343750, -1.070068359375, 2.906250000000, -12.726562500000, -1.882812500000, 1490763079
0.125488281250, -0.042724609375, -0.911621093750, 42.445312500000, -13.718750000000, 0.484375000000, 1490763079
0.125488281250, -0.042724609375, -0.911621093750, 42.445312500000, -13.718750000000, 0.484375000000, 1490763079
0.125488281250, -0.042724609375, -0.911621093750, 42.445312500000, -13.718750000000, 0.484375000000, 1490763079
0.101806640625, -0.187255859375, -0.869140625000, 46.421875000000, -12.281250000000, -10.617187500000, 1490763079
0.101806640625, -0.187255859375, -0.869140625000, 46.421875000000, -12.281250000000, -10.617187500000, 1490763079
0.101806640625, -0.187255859375, -0.869140625000, 46.421875000000, -12.281250000000, -10.617187500000, 1490763079
0.101806640625, -0.187255859375, -0.869140625000, 46.421875000000, -12.281250000000, -10.617187500000, 1490763079
-0.003662109375, -0.174804687500, -0.917480468750, 24.523437500000, -1.367187500000, -3.421875000000, 1490763079
-0.003662109375, -0.174804687500, -0.917480468750, 24.523437500000, -1.367187500000, -3.421875000000, 1490763079
-0.003662109375, -0.174804687500, -0.917480468750, 24.523437500000, -1.367187500000, -3.421875000000, 1490763079
0.014404296875, -0.146484375000, -0.990966796875, 13.648437500000, 20.703125000000, 2.375000000000, 1490763079
0.014404296875, -0.146484375000, -0.990966796875, 13.648437500000, 20.703125000000, 2.375000000000, 1490763079
0.014404296875, -0.146484375000, -0.990966796875, 13.648437500000, 20.703125000000, 2.375000000000, 1490763079
0.089599609375, -0.127441406250, -1.072998046875, -0.242187500000, 13.070312500000, 3.984375000000, 1490763079
0.089599609375, -0.127441406250, -1.072998046875, -0.242187500000, 13.070312500000, 3.984375000000, 1490763079
0.089599609375, -0.127441406250, -1.072998046875, -0.242187500000, 13.070312500000, 3.984375000000, 1490763079
0.033447265625, 0.000244140625, -1.085937500000, 0.218750000000, 14.070312500000, 6.687500000000, 1490763079
0.033447265625, 0.000244140625, -1.085937500000, 0.218750000000, 14.070312500000, 6.687500000000, 1490763079
0.033447265625, 0.000244140625, -1.085937500000, 0.218750000000, 14.070312500000, 6.687500000000, 1490763079
0.033447265625, 0.000244140625, -1.085937500000, 0.218750000000, 14.070312500000, 6.687500000000, 1490763079
0.049316406250, -0.122558593750, -0.913330078125, -2.406250000000, 10.695312500000, -1.804687500000, 1490763079
0.049316406250, -0.122558593750, -0.913330078125, -2.406250000000, 10.695312500000, -1.804687500000, 1490763079
0.049316406250, -0.122558593750, -0.913330078125, -2.406250000000, 10.695312500000, -1.804687500000, 1490763079
0.052734375000, -0.073486328125, -0.949218750000, -0.125000000000, 2.609375000000, -1.617187500000, 1490763079
0.052734375000, -0.073486328125, -0.949218750000, -0.125000000000, 2.609375000000, -1.617187500000, 1490763079
0.052734375000, -0.073486328125, -0.949218750000, -0.125000000000, 2.609375000000, -1.617187500000, 1490763079
0.039794921875, -0.098632812500, -1.000732421875, 4.500000000000, -0.890625000000, -1.210937500000, 1490763079
0.039794921875, -0.098632812500, -1.000732421875, 4.500000000000, -0.890625000000, -1.210937500000, 1490763079
0.039794921875, -0.098632812500, -1.000732421875, 4.500000000000, -0.890625000000, -1.210937500000, 1490763079
0.080810546875, -0.106689453125, -0.931884765625, -0.828125000000, 2.539062500000, -3.171875000000, 1490763079
0.080810546875, -0.106689453125, -0.931884765625, -0.828125000000, 2.539062500000, -3.171875000000, 1490763079
0.080810546875, -0.106689453125, -0.931884765625, -0.828125000000, 2.539062500000, -3.171875000000, 1490763079
0.080810546875, -0.106689453125, -0.931884765625, -0.828125000000, 2.539062500000, -3.171875000000, 1490763079
0.056152343750, -0.114990234375, -1.076660156250, -2.382812500000, 4.328125000000, -4.070312500000, 1490763079
0.056152343750, -0.114990234375, -1.076660156250, -2.382812500000, 4.328125000000, -4.070312500000, 1490763079
0.056152343750, -0.114990234375, -1.076660156250, -2.382812500000, 4.328125000000, -4.070312500000, 1490763079
0.044433593750, 0.001220703125, -0.927490234375, -9.031250000000, -0.062500000000, -4.820312500000, 1490763079
0.044433593750, 0.001220703125, -0.927490234375, -9.031250000000, -0.062500000000, -4.820312500000, 1490763079
0.044433593750, 0.001220703125, -0.927490234375, -9.031250000000, -0.062500000000, -4.820312500000, 1490763079
0.154785156250, -0.038818359375, -0.945800781250, -6.156250000000, -2.250000000000, -3.484375000000, 1490763079
0.154785156250, -0.038818359375, -0.945800781250, -6.156250000000, -2.250000000000, -3.484375000000, 1490763079
0.154785156250, -0.038818359375, -0.945800781250, -6.156250000000, -2.250000000000, -3.484375000000, 1490763079
0.068359375000, 0.001953125000, -0.965332031250, -3.031250000000, -1.851562500000, -4.265625000000, 1490763079
0.068359375000, 0.001953125000, -0.965332031250, -3.031250000000, -1.851562500000, -4.265625000000, 1490763079
0.068359375000, 0.001953125000, -0.965332031250, -3.031250000000, -1.851562500000, -4.265625000000, 1490763079
0.068359375000, 0.001953125000, -0.965332031250, -3.031250000000, -1.851562500000, -4.265625000000, 1490763079
0.002685546875, -0.041015625000, -1.003173828125, 0.054687500000, -3.992187500000, -6.296875000000, 1490763079
0.002685546875, -0.041015625000, -1.003173828125, 0.054687500000, -3.992187500000, -6.296875000000, 1490763079
0.002685546875, -0.041015625000, -1.003173828125, 0.054687500000, -3.992187500000, -6.296875000000, 1490763079
0.147460937500, -0.088378906250, -1.009521484375, -8.539062500000, -4.078125000000, -1.984375000000, 1490763079
0.147460937500, -0.088378906250, -1.009521484375, -8.539062500000, -4.078125000000, -1.984375000000, 1490763079
0.147460937500, -0.088378906250, -1.009521484375, -8.539062500000, -4.078125000000, -1.984375000000, 1490763079
0.073730468750, -0.037353515625, -0.993408203125, -18.500000000000, -10.625000000000, -6.031250000000, 1490763079
0.073730468750, -0.037353515625, -0.993408203125, -18.500000000000, -10.625000000000, -6.031250000000, 1490763079
0.073730468750, -0.037353515625, -0.993408203125, -18.500000000000, -10.625000000000, -6.031250000000, 1490763079
0.025878906250, -0.129150390625, -0.999267578125, -11.101562500000, -7.851562500000, -2.726562500000, 1490763079
0.025878906250, -0.129150390625, -0.999267578125, -11.101562500000, -7.851562500000, -2.726562500000, 1490763079
0.025878906250, -0.129150390625, -0.999267578125, -11.101562500000, -7.851562500000, -2.726562500000, 1490763079
0.025878906250, -0.129150390625, -0.999267578125, -11.101562500000, -7.851562500000, -2.726562500000, 1490763079
0.136230468750, -0.147216796875, -0.899902343750, -4.062500000000, -10.507812500000, -3.890625000000, 1490763079
0.136230468750, -0.147216796875, -0.899902343750, -4.062500000000, -10.507812500000, -3.890625000000, 1490763079
0.136230468750, -0.147216796875, -0.899902343750, -4.062500000000, -10.507812500000, -3.890625000000, 1490763079
0.032714843750, -0.071044921875, -0.995361328125, 12.125000000000, 2.320312500000, -6.281250000000, 1490763080
0.032714843750, -0.071044921875, -0.995361328125, 12.125000000000, 2.320312500000, -6.281250000000, 1490763080
0.150146484375, -0.141845703125, -0.933349609375, 4.726562500000, 2.187500000000, -3.968750000000, 1490763080
0.040039062500, -0.206298828125, -0.928466796875, -0.351562500000, 1.000000000000, -3.460937500000, 1490763080
0.040039062500, -0.206298828125, -0.928466796875, -0.351562500000, 1.000000000000, -3.460937500000, 1490763080
0.040039062500, -0.206298828125, -0.928466796875, -0.351562500000, 1.000000000000, -3.460937500000, 1490763080
0.040039062500, -0.206298828125, -0.928466796875, -0.351562500000, 1.000000000000, -3.460937500000, 1490763080
0.040039062500, -0.206298828125, -0.928466796875, -0.351562500000, 1.000000000000, -3.460937500000, 1490763080
0.064208984375, -0.057861328125, -1.067382812500, -4.539062500000, -0.187500000000, -3.203125000000, 1490763080
0.058349609375, -0.252441406250, -0.920410156250, -3.742187500000, 0.007812500000, -5.445312500000, 1490763080
0.058349609375, -0.252441406250, -0.920410156250, -3.742187500000, 0.007812500000, -5.445312500000, 1490763080
0.058349609375, -0.252441406250, -0.920410156250, -3.742187500000, 0.007812500000, -5.445312500000, 1490763080
0.058349609375, -0.252441406250, -0.920410156250, -3.742187500000, 0.007812500000, -5.445312500000, 1490763080
0.076171875000, -0.114501953125, -0.990234375000, -0.015625000000, -2.062500000000, -3.609375000000, 1490763080
0.076171875000, -0.114501953125, -0.990234375000, -0.015625000000, -2.062500000000, -3.609375000000, 1490763080
0.076171875000, -0.114501953125, -0.990234375000, -0.015625000000, -2.062500000000, -3.609375000000, 1490763080
0.155517578125, -0.092041015625, -1.020019531250, 1.585937500000, 0.117187500000, -6.632812500000, 1490763080
0.155517578125, -0.092041015625, -1.020019531250, 1.585937500000, 0.117187500000, -6.632812500000, 1490763080
0.155517578125, -0.092041015625, -1.020019531250, 1.585937500000, 0.117187500000, -6.632812500000, 1490763080
0.129394531250, -0.061523437500, -0.908447265625, -1.578125000000, 0.898437500000, -2.617187500000, 1490763080
0.129394531250, -0.061523437500, -0.908447265625, -1.578125000000, 0.898437500000, -2.617187500000, 1490763080
0.129394531250, -0.061523437500, -0.908447265625, -1.578125000000, 0.898437500000, -2.617187500000, 1490763080
0.129394531250, -0.061523437500, -0.908447265625, -1.578125000000, 0.898437500000, -2.617187500000, 1490763080
-0.001464843750, -0.031738281250, -0.930175781250, -2.132812500000, 2.671875000000, -1.242187500000, 1490763080
-0.001464843750, -0.031738281250, -0.930175781250, -2.132812500000, 2.671875000000, -1.242187500000, 1490763080
-0.001464843750, -0.031738281250, -0.930175781250, -2.132812500000, 2.671875000000, -1.242187500000, 1490763080
-0.017089843750, -0.144531250000, -0.907226562500, 2.054687500000, 0.070312500000, -4.656250000000, 1490763080
-0.017089843750, -0.144531250000, -0.907226562500, 2.054687500000, 0.070312500000, -4.656250000000, 1490763080
-0.017089843750, -0.144531250000, -0.907226562500, 2.054687500000, 0.070312500000, -4.656250000000, 1490763080
-0.025878906250, -0.047607421875, -0.914794921875, 1.531250000000, 1.765625000000, -3.367187500000, 1490763080
-0.025878906250, -0.047607421875, -0.914794921875, 1.531250000000, 1.765625000000, -3.367187500000, 1490763080
-0.025878906250, -0.047607421875, -0.914794921875, 1.531250000000, 1.765625000000, -3.367187500000, 1490763080
0.103027343750, -0.135253906250, -0.985839843750, -1.273437500000, -2.195312500000, -3.875000000000, 1490763080
0.103027343750, -0.135253906250, -0.985839843750, -1.273437500000, -2.195312500000, -3.875000000000, 1490763080
0.103027343750, -0.135253906250, -0.985839843750, -1.273437500000, -2.195312500000, -3.875000000000, 1490763080
0.103027343750, -0.135253906250, -0.985839843750, -1.273437500000, -2.195312500000, -3.875000000000, 1490763080
0.071044921875, -0.048828125000, -0.970947265625, -4.687500000000, -3.656250000000, -1.695312500000, 1490763080
0.071044921875, -0.048828125000, -0.970947265625, -4.687500000000, -3.656250000000, -1.695312500000, 1490763080
0.071044921875, -0.048828125000, -0.970947265625, -4.687500000000, -3.656250000000, -1.695312500000, 1490763080
-0.010498046875, -0.053955078125, -0.988037109375, -3.656250000000, -6.226562500000, -1.757812500000, 1490763080
-0.038818359375, -0.044921875000, -0.930175781250, -1.921875000000, -1.367187500000, -4.531250000000, 1490763080
-0.038818359375, -0.044921875000, -0.930175781250, -1.921875000000, -1.367187500000, -4.531250000000, 1490763080
-0.038818359375, -0.044921875000, -0.930175781250, -1.921875000000, -1.367187500000, -4.531250000000, 1490763080
0.125244140625, -0.144287109375, -1.092529296875, -1.203125000000, -4.359375000000, -4.460937500000, 1490763080
0.125244140625, -0.144287109375, -1.092529296875, -1.203125000000, -4.359375000000, -4.460937500000, 1490763080
0.125244140625, -0.144287109375, -1.092529296875, -1.203125000000, -4.359375000000, -4.460937500000, 1490763080
0.125244140625, -0.144287109375, -1.092529296875, -1.203125000000, -4.359375000000, -4.460937500000, 1490763080
0.125244140625, -0.144287109375, -1.092529296875, -1.203125000000, -4.359375000000, -4.460937500000, 1490763080
-0.015380859375, -0.140625000000, -0.998535156250, -1.554687500000, -1.515625000000, -4.804687500000, 1490763080
-0.010009765625, 0.015869140625, -0.956054687500, -4.023437500000, -1.882812500000, -1.789062500000, 1490763080
-0.010009765625, 0.015869140625, -0.956054687500, -4.023437500000, -1.882812500000, -1.789062500000, 1490763080
-0.010009765625, 0.015869140625, -0.956054687500, -4.023437500000, -1.882812500000, -1.789062500000, 1490763080
-0.007080078125, -0.022949218750, -0.924804687500, -4.046875000000, 0.343750000000, -1.687500000000, 1490763080
-0.007080078125, -0.022949218750, -0.924804687500, -4.046875000000, 0.343750000000, -1.687500000000, 1490763080
-0.007080078125, -0.022949218750, -0.924804687500, -4.046875000000, 0.343750000000, -1.687500000000, 1490763080
0.018066406250, -0.046630859375, -1.076904296875, -4.023437500000, 1.390625000000, -1.671875000000, 1490763080
0.018066406250, -0.046630859375, -1.076904296875, -4.023437500000, 1.390625000000, -1.671875000000, 1490763080
0.018066406250, -0.046630859375, -1.076904296875, -4.023437500000, 1.390625000000, -1.671875000000, 1490763080
-0.068359375000, -0.032958984375, -0.980468750000, -3.929687500000, 0.976562500000, -3.351562500000, 1490763080
-0.068359375000, -0.032958984375, -0.980468750000, -3.929687500000, 0.976562500000, -3.351562500000, 1490763080
-0.068359375000, -0.032958984375, -0.980468750000, -3.929687500000, 0.976562500000, -3.351562500000, 1490763080
-0.068359375000, -0.032958984375, -0.980468750000, -3.929687500000, 0.976562500000, -3.351562500000, 1490763080
0.041015625000, -0.062011718750, -0.930908203125, 0.171875000000, -1.343750000000, -4.632812500000, 1490763080
0.041015625000, -0.062011718750, -0.930908203125, 0.171875000000, -1.343750000000, -4.632812500000, 1490763080
0.041015625000, -0.062011718750, -0.930908203125, 0.171875000000, -1.343750000000, -4.632812500000, 1490763080
0.039062500000, 0.001220703125, -1.013427734375, 0.914062500000, -1.328125000000, -3.140625000000, 1490763080
0.039062500000, 0.001220703125, -1.013427734375, 0.914062500000, -1.328125000000, -3.140625000000, 1490763080
0.039062500000, 0.001220703125, -1.013427734375, 0.914062500000, -1.328125000000, -3.140625000000, 1490763080
0.088378906250, -0.085449218750, -1.010498046875, -3.671875000000, 0.117187500000, -3.335937500000, 1490763081
0.088378906250, -0.085449218750, -1.010498046875, -3.671875000000, 0.117187500000, -3.335937500000, 1490763081
0.088378906250, -0.085449218750, -1.010498046875, -3.671875000000, 0.117187500000, -3.335937500000, 1490763081
-0.015625000000, -0.133300781250, -1.007568359375, -3.921875000000, 0.226562500000, -4.265625000000, 1490763081
-0.015625000000, -0.133300781250, -1.007568359375, -3.921875000000, 0.226562500000, -4.265625000000, 1490763081
-0.015625000000, -0.133300781250, -1.007568359375, -3.921875000000, 0.226562500000, -4.265625000000, 1490763081
-0.015625000000, -0.133300781250, -1.007568359375, -3.921875000000, 0.226562500000, -4.265625000000, 1490763081
0.141113281250, 0.029785156250, -1.030273437500, -3.671875000000, 2.570312500000, -4.515625000000, 1490763081
0.141113281250, 0.029785156250, -1.030273437500, -3.671875000000, 2.570312500000, -4.515625000000, 1490763081
0.141113281250, 0.029785156250, -1.030273437500, -3.671875000000, 2.570312500000, -4.515625000000, 1490763081
-0.029785156250, -0.057617187500, -1.005371093750, -3.710937500000, 0.523437500000, -4.203125000000, 1490763081
-0.029785156250, -0.057617187500, -1.005371093750, -3.710937500000, 0.523437500000, -4.203125000000, 1490763081
-0.029785156250, -0.057617187500, -1.005371093750, -3.710937500000, 0.523437500000, -4.203125000000, 1490763081
0.058837890625, -0.057128906250, -0.920898437500, -5.765625000000, -2.710937500000, -3.171875000000, 1490763081
0.058837890625, -0.057128906250, -0.920898437500, -5.765625000000, -2.710937500000, -3.171875000000, 1490763081
0.058837890625, -0.057128906250, -0.920898437500, -5.765625000000, -2.710937500000, -3.171875000000, 1490763081
-0.017822265625, -0.126708984375, -1.020019531250, -3.867187500000, 0.218750000000, -6.507812500000, 1490763081
-0.017822265625, -0.126708984375, -1.020019531250, -3.867187500000, 0.218750000000, -6.507812500000, 1490763081
-0.017822265625, -0.126708984375, -1.020019531250, -3.867187500000, 0.218750000000, -6.507812500000, 1490763081
-0.017822265625, -0.126708984375, -1.020019531250, -3.867187500000, 0.218750000000, -6.507812500000, 1490763081
-0.026123046875, 0.024169921875, -1.005371093750, -8.468750000000, 4.101562500000, -6.773437500000, 1490763081
-0.026123046875, 0.024169921875, -1.005371093750, -8.468750000000, 4.101562500000, -6.773437500000, 1490763081
-0.026123046875, 0.024169921875, -1.005371093750, -8.468750000000, 4.101562500000, -6.773437500000, 1490763081
0.061035156250, -0.250000000000, -1.001464843750, -41.117187500000, 5.421875000000, -12.500000000000, 1490763081
0.061035156250, -0.250000000000, -1.001464843750, -41.117187500000, 5.421875000000, -12.500000000000, 1490763081
0.061035156250, -0.250000000000, -1.001464843750, -41.117187500000, 5.421875000000, -12.500000000000, 1490763081
0.061035156250, -0.250000000000, -1.001464843750, -41.117187500000, 5.421875000000, -12.500000000000, 1490763081
0.061035156250, -0.250000000000, -1.001464843750, -41.117187500000, 5.421875000000, -12.500000000000, 1490763081
-0.009033203125, 0.217041015625, -0.957763671875, -53.500000000000, 15.531250000000, -5.062500000000, 1490763081
-0.009033203125, 0.217041015625, -0.957763671875, -53.500000000000, 15.531250000000, -5.062500000000, 1490763081
-0.009033203125, 0.217041015625, -0.957763671875, -53.500000000000, 15.531250000000, -5.062500000000, 1490763081
-0.009033203125, 0.217041015625, -0.957763671875, -53.500000000000, 15.531250000000, -5.062500000000, 1490763081
-0.009033203125, 0.217041015625, -0.957763671875, -53.500000000000, 15.531250000000, -5.062500000000, 1490763081
0.019042968750, -0.061279296875, -0.898925781250, -33.507812500000, 1.648437500000, -20.937500000000, 1490763081
0.019042968750, -0.061279296875, -0.898925781250, -33.507812500000, 1.648437500000, -20.937500000000, 1490763081
0.019042968750, -0.061279296875, -0.898925781250, -33.507812500000, 1.648437500000, -20.937500000000, 1490763081
-0.007812500000, -0.187011718750, -1.005859375000, -14.289062500000, 6.070312500000, -12.445312500000, 1490763081
-0.007812500000, -0.187011718750, -1.005859375000, -14.289062500000, 6.070312500000, -12.445312500000, 1490763081
-0.007812500000, -0.187011718750, -1.005859375000, -14.289062500000, 6.070312500000, -12.445312500000, 1490763081
0.194824218750, -0.180175781250, -0.977050781250, -15.312500000000, 1.664062500000, -7.531250000000, 1490763081
0.194824218750, -0.180175781250, -0.977050781250, -15.312500000000, 1.664062500000, -7.531250000000, 1490763081
0.194824218750, -0.180175781250, -0.977050781250, -15.312500000000, 1.664062500000, -7.531250000000, 1490763081
-0.086669921875, -0.206787109375, -0.988769531250, -7.773437500000, 0.664062500000, -10.609375000000, 1490763081
-0.086669921875, -0.206787109375, -0.988769531250, -7.773437500000, 0.664062500000, -10.609375000000, 1490763081
-0.086669921875, -0.206787109375, -0.988769531250, -7.773437500000, 0.664062500000, -10.609375000000, 1490763081
-0.086669921875, -0.206787109375, -0.988769531250, -7.773437500000, 0.664062500000, -10.609375000000, 1490763081
0.096435546875, -0.095947265625, -1.001220703125, -30.781250000000, 2.882812500000, -18.804687500000, 1490763081
0.096435546875, -0.095947265625, -1.001220703125, -30.781250000000, 2.882812500000, -18.804687500000, 1490763081
0.096435546875, -0.095947265625, -1.001220703125, -30.781250000000, 2.882812500000, -18.804687500000, 1490763081
0.062744140625, -0.267333984375, -1.006835937500, -11.460937500000, -1.601562500000, -5.562500000000, 1490763081
0.062744140625, -0.267333984375, -1.006835937500, -11.460937500000, -1.601562500000, -5.562500000000, 1490763081
0.062744140625, -0.267333984375, -1.006835937500, -11.460937500000, -1.601562500000, -5.562500000000, 1490763081
0.041015625000, -0.271972656250, -0.920410156250, -24.156250000000, -4.578125000000, -8.789062500000, 1490763081
0.041015625000, -0.271972656250, -0.920410156250, -24.156250000000, -4.578125000000, -8.789062500000, 1490763081
0.041015625000, -0.271972656250, -0.920410156250, -24.156250000000, -4.578125000000, -8.789062500000, 1490763081
0.153320312500, -0.231933593750, -0.868652343750, -27.914062500000, -10.773437500000, -25.273437500000, 1490763081
0.153320312500, -0.231933593750, -0.868652343750, -27.914062500000, -10.773437500000, -25.273437500000, 1490763081
0.153320312500, -0.231933593750, -0.868652343750, -27.914062500000, -10.773437500000, -25.273437500000, 1490763081
0.153320312500, -0.231933593750, -0.868652343750, -27.914062500000, -10.773437500000, -25.273437500000, 1490763081
0.147216796875, -0.229980468750, -0.956298828125, -27.601562500000, -6.179687500000, -44.515625000000, 1490763081
0.147216796875, -0.229980468750, -0.956298828125, -27.601562500000, -6.179687500000, -44.515625000000, 1490763081
0.147216796875, -0.229980468750, -0.956298828125, -27.601562500000, -6.179687500000, -44.515625000000, 1490763081
-0.024169921875, -0.285644531250, -0.944824218750, -16.875000000000, -6.531250000000, -41.671875000000, 1490763081
-0.024169921875, -0.285644531250, -0.944824218750, -16.875000000000, -6.531250000000, -41.671875000000, 1490763081
-0.024169921875, -0.285644531250, -0.944824218750, -16.875000000000, -6.531250000000, -41.671875000000, 1490763081
-0.057373046875, -0.335205078125, -0.905029296875, -12.109375000000, -3.304687500000, -38.890625000000, 1490763081
-0.050781250000, -0.385986328125, -0.903808593750, 2.585937500000, -4.218750000000, -1.710937500000, 1490763082
-0.050781250000, -0.385986328125, -0.903808593750, 2.585937500000, -4.218750000000, -1.710937500000, 1490763082
-0.050781250000, -0.385986328125, -0.903808593750, 2.585937500000, -4.218750000000, -1.710937500000, 1490763082
-0.050781250000, -0.385986328125, -0.903808593750, 2.585937500000, -4.218750000000, -1.710937500000, 1490763082
-0.050781250000, -0.385986328125, -0.903808593750, 2.585937500000, -4.218750000000, -1.710937500000, 1490763082
-0.050781250000, -0.385986328125, -0.903808593750, 2.585937500000, -4.218750000000, -1.710937500000, 1490763082
0.055908203125, -0.346435546875, -0.952392578125, 6.601562500000, -1.507812500000, -4.906250000000, 1490763082
0.055908203125, -0.346435546875, -0.952392578125, 6.601562500000, -1.507812500000, -4.906250000000, 1490763082
0.020019531250, -0.331054687500, -0.847900390625, 3.781250000000, -0.570312500000, -6.765625000000, 1490763082
0.009277343750, -0.333251953125, -0.985595703125, 0.476562500000, 1.984375000000, -4.507812500000, 1490763082
0.009277343750, -0.333251953125, -0.985595703125, 0.476562500000, 1.984375000000, -4.507812500000, 1490763082
0.009277343750, -0.333251953125, -0.985595703125, 0.476562500000, 1.984375000000, -4.507812500000, 1490763082
-0.020263671875, -0.330078125000, -0.921142578125, -2.468750000000, 1.500000000000, -1.812500000000, 1490763082
-0.010986328125, -0.240966796875, -1.007568359375, -2.117187500000, 4.015625000000, -4.484375000000, 1490763082
-0.010986328125, -0.240966796875, -1.007568359375, -2.117187500000, 4.015625000000, -4.484375000000, 1490763082
-0.010986328125, -0.240966796875, -1.007568359375, -2.117187500000, 4.015625000000, -4.484375000000, 1490763082
-0.010986328125, -0.240966796875, -1.007568359375, -2.117187500000, 4.015625000000, -4.484375000000, 1490763082
-0.010986328125, -0.240966796875, -1.007568359375, -2.117187500000, 4.015625000000, -4.484375000000, 1490763082
-0.010986328125, -0.240966796875, -1.007568359375, -2.117187500000, 4.015625000000, -4.484375000000, 1490763082
-0.012939453125, -0.403076171875, -0.915527343750, -1.296875000000, 4.781250000000, -4.421875000000, 1490763082
-0.012939453125, -0.403076171875, -0.915527343750, -1.296875000000, 4.781250000000, -4.421875000000, 1490763082
-0.012939453125, -0.403076171875, -0.915527343750, -1.296875000000, 4.781250000000, -4.421875000000, 1490763082
0.144775390625, -0.320556640625, -0.854248046875, 4.882812500000, -2.312500000000, -8.632812500000, 1490763082
0.144775390625, -0.320556640625, -0.854248046875, 4.882812500000, -2.312500000000, -8.632812500000, 1490763082
0.144775390625, -0.320556640625, -0.854248046875, 4.882812500000, -2.312500000000, -8.632812500000, 1490763082
0.065429687500, -0.221679687500, -0.927734375000, 8.812500000000, -7.765625000000, -12.281250000000, 1490763082
0.065429687500, -0.221679687500, -0.927734375000, 8.812500000000, -7.765625000000, -12.281250000000, 1490763082
0.065429687500, -0.221679687500, -0.927734375000, 8.812500000000, -7.765625000000, -12.281250000000, 1490763082
