ACC_X,ACC_Y,ACC_Z,G_X,G_Y,G_Z,Unix Time
0.128906250000, -1.092285156250, 0.272460937500, -11.406250000000, 2.164062500000, -6.328125000000, 1490863306
0.128906250000, -1.092285156250, 0.272460937500, -11.406250000000, 2.164062500000, -6.328125000000, 1490863306
0.128906250000, -1.092285156250, 0.272460937500, -11.406250000000, 2.164062500000, -6.328125000000, 1490863306
0.128906250000, -1.092285156250, 0.272460937500, -11.406250000000, 2.164062500000, -6.328125000000, 1490863306
0.128906250000, -1.092285156250, 0.272460937500, -11.406250000000, 2.164062500000, -6.328125000000, 1490863306
-0.005615234375, -0.986572265625, 0.168701171875, -3.523437500000, -0.625000000000, -3.648437500000, 1490863306
-0.005615234375, -0.986572265625, 0.168701171875, -3.523437500000, -0.625000000000, -3.648437500000, 1490863306
-0.005615234375, -0.986572265625, 0.168701171875, -3.523437500000, -0.625000000000, -3.648437500000, 1490863306
0.142333984375, -0.855712890625, 0.253906250000, -1.710937500000, 0.820312500000, -5.281250000000, 1490863306
0.123046875000, -1.020996093750, 0.254882812500, -4.039062500000, -2.851562500000, -6.328125000000, 1490863306
0.123046875000, -1.020996093750, 0.254882812500, -4.039062500000, -2.851562500000, -6.328125000000, 1490863306
0.123046875000, -1.020996093750, 0.254882812500, -4.039062500000, -2.851562500000, -6.328125000000, 1490863306
0.061035156250, -1.073486328125, 0.119384765625, -1.804687500000, -2.929687500000, -3.179687500000, 1490863306
0.061035156250, -1.073486328125, 0.119384765625, -1.804687500000, -2.929687500000, -3.179687500000, 1490863306
0.061035156250, -1.073486328125, 0.119384765625, -1.804687500000, -2.929687500000, -3.179687500000, 1490863306
0.061035156250, -1.073486328125, 0.119384765625, -1.804687500000, -2.929687500000, -3.179687500000, 1490863306
0.105224609375, -0.981689453125, 0.160156250000, 0.218750000000, 3.328125000000, 0.156250000000, 1490863306
0.134277343750, -0.993652343750, 0.177490234375, -4.265625000000, -2.484375000000, -3.164062500000, 1490863306
0.134277343750, -0.993652343750, 0.177490234375, -4.265625000000, -2.484375000000, -3.164062500000, 1490863306
0.134277343750, -0.993652343750, 0.177490234375, -4.265625000000, -2.484375000000, -3.164062500000, 1490863306
0.134277343750, -0.993652343750, 0.177490234375, -4.265625000000, -2.484375000000, -3.164062500000, 1490863306
0.099121093750, -1.073242187500, 0.251953125000, -0.859375000000, -2.109375000000, -4.539062500000, 1490863306
0.099121093750, -1.073242187500, 0.251953125000, -0.859375000000, -2.109375000000, -4.539062500000, 1490863306
0.099121093750, -1.073242187500, 0.251953125000, -0.859375000000, -2.109375000000, -4.539062500000, 1490863306
0.045654296875, -0.982177734375, 0.164550781250, 2.953125000000, 1.335937500000, -4.828125000000, 1490863306
0.045654296875, -0.982177734375, 0.164550781250, 2.953125000000, 1.335937500000, -4.828125000000, 1490863306
0.045654296875, -0.982177734375, 0.164550781250, 2.953125000000, 1.335937500000, -4.828125000000, 1490863306
0.107177734375, -0.940673828125, 0.201171875000, -2.078125000000, 2.960937500000, -2.843750000000, 1490863306
0.107177734375, -0.940673828125, 0.201171875000, -2.078125000000, 2.960937500000, -2.843750000000, 1490863306
0.107177734375, -0.940673828125, 0.201171875000, -2.078125000000, 2.960937500000, -2.843750000000, 1490863306
0.107177734375, -0.940673828125, 0.201171875000, -2.078125000000, 2.960937500000, -2.843750000000, 1490863306
0.158203125000, -1.002929687500, 0.122558593750, 2.078125000000, -0.617187500000, -4.492187500000, 1490863306
0.158203125000, -1.002929687500, 0.122558593750, 2.078125000000, -0.617187500000, -4.492187500000, 1490863306
0.158203125000, -1.002929687500, 0.122558593750, 2.078125000000, -0.617187500000, -4.492187500000, 1490863306
-0.016357421875, -1.016845703125, 0.270751953125, 0.101562500000, 2.250000000000, -3.546875000000, 1490863306
-0.016357421875, -1.016845703125, 0.270751953125, 0.101562500000, 2.250000000000, -3.546875000000, 1490863306
-0.016357421875, -1.016845703125, 0.270751953125, 0.101562500000, 2.250000000000, -3.546875000000, 1490863306
0.125000000000, -0.863037109375, 0.263916015625, -1.914062500000, 2.000000000000, -1.976562500000, 1490863307
0.125000000000, -0.863037109375, 0.263916015625, -1.914062500000, 2.000000000000, -1.976562500000, 1490863307
0.125000000000, -0.863037109375, 0.263916015625, -1.914062500000, 2.000000000000, -1.976562500000, 1490863307
0.201171875000, -0.913574218750, 0.210205078125, -12.632812500000, -2.703125000000, -1.992187500000, 1490863307
0.201171875000, -0.913574218750, 0.210205078125, -12.632812500000, -2.703125000000, -1.992187500000, 1490863307
0.201171875000, -0.913574218750, 0.210205078125, -12.632812500000, -2.703125000000, -1.992187500000, 1490863307
0.201171875000, -0.913574218750, 0.210205078125, -12.632812500000, -2.703125000000, -1.992187500000, 1490863307
0.190917968750, -0.937255859375, 0.177246093750, -6.296875000000, -2.726562500000, -1.640625000000, 1490863307
0.150146484375, -1.081054687500, 0.259765625000, -10.554687500000, -5.179687500000, -4.773437500000, 1490863307
0.150146484375, -1.081054687500, 0.259765625000, -10.554687500000, -5.179687500000, -4.773437500000, 1490863307
0.150146484375, -1.081054687500, 0.259765625000, -10.554687500000, -5.179687500000, -4.773437500000, 1490863307
0.150146484375, -1.081054687500, 0.259765625000, -10.554687500000, -5.179687500000, -4.773437500000, 1490863307
0.202636718750, -0.974853515625, 0.173828125000, -9.296875000000, -8.789062500000, -3.554687500000, 1490863307
0.260009765625, -0.981201171875, 0.215576171875, -12.726562500000, -2.718750000000, -7.007812500000, 1490863307
0.260009765625, -0.981201171875, 0.215576171875, -12.726562500000, -2.718750000000, -7.007812500000, 1490863307
0.260009765625, -0.981201171875, 0.215576171875, -12.726562500000, -2.718750000000, -7.007812500000, 1490863307
0.260009765625, -0.981201171875, 0.215576171875, -12.726562500000, -2.718750000000, -7.007812500000, 1490863307
0.260009765625, -0.981201171875, 0.215576171875, -12.726562500000, -2.718750000000, -7.007812500000, 1490863307
0.260009765625, -0.981201171875, 0.215576171875, -12.726562500000, -2.718750000000, -7.007812500000, 1490863307
0.089355468750, -0.982177734375, 0.151123046875, -9.953125000000, 0.648437500000, -3.085937500000, 1490863307
0.154052734375, -0.952148437500, 0.096923828125, -4.773437500000, -0.921875000000, -4.968750000000, 1490863307
0.154052734375, -0.952148437500, 0.096923828125, -4.773437500000, -0.921875000000, -4.968750000000, 1490863307
0.154052734375, -0.952148437500, 0.096923828125, -4.773437500000, -0.921875000000, -4.968750000000, 1490863307
0.113769531250, -0.929931640625, 0.180908203125, 2.398437500000, 0.750000000000, -1.960937500000, 1490863307
0.113769531250, -0.929931640625, 0.180908203125, 2.398437500000, 0.750000000000, -1.960937500000, 1490863307
0.092041015625, -0.917480468750, 0.171386718750, -6.929687500000, -0.562500000000, -5.531250000000, 1490863307
0.092041015625, -0.917480468750, 0.171386718750, -6.929687500000, -0.562500000000, -5.531250000000, 1490863307
0.092041015625, -0.917480468750, 0.171386718750, -6.929687500000, -0.562500000000, -5.531250000000, 1490863307
0.092041015625, -0.917480468750, 0.171386718750, -6.929687500000, -0.562500000000, -5.531250000000, 1490863307
0.050537109375, -1.026367187500, 0.203857421875, -3.140625000000, -1.382812500000, -10.414062500000, 1490863307
0.050537109375, -1.026367187500, 0.203857421875, -3.140625000000, -1.382812500000, -10.414062500000, 1490863307
0.050537109375, -1.026367187500, 0.203857421875, -3.140625000000, -1.382812500000, -10.414062500000, 1490863307
0.050537109375, -1.026367187500, 0.203857421875, -3.140625000000, -1.382812500000, -10.414062500000, 1490863307
0.129882812500, -0.933105468750, 0.278076171875, -1.835937500000, -2.367187500000, -7.507812500000, 1490863307
0.129882812500, -0.933105468750, 0.278076171875, -1.835937500000, -2.367187500000, -7.507812500000, 1490863307
0.129882812500, -0.933105468750, 0.278076171875, -1.835937500000, -2.367187500000, -7.507812500000, 1490863307
0.129882812500, -1.008789062500, 0.263916015625, -3.734375000000, -0.710937500000, -8.546875000000, 1490863307
0.177734375000, -0.966308593750, 0.217041015625, -2.601562500000, -2.609375000000, -5.406250000000, 1490863307
0.177734375000, -0.966308593750, 0.217041015625, -2.601562500000, -2.609375000000, -5.406250000000, 1490863307
0.177734375000, -0.966308593750, 0.217041015625, -2.601562500000, -2.609375000000, -5.406250000000, 1490863307
0.177734375000, -0.966308593750, 0.217041015625, -2.601562500000, -2.609375000000, -5.406250000000, 1490863307
0.177734375000, -0.966308593750, 0.217041015625, -1.968750000000, -0.546875000000, -3.960937500000, 1490863307
0.035644531250, -0.962646484375, 0.203125000000, -12.992187500000, 5.187500000000, -5.015625000000, 1490863307
0.035644531250, -0.962646484375, 0.203125000000, -12.992187500000, 5.187500000000, -5.015625000000, 1490863307
0.035644531250, -0.962646484375, 0.203125000000, -12.992187500000, 5.187500000000, -5.015625000000, 1490863307
0.035644531250, -0.962646484375, 0.203125000000, -12.992187500000, 5.187500000000, -5.015625000000, 1490863307
0.049316406250, -0.997558593750, 0.177734375000, -10.398437500000, 3.125000000000, -4.687500000000, 1490863307
0.049316406250, -0.997558593750, 0.177734375000, -10.398437500000, 3.125000000000, -4.687500000000, 1490863307
0.049316406250, -0.997558593750, 0.177734375000, -10.398437500000, 3.125000000000, -4.687500000000, 1490863307
0.032470703125, -0.953613281250, 0.271240234375, -4.242187500000, 2.281250000000, -3.578125000000, 1490863307
0.032470703125, -0.953613281250, 0.271240234375, -4.242187500000, 2.281250000000, -3.578125000000, 1490863307
0.058105468750, -1.076171875000, 0.170166015625, -1.359375000000, 3.812500000000, -6.148437500000, 1490863307
0.058105468750, -1.076171875000, 0.170166015625, -1.359375000000, 3.812500000000, -6.148437500000, 1490863307
0.058105468750, -1.076171875000, 0.170166015625, -1.359375000000, 3.812500000000, -6.148437500000, 1490863307
0.081054687500, -1.065917968750, 0.219482421875, -8.570312500000, 1.875000000000, -6.421875000000, 1490863307
0.081054687500, -1.065917968750, 0.219482421875, -8.570312500000, 1.875000000000, -6.421875000000, 1490863307
0.081054687500, -1.065917968750, 0.219482421875, -8.570312500000, 1.875000000000, -6.421875000000, 1490863307
0.081054687500, -1.065917968750, 0.219482421875, -8.570312500000, 1.875000000000, -6.421875000000, 1490863307
0.081054687500, -1.065917968750, 0.219482421875, -8.570312500000, 1.875000000000, -6.421875000000, 1490863307
0.134033203125, -1.013671875000, 0.253417968750, -7.859375000000, 2.007812500000, -4.296875000000, 1490863307
0.134033203125, -1.013671875000, 0.253417968750, -7.859375000000, 2.007812500000, -4.296875000000, 1490863307
0.134033203125, -1.013671875000, 0.253417968750, -7.859375000000, 2.007812500000, -4.296875000000, 1490863307
0.147705078125, -1.025878906250, 0.224609375000, -2.773437500000, 1.773437500000, -1.671875000000, 1490863307
0.147705078125, -1.025878906250, 0.224609375000, -2.773437500000, 1.773437500000, -1.671875000000, 1490863307
0.147705078125, -1.025878906250, 0.224609375000, -2.773437500000, 1.773437500000, -1.671875000000, 1490863307
0.148925781250, -0.924560546875, 0.176757812500, -8.164062500000, 1.562500000000, -4.695312500000, 1490863308
0.148925781250, -0.924560546875, 0.176757812500, -8.164062500000, 1.562500000000, -4.695312500000, 1490863308
0.148925781250, -0.924560546875, 0.176757812500, -8.164062500000, 1.562500000000, -4.695312500000, 1490863308
0.094970703125, -0.920166015625, 0.171630859375, -7.109375000000, 1.101562500000, -1.921875000000, 1490863308
0.094970703125, -0.920166015625, 0.171630859375, -7.109375000000, 1.101562500000, -1.921875000000, 1490863308
0.094970703125, -0.920166015625, 0.171630859375, -7.109375000000, 1.101562500000, -1.921875000000, 1490863308
0.094970703125, -0.920166015625, 0.171630859375, -7.109375000000, 1.101562500000, -1.921875000000, 1490863308
0.193847656250, -0.989257812500, 0.175292968750, -2.718750000000, 6.914062500000, -2.281250000000, 1490863308
0.193847656250, -0.989257812500, 0.175292968750, -2.718750000000, 6.914062500000, -2.281250000000, 1490863308
0.193847656250, -0.989257812500, 0.175292968750, -2.718750000000, 6.914062500000, -2.281250000000, 1490863308
0.120117187500, -1.006347656250, 0.165039062500, -8.492187500000, 3.679687500000, -3.218750000000, 1490863308
0.120117187500, -1.006347656250, 0.165039062500, -8.492187500000, 3.679687500000, -3.218750000000, 1490863308
0.120117187500, -1.006347656250, 0.165039062500, -8.492187500000, 3.679687500000, -3.218750000000, 1490863308
0.134277343750, -0.935302734375, 0.244140625000, -5.312500000000, -0.648437500000, -6.031250000000, 1490863308
0.134277343750, -0.935302734375, 0.244140625000, -5.312500000000, -0.648437500000, -6.031250000000, 1490863308
0.134277343750, -0.935302734375, 0.244140625000, -5.312500000000, -0.648437500000, -6.031250000000, 1490863308
0.045898437500, -0.919433593750, 0.266357421875, -5.578125000000, 0.562500000000, -4.882812500000, 1490863308
0.045898437500, -0.919433593750, 0.266357421875, -5.578125000000, 0.562500000000, -4.882812500000, 1490863308
0.045898437500, -0.919433593750, 0.266357421875, -5.578125000000, 0.562500000000, -4.882812500000, 1490863308
0.138916015625, -1.014648437500, 0.262451171875, -1.484375000000, 4.367187500000, -4.906250000000, 1490863308
0.138916015625, -1.014648437500, 0.262451171875, -1.484375000000, 4.367187500000, -4.906250000000, 1490863308
0.138916015625, -1.014648437500, 0.262451171875, -1.484375000000, 4.367187500000, -4.906250000000, 1490863308
0.138916015625, -1.014648437500, 0.262451171875, -1.484375000000, 4.367187500000, -4.906250000000, 1490863308
0.100341796875, -0.929931640625, 0.326416015625, -4.375000000000, 1.695312500000, -4.445312500000, 1490863308
0.100341796875, -0.929931640625, 0.326416015625, -4.375000000000, 1.695312500000, -4.445312500000, 1490863308
0.100341796875, -0.929931640625, 0.326416015625, -4.375000000000, 1.695312500000, -4.445312500000, 1490863308
0.138671875000, -1.024902343750, 0.213378906250, -4.859375000000, 2.617187500000, -5.453125000000, 1490863308
0.138671875000, -1.024902343750, 0.213378906250, -4.859375000000, 2.617187500000, -5.453125000000, 1490863308
0.138671875000, -1.024902343750, 0.213378906250, -4.859375000000, 2.617187500000, -5.453125000000, 1490863308
-0.026367187500, -0.971923828125, 0.325439453125, -1.351562500000, 4.140625000000, -4.523437500000, 1490863308
-0.026367187500, -0.971923828125, 0.325439453125, -1.351562500000, 4.140625000000, -4.523437500000, 1490863308
-0.026367187500, -0.971923828125, 0.325439453125, -1.351562500000, 4.140625000000, -4.523437500000, 1490863308
0.118408203125, -0.947509765625, 0.271972656250, -4.906250000000, 4.773437500000, -4.914062500000, 1490863308
0.118408203125, -0.947509765625, 0.271972656250, -4.906250000000, 4.773437500000, -4.914062500000, 1490863308
0.118408203125, -0.947509765625, 0.271972656250, -4.906250000000, 4.773437500000, -4.914062500000, 1490863308
0.118408203125, -0.947509765625, 0.271972656250, -4.906250000000, 4.773437500000, -4.914062500000, 1490863308
0.140380859375, -0.915771484375, 0.280761718750, -4.335937500000, -0.140625000000, -6.046875000000, 1490863308
0.140380859375, -0.915771484375, 0.280761718750, -4.335937500000, -0.140625000000, -6.046875000000, 1490863308
0.140380859375, -0.915771484375, 0.280761718750, -4.335937500000, -0.140625000000, -6.046875000000, 1490863308
0.139160156250, -0.908691406250, 0.164306640625, -4.203125000000, 4.492187500000, -4.015625000000, 1490863308
0.139160156250, -0.908691406250, 0.164306640625, -4.203125000000, 4.492187500000, -4.015625000000, 1490863308
0.139160156250, -0.908691406250, 0.164306640625, -4.203125000000, 4.492187500000, -4.015625000000, 1490863308
0.129882812500, -1.020019531250, 0.185791015625, -2.898437500000, 1.656250000000, -4.945312500000, 1490863308
0.129882812500, -1.020019531250, 0.185791015625, -2.898437500000, 1.656250000000, -4.945312500000, 1490863308
0.129882812500, -1.020019531250, 0.185791015625, -2.898437500000, 1.656250000000, -4.945312500000, 1490863308
0.129882812500, -1.020019531250, 0.185791015625, -2.898437500000, 1.656250000000, -4.945312500000, 1490863308
0.103027343750, -1.028564453125, 0.250244140625, -8.109375000000, 2.765625000000, -6.273437500000, 1490863308
0.103027343750, -1.028564453125, 0.250244140625, -8.109375000000, 2.765625000000, -6.273437500000, 1490863308
0.103027343750, -1.028564453125, 0.250244140625, -8.109375000000, 2.765625000000, -6.273437500000, 1490863308
-0.072509765625, -0.970947265625, 0.198242187500, -6.250000000000, -2.507812500000, -3.585937500000, 1490863308
-0.072509765625, -0.970947265625, 0.198242187500, -6.250000000000, -2.507812500000, -3.585937500000, 1490863308
-0.072509765625, -0.970947265625, 0.198242187500, -6.250000000000, -2.507812500000, -3.585937500000, 1490863308
0.096923828125, -1.014404296875, 0.205322265625, -3.242187500000, -4.031250000000, -6.210937500000, 1490863308
0.096923828125, -1.014404296875, 0.205322265625, -3.242187500000, -4.031250000000, -6.210937500000, 1490863308
0.096923828125, -1.014404296875, 0.205322265625, -3.242187500000, -4.031250000000, -6.210937500000, 1490863308
0.145263671875, -1.067382812500, 0.171875000000, 0.718750000000, -2.640625000000, -3.875000000000, 1490863308
0.145263671875, -1.067382812500, 0.171875000000, 0.718750000000, -2.640625000000, -3.875000000000, 1490863308
0.145263671875, -1.067382812500, 0.171875000000, 0.718750000000, -2.640625000000, -3.875000000000, 1490863308
0.145263671875, -1.067382812500, 0.171875000000, 0.718750000000, -2.640625000000, -3.875000000000, 1490863308
0.082763671875, -0.932861328125, 0.260009765625, 3.718750000000, 0.148437500000, -4.484375000000, 1490863308
0.082763671875, -0.932861328125, 0.260009765625, 3.718750000000, 0.148437500000, -4.484375000000, 1490863308
0.082763671875, -0.932861328125, 0.260009765625, 3.718750000000, 0.148437500000, -4.484375000000, 1490863308
0.207763671875, -1.020263671875, 0.178466796875, -4.546875000000, -0.117187500000, -6.781250000000, 1490863308
0.207763671875, -1.020263671875, 0.178466796875, -4.546875000000, -0.117187500000, -6.781250000000, 1490863308
0.207763671875, -1.020263671875, 0.178466796875, -4.546875000000, -0.117187500000, -6.781250000000, 1490863308
0.056640625000, -0.991699218750, 0.320800781250, -1.960937500000, 1.234375000000, -4.195312500000, 1490863308
0.056640625000, -0.991699218750, 0.320800781250, -1.960937500000, 1.234375000000, -4.195312500000, 1490863308
0.056640625000, -0.991699218750, 0.320800781250, -1.960937500000, 1.234375000000, -4.195312500000, 1490863308
0.072753906250, -1.046386718750, 0.254150390625, -3.304687500000, 2.562500000000, -4.117187500000, 1490863309
0.072753906250, -1.046386718750, 0.254150390625, -3.304687500000, 2.562500000000, -4.117187500000, 1490863309
0.072753906250, -1.046386718750, 0.254150390625, -3.304687500000, 2.562500000000, -4.117187500000, 1490863309
0.072753906250, -1.046386718750, 0.254150390625, -3.304687500000, 2.562500000000, -4.117187500000, 1490863309
0.057373046875, -1.028320312500, 0.267089843750, -3.328125000000, -0.437500000000, -6.328125000000, 1490863309
0.057373046875, -1.028320312500, 0.267089843750, -3.328125000000, -0.437500000000, -6.328125000000, 1490863309
0.057373046875, -1.028320312500, 0.267089843750, -3.328125000000, -0.437500000000, -6.328125000000, 1490863309
0.122070312500, -0.955566406250, 0.165039062500, -1.859375000000, -0.257812500000, -4.937500000000, 1490863309
0.122070312500, -0.955566406250, 0.165039062500, -1.859375000000, -0.257812500000, -4.937500000000, 1490863309
0.122070312500, -0.955566406250, 0.165039062500, -1.859375000000, -0.257812500000, -4.937500000000, 1490863309
0.062500000000, -0.945312500000, 0.185546875000, 0.335937500000, 4.085937500000, -6.125000000000, 1490863309
0.062500000000, -0.945312500000, 0.185546875000, 0.335937500000, 4.085937500000, -6.125000000000, 1490863309
0.055908203125, -1.074218750000, 0.175048828125, -2.101562500000, -2.906250000000, -5.296875000000, 1490863309
0.153564453125, -0.937255859375, 0.176513671875, -2.367187500000, -0.507812500000, -1.921875000000, 1490863309
0.153564453125, -0.937255859375, 0.176513671875, -2.367187500000, -0.507812500000, -1.921875000000, 1490863309
0.153564453125, -0.937255859375, 0.176513671875, -2.367187500000, -0.507812500000, -1.921875000000, 1490863309
0.153564453125, -0.937255859375, 0.176513671875, -2.367187500000, -0.507812500000, -1.921875000000, 1490863309
0.153564453125, -0.937255859375, 0.176513671875, -2.367187500000, -0.507812500000, -1.921875000000, 1490863309
0.037109375000, -0.988037109375, 0.184082031250, -2.789062500000, 0.203125000000, -4.796875000000, 1490863309
0.194580078125, -0.906982421875, 0.212402343750, -1.609375000000, -2.289062500000, -3.468750000000, 1490863309
0.194580078125, -0.906982421875, 0.212402343750, -1.609375000000, -2.289062500000, -3.468750000000, 1490863309
0.194580078125, -0.906982421875, 0.212402343750, -1.609375000000, -2.289062500000, -3.468750000000, 1490863309
0.194580078125, -0.906982421875, 0.212402343750, -1.609375000000, -2.289062500000, -3.468750000000, 1490863309
0.147705078125, -0.981933593750, 0.211914062500, -8.882812500000, -2.148437500000, -3.500000000000, 1490863309
0.147705078125, -0.981933593750, 0.211914062500, -8.882812500000, -2.148437500000, -3.500000000000, 1490863309
0.081787109375, -1.002441406250, 0.168457031250, -2.460937500000, 0.320312500000, -3.898437500000, 1490863309
0.081787109375, -1.002441406250, 0.168457031250, -2.460937500000, 0.320312500000, -3.898437500000, 1490863309
0.081787109375, -1.002441406250, 0.168457031250, -2.460937500000, 0.320312500000, -3.898437500000, 1490863309
0.081787109375, -1.002441406250, 0.168457031250, -2.460937500000, 0.320312500000, -3.898437500000, 1490863309
0.081787109375, -1.002441406250, 0.168457031250, -2.460937500000, 0.320312500000, -3.898437500000, 1490863309
0.178710937500, -0.993164062500, 0.172607421875, -4.554687500000, 7.304687500000, -1.968750000000, 1490863309
0.178710937500, -0.993164062500, 0.172607421875, -4.554687500000, 7.304687500000, -1.968750000000, 1490863309
0.178710937500, -0.993164062500, 0.172607421875, -4.554687500000, 7.304687500000, -1.968750000000, 1490863309
0.045654296875, -0.936279296875, 0.216796875000, 0.453125000000, -4.554687500000, -6.476562500000, 1490863309
0.045654296875, -0.936279296875, 0.216796875000, 0.453125000000, -4.554687500000, -6.476562500000, 1490863309
0.045654296875, -0.936279296875, 0.216796875000, 0.453125000000, -4.554687500000, -6.476562500000, 1490863309
0.095703125000, -1.017333984375, 0.152099609375, 1.187500000000, 3.367187500000, -2.898437500000, 1490863309
0.095703125000, -1.017333984375, 0.152099609375, 1.187500000000, 3.367187500000, -2.898437500000, 1490863309
0.095703125000, -1.017333984375, 0.152099609375, 1.187500000000, 3.367187500000, -2.898437500000, 1490863309
0.213378906250, -0.909179687500, 0.061035156250, -3.132812500000, 3.609375000000, -1.359375000000, 1490863309
0.213378906250, -0.909179687500, 0.061035156250, -3.132812500000, 3.609375000000, -1.359375000000, 1490863309
0.213378906250, -0.909179687500, 0.061035156250, -3.132812500000, 3.609375000000, -1.359375000000, 1490863309
0.213378906250, -0.909179687500, 0.061035156250, -3.132812500000, 3.609375000000, -1.359375000000, 1490863309
0.100830078125, -0.989746093750, 0.143798828125, -7.023437500000, 4.382812500000, -0.921875000000, 1490863309
0.100830078125, -0.989746093750, 0.143798828125, -7.023437500000, 4.382812500000, -0.921875000000, 1490863309
0.100830078125, -0.989746093750, 0.143798828125, -7.023437500000, 4.382812500000, -0.921875000000, 1490863309
0.144775390625, -0.924560546875, 0.040283203125, -13.062500000000, -1.148437500000, 2.164062500000, 1490863309
0.144775390625, -0.924560546875, 0.040283203125, -13.062500000000, -1.148437500000, 2.164062500000, 1490863309
0.144775390625, -0.924560546875, 0.040283203125, -13.062500000000, -1.148437500000, 2.164062500000, 1490863309
0.152832031250, -1.077880859375, 0.050781250000, -13.226562500000, -17.265625000000, -9.710937500000, 1490863309
0.152832031250, -1.077880859375, 0.050781250000, -13.226562500000, -17.265625000000, -9.710937500000, 1490863309
0.152832031250, -1.077880859375, 0.050781250000, -13.226562500000, -17.265625000000, -9.710937500000, 1490863309
0.201904296875, -0.944824218750, -0.002685546875, -1.437500000000, -26.437500000000, -11.570312500000, 1490863309
0.201904296875, -0.944824218750, -0.002685546875, -1.437500000000, -26.437500000000, -11.570312500000, 1490863309
0.190429687500, -0.912109375000, 0.137939453125, 11.765625000000, -14.898437500000, 3.929687500000, 1490863309
0.190429687500, -0.912109375000, 0.137939453125, 11.765625000000, -14.898437500000, 3.929687500000, 1490863309
0.190429687500, -0.912109375000, 0.137939453125, 11.765625000000, -14.898437500000, 3.929687500000, 1490863309
0.190429687500, -0.912109375000, 0.137939453125, 11.765625000000, -14.898437500000, 3.929687500000, 1490863309
0.190429687500, -0.912109375000, 0.137939453125, 11.765625000000, -14.898437500000, 3.929687500000, 1490863309
0.058105468750, -0.964111328125, 0.206542968750, 11.257812500000, -4.054687500000, -0.070312500000, 1490863309
0.058105468750, -0.964111328125, 0.206542968750, 11.257812500000, -4.054687500000, -0.070312500000, 1490863309
0.058105468750, -0.964111328125, 0.206542968750, 11.257812500000, -4.054687500000, -0.070312500000, 1490863309
0.147705078125, -0.889160156250, 0.154296875000, -6.609375000000, 4.960937500000, -4.335937500000, 1490863309
0.147705078125, -0.889160156250, 0.154296875000, -6.609375000000, 4.960937500000, -4.335937500000, 1490863309
0.147705078125, -0.889160156250, 0.154296875000, -6.609375000000, 4.960937500000, -4.335937500000, 1490863309
0.268310546875, -0.717041015625, -0.000732421875, 4.984375000000, 13.617187500000, 8.687500000000, 1490863310
0.268310546875, -0.717041015625, -0.000732421875, 4.984375000000, 13.617187500000, 8.687500000000, 1490863310
0.268310546875, -0.717041015625, -0.000732421875, 4.984375000000, 13.617187500000, 8.687500000000, 1490863310
0.268310546875, -0.717041015625, -0.000732421875, 4.984375000000, 13.617187500000, 8.687500000000, 1490863310
0.156494140625, -0.888427734375, -0.018310546875, -3.257812500000, 5.804687500000, 6.578125000000, 1490863310
0.156494140625, -0.888427734375, -0.018310546875, -3.257812500000, 5.804687500000, 6.578125000000, 1490863310
0.156494140625, -0.888427734375, -0.018310546875, -3.257812500000, 5.804687500000, 6.578125000000, 1490863310
0.079833984375, -0.828369140625, -0.016357421875, -23.085937500000, -8.851562500000, 1.812500000000, 1490863310
0.079833984375, -0.828369140625, -0.016357421875, -23.085937500000, -8.851562500000, 1.812500000000, 1490863310
0.079833984375, -0.828369140625, -0.016357421875, -23.085937500000, -8.851562500000, 1.812500000000, 1490863310
0.040283203125, -0.853515625000, 0.020019531250, -19.320312500000, -13.992187500000, -17.570312500000, 1490863310
0.040283203125, -0.853515625000, 0.020019531250, -19.320312500000, -13.992187500000, -17.570312500000, 1490863310
0.146972656250, -0.798828125000, -0.029541015625, -28.390625000000, -16.687500000000, -22.648437500000, 1490863310
0.086669921875, -0.777343750000, 0.004882812500, -37.070312500000, -12.476562500000, -38.453125000000, 1490863310
0.086669921875, -0.777343750000, 0.004882812500, -37.070312500000, -12.476562500000, -38.453125000000, 1490863310
0.086669921875, -0.777343750000, 0.004882812500, -37.070312500000, -12.476562500000, -38.453125000000, 1490863310
0.086669921875, -0.777343750000, 0.004882812500, -37.070312500000, -12.476562500000, -38.453125000000, 1490863310
0.172119140625, -0.789550781250, -0.020507812500, -77.273437500000, 36.312500000000, -15.710937500000, 1490863310
0.172119140625, -0.789550781250, -0.020507812500, -77.273437500000, 36.312500000000, -15.710937500000, 1490863310
0.172119140625, -0.789550781250, -0.020507812500, -77.273437500000, 36.312500000000, -15.710937500000, 1490863310
0.096191406250, -0.756347656250, -0.015625000000, -94.156250000000, 63.812500000000, -12.242187500000, 1490863310
0.096191406250, -0.756347656250, -0.015625000000, -94.156250000000, 63.812500000000, -12.242187500000, 1490863310
0.043457031250, -0.477783203125, 0.019287109375, -84.406250000000, 40.171875000000, -61.171875000000, 1490863310
0.043457031250, -0.477783203125, 0.019287109375, -84.406250000000, 40.171875000000, -61.171875000000, 1490863310
0.043457031250, -0.477783203125, 0.019287109375, -84.406250000000, 40.171875000000, -61.171875000000, 1490863310
0.043457031250, -0.477783203125, 0.019287109375, -84.406250000000, 40.171875000000, -61.171875000000, 1490863310
0.053955078125, -0.347656250000, -0.071044921875, -129.617187500000, 1.617187500000, -75.328125000000, 1490863310
0.053955078125, -0.347656250000, -0.071044921875, -129.617187500000, 1.617187500000, -75.328125000000, 1490863310
0.053955078125, -0.347656250000, -0.071044921875, -129.617187500000, 1.617187500000, -75.328125000000, 1490863310
0.053955078125, -0.347656250000, -0.071044921875, -129.617187500000, 1.617187500000, -75.328125000000, 1490863310
0.033447265625, -0.129150390625, -0.009033203125, -177.828125000000, 48.757812500000, -61.437500000000, 1490863310
0.033447265625, -0.129150390625, -0.009033203125, -177.828125000000, 48.757812500000, -61.437500000000, 1490863310
0.033447265625, -0.129150390625, -0.009033203125, -177.828125000000, 48.757812500000, -61.437500000000, 1490863310
0.159179687500, -0.408203125000, 0.124267578125, -107.093750000000, 49.781250000000, -20.328125000000, 1490863310
0.159179687500, -0.408203125000, 0.124267578125, -107.093750000000, 49.781250000000, -20.328125000000, 1490863310
0.159179687500, -0.408203125000, 0.124267578125, -107.093750000000, 49.781250000000, -20.328125000000, 1490863310
1.262207031250, -4.477539062500, -0.244873046875, -256.000000000000, -256.000000000000, 182.789062500000, 1490863310
1.262207031250, -4.477539062500, -0.244873046875, -256.000000000000, -256.000000000000, 182.789062500000, 1490863310
1.262207031250, -4.477539062500, -0.244873046875, -256.000000000000, -256.000000000000, 182.789062500000, 1490863310
1.580078125000, -5.057373046875, 8.000000000000, -256.000000000000, 232.867187500000, 56.359375000000, 1490863310
1.580078125000, -5.057373046875, 8.000000000000, -256.000000000000, 232.867187500000, 56.359375000000, 1490863310
1.580078125000, -5.057373046875, 8.000000000000, -256.000000000000, 232.867187500000, 56.359375000000, 1490863310
1.580078125000, -5.057373046875, 8.000000000000, -256.000000000000, 232.867187500000, 56.359375000000, 1490863310
0.077636718750, -0.345703125000, 0.186279296875, -256.000000000000, 74.656250000000, 53.226562500000, 1490863310
0.077636718750, -0.345703125000, 0.186279296875, -256.000000000000, 74.656250000000, 53.226562500000, 1490863310
0.077636718750, -0.345703125000, 0.186279296875, -256.000000000000, 74.656250000000, 53.226562500000, 1490863310
-0.000000000000, -0.173339843750, 0.028808593750, -234.367187500000, 22.250000000000, 34.562500000000, 1490863310
-0.000000000000, -0.173339843750, 0.028808593750, -234.367187500000, 22.250000000000, 34.562500000000, 1490863310
-0.000000000000, -0.173339843750, 0.028808593750, -234.367187500000, 22.250000000000, 34.562500000000, 1490863310
0.073730468750, -0.252929687500, -0.050048828125, -256.000000000000, -28.671875000000, -28.085937500000, 1490863310
0.073730468750, -0.252929687500, -0.050048828125, -256.000000000000, -28.671875000000, -28.085937500000, 1490863310
0.073730468750, -0.252929687500, -0.050048828125, -256.000000000000, -28.671875000000, -28.085937500000, 1490863310
-0.006347656250, -0.002441406250, -0.063720703125, -256.000000000000, 130.460937500000, -8.710937500000, 1490863310
-0.006347656250, -0.002441406250, -0.063720703125, -256.000000000000, 130.460937500000, -8.710937500000, 1490863310
-0.006347656250, -0.002441406250, -0.063720703125, -256.000000000000, 130.460937500000, -8.710937500000, 1490863310
-0.006347656250, -0.002441406250, -0.063720703125, -256.000000000000, 130.460937500000, -8.710937500000, 1490863310
0.112060546875, 0.853271484375, 0.478027343750, -251.507812500000, 247.312500000000, -50.882812500000, 1490863310
0.112060546875, 0.853271484375, 0.478027343750, -251.507812500000, 247.312500000000, -50.882812500000, 1490863310
0.112060546875, 0.853271484375, 0.478027343750, -251.507812500000, 247.312500000000, -50.882812500000, 1490863310
2.421386718750, 4.787109375000, 1.014892578125, 48.906250000000, 246.320312500000, -256.000000000000, 1490863310
2.421386718750, 4.787109375000, 1.014892578125, 48.906250000000, 246.320312500000, -256.000000000000, 1490863310
2.421386718750, 4.787109375000, 1.014892578125, 48.906250000000, 246.320312500000, -256.000000000000, 1490863310
0.995605468750, 0.369873046875, 0.765380859375, 253.992187500000, -202.617187500000, 109.742187500000, 1490863310
0.995605468750, 0.369873046875, 0.765380859375, 253.992187500000, -202.617187500000, 109.742187500000, 1490863310
0.995605468750, 0.369873046875, 0.765380859375, 253.992187500000, -202.617187500000, 109.742187500000, 1490863310
0.001220703125, 0.218017578125, 0.322753906250, -43.000000000000, 210.843750000000, -65.101562500000, 1490863311
0.001220703125, 0.218017578125, 0.322753906250, -43.000000000000, 210.843750000000, -65.101562500000, 1490863311
0.001220703125, 0.218017578125, 0.322753906250, -43.000000000000, 210.843750000000, -65.101562500000, 1490863311
0.001220703125, 0.218017578125, 0.322753906250, -43.000000000000, 210.843750000000, -65.101562500000, 1490863311
0.055908203125, 0.030029296875, 0.155273437500, -16.453125000000, 253.992187500000, -58.671875000000, 1490863311
0.055908203125, 0.030029296875, 0.155273437500, -16.453125000000, 253.992187500000, -58.671875000000, 1490863311
0.055908203125, 0.030029296875, 0.155273437500, -16.453125000000, 253.992187500000, -58.671875000000, 1490863311
0.055908203125, 0.030029296875, 0.155273437500, -16.453125000000, 253.992187500000, -58.671875000000, 1490863311
-0.015869140625, -0.016357421875, 0.074218750000, 150.601562500000, 167.328125000000, -36.664062500000, 1490863311
-0.101318359375, 0.102539062500, 0.177734375000, 128.828125000000, 66.351562500000, -30.226562500000, 1490863311
-0.101318359375, 0.102539062500, 0.177734375000, 128.828125000000, 66.351562500000, -30.226562500000, 1490863311
-0.101318359375, 0.102539062500, 0.177734375000, 128.828125000000, 66.351562500000, -30.226562500000, 1490863311
-0.101318359375, 0.102539062500, 0.177734375000, 128.828125000000, 66.351562500000, -30.226562500000, 1490863311
0.105468750000, 0.388671875000, 1.844482421875, -120.007812500000, 56.679687500000, 19.671875000000, 1490863311
0.105468750000, 0.388671875000, 1.844482421875, -120.007812500000, 56.679687500000, 19.671875000000, 1490863311
0.105468750000, 0.388671875000, 1.844482421875, -120.007812500000, 56.679687500000, 19.671875000000, 1490863311
0.027099609375, 0.468017578125, 0.924072265625, 78.468750000000, -18.273437500000, 17.078125000000, 1490863311
0.027099609375, 0.468017578125, 0.924072265625, 78.468750000000, -18.273437500000, 17.078125000000, 1490863311
0.027099609375, 0.468017578125, 0.924072265625, 78.468750000000, -18.273437500000, 17.078125000000, 1490863311
0.027099609375, 0.468017578125, 0.924072265625, 78.468750000000, -18.273437500000, 17.078125000000, 1490863311
0.189697265625, -0.017333984375, 0.859863281250, 76.687500000000, -54.078125000000, 9.476562500000, 1490863311
0.189697265625, -0.017333984375, 0.859863281250, 76.687500000000, -54.078125000000, 9.476562500000, 1490863311
0.189697265625, -0.017333984375, 0.859863281250, 76.687500000000, -54.078125000000, 9.476562500000, 1490863311
0.189697265625, -0.017333984375, 0.859863281250, 76.687500000000, -54.078125000000, 9.476562500000, 1490863311
0.189697265625, -0.017333984375, 0.859863281250, 76.687500000000, -54.078125000000, 9.476562500000, 1490863311
-0.260253906250, -0.136230468750, 0.553466796875, -59.390625000000, -19.453125000000, 28.367187500000, 1490863311
-0.260253906250, -0.136230468750, 0.553466796875, -59.390625000000, -19.453125000000, 28.367187500000, 1490863311
-0.260253906250, -0.136230468750, 0.553466796875, -59.390625000000, -19.453125000000, 28.367187500000, 1490863311
-0.260253906250, -0.136230468750, 0.553466796875, -59.390625000000, -19.453125000000, 28.367187500000, 1490863311
-0.260253906250, -0.136230468750, 0.553466796875, -59.390625000000, -19.453125000000, 28.367187500000, 1490863311
0.081298828125, -0.189208984375, 0.437255859375, -56.351562500000, -57.312500000000, -30.523437500000, 1490863311
0.081298828125, -0.189208984375, 0.437255859375, -56.351562500000, -57.312500000000, -30.523437500000, 1490863311
-0.131835937500, 0.287353515625, 1.023193359375, 102.960937500000, 28.921875000000, -5.687500000000, 1490863311
-0.131835937500, 0.287353515625, 1.023193359375, 102.960937500000, 28.921875000000, -5.687500000000, 1490863311
-0.131835937500, 0.287353515625, 1.023193359375, 102.960937500000, 28.921875000000, -5.687500000000, 1490863311
-0.131835937500, 0.287353515625, 1.023193359375, 102.960937500000, 28.921875000000, -5.687500000000, 1490863311
0.247070312500, 0.297851562500, 1.302978515625, 7.000000000000, -52.851562500000, -7.882812500000, 1490863311
0.247070312500, 0.297851562500, 1.302978515625, 7.000000000000, -52.851562500000, -7.882812500000, 1490863311
0.247070312500, 0.297851562500, 1.302978515625, 7.000000000000, -52.851562500000, -7.882812500000, 1490863311
0.247070312500, 0.297851562500, 1.302978515625, 7.000000000000, -52.851562500000, -7.882812500000, 1490863311
0.247070312500, 0.297851562500, 1.302978515625, 7.000000000000, -52.851562500000, -7.882812500000, 1490863311
0.247070312500, 0.297851562500, 1.302978515625, 7.000000000000, -52.851562500000, -7.882812500000, 1490863311
0.221191406250, 0.224365234375, 0.790527343750, -30.890625000000, 12.093750000000, 1.679687500000, 1490863311
0.221191406250, 0.224365234375, 0.790527343750, -30.890625000000, 12.093750000000, 1.679687500000, 1490863311
0.221191406250, 0.224365234375, 0.790527343750, -30.890625000000, 12.093750000000, 1.679687500000, 1490863311
0.125732421875, 0.400146484375, 0.542724609375, -74.890625000000, 40.695312500000, -7.531250000000, 1490863311
0.125732421875, 0.400146484375, 0.542724609375, -74.890625000000, 40.695312500000, -7.531250000000, 1490863311
0.125732421875, 0.400146484375, 0.542724609375, -74.890625000000, 40.695312500000, -7.531250000000, 1490863311
0.125732421875, 0.400146484375, 0.542724609375, -74.890625000000, 40.695312500000, -7.531250000000, 1490863311
-0.000000000000, 0.453613281250, 0.767333984375, 5.117187500000, 13.781250000000, 21.062500000000, 1490863311
-0.000000000000, 0.453613281250, 0.767333984375, 5.117187500000, 13.781250000000, 21.062500000000, 1490863311
-0.000000000000, 0.453613281250, 0.767333984375, 5.117187500000, 13.781250000000, 21.062500000000, 1490863311
-0.041992187500, 0.245849609375, 1.175781250000, -44.296875000000, 5.164062500000, 3.875000000000, 1490863311
-0.041992187500, 0.245849609375, 1.175781250000, -44.296875000000, 5.164062500000, 3.875000000000, 1490863311
-0.041992187500, 0.245849609375, 1.175781250000, -44.296875000000, 5.164062500000, 3.875000000000, 1490863311
-0.041992187500, 0.245849609375, 1.175781250000, -44.296875000000, 5.164062500000, 3.875000000000, 1490863311
-0.067871093750, 0.060791015625, 1.252929687500, -26.125000000000, 21.539062500000, 12.625000000000, 1490863311
-0.067871093750, 0.060791015625, 1.252929687500, -26.125000000000, 21.539062500000, 12.625000000000, 1490863311
-0.067871093750, 0.060791015625, 1.252929687500, -26.125000000000, 21.539062500000, 12.625000000000, 1490863311
-0.194091796875, 0.061035156250, 1.040039062500, -8.398437500000, 12.359375000000, -4.148437500000, 1490863311
-0.194091796875, 0.061035156250, 1.040039062500, -8.398437500000, 12.359375000000, -4.148437500000, 1490863311
-0.194091796875, 0.061035156250, 1.040039062500, -8.398437500000, 12.359375000000, -4.148437500000, 1490863311
-0.130126953125, 0.051269531250, 0.808593750000, -1.289062500000, -9.562500000000, -7.335937500000, 1490863311
-0.130126953125, 0.051269531250, 0.808593750000, -1.289062500000, -9.562500000000, -7.335937500000, 1490863311
-0.130126953125, 0.051269531250, 0.808593750000, -1.289062500000, -9.562500000000, -7.335937500000, 1490863311
-0.006591796875, 0.195800781250, 0.869384765625, -11.718750000000, -40.757812500000, -14.601562500000, 1490863311
-0.006591796875, 0.195800781250, 0.869384765625, -11.718750000000, -40.757812500000, -14.601562500000, 1490863311
-0.006591796875, 0.195800781250, 0.869384765625, -11.718750000000, -40.757812500000, -14.601562500000, 1490863311
-0.006591796875, 0.195800781250, 0.869384765625, -11.718750000000, -40.757812500000, -14.601562500000, 1490863311
0.031982421875, 0.500244140625, 1.151367187500, -9.656250000000, -24.093750000000, -15.234375000000, 1490863311
0.031982421875, 0.500244140625, 1.151367187500, -9.656250000000, -24.093750000000, -15.234375000000, 1490863312
0.031982421875, 0.500244140625, 1.151367187500, -9.656250000000, -24.093750000000, -15.234375000000, 1490863312
0.130371093750, 0.518554687500, 1.098388671875, -6.812500000000, -3.898437500000, -11.484375000000, 1490863312
0.130371093750, 0.518554687500, 1.098388671875, -6.812500000000, -3.898437500000, -11.484375000000, 1490863312
0.046630859375, 0.469238281250, 1.029052734375, -2.562500000000, 5.210937500000, -8.914062500000, 1490863312
0.046630859375, 0.469238281250, 1.029052734375, -2.562500000000, 5.210937500000, -8.914062500000, 1490863312
0.046630859375, 0.469238281250, 1.029052734375, -2.562500000000, 5.210937500000, -8.914062500000, 1490863312
-0.006103515625, 0.334960937500, 0.919189453125, -15.851562500000, 5.359375000000, -3.015625000000, 1490863312
-0.006103515625, 0.334960937500, 0.919189453125, -15.851562500000, 5.359375000000, -3.015625000000, 1490863312
-0.006103515625, 0.334960937500, 0.919189453125, -15.851562500000, 5.359375000000, -3.015625000000, 1490863312
-0.006103515625, 0.334960937500, 0.919189453125, -15.851562500000, 5.359375000000, -3.015625000000, 1490863312
-0.006103515625, 0.334960937500, 0.919189453125, -15.851562500000, 5.359375000000, -3.015625000000, 1490863312
0.045410156250, 0.260986328125, 0.907470703125, -7.843750000000, -3.828125000000, -2.140625000000, 1490863312
0.045410156250, 0.260986328125, 0.907470703125, -7.843750000000, -3.828125000000, -2.140625000000, 1490863312
0.045410156250, 0.260986328125, 0.907470703125, -7.843750000000, -3.828125000000, -2.140625000000, 1490863312
-0.065185546875, 0.330078125000, 1.072753906250, -10.484375000000, -3.578125000000, -0.289062500000, 1490863312
-0.065185546875, 0.330078125000, 1.072753906250, -10.484375000000, -3.578125000000, -0.289062500000, 1490863312
-0.065185546875, 0.330078125000, 1.072753906250, -10.484375000000, -3.578125000000, -0.289062500000, 1490863312
0.067138671875, 0.271484375000, 1.049316406250, -12.226562500000, -2.335937500000, -4.796875000000, 1490863312
0.067138671875, 0.271484375000, 1.049316406250, -12.226562500000, -2.335937500000, -4.796875000000, 1490863312
0.047607421875, 0.233642578125, 0.982421875000, -6.710937500000, -1.554687500000, -5.828125000000, 1490863312
0.047607421875, 0.233642578125, 0.982421875000, -6.710937500000, -1.554687500000, -5.828125000000, 1490863312
0.047607421875, 0.233642578125, 0.982421875000, -6.710937500000, -1.554687500000, -5.828125000000, 1490863312
0.047607421875, 0.233642578125, 0.982421875000, -6.710937500000, -1.554687500000, -5.828125000000, 1490863312
0.047607421875, 0.233642578125, 0.982421875000, -6.710937500000, -1.554687500000, -5.828125000000, 1490863312
0.074707031250, 0.334716796875, 0.929687500000, -6.234375000000, -5.335937500000, -7.890625000000, 1490863312
0.074707031250, 0.334716796875, 0.929687500000, -6.234375000000, -5.335937500000, -7.890625000000, 1490863312
0.074707031250, 0.334716796875, 0.929687500000, -6.234375000000, -5.335937500000, -7.890625000000, 1490863312
-0.023681640625, 0.379638671875, 0.913085937500, -3.031250000000, 0.898437500000, -7.375000000000, 1490863312
-0.023681640625, 0.379638671875, 0.913085937500, -3.031250000000, 0.898437500000, -7.375000000000, 1490863312
-0.023681640625, 0.379638671875, 0.913085937500, -3.031250000000, 0.898437500000, -7.375000000000, 1490863312
0.117431640625, 0.404785156250, 1.005371093750, -1.265625000000, -4.234375000000, -8.101562500000, 1490863312
0.117431640625, 0.404785156250, 1.005371093750, -1.265625000000, -4.234375000000, -8.101562500000, 1490863312
0.036865234375, 0.249511718750, 1.011230468750, 2.351562500000, -1.703125000000, -6.773437500000, 1490863312
0.036865234375, 0.249511718750, 1.011230468750, 2.351562500000, -1.703125000000, -6.773437500000, 1490863312
0.036865234375, 0.249511718750, 1.011230468750, 2.351562500000, -1.703125000000, -6.773437500000, 1490863312
0.146728515625, 0.314697265625, 0.947753906250, -1.742187500000, 4.562500000000, -3.679687500000, 1490863312
0.146728515625, 0.314697265625, 0.947753906250, -1.742187500000, 4.562500000000, -3.679687500000, 1490863312
0.146728515625, 0.314697265625, 0.947753906250, -1.742187500000, 4.562500000000, -3.679687500000, 1490863312
0.146728515625, 0.314697265625, 0.947753906250, -1.742187500000, 4.562500000000, -3.679687500000, 1490863312
0.068115234375, 0.248535156250, 1.013183593750, -4.718750000000, 1.726562500000, -5.046875000000, 1490863312
0.135986328125, 0.235595703125, 0.983398437500, -6.125000000000, 4.679687500000, -3.992187500000, 1490863312
0.135986328125, 0.235595703125, 0.983398437500, -6.125000000000, 4.679687500000, -3.992187500000, 1490863312
0.135986328125, 0.235595703125, 0.983398437500, -6.125000000000, 4.679687500000, -3.992187500000, 1490863312
-0.005859375000, 0.239990234375, 0.979248046875, -1.890625000000, -4.015625000000, -4.804687500000, 1490863312
-0.005859375000, 0.239990234375, 0.979248046875, -1.890625000000, -4.015625000000, -4.804687500000, 1490863312
-0.005859375000, 0.239990234375, 0.979248046875, -1.890625000000, -4.015625000000, -4.804687500000, 1490863312
0.153076171875, 0.380126953125, 1.012451171875, 0.515625000000, -2.000000000000, -1.781250000000, 1490863312
0.153076171875, 0.380126953125, 1.012451171875, 0.515625000000, -2.000000000000, -1.781250000000, 1490863312
0.068847656250, 0.334716796875, 0.925048828125, -3.820312500000, -2.273437500000, -6.390625000000, 1490863312
0.068847656250, 0.334716796875, 0.925048828125, -3.820312500000, -2.273437500000, -6.390625000000, 1490863312
0.068847656250, 0.334716796875, 0.925048828125, -3.820312500000, -2.273437500000, -6.390625000000, 1490863312
0.068847656250, 0.334716796875, 0.925048828125, -3.820312500000, -2.273437500000, -6.390625000000, 1490863312
0.068847656250, 0.334716796875, 0.925048828125, -3.820312500000, -2.273437500000, -6.390625000000, 1490863312
0.053710937500, 0.401367187500, 1.015625000000, -2.429687500000, 2.867187500000, -8.078125000000, 1490863312
0.116943359375, 0.239013671875, 1.084716796875, -2.429687500000, 2.867187500000, -8.078125000000, 1490863312
0.116943359375, 0.239013671875, 1.084716796875, -2.429687500000, 2.867187500000, -8.078125000000, 1490863312
0.116943359375, 0.239013671875, 1.084716796875, -2.429687500000, 2.867187500000, -8.078125000000, 1490863312
0.116943359375, 0.239013671875, 1.084716796875, -2.429687500000, 2.867187500000, -8.078125000000, 1490863312
0.116943359375, 0.239013671875, 1.084716796875, -2.429687500000, 2.867187500000, -8.078125000000, 1490863312
0.047851562500, 0.305175781250, 0.874755859375, -3.851562500000, 0.304687500000, -4.039062500000, 1490863312
0.047851562500, 0.305175781250, 0.874755859375, -3.851562500000, 0.304687500000, -4.039062500000, 1490863312
0.047851562500, 0.305175781250, 0.874755859375, -3.851562500000, 0.304687500000, -4.039062500000, 1490863312
0.047851562500, 0.305175781250, 0.874755859375, -3.851562500000, 0.304687500000, -4.039062500000, 1490863312
0.058837890625, 0.375244140625, 1.026611328125, -5.132812500000, 0.070312500000, -6.117187500000, 1490863312
0.058837890625, 0.375244140625, 1.026611328125, -5.132812500000, 0.070312500000, -6.117187500000, 1490863312
-0.026611328125, 0.312500000000, 0.991210937500, -3.898437500000, -2.976562500000, -3.531250000000, 1490863313
-0.026611328125, 0.312500000000, 0.991210937500, -3.898437500000, -2.976562500000, -3.531250000000, 1490863313
-0.026611328125, 0.312500000000, 0.991210937500, -3.898437500000, -2.976562500000, -3.531250000000, 1490863313
-0.026611328125, 0.312500000000, 0.991210937500, -3.898437500000, -2.976562500000, -3.531250000000, 1490863313
0.082275390625, 0.291503906250, 0.926269531250, -6.914062500000, -0.265625000000, -4.781250000000, 1490863313
0.082275390625, 0.291503906250, 0.926269531250, -6.914062500000, -0.265625000000, -4.781250000000, 1490863313
0.082275390625, 0.291503906250, 0.926269531250, -6.914062500000, -0.265625000000, -4.781250000000, 1490863313
0.211425781250, 0.275878906250, 1.070800781250, -4.601562500000, -0.140625000000, -3.664062500000, 1490863313
0.211425781250, 0.275878906250, 1.070800781250, -4.601562500000, -0.140625000000, -3.664062500000, 1490863313
0.211425781250, 0.275878906250, 1.070800781250, -4.601562500000, -0.140625000000, -3.664062500000, 1490863313
-0.001953125000, 0.326416015625, 1.001464843750, -2.101562500000, -1.757812500000, -6.109375000000, 1490863313
-0.001953125000, 0.326416015625, 1.001464843750, -2.101562500000, -1.757812500000, -6.109375000000, 1490863313
-0.001953125000, 0.326416015625, 1.001464843750, -2.101562500000, -1.757812500000, -6.109375000000, 1490863313
-0.001953125000, 0.326416015625, 1.001464843750, -2.101562500000, -1.757812500000, -6.109375000000, 1490863313
-0.067382812500, 0.233398437500, 0.984130859375, -1.250000000000, -1.312500000000, -3.757812500000, 1490863313
-0.067382812500, 0.233398437500, 0.984130859375, -1.250000000000, -1.312500000000, -3.757812500000, 1490863313
-0.067382812500, 0.233398437500, 0.984130859375, -1.250000000000, -1.312500000000, -3.757812500000, 1490863313
0.136474609375, 0.249267578125, 0.966796875000, -5.609375000000, 0.164062500000, -6.757812500000, 1490863313
0.136474609375, 0.249267578125, 0.966796875000, -5.609375000000, 0.164062500000, -6.757812500000, 1490863313
0.136474609375, 0.249267578125, 0.966796875000, -5.609375000000, 0.164062500000, -6.757812500000, 1490863313
0.082519531250, 0.326660156250, 0.989257812500, -6.140625000000, 1.265625000000, -3.375000000000, 1490863313
0.082519531250, 0.326660156250, 0.989257812500, -6.140625000000, 1.265625000000, -3.375000000000, 1490863313
0.082519531250, 0.326660156250, 0.989257812500, -6.140625000000, 1.265625000000, -3.375000000000, 1490863313
0.082519531250, 0.326660156250, 0.989257812500, -6.140625000000, 1.265625000000, -3.375000000000, 1490863313
0.037353515625, 0.318847656250, 0.928955078125, -6.234375000000, -2.164062500000, -6.843750000000, 1490863313
0.037353515625, 0.318847656250, 0.928955078125, -6.234375000000, -2.164062500000, -6.843750000000, 1490863313
0.037353515625, 0.318847656250, 0.928955078125, -6.234375000000, -2.164062500000, -6.843750000000, 1490863313
0.143310546875, 0.308593750000, 0.993408203125, -6.289062500000, -2.304687500000, -6.226562500000, 1490863313
0.143310546875, 0.308593750000, 0.993408203125, -6.289062500000, -2.304687500000, -6.226562500000, 1490863313
0.143310546875, 0.308593750000, 0.993408203125, -6.289062500000, -2.304687500000, -6.226562500000, 1490863313
0.036376953125, 0.262451171875, 0.981689453125, -4.101562500000, -2.679687500000, -4.875000000000, 1490863313
0.036376953125, 0.262451171875, 0.981689453125, -4.101562500000, -2.679687500000, -4.875000000000, 1490863313
0.036376953125, 0.262451171875, 0.981689453125, -4.101562500000, -2.679687500000, -4.875000000000, 1490863313
0.036376953125, 0.262451171875, 0.981689453125, -4.101562500000, -2.679687500000, -4.875000000000, 1490863313
0.036376953125, 0.262451171875, 0.981689453125, -4.101562500000, -2.679687500000, -4.875000000000, 1490863313
0.036376953125, 0.262451171875, 0.981689453125, -4.101562500000, -2.679687500000, -4.875000000000, 1490863313
0.036376953125, 0.262451171875, 0.981689453125, -4.101562500000, -2.679687500000, -4.875000000000, 1490863313
0.142089843750, 0.309570312500, 1.008544921875, -1.828125000000, 0.015625000000, -4.703125000000, 1490863313
0.142089843750, 0.309570312500, 1.008544921875, -1.828125000000, 0.015625000000, -4.703125000000, 1490863313
0.142089843750, 0.309570312500, 1.008544921875, -1.828125000000, 0.015625000000, -4.703125000000, 1490863313
0.142089843750, 0.309570312500, 1.008544921875, -1.828125000000, 0.015625000000, -4.703125000000, 1490863313
0.133544921875, 0.283691406250, 0.981445312500, -3.109375000000, 1.710937500000, -6.609375000000, 1490863313
0.133544921875, 0.283691406250, 0.981445312500, -3.109375000000, 1.710937500000, -6.609375000000, 1490863313
0.133544921875, 0.283691406250, 0.981445312500, -3.109375000000, 1.710937500000, -6.609375000000, 1490863313
0.133544921875, 0.283691406250, 0.981445312500, -3.109375000000, 1.710937500000, -6.609375000000, 1490863313
0.144775390625, 0.225830078125, 0.995605468750, -6.656250000000, -0.835937500000, -3.343750000000, 1490863313
0.144775390625, 0.225830078125, 0.995605468750, -6.656250000000, -0.835937500000, -3.343750000000, 1490863313
0.144775390625, 0.225830078125, 0.995605468750, -6.656250000000, -0.835937500000, -3.343750000000, 1490863313
0.144775390625, 0.225830078125, 0.995605468750, -6.656250000000, -0.835937500000, -3.343750000000, 1490863313
0.144775390625, 0.225830078125, 0.995605468750, -6.656250000000, -0.835937500000, -3.343750000000, 1490863313
-0.013916015625, 0.281250000000, 0.925537109375, -5.257812500000, 2.187500000000, -6.203125000000, 1490863313
0.079589843750, 0.311767578125, 1.018554687500, -6.648437500000, -2.570312500000, -6.710937500000, 1490863313
0.079589843750, 0.311767578125, 1.018554687500, -6.648437500000, -2.570312500000, -6.710937500000, 1490863313
0.142578125000, 0.218994140625, 0.926513671875, -6.921875000000, 2.500000000000, -6.343750000000, 1490863313
0.142578125000, 0.218994140625, 0.926513671875, -6.921875000000, 2.500000000000, -6.343750000000, 1490863313
0.031982421875, 0.232666015625, 1.003173828125, -1.757812500000, -0.664062500000, -3.937500000000, 1490863313
0.031982421875, 0.232666015625, 1.003173828125, -1.757812500000, -0.664062500000, -3.937500000000, 1490863313
0.031982421875, 0.232666015625, 1.003173828125, -1.757812500000, -0.664062500000, -3.937500000000, 1490863313
0.031982421875, 0.232666015625, 1.003173828125, -1.757812500000, -0.664062500000, -3.937500000000, 1490863313
-0.005859375000, 0.318359375000, 0.928710937500, -4.515625000000, -2.507812500000, -3.351562500000, 1490863313
0.050781250000, 0.305419921875, 0.972412109375, -4.500000000000, -0.609375000000, -4.820312500000, 1490863313
0.050781250000, 0.305419921875, 0.972412109375, -4.500000000000, -0.609375000000, -4.820312500000, 1490863313
0.050781250000, 0.305419921875, 0.972412109375, -4.500000000000, -0.609375000000, -4.820312500000, 1490863313
0.035156250000, 0.439453125000, 0.969970703125, -1.570312500000, -2.546875000000, -3.109375000000, 1490863314
0.035156250000, 0.439453125000, 0.969970703125, -1.570312500000, -2.546875000000, -3.109375000000, 1490863314
0.035156250000, 0.439453125000, 0.969970703125, -1.570312500000, -2.546875000000, -3.109375000000, 1490863314
0.035156250000, 0.439453125000, 0.969970703125, -1.570312500000, -2.546875000000, -3.109375000000, 1490863314
0.031250000000, 0.320068359375, 1.029296875000, -6.968750000000, -0.382812500000, -3.828125000000, 1490863314
0.031250000000, 0.320068359375, 1.029296875000, -6.968750000000, -0.382812500000, -3.828125000000, 1490863314
0.031250000000, 0.320068359375, 1.029296875000, -6.968750000000, -0.382812500000, -3.828125000000, 1490863314
0.031250000000, 0.320068359375, 1.029296875000, -6.968750000000, -0.382812500000, -3.828125000000, 1490863314
0.067138671875, 0.244628906250, 1.015380859375, -3.851562500000, 2.546875000000, -4.804687500000, 1490863314
0.067138671875, 0.244628906250, 1.015380859375, -3.851562500000, 2.546875000000, -4.804687500000, 1490863314
0.080566406250, 0.226074218750, 0.971435546875, -6.171875000000, 0.140625000000, -3.968750000000, 1490863314
0.080566406250, 0.226074218750, 0.971435546875, -6.171875000000, 0.140625000000, -3.968750000000, 1490863314
0.080566406250, 0.226074218750, 0.971435546875, -6.171875000000, 0.140625000000, -3.968750000000, 1490863314
0.080566406250, 0.226074218750, 0.971435546875, -6.171875000000, 0.140625000000, -3.968750000000, 1490863314
0.080566406250, 0.226074218750, 0.971435546875, -6.171875000000, 0.140625000000, -3.968750000000, 1490863314
0.090087890625, 0.285156250000, 0.979248046875, -4.773437500000, -2.257812500000, -3.515625000000, 1490863314
0.090087890625, 0.285156250000, 0.979248046875, -4.773437500000, -2.257812500000, -3.515625000000, 1490863314
0.090087890625, 0.285156250000, 0.979248046875, -4.773437500000, -2.257812500000, -3.515625000000, 1490863314
0.090087890625, 0.285156250000, 0.979248046875, -4.773437500000, -2.257812500000, -3.515625000000, 1490863314
0.051269531250, 0.353515625000, 1.079101562500, -5.000000000000, -2.781250000000, -3.742187500000, 1490863314
0.051269531250, 0.353515625000, 1.079101562500, -5.000000000000, -2.781250000000, -3.742187500000, 1490863314
0.051269531250, 0.353515625000, 1.079101562500, -5.000000000000, -2.781250000000, -3.742187500000, 1490863314
0.127441406250, 0.286132812500, 0.909667968750, -1.500000000000, 1.078125000000, -4.687500000000, 1490863314
0.127441406250, 0.286132812500, 0.909667968750, -1.500000000000, 1.078125000000, -4.687500000000, 1490863314
0.043945312500, 0.259033203125, 0.931640625000, -6.640625000000, 0.632812500000, -3.242187500000, 1490863314
0.046875000000, 0.391357421875, 0.922363281250, -4.203125000000, -0.914062500000, -3.929687500000, 1490863314
0.046875000000, 0.391357421875, 0.922363281250, -4.203125000000, -0.914062500000, -3.929687500000, 1490863314
0.065429687500, 0.320068359375, 0.934326171875, -4.648437500000, 0.859375000000, -4.367187500000, 1490863314
0.065429687500, 0.320068359375, 0.934326171875, -4.648437500000, 0.859375000000, -4.367187500000, 1490863314
0.065429687500, 0.320068359375, 0.934326171875, -4.648437500000, 0.859375000000, -4.367187500000, 1490863314
0.065429687500, 0.320068359375, 0.934326171875, -4.648437500000, 0.859375000000, -4.367187500000, 1490863314
0.065429687500, 0.320068359375, 0.934326171875, -4.648437500000, 0.859375000000, -4.367187500000, 1490863314
0.083496093750, 0.222656250000, 1.088623046875, -2.390625000000, 0.093750000000, -6.070312500000, 1490863314
0.054443359375, 0.320312500000, 0.942138671875, -6.164062500000, 3.476562500000, -3.703125000000, 1490863314
0.054443359375, 0.320312500000, 0.942138671875, -6.164062500000, 3.476562500000, -3.703125000000, 1490863314
0.054443359375, 0.320312500000, 0.942138671875, -6.164062500000, 3.476562500000, -3.703125000000, 1490863314
0.051757812500, 0.376220703125, 1.022705078125, -6.921875000000, -4.664062500000, -6.734375000000, 1490863314
0.051757812500, 0.376220703125, 1.022705078125, -6.921875000000, -4.664062500000, -6.734375000000, 1490863314
0.051757812500, 0.376220703125, 1.022705078125, -6.921875000000, -4.664062500000, -6.734375000000, 1490863314
0.051757812500, 0.376220703125, 1.022705078125, -6.921875000000, -4.664062500000, -6.734375000000, 1490863314
0.051757812500, 0.376220703125, 1.022705078125, -6.921875000000, -4.664062500000, -6.734375000000, 1490863314
0.039306640625, 0.252441406250, 1.018554687500, -6.265625000000, -3.000000000000, -8.343750000000, 1490863314
0.039306640625, 0.252441406250, 1.018554687500, -6.265625000000, -3.000000000000, -8.343750000000, 1490863314
0.039306640625, 0.252441406250, 1.018554687500, -6.265625000000, -3.000000000000, -8.343750000000, 1490863314
0.039306640625, 0.252441406250, 1.018554687500, -6.265625000000, -3.000000000000, -8.343750000000, 1490863314
0.092285156250, 0.383056640625, 0.909667968750, -6.007812500000, -1.265625000000, -6.289062500000, 1490863314
0.092285156250, 0.383056640625, 0.909667968750, -6.007812500000, -1.265625000000, -6.289062500000, 1490863314
0.092285156250, 0.383056640625, 0.909667968750, -6.007812500000, -1.265625000000, -6.289062500000, 1490863314
0.032714843750, 0.309082031250, 1.007324218750, -4.726562500000, 0.593750000000, -3.492187500000, 1490863314
0.032714843750, 0.309082031250, 1.007324218750, -4.726562500000, 0.593750000000, -3.492187500000, 1490863314
0.032714843750, 0.309082031250, 1.007324218750, -4.726562500000, 0.593750000000, -3.492187500000, 1490863314
0.032714843750, 0.309082031250, 1.007324218750, -4.726562500000, 0.593750000000, -3.492187500000, 1490863314
0.141357421875, 0.335693359375, 1.025878906250, -6.156250000000, 0.757812500000, -6.109375000000, 1490863314
0.141357421875, 0.335693359375, 1.025878906250, -6.156250000000, 0.757812500000, -6.109375000000, 1490863314
0.141357421875, 0.335693359375, 1.025878906250, -6.156250000000, 0.757812500000, -6.109375000000, 1490863314
0.072509765625, 0.341552734375, 0.907226562500, -5.078125000000, 1.359375000000, -4.593750000000, 1490863314
0.072509765625, 0.341552734375, 0.907226562500, -5.078125000000, 1.359375000000, -4.593750000000, 1490863314
0.072509765625, 0.341552734375, 0.907226562500, -5.078125000000, 1.359375000000, -4.593750000000, 1490863314
0.136230468750, 0.278320312500, 1.019042968750, -3.656250000000, -0.031250000000, -5.593750000000, 1490863314
0.136230468750, 0.278320312500, 1.019042968750, -3.656250000000, -0.031250000000, -5.593750000000, 1490863314
0.136230468750, 0.278320312500, 1.019042968750, -3.656250000000, -0.031250000000, -5.593750000000, 1490863314
0.136474609375, 0.244873046875, 1.015625000000, -8.906250000000, 4.671875000000, -4.414062500000, 1490863314
0.136474609375, 0.244873046875, 1.015625000000, -8.906250000000, 4.671875000000, -4.414062500000, 1490863314
0.136474609375, 0.244873046875, 1.015625000000, -8.906250000000, 4.671875000000, -4.414062500000, 1490863314
0.136474609375, 0.244873046875, 1.015625000000, -8.906250000000, 4.671875000000, -4.414062500000, 1490863314
0.066406250000, 0.291259765625, 0.994140625000, -8.140625000000, 2.375000000000, -3.132812500000, 1490863314
0.066406250000, 0.291259765625, 0.994140625000, -8.140625000000, 2.375000000000, -3.132812500000, 1490863314
0.066406250000, 0.291259765625, 0.994140625000, -8.140625000000, 2.375000000000, -3.132812500000, 1490863314
-0.027587890625, 0.316650390625, 1.010498046875, -3.906250000000, 0.195312500000, -6.195312500000, 1490863314
-0.027587890625, 0.316650390625, 1.010498046875, -3.906250000000, 0.195312500000, -6.195312500000, 1490863314
0.126464843750, 0.396972656250, 0.922607421875, -4.726562500000, -1.226562500000, -4.351562500000, 1490863315
0.126464843750, 0.396972656250, 0.922607421875, -4.726562500000, -1.226562500000, -4.351562500000, 1490863315
0.126464843750, 0.396972656250, 0.922607421875, -4.726562500000, -1.226562500000, -4.351562500000, 1490863315
0.070312500000, 0.279052734375, 1.005615234375, -3.640625000000, 0.617187500000, -4.421875000000, 1490863315
0.070312500000, 0.279052734375, 1.005615234375, -3.640625000000, 0.617187500000, -4.421875000000, 1490863315
0.070312500000, 0.279052734375, 1.005615234375, -3.640625000000, 0.617187500000, -4.421875000000, 1490863315
0.070312500000, 0.279052734375, 1.005615234375, -3.640625000000, 0.617187500000, -4.421875000000, 1490863315
0.070312500000, 0.279052734375, 1.005615234375, -3.640625000000, 0.617187500000, -4.421875000000, 1490863315
0.032714843750, 0.239501953125, 1.068115234375, -3.921875000000, 0.742187500000, -3.789062500000, 1490863315
0.032714843750, 0.239501953125, 1.068115234375, -3.921875000000, 0.742187500000, -3.789062500000, 1490863315
0.032714843750, 0.239501953125, 1.068115234375, -3.921875000000, 0.742187500000, -3.789062500000, 1490863315
-0.007324218750, 0.230957031250, 0.961181640625, -7.000000000000, -0.125000000000, -3.984375000000, 1490863315
-0.007324218750, 0.230957031250, 0.961181640625, -7.000000000000, -0.125000000000, -3.984375000000, 1490863315
0.092041015625, 0.375244140625, 1.011230468750, -1.929687500000, -0.195312500000, -3.039062500000, 1490863315
0.084716796875, 0.308349609375, 0.962402343750, -6.148437500000, 5.289062500000, -5.781250000000, 1490863315
0.061523437500, 0.299560546875, 1.021972656250, -1.312500000000, 4.125000000000, -4.414062500000, 1490863315
0.061523437500, 0.299560546875, 1.021972656250, -1.312500000000, 4.125000000000, -4.414062500000, 1490863315
-0.005615234375, 0.329589843750, 0.983886718750, -6.617187500000, -0.203125000000, -6.210937500000, 1490863315
0.129394531250, 0.312255859375, 1.008300781250, -6.617187500000, -0.203125000000, -6.210937500000, 1490863315
0.129394531250, 0.312255859375, 1.008300781250, -6.617187500000, -0.203125000000, -6.210937500000, 1490863315
0.129394531250, 0.312255859375, 1.008300781250, -6.617187500000, -0.203125000000, -6.210937500000, 1490863315
0.129394531250, 0.312255859375, 1.008300781250, -6.617187500000, -0.203125000000, -6.210937500000, 1490863315
0.045166015625, 0.345458984375, 1.013916015625, -1.382812500000, -4.203125000000, -6.117187500000, 1490863315
0.045166015625, 0.345458984375, 1.013916015625, -1.382812500000, -4.203125000000, -6.117187500000, 1490863315
0.045166015625, 0.345458984375, 1.013916015625, -1.382812500000, -4.203125000000, -6.117187500000, 1490863315
0.036132812500, 0.338134765625, 1.013916015625, -3.937500000000, 0.460937500000, -6.015625000000, 1490863315
0.036132812500, 0.338134765625, 1.013916015625, -3.937500000000, 0.460937500000, -6.015625000000, 1490863315
0.036132812500, 0.338134765625, 1.013916015625, -3.937500000000, 0.460937500000, -6.015625000000, 1490863315
0.036132812500, 0.338134765625, 1.013916015625, -3.937500000000, 0.460937500000, -6.015625000000, 1490863315
0.036132812500, 0.338134765625, 1.013916015625, -3.937500000000, 0.460937500000, -6.015625000000, 1490863315
0.131103515625, 0.326171875000, 1.003173828125, -1.734375000000, 0.179687500000, -1.960937500000, 1490863315
0.131103515625, 0.326171875000, 1.003173828125, -1.734375000000, 0.179687500000, -1.960937500000, 1490863315
0.131103515625, 0.326171875000, 1.003173828125, -1.734375000000, 0.179687500000, -1.960937500000, 1490863315
-0.029785156250, 0.332763671875, 1.019775390625, -4.539062500000, 0.796875000000, -4.367187500000, 1490863315
-0.029785156250, 0.332763671875, 1.019775390625, -4.539062500000, 0.796875000000, -4.367187500000, 1490863315
-0.029785156250, 0.332763671875, 1.019775390625, -4.539062500000, 0.796875000000, -4.367187500000, 1490863315
-0.029785156250, 0.332763671875, 1.019775390625, -4.539062500000, 0.796875000000, -4.367187500000, 1490863315
-0.029052734375, 0.379638671875, 0.912353515625, -4.515625000000, 2.289062500000, -3.492187500000, 1490863315
-0.029052734375, 0.379638671875, 0.912353515625, -4.515625000000, 2.289062500000, -3.492187500000, 1490863315
