ACC_X,ACC_Y,ACC_Z,G_X,G_Y,G_Z,Unix Time
-0.094726562500, -0.908935546875, 0.266357421875, -6.929687500000, -0.203125000000, -2.781250000000, 1490863781
-0.094726562500, -0.908935546875, 0.266357421875, -6.929687500000, -0.203125000000, -2.781250000000, 1490863781
-0.094726562500, -0.908935546875, 0.266357421875, -6.929687500000, -0.203125000000, -2.781250000000, 1490863781
-0.094726562500, -0.908935546875, 0.266357421875, -6.929687500000, -0.203125000000, -2.781250000000, 1490863781
-0.094726562500, -0.908935546875, 0.266357421875, -6.929687500000, -0.203125000000, -2.781250000000, 1490863781
-0.094726562500, -0.908935546875, 0.266357421875, -6.929687500000, -0.203125000000, -2.781250000000, 1490863781
-0.121337890625, -0.921142578125, 0.124755859375, -1.375000000000, -2.781250000000, -5.304687500000, 1490863781
-0.114257812500, -0.930664062500, 0.280029296875, 0.468750000000, -2.445312500000, -3.914062500000, 1490863781
-0.114257812500, -0.930664062500, 0.280029296875, 0.468750000000, -2.445312500000, -3.914062500000, 1490863781
-0.114257812500, -0.930664062500, 0.280029296875, 0.468750000000, -2.445312500000, -3.914062500000, 1490863781
-0.114257812500, -0.930664062500, 0.280029296875, 0.468750000000, -2.445312500000, -3.914062500000, 1490863781
-0.114257812500, -0.930664062500, 0.280029296875, 0.468750000000, -2.445312500000, -3.914062500000, 1490863781
-0.073730468750, -0.986083984375, 0.250976562500, -0.429687500000, -3.281250000000, -10.718750000000, 1490863781
-0.073730468750, -0.986083984375, 0.250976562500, -0.429687500000, -3.281250000000, -10.718750000000, 1490863781
-0.073730468750, -0.986083984375, 0.250976562500, -0.429687500000, -3.281250000000, -10.718750000000, 1490863781
-0.073730468750, -0.986083984375, 0.250976562500, -0.429687500000, -3.281250000000, -10.718750000000, 1490863781
-0.073730468750, -0.986083984375, 0.250976562500, -0.429687500000, -3.281250000000, -10.718750000000, 1490863781
-0.073730468750, -0.986083984375, 0.250976562500, -0.429687500000, -3.281250000000, -10.718750000000, 1490863781
-0.073730468750, -0.986083984375, 0.250976562500, -0.429687500000, -3.281250000000, -10.718750000000, 1490863781
-0.043701171875, -0.962158203125, 0.177246093750, -8.171875000000, -0.546875000000, -12.023437500000, 1490863781
-0.043701171875, -0.962158203125, 0.177246093750, -8.171875000000, -0.546875000000, -12.023437500000, 1490863781
-0.043701171875, -0.962158203125, 0.177246093750, -8.171875000000, -0.546875000000, -12.023437500000, 1490863781
-0.116699218750, -0.911132812500, 0.238281250000, -6.046875000000, 4.671875000000, -10.750000000000, 1490863781
-0.041503906250, -1.010986328125, 0.213134765625, -6.054687500000, 2.382812500000, -12.351562500000, 1490863781
-0.041503906250, -1.010986328125, 0.213134765625, -6.054687500000, 2.382812500000, -12.351562500000, 1490863781
-0.041503906250, -1.010986328125, 0.213134765625, -6.054687500000, 2.382812500000, -12.351562500000, 1490863781
-0.041503906250, -1.010986328125, 0.213134765625, -6.054687500000, 2.382812500000, -12.351562500000, 1490863781
-0.041503906250, -1.010986328125, 0.213134765625, -6.054687500000, 2.382812500000, -12.351562500000, 1490863781
-0.041503906250, -1.010986328125, 0.213134765625, -6.054687500000, 2.382812500000, -12.351562500000, 1490863781
-0.146240234375, -0.984375000000, 0.256103515625, -3.476562500000, -3.312500000000, -8.179687500000, 1490863781
-0.146240234375, -0.984375000000, 0.256103515625, -3.476562500000, -3.312500000000, -8.179687500000, 1490863781
-0.146240234375, -0.984375000000, 0.256103515625, -3.476562500000, -3.312500000000, -8.179687500000, 1490863781
-0.146240234375, -0.984375000000, 0.256103515625, -3.476562500000, -3.312500000000, -8.179687500000, 1490863781
-0.146240234375, -0.984375000000, 0.256103515625, -3.476562500000, -3.312500000000, -8.179687500000, 1490863781
-0.072753906250, -0.978027343750, 0.179443359375, -3.992187500000, -3.804687500000, -5.382812500000, 1490863781
-0.072753906250, -0.978027343750, 0.179443359375, -3.992187500000, -3.804687500000, -5.382812500000, 1490863781
-0.072753906250, -0.978027343750, 0.179443359375, -3.992187500000, -3.804687500000, -5.382812500000, 1490863781
-0.072753906250, -0.978027343750, 0.179443359375, -3.992187500000, -3.804687500000, -5.382812500000, 1490863781
-0.072753906250, -0.978027343750, 0.179443359375, -3.992187500000, -3.804687500000, -5.382812500000, 1490863781
-0.109375000000, -0.914306640625, 0.177978515625, -4.937500000000, -3.953125000000, -5.515625000000, 1490863781
-0.109375000000, -0.914306640625, 0.177978515625, -4.937500000000, -3.953125000000, -5.515625000000, 1490863781
-0.109375000000, -0.914306640625, 0.177978515625, -4.937500000000, -3.953125000000, -5.515625000000, 1490863781
-0.109375000000, -0.914306640625, 0.177978515625, -4.937500000000, -3.953125000000, -5.515625000000, 1490863781
-0.109375000000, -0.914306640625, 0.177978515625, -4.937500000000, -3.953125000000, -5.515625000000, 1490863781
-0.054687500000, -0.990478515625, 0.228759765625, -6.578125000000, -4.851562500000, -3.578125000000, 1490863781
-0.054687500000, -0.990478515625, 0.228759765625, -6.578125000000, -4.851562500000, -3.578125000000, 1490863781
-0.054687500000, -0.990478515625, 0.228759765625, -6.578125000000, -4.851562500000, -3.578125000000, 1490863781
-0.054687500000, -0.990478515625, 0.228759765625, -6.578125000000, -4.851562500000, -3.578125000000, 1490863781
-0.217285156250, -1.012695312500, 0.178222656250, -6.078125000000, -2.710937500000, -4.007812500000, 1490863781
-0.217285156250, -1.012695312500, 0.178222656250, -6.078125000000, -2.710937500000, -4.007812500000, 1490863781
-0.217285156250, -1.012695312500, 0.178222656250, -6.078125000000, -2.710937500000, -4.007812500000, 1490863781
-0.217285156250, -1.012695312500, 0.178222656250, -6.078125000000, -2.710937500000, -4.007812500000, 1490863781
-0.217285156250, -1.012695312500, 0.178222656250, -6.078125000000, -2.710937500000, -4.007812500000, 1490863781
-0.217285156250, -1.012695312500, 0.178222656250, -6.078125000000, -2.710937500000, -4.007812500000, 1490863781
-0.217285156250, -1.012695312500, 0.178222656250, -6.078125000000, -2.710937500000, -4.007812500000, 1490863781
-0.197753906250, -0.866943359375, 0.160400390625, -3.687500000000, -2.093750000000, -1.671875000000, 1490863781
-0.197753906250, -0.866943359375, 0.160400390625, -3.687500000000, -2.093750000000, -1.671875000000, 1490863781
-0.197753906250, -0.866943359375, 0.160400390625, -3.687500000000, -2.093750000000, -1.671875000000, 1490863781
-0.107910156250, -0.959228515625, 0.259521484375, -4.703125000000, -0.820312500000, -4.523437500000, 1490863781
-0.127441406250, -0.976318359375, 0.177490234375, -3.140625000000, 2.000000000000, -4.757812500000, 1490863781
-0.127441406250, -0.976318359375, 0.177490234375, -3.140625000000, 2.000000000000, -4.757812500000, 1490863781
-0.192138671875, -0.920898437500, 0.230468750000, -4.070312500000, 1.609375000000, -1.750000000000, 1490863781
-0.192138671875, -0.920898437500, 0.230468750000, -4.070312500000, 1.609375000000, -1.750000000000, 1490863781
-0.192138671875, -0.920898437500, 0.230468750000, -4.070312500000, 1.609375000000, -1.750000000000, 1490863781
-0.192138671875, -0.920898437500, 0.230468750000, -4.070312500000, 1.609375000000, -1.750000000000, 1490863781
-0.192138671875, -0.920898437500, 0.230468750000, -4.070312500000, 1.609375000000, -1.750000000000, 1490863781
-0.143798828125, -0.916259765625, 0.194824218750, -5.187500000000, 6.140625000000, -1.500000000000, 1490863781
-0.143798828125, -0.916259765625, 0.194824218750, -5.187500000000, 6.140625000000, -1.500000000000, 1490863781
-0.143798828125, -0.916259765625, 0.194824218750, -5.187500000000, 6.140625000000, -1.500000000000, 1490863781
-0.143798828125, -0.916259765625, 0.194824218750, -5.187500000000, 6.140625000000, -1.500000000000, 1490863781
-0.194091796875, -1.031250000000, 0.177490234375, -6.640625000000, 1.945312500000, -4.546875000000, 1490863781
-0.194091796875, -1.031250000000, 0.177490234375, -6.640625000000, 1.945312500000, -4.546875000000, 1490863782
-0.194091796875, -1.031250000000, 0.177490234375, -6.640625000000, 1.945312500000, -4.546875000000, 1490863782
-0.194091796875, -1.031250000000, 0.177490234375, -6.640625000000, 1.945312500000, -4.546875000000, 1490863782
-0.055419921875, -1.073486328125, 0.253906250000, -3.820312500000, -0.375000000000, -6.523437500000, 1490863782
-0.055419921875, -1.073486328125, 0.253906250000, -3.820312500000, -0.375000000000, -6.523437500000, 1490863782
-0.055419921875, -1.073486328125, 0.253906250000, -3.820312500000, -0.375000000000, -6.523437500000, 1490863782
-0.055419921875, -1.073486328125, 0.253906250000, -3.820312500000, -0.375000000000, -6.523437500000, 1490863782
-0.053955078125, -0.934082031250, 0.172607421875, -1.781250000000, 2.250000000000, -1.851562500000, 1490863782
-0.053955078125, -0.934082031250, 0.172607421875, -1.781250000000, 2.250000000000, -1.851562500000, 1490863782
-0.053955078125, -0.934082031250, 0.172607421875, -1.781250000000, 2.250000000000, -1.851562500000, 1490863782
-0.053955078125, -0.934082031250, 0.172607421875, -1.781250000000, 2.250000000000, -1.851562500000, 1490863782
-0.034912109375, -1.020263671875, 0.217529296875, -2.476562500000, -0.179687500000, -1.148437500000, 1490863782
-0.034912109375, -1.020263671875, 0.217529296875, -2.476562500000, -0.179687500000, -1.148437500000, 1490863782
-0.034912109375, -1.020263671875, 0.217529296875, -2.476562500000, -0.179687500000, -1.148437500000, 1490863782
-0.130126953125, -0.989501953125, 0.277832031250, -3.375000000000, -3.210937500000, -2.234375000000, 1490863782
-0.130126953125, -0.989501953125, 0.277832031250, -3.375000000000, -3.210937500000, -2.234375000000, 1490863782
-0.130126953125, -0.989501953125, 0.277832031250, -3.375000000000, -3.210937500000, -2.234375000000, 1490863782
-0.130126953125, -0.989501953125, 0.277832031250, -3.375000000000, -3.210937500000, -2.234375000000, 1490863782
-0.130126953125, -0.989501953125, 0.277832031250, -3.375000000000, -3.210937500000, -2.234375000000, 1490863782
-0.064697265625, -1.012451171875, 0.255126953125, -8.062500000000, -4.726562500000, -2.828125000000, 1490863782
-0.064697265625, -1.012451171875, 0.255126953125, -8.062500000000, -4.726562500000, -2.828125000000, 1490863782
-0.064697265625, -1.012451171875, 0.255126953125, -8.062500000000, -4.726562500000, -2.828125000000, 1490863782
-0.064697265625, -1.012451171875, 0.255126953125, -8.062500000000, -4.726562500000, -2.828125000000, 1490863782
-0.101562500000, -1.014160156250, 0.230712890625, -3.828125000000, -4.328125000000, -1.476562500000, 1490863782
-0.101562500000, -1.014160156250, 0.230712890625, -3.828125000000, -4.328125000000, -1.476562500000, 1490863782
-0.101562500000, -1.014160156250, 0.230712890625, -3.828125000000, -4.328125000000, -1.476562500000, 1490863782
-0.086914062500, -0.951660156250, 0.266357421875, -7.937500000000, 0.578125000000, -1.710937500000, 1490863782
-0.086914062500, -0.951660156250, 0.266357421875, -7.937500000000, 0.578125000000, -1.710937500000, 1490863782
-0.086914062500, -0.951660156250, 0.266357421875, -7.937500000000, 0.578125000000, -1.710937500000, 1490863782
-0.086914062500, -0.951660156250, 0.266357421875, -7.937500000000, 0.578125000000, -1.710937500000, 1490863782
-0.032226562500, -1.068603515625, 0.226318359375, -1.031250000000, 2.320312500000, -3.281250000000, 1490863782
-0.032226562500, -1.068603515625, 0.226318359375, -1.031250000000, 2.320312500000, -3.281250000000, 1490863782
-0.032226562500, -1.068603515625, 0.226318359375, -1.031250000000, 2.320312500000, -3.281250000000, 1490863782
-0.032226562500, -1.068603515625, 0.226318359375, -1.031250000000, 2.320312500000, -3.281250000000, 1490863782
-0.032226562500, -1.068603515625, 0.226318359375, -1.031250000000, 2.320312500000, -3.281250000000, 1490863782
-0.163818359375, -0.923828125000, 0.224121093750, -3.804687500000, 2.484375000000, -3.648437500000, 1490863782
-0.163818359375, -0.923828125000, 0.224121093750, -3.804687500000, 2.484375000000, -3.648437500000, 1490863782
-0.163818359375, -0.923828125000, 0.224121093750, -3.804687500000, 2.484375000000, -3.648437500000, 1490863782
-0.163818359375, -0.923828125000, 0.224121093750, -3.804687500000, 2.484375000000, -3.648437500000, 1490863782
-0.211914062500, -1.027099609375, 0.220703125000, -4.320312500000, -0.382812500000, -4.679687500000, 1490863782
-0.211914062500, -1.027099609375, 0.220703125000, -4.320312500000, -0.382812500000, -4.679687500000, 1490863782
-0.211914062500, -1.027099609375, 0.220703125000, -4.320312500000, -0.382812500000, -4.679687500000, 1490863782
-0.211914062500, -1.027099609375, 0.220703125000, -4.320312500000, -0.382812500000, -4.679687500000, 1490863782
-0.211914062500, -1.027099609375, 0.220703125000, -4.320312500000, -0.382812500000, -4.679687500000, 1490863782
-0.039550781250, -0.920654296875, 0.258056640625, -1.765625000000, -0.015625000000, -4.164062500000, 1490863782
-0.039550781250, -0.920654296875, 0.258056640625, -1.765625000000, -0.015625000000, -4.164062500000, 1490863782
-0.039550781250, -0.920654296875, 0.258056640625, -1.765625000000, -0.015625000000, -4.164062500000, 1490863782
-0.039550781250, -0.920654296875, 0.258056640625, -1.765625000000, -0.015625000000, -4.164062500000, 1490863782
-0.039550781250, -0.920654296875, 0.258056640625, -1.765625000000, -0.015625000000, -4.164062500000, 1490863782
-0.114501953125, -0.925781250000, 0.210693359375, -3.734375000000, 1.867187500000, -1.382812500000, 1490863782
-0.114501953125, -0.925781250000, 0.210693359375, -3.734375000000, 1.867187500000, -1.382812500000, 1490863782
-0.203857421875, -1.021728515625, 0.179199218750, -3.226562500000, 1.820312500000, -4.859375000000, 1490863782
-0.101318359375, -1.067382812500, 0.159423828125, -3.421875000000, 5.859375000000, -1.210937500000, 1490863782
-0.101318359375, -1.067382812500, 0.159423828125, -3.421875000000, 5.859375000000, -1.210937500000, 1490863782
-0.101318359375, -1.067382812500, 0.159423828125, -3.421875000000, 5.859375000000, -1.210937500000, 1490863782
-0.101318359375, -1.067382812500, 0.159423828125, -3.421875000000, 5.859375000000, -1.210937500000, 1490863782
-0.101318359375, -1.067382812500, 0.159423828125, -3.421875000000, 5.859375000000, -1.210937500000, 1490863782
-0.101318359375, -1.067382812500, 0.159423828125, -3.421875000000, 5.859375000000, -1.210937500000, 1490863782
-0.101318359375, -1.067382812500, 0.159423828125, -3.421875000000, 5.859375000000, -1.210937500000, 1490863782
-0.145751953125, -0.907958984375, 0.269287109375, -0.257812500000, -0.210937500000, -1.585937500000, 1490863782
-0.145751953125, -0.907958984375, 0.269287109375, -0.257812500000, -0.210937500000, -1.585937500000, 1490863782
-0.145751953125, -0.907958984375, 0.269287109375, -0.257812500000, -0.210937500000, -1.585937500000, 1490863782
-0.145751953125, -0.907958984375, 0.269287109375, -0.257812500000, -0.210937500000, -1.585937500000, 1490863782
-0.145751953125, -0.907958984375, 0.269287109375, -0.257812500000, -0.210937500000, -1.585937500000, 1490863782
-0.041259765625, -0.940917968750, 0.168701171875, -1.343750000000, 2.171875000000, -4.054687500000, 1490863782
-0.031982421875, -0.909179687500, 0.156982421875, -4.398437500000, -0.156250000000, -2.765625000000, 1490863782
-0.031982421875, -0.909179687500, 0.156982421875, -4.398437500000, -0.156250000000, -2.765625000000, 1490863782
-0.031982421875, -0.909179687500, 0.156982421875, -4.398437500000, -0.156250000000, -2.765625000000, 1490863782
-0.031982421875, -0.909179687500, 0.156982421875, -4.398437500000, -0.156250000000, -2.765625000000, 1490863782
-0.053466796875, -0.989990234375, 0.186279296875, -4.125000000000, 2.140625000000, -1.703125000000, 1490863783
-0.053466796875, -0.989990234375, 0.186279296875, -4.125000000000, 2.140625000000, -1.703125000000, 1490863783
-0.053466796875, -0.989990234375, 0.186279296875, -4.125000000000, 2.140625000000, -1.703125000000, 1490863783
-0.082275390625, -1.007080078125, 0.166015625000, -2.437500000000, 2.953125000000, -1.507812500000, 1490863783
-0.082275390625, -1.007080078125, 0.166015625000, -2.437500000000, 2.953125000000, -1.507812500000, 1490863783
-0.082275390625, -1.007080078125, 0.166015625000, -2.437500000000, 2.953125000000, -1.507812500000, 1490863783
-0.035156250000, -0.984130859375, 0.159179687500, -1.718750000000, 1.742187500000, -4.859375000000, 1490863783
-0.035156250000, -0.984130859375, 0.159179687500, -1.718750000000, 1.742187500000, -4.859375000000, 1490863783
-0.035156250000, -0.984130859375, 0.159179687500, -1.718750000000, 1.742187500000, -4.859375000000, 1490863783
-0.125976562500, -0.998535156250, 0.189453125000, 0.554687500000, 4.570312500000, -4.546875000000, 1490863783
-0.088134765625, -0.928222656250, 0.274902343750, -2.914062500000, 1.617187500000, -1.351562500000, 1490863783
-0.088134765625, -0.928222656250, 0.274902343750, -2.914062500000, 1.617187500000, -1.351562500000, 1490863783
-0.148193359375, -0.922363281250, 0.183349609375, -4.585937500000, 3.156250000000, -2.367187500000, 1490863783
-0.048828125000, -0.932128906250, 0.208251953125, -2.343750000000, 2.218750000000, -4.187500000000, 1490863783
-0.048828125000, -0.932128906250, 0.208251953125, -2.343750000000, 2.218750000000, -4.187500000000, 1490863783
-0.048828125000, -0.932128906250, 0.208251953125, -2.343750000000, 2.218750000000, -4.187500000000, 1490863783
-0.048828125000, -0.932128906250, 0.208251953125, -2.343750000000, 2.218750000000, -4.187500000000, 1490863783
-0.048828125000, -0.932128906250, 0.208251953125, -2.343750000000, 2.218750000000, -4.187500000000, 1490863783
-0.048828125000, -0.932128906250, 0.208251953125, -2.343750000000, 2.218750000000, -4.187500000000, 1490863783
-0.090576171875, -1.049072265625, 0.260986328125, 0.226562500000, 2.664062500000, -2.234375000000, 1490863783
-0.090576171875, -1.049072265625, 0.260986328125, 0.226562500000, 2.664062500000, -2.234375000000, 1490863783
-0.090576171875, -1.049072265625, 0.260986328125, 0.226562500000, 2.664062500000, -2.234375000000, 1490863783
-0.090576171875, -1.049072265625, 0.260986328125, 0.226562500000, 2.664062500000, -2.234375000000, 1490863783
-0.090576171875, -1.049072265625, 0.260986328125, 0.226562500000, 2.664062500000, -2.234375000000, 1490863783
-0.035400390625, -1.012695312500, 0.179199218750, -0.046875000000, -0.023437500000, -2.671875000000, 1490863783
-0.035400390625, -1.012695312500, 0.179199218750, -0.046875000000, -0.023437500000, -2.671875000000, 1490863783
-0.035400390625, -1.012695312500, 0.179199218750, -0.046875000000, -0.023437500000, -2.671875000000, 1490863783
-0.035400390625, -1.012695312500, 0.179199218750, -0.046875000000, -0.023437500000, -2.671875000000, 1490863783
-0.035400390625, -1.012695312500, 0.179199218750, -0.046875000000, -0.023437500000, -2.671875000000, 1490863783
-0.124511718750, -0.954589843750, 0.216552734375, 8.054687500000, 0.656250000000, -4.132812500000, 1490863783
-0.124511718750, -0.954589843750, 0.216552734375, 8.054687500000, 0.656250000000, -4.132812500000, 1490863783
-0.124511718750, -0.954589843750, 0.216552734375, 8.054687500000, 0.656250000000, -4.132812500000, 1490863783
-0.124511718750, -0.954589843750, 0.216552734375, 8.054687500000, 0.656250000000, -4.132812500000, 1490863783
-0.124511718750, -0.954589843750, 0.216552734375, 8.054687500000, 0.656250000000, -4.132812500000, 1490863783
-0.182128906250, -0.927978515625, 0.227539062500, 14.820312500000, 3.453125000000, 0.437500000000, 1490863783
-0.182128906250, -0.927978515625, 0.227539062500, 14.820312500000, 3.453125000000, 0.437500000000, 1490863783
-0.182128906250, -0.927978515625, 0.227539062500, 14.820312500000, 3.453125000000, 0.437500000000, 1490863783
-0.182128906250, -0.927978515625, 0.227539062500, 14.820312500000, 3.453125000000, 0.437500000000, 1490863783
-0.182128906250, -0.927978515625, 0.227539062500, 14.820312500000, 3.453125000000, 0.437500000000, 1490863783
-0.140136718750, -0.959960937500, 0.171142578125, 3.070312500000, 8.671875000000, 2.718750000000, 1490863783
-0.140136718750, -0.959960937500, 0.171142578125, 3.070312500000, 8.671875000000, 2.718750000000, 1490863783
-0.140136718750, -0.959960937500, 0.171142578125, 3.070312500000, 8.671875000000, 2.718750000000, 1490863783
-0.140136718750, -0.959960937500, 0.171142578125, 3.070312500000, 8.671875000000, 2.718750000000, 1490863783
-0.140136718750, -0.959960937500, 0.171142578125, 3.070312500000, 8.671875000000, 2.718750000000, 1490863783
-0.140136718750, -0.959960937500, 0.171142578125, 3.070312500000, 8.671875000000, 2.718750000000, 1490863783
-0.038574218750, -1.029785156250, 0.252441406250, 2.148437500000, -2.140625000000, 2.390625000000, 1490863783
-0.038574218750, -1.029785156250, 0.252441406250, 2.148437500000, -2.140625000000, 2.390625000000, 1490863783
-0.038574218750, -1.029785156250, 0.252441406250, 2.148437500000, -2.140625000000, 2.390625000000, 1490863783
-0.145019531250, -0.993652343750, 0.260986328125, 0.632812500000, -16.757812500000, 0.796875000000, 1490863783
-0.145019531250, -0.993652343750, 0.260986328125, 0.632812500000, -16.757812500000, 0.796875000000, 1490863783
-0.145019531250, -0.993652343750, 0.260986328125, 0.632812500000, -16.757812500000, 0.796875000000, 1490863783
-0.145019531250, -0.993652343750, 0.260986328125, 0.632812500000, -16.757812500000, 0.796875000000, 1490863783
-0.077148437500, -0.893066406250, 0.255859375000, -2.914062500000, -33.679687500000, -10.382812500000, 1490863783
-0.077148437500, -0.893066406250, 0.255859375000, -2.914062500000, -33.679687500000, -10.382812500000, 1490863783
-0.077148437500, -0.893066406250, 0.255859375000, -2.914062500000, -33.679687500000, -10.382812500000, 1490863783
0.055175781250, -0.812255859375, 0.293945312500, 0.960937500000, -27.343750000000, -4.875000000000, 1490863783
0.055175781250, -0.812255859375, 0.293945312500, 0.960937500000, -27.343750000000, -4.875000000000, 1490863783
0.055175781250, -0.812255859375, 0.293945312500, 0.960937500000, -27.343750000000, -4.875000000000, 1490863783
0.063232421875, -0.926513671875, 0.270996093750, -0.398437500000, 12.101562500000, 3.507812500000, 1490863783
0.063232421875, -0.926513671875, 0.270996093750, -0.398437500000, 12.101562500000, 3.507812500000, 1490863783
0.063232421875, -0.926513671875, 0.270996093750, -0.398437500000, 12.101562500000, 3.507812500000, 1490863783
-0.105712890625, -0.868164062500, 0.239990234375, 20.164062500000, 11.453125000000, 11.796875000000, 1490863783
-0.105712890625, -0.868164062500, 0.239990234375, 20.164062500000, 11.453125000000, 11.796875000000, 1490863783
-0.105712890625, -0.868164062500, 0.239990234375, 20.164062500000, 11.453125000000, 11.796875000000, 1490863783
-0.105712890625, -0.868164062500, 0.239990234375, 20.164062500000, 11.453125000000, 11.796875000000, 1490863783
-0.139648437500, -0.891357421875, 0.182373046875, 10.726562500000, -4.328125000000, 1.960937500000, 1490863783
-0.139648437500, -0.891357421875, 0.182373046875, 10.726562500000, -4.328125000000, 1.960937500000, 1490863784
-0.139648437500, -0.891357421875, 0.182373046875, 10.726562500000, -4.328125000000, 1.960937500000, 1490863784
-0.126953125000, -0.731201171875, 0.272460937500, 21.750000000000, -16.742187500000, -6.531250000000, 1490863784
-0.126953125000, -0.731201171875, 0.272460937500, 21.750000000000, -16.742187500000, -6.531250000000, 1490863784
-0.126953125000, -0.731201171875, 0.272460937500, 21.750000000000, -16.742187500000, -6.531250000000, 1490863784
-0.053222656250, -0.782470703125, 0.266357421875, 57.796875000000, -19.296875000000, -3.867187500000, 1490863784
-0.053222656250, -0.782470703125, 0.266357421875, 57.796875000000, -19.296875000000, -3.867187500000, 1490863784
-0.053222656250, -0.782470703125, 0.266357421875, 57.796875000000, -19.296875000000, -3.867187500000, 1490863784
-0.033691406250, -0.834228515625, 0.208251953125, 67.875000000000, -14.085937500000, -4.210937500000, 1490863784
-0.033691406250, -0.834228515625, 0.208251953125, 67.875000000000, -14.085937500000, -4.210937500000, 1490863784
-0.033691406250, -0.834228515625, 0.208251953125, 67.875000000000, -14.085937500000, -4.210937500000, 1490863784
-0.033691406250, -0.834228515625, 0.208251953125, 67.875000000000, -14.085937500000, -4.210937500000, 1490863784
-0.037597656250, -0.677490234375, 0.240234375000, 88.945312500000, -19.578125000000, -7.703125000000, 1490863784
-0.037597656250, -0.677490234375, 0.240234375000, 88.945312500000, -19.578125000000, -7.703125000000, 1490863784
-0.037597656250, -0.677490234375, 0.240234375000, 88.945312500000, -19.578125000000, -7.703125000000, 1490863784
0.043457031250, -0.493408203125, 0.183349609375, 115.875000000000, -4.265625000000, 0.445312500000, 1490863784
0.043457031250, -0.493408203125, 0.183349609375, 115.875000000000, -4.265625000000, 0.445312500000, 1490863784
0.043457031250, -0.493408203125, 0.183349609375, 115.875000000000, -4.265625000000, 0.445312500000, 1490863784
0.013671875000, -0.441650390625, 0.149169921875, 55.554687500000, -2.335937500000, -3.859375000000, 1490863784
0.013671875000, -0.441650390625, 0.149169921875, 55.554687500000, -2.335937500000, -3.859375000000, 1490863784
0.013671875000, -0.441650390625, 0.149169921875, 55.554687500000, -2.335937500000, -3.859375000000, 1490863784
-0.098632812500, -0.718017578125, -0.031738281250, -8.500000000000, -34.062500000000, 28.179687500000, 1490863784
-0.098632812500, -0.718017578125, -0.031738281250, -8.500000000000, -34.062500000000, 28.179687500000, 1490863784
-0.098632812500, -0.718017578125, -0.031738281250, -8.500000000000, -34.062500000000, 28.179687500000, 1490863784
-0.098632812500, -0.718017578125, -0.031738281250, -8.500000000000, -34.062500000000, 28.179687500000, 1490863784
-0.168701171875, -1.045166015625, 0.040771484375, 88.054687500000, -63.117187500000, -24.882812500000, 1490863784
-0.267089843750, -1.024902343750, -0.069091796875, 125.164062500000, -18.890625000000, -42.539062500000, 1490863784
-0.267089843750, -1.024902343750, -0.069091796875, 125.164062500000, -18.890625000000, -42.539062500000, 1490863784
-0.267089843750, -1.024902343750, -0.069091796875, 125.164062500000, -18.890625000000, -42.539062500000, 1490863784
-0.086669921875, -0.689453125000, -0.014892578125, 78.312500000000, 24.171875000000, -37.968750000000, 1490863784
-0.086669921875, -0.689453125000, -0.014892578125, 78.312500000000, 24.171875000000, -37.968750000000, 1490863784
-0.086669921875, -0.689453125000, -0.014892578125, 78.312500000000, 24.171875000000, -37.968750000000, 1490863784
-0.086669921875, -0.689453125000, -0.014892578125, 78.312500000000, 24.171875000000, -37.968750000000, 1490863784
-0.086669921875, -0.689453125000, -0.014892578125, 78.312500000000, 24.171875000000, -37.968750000000, 1490863784
0.405517578125, -1.230468750000, -0.020263671875, -100.585937500000, 151.187500000000, 114.328125000000, 1490863784
0.405517578125, -1.230468750000, -0.020263671875, -100.585937500000, 151.187500000000, 114.328125000000, 1490863784
0.405517578125, -1.230468750000, -0.020263671875, -100.585937500000, 151.187500000000, 114.328125000000, 1490863784
0.405517578125, -1.230468750000, -0.020263671875, -100.585937500000, 151.187500000000, 114.328125000000, 1490863784
0.405517578125, -1.230468750000, -0.020263671875, -100.585937500000, 151.187500000000, 114.328125000000, 1490863784
0.405517578125, -1.230468750000, -0.020263671875, -40.234375000000, 50.523437500000, -32.031250000000, 1490863784
0.191406250000, -0.984375000000, -0.018554687500, -17.179687500000, 3.835937500000, -55.812500000000, 1490863784
0.191406250000, -0.984375000000, -0.018554687500, -17.179687500000, 3.835937500000, -55.812500000000, 1490863784
0.191406250000, -0.984375000000, -0.018554687500, -17.179687500000, 3.835937500000, -55.812500000000, 1490863784
0.191406250000, -0.984375000000, -0.018554687500, -17.179687500000, 3.835937500000, -55.812500000000, 1490863784
0.202148437500, -0.139404296875, 0.099609375000, 160.265625000000, -47.171875000000, 173.734375000000, 1490863784
0.202148437500, -0.139404296875, 0.099609375000, 160.265625000000, -47.171875000000, 173.734375000000, 1490863784
0.202148437500, -0.139404296875, 0.099609375000, 160.265625000000, -47.171875000000, 173.734375000000, 1490863784
0.202148437500, -0.139404296875, 0.099609375000, 160.265625000000, -47.171875000000, 173.734375000000, 1490863784
0.059570312500, -0.182373046875, 0.168701171875, 163.265625000000, 70.726562500000, 83.281250000000, 1490863784
0.275878906250, -0.042724609375, 0.309326171875, 156.960937500000, -23.421875000000, 133.820312500000, 1490863784
0.275878906250, -0.042724609375, 0.309326171875, 156.960937500000, -23.421875000000, 133.820312500000, 1490863784
0.275878906250, -0.042724609375, 0.309326171875, 156.960937500000, -23.421875000000, 133.820312500000, 1490863784
0.275878906250, -0.042724609375, 0.309326171875, 156.960937500000, -23.421875000000, 133.820312500000, 1490863784
0.275878906250, -0.042724609375, 0.309326171875, 156.960937500000, -23.421875000000, 133.820312500000, 1490863784
-0.264892578125, -1.282958984375, -2.219482421875, 86.250000000000, -68.828125000000, -22.781250000000, 1490863784
-0.264892578125, -1.282958984375, -2.219482421875, 86.250000000000, -68.828125000000, -22.781250000000, 1490863784
-0.264892578125, -1.282958984375, -2.219482421875, 86.250000000000, -68.828125000000, -22.781250000000, 1490863784
-0.264892578125, -1.282958984375, -2.219482421875, 86.250000000000, -68.828125000000, -22.781250000000, 1490863784
-0.056396484375, -0.107910156250, -1.943359375000, 29.257812500000, -51.500000000000, -6.617187500000, 1490863784
-0.056396484375, -0.107910156250, -1.943359375000, 29.257812500000, -51.500000000000, -6.617187500000, 1490863784
-0.056396484375, -0.107910156250, -1.943359375000, 29.257812500000, -51.500000000000, -6.617187500000, 1490863784
-0.056396484375, -0.107910156250, -1.943359375000, 29.257812500000, -51.500000000000, -6.617187500000, 1490863784
-0.056396484375, -0.107910156250, -1.943359375000, 29.257812500000, -51.500000000000, -6.617187500000, 1490863784
-0.056396484375, -0.107910156250, -1.943359375000, 29.257812500000, -51.500000000000, -6.617187500000, 1490863784
-0.055419921875, -0.124267578125, -0.409667968750, -45.015625000000, -22.265625000000, 0.000000000000, 1490863785
-0.055419921875, -0.124267578125, -0.409667968750, -45.015625000000, -22.265625000000, 0.000000000000, 1490863785
-0.055419921875, -0.124267578125, -0.409667968750, -45.015625000000, -22.265625000000, 0.000000000000, 1490863785
-0.055419921875, -0.124267578125, -0.409667968750, -45.015625000000, -22.265625000000, 0.000000000000, 1490863785
-0.055419921875, -0.124267578125, -0.409667968750, -45.015625000000, -22.265625000000, 0.000000000000, 1490863785
-0.055419921875, -0.124267578125, -0.409667968750, -45.015625000000, -22.265625000000, 0.000000000000, 1490863785
-0.023681640625, -0.232421875000, -0.574707031250, 11.968750000000, 21.015625000000, -11.000000000000, 1490863785
-0.023681640625, -0.232421875000, -0.574707031250, 11.968750000000, 21.015625000000, -11.000000000000, 1490863785
-0.023681640625, -0.232421875000, -0.574707031250, 11.968750000000, 21.015625000000, -11.000000000000, 1490863785
-0.029785156250, -0.400878906250, -1.097412109375, 30.453125000000, 14.382812500000, -3.726562500000, 1490863785
-0.029785156250, -0.400878906250, -1.097412109375, 30.453125000000, 14.382812500000, -3.726562500000, 1490863785
-0.029785156250, -0.400878906250, -1.097412109375, 30.453125000000, 14.382812500000, -3.726562500000, 1490863785
-0.029785156250, -0.400878906250, -1.097412109375, 30.453125000000, 14.382812500000, -3.726562500000, 1490863785
-0.029785156250, -0.400878906250, -1.097412109375, 30.453125000000, 14.382812500000, -3.726562500000, 1490863785
0.103515625000, -0.250976562500, -1.286376953125, 22.304687500000, -4.476562500000, -7.531250000000, 1490863785
0.098876953125, -0.323974609375, -1.225097656250, 6.070312500000, -8.500000000000, -8.320312500000, 1490863785
0.098876953125, -0.323974609375, -1.225097656250, 6.070312500000, -8.500000000000, -8.320312500000, 1490863785
0.098876953125, -0.323974609375, -1.225097656250, 6.070312500000, -8.500000000000, -8.320312500000, 1490863785
-0.077148437500, -0.250000000000, -0.772949218750, 12.039062500000, -1.562500000000, -5.320312500000, 1490863785
-0.077148437500, -0.250000000000, -0.772949218750, 12.039062500000, -1.562500000000, -5.320312500000, 1490863785
-0.077148437500, -0.250000000000, -0.772949218750, 12.039062500000, -1.562500000000, -5.320312500000, 1490863785
-0.077148437500, -0.250000000000, -0.772949218750, 12.039062500000, -1.562500000000, -5.320312500000, 1490863785
-0.077148437500, -0.250000000000, -0.772949218750, 12.039062500000, -1.562500000000, -5.320312500000, 1490863785
0.040039062500, -0.192626953125, -0.829589843750, 22.398437500000, 16.257812500000, -6.328125000000, 1490863785
0.040039062500, -0.192626953125, -0.829589843750, 22.398437500000, 16.257812500000, -6.328125000000, 1490863785
0.040039062500, -0.192626953125, -0.829589843750, 22.398437500000, 16.257812500000, -6.328125000000, 1490863785
0.040039062500, -0.192626953125, -0.829589843750, 22.398437500000, 16.257812500000, -6.328125000000, 1490863785
0.040039062500, -0.192626953125, -0.829589843750, 22.398437500000, 16.257812500000, -6.328125000000, 1490863785
0.040039062500, -0.192626953125, -0.829589843750, 22.398437500000, 16.257812500000, -6.328125000000, 1490863785
-0.029052734375, -0.202148437500, -1.116943359375, -17.039062500000, 21.726562500000, -2.242187500000, 1490863785
0.069580078125, -0.268798828125, -1.127929687500, 12.226562500000, -13.781250000000, -8.367187500000, 1490863785
0.069580078125, -0.268798828125, -1.127929687500, 12.226562500000, -13.781250000000, -8.367187500000, 1490863785
0.069580078125, -0.268798828125, -1.127929687500, 12.226562500000, -13.781250000000, -8.367187500000, 1490863785
0.069580078125, -0.268798828125, -1.127929687500, 12.226562500000, -13.781250000000, -8.367187500000, 1490863785
0.069580078125, -0.268798828125, -1.127929687500, 12.226562500000, -13.781250000000, -8.367187500000, 1490863785
0.069580078125, -0.268798828125, -1.127929687500, 12.226562500000, -13.781250000000, -8.367187500000, 1490863785
0.069580078125, -0.268798828125, -1.127929687500, 12.226562500000, -13.781250000000, -8.367187500000, 1490863785
0.069580078125, -0.268798828125, -1.127929687500, 12.226562500000, -13.781250000000, -8.367187500000, 1490863785
0.069580078125, -0.268798828125, -1.127929687500, 12.226562500000, -13.781250000000, -8.367187500000, 1490863785
-0.082519531250, -0.181396484375, -1.073486328125, -6.195312500000, 7.351562500000, -3.890625000000, 1490863785
-0.082519531250, -0.181396484375, -1.073486328125, -6.195312500000, 7.351562500000, -3.890625000000, 1490863785
-0.082519531250, -0.181396484375, -1.073486328125, -6.195312500000, 7.351562500000, -3.890625000000, 1490863785
-0.082519531250, -0.181396484375, -1.073486328125, -6.195312500000, 7.351562500000, -3.890625000000, 1490863785
-0.082519531250, -0.181396484375, -1.073486328125, -6.195312500000, 7.351562500000, -3.890625000000, 1490863785
-0.082519531250, -0.181396484375, -1.073486328125, -6.195312500000, 7.351562500000, -3.890625000000, 1490863785
-0.082519531250, -0.181396484375, -1.073486328125, -6.195312500000, 7.351562500000, -3.890625000000, 1490863785
-0.082519531250, -0.181396484375, -1.073486328125, -6.195312500000, 7.351562500000, -3.890625000000, 1490863785
-0.082519531250, -0.181396484375, -1.073486328125, -6.195312500000, 7.351562500000, -3.890625000000, 1490863785
-0.082519531250, -0.181396484375, -1.073486328125, -6.195312500000, 7.351562500000, -3.890625000000, 1490863785
-0.090332031250, -0.194580078125, -1.034667968750, 2.289062500000, 7.929687500000, -3.085937500000, 1490863785
0.006347656250, -0.163085937500, -0.911865234375, -6.734375000000, -9.101562500000, -6.515625000000, 1490863785
-0.013427734375, -0.158203125000, -0.908447265625, -6.226562500000, 7.054687500000, -4.531250000000, 1490863785
-0.013427734375, -0.158203125000, -0.908447265625, -6.226562500000, 7.054687500000, -4.531250000000, 1490863785
0.010253906250, -0.155029296875, -0.965576171875, -3.406250000000, -6.031250000000, -3.351562500000, 1490863785
0.010253906250, -0.155029296875, -0.965576171875, -3.406250000000, -6.031250000000, -3.351562500000, 1490863786
0.010253906250, -0.155029296875, -0.965576171875, -3.406250000000, -6.031250000000, -3.351562500000, 1490863786
0.010253906250, -0.155029296875, -0.965576171875, -3.406250000000, -6.031250000000, -3.351562500000, 1490863786
0.010253906250, -0.155029296875, -0.965576171875, -3.406250000000, -6.031250000000, -3.351562500000, 1490863786
0.010253906250, -0.155029296875, -0.965576171875, -3.406250000000, -6.031250000000, -3.351562500000, 1490863786
-0.069824218750, -0.038085937500, -1.013916015625, -6.570312500000, -4.773437500000, -4.656250000000, 1490863786
-0.069824218750, -0.038085937500, -1.013916015625, -6.570312500000, -4.773437500000, -4.656250000000, 1490863786
-0.069824218750, -0.038085937500, -1.013916015625, -6.570312500000, -4.773437500000, -4.656250000000, 1490863786
-0.069824218750, -0.038085937500, -1.013916015625, -6.570312500000, -4.773437500000, -4.656250000000, 1490863786
-0.069824218750, -0.038085937500, -1.013916015625, -6.570312500000, -4.773437500000, -4.656250000000, 1490863786
-0.069824218750, -0.038085937500, -1.013916015625, -6.570312500000, -4.773437500000, -4.656250000000, 1490863786
0.063720703125, -0.107421875000, -0.895751953125, -5.476562500000, 4.304687500000, -3.039062500000, 1490863786
0.063720703125, -0.107421875000, -0.895751953125, -5.476562500000, 4.304687500000, -3.039062500000, 1490863786
0.063720703125, -0.107421875000, -0.895751953125, -5.476562500000, 4.304687500000, -3.039062500000, 1490863786
0.063720703125, -0.107421875000, -0.895751953125, -5.476562500000, 4.304687500000, -3.039062500000, 1490863786
0.063720703125, -0.107421875000, -0.895751953125, -5.476562500000, 4.304687500000, -3.039062500000, 1490863786
0.063720703125, -0.107421875000, -0.895751953125, -5.476562500000, 4.304687500000, -3.039062500000, 1490863786
-0.009765625000, -0.146240234375, -0.981445312500, -4.656250000000, -0.468750000000, -3.132812500000, 1490863786
0.077636718750, -0.142333984375, -1.007324218750, -5.468750000000, -0.898437500000, -3.007812500000, 1490863786
0.077636718750, -0.142333984375, -1.007324218750, -5.468750000000, -0.898437500000, -3.007812500000, 1490863786
0.077636718750, -0.142333984375, -1.007324218750, -5.468750000000, -0.898437500000, -3.007812500000, 1490863786
0.015380859375, -0.209716796875, -1.021484375000, -6.804687500000, 1.382812500000, -6.593750000000, 1490863786
0.015380859375, -0.209716796875, -1.021484375000, -6.804687500000, 1.382812500000, -6.593750000000, 1490863786
0.015380859375, -0.209716796875, -1.021484375000, -6.804687500000, 1.382812500000, -6.593750000000, 1490863786
0.015380859375, -0.209716796875, -1.021484375000, -6.804687500000, 1.382812500000, -6.593750000000, 1490863786
0.015380859375, -0.209716796875, -1.021484375000, -6.804687500000, 1.382812500000, -6.593750000000, 1490863786
0.015380859375, -0.209716796875, -1.021484375000, -6.804687500000, 1.382812500000, -6.593750000000, 1490863786
0.015380859375, -0.209716796875, -1.021484375000, -6.804687500000, 1.382812500000, -6.593750000000, 1490863786
0.015380859375, -0.209716796875, -1.021484375000, -6.804687500000, 1.382812500000, -6.593750000000, 1490863786
0.015380859375, -0.209716796875, -1.021484375000, -6.804687500000, 1.382812500000, -6.593750000000, 1490863786
-0.126464843750, -0.156738281250, -1.064697265625, -5.546875000000, -2.210937500000, -3.875000000000, 1490863786
-0.126464843750, -0.156738281250, -1.064697265625, -5.546875000000, -2.210937500000, -3.875000000000, 1490863786
-0.126464843750, -0.156738281250, -1.064697265625, -5.546875000000, -2.210937500000, -3.875000000000, 1490863786
-0.126464843750, -0.156738281250, -1.064697265625, -5.546875000000, -2.210937500000, -3.875000000000, 1490863786
-0.126464843750, -0.156738281250, -1.064697265625, -5.546875000000, -2.210937500000, -3.875000000000, 1490863786
-0.090087890625, -0.166259765625, -0.983154296875, -6.656250000000, 0.296875000000, -3.742187500000, 1490863786
0.083007812500, -0.202392578125, -0.945312500000, -6.656250000000, 0.296875000000, -3.742187500000, 1490863786
0.083007812500, -0.202392578125, -0.945312500000, -6.656250000000, 0.296875000000, -3.742187500000, 1490863786
0.083007812500, -0.202392578125, -0.945312500000, -6.656250000000, 0.296875000000, -3.742187500000, 1490863786
-0.062500000000, -0.225341796875, -1.005371093750, -6.437500000000, 0.781250000000, -4.898437500000, 1490863786
0.050048828125, -0.154785156250, -0.942626953125, -4.789062500000, 2.093750000000, -3.296875000000, 1490863786
0.050048828125, -0.154785156250, -0.942626953125, -4.789062500000, 2.093750000000, -3.296875000000, 1490863786
0.050048828125, -0.154785156250, -0.942626953125, -4.789062500000, 2.093750000000, -3.296875000000, 1490863786
-0.063232421875, -0.168945312500, -1.010009765625, -3.812500000000, 1.109375000000, -4.828125000000, 1490863786
-0.063232421875, -0.168945312500, -1.010009765625, -3.812500000000, 1.109375000000, -4.828125000000, 1490863786
-0.063232421875, -0.168945312500, -1.010009765625, -3.812500000000, 1.109375000000, -4.828125000000, 1490863786
-0.063232421875, -0.168945312500, -1.010009765625, -3.812500000000, 1.109375000000, -4.828125000000, 1490863786
-0.063232421875, -0.168945312500, -1.010009765625, -3.812500000000, 1.109375000000, -4.828125000000, 1490863786
-0.063232421875, -0.168945312500, -1.010009765625, -3.812500000000, 1.109375000000, -4.828125000000, 1490863786
0.021972656250, -0.058593750000, -0.935791015625, -3.070312500000, 0.835937500000, -4.726562500000, 1490863786
-0.032714843750, -0.044189453125, -0.929687500000, -3.070312500000, 0.835937500000, -4.726562500000, 1490863786
-0.032714843750, -0.044189453125, -0.929687500000, -3.070312500000, 0.835937500000, -4.726562500000, 1490863786
-0.032714843750, -0.044189453125, -0.929687500000, -3.070312500000, 0.835937500000, -4.726562500000, 1490863786
-0.032714843750, -0.044189453125, -0.929687500000, -3.070312500000, 0.835937500000, -4.726562500000, 1490863786
-0.032714843750, -0.044189453125, -0.929687500000, -3.070312500000, 0.835937500000, -4.726562500000, 1490863786
-0.062500000000, -0.233642578125, -0.965576171875, -3.914062500000, -0.828125000000, -4.750000000000, 1490863786
-0.009033203125, -0.098388671875, -0.916748046875, -6.007812500000, -0.937500000000, -3.390625000000, 1490863786
-0.009033203125, -0.098388671875, -0.916748046875, -6.007812500000, -0.937500000000, -3.390625000000, 1490863786
-0.009033203125, -0.098388671875, -0.916748046875, -6.007812500000, -0.937500000000, -3.390625000000, 1490863786
0.037841796875, -0.095458984375, -0.910400390625, -6.265625000000, -0.226562500000, -6.710937500000, 1490863786
0.037841796875, -0.095458984375, -0.910400390625, -6.265625000000, -0.226562500000, -6.710937500000, 1490863786
0.037841796875, -0.095458984375, -0.910400390625, -6.265625000000, -0.226562500000, -6.710937500000, 1490863786
0.037841796875, -0.095458984375, -0.910400390625, -6.265625000000, -0.226562500000, -6.710937500000, 1490863786
0.037841796875, -0.095458984375, -0.910400390625, -6.265625000000, -0.226562500000, -6.710937500000, 1490863786
-0.144287109375, -0.251708984375, -0.925048828125, -3.757812500000, 2.171875000000, -3.593750000000, 1490863786
0.031982421875, -0.260253906250, -1.008300781250, -5.164062500000, -0.023437500000, -6.703125000000, 1490863786
0.031982421875, -0.260253906250, -1.008300781250, -5.164062500000, -0.023437500000, -6.703125000000, 1490863786
0.031982421875, -0.260253906250, -1.008300781250, -5.164062500000, -0.023437500000, -6.703125000000, 1490863786
0.031982421875, -0.260253906250, -1.008300781250, -5.164062500000, -0.023437500000, -6.703125000000, 1490863786
0.087646484375, -0.166259765625, -1.017822265625, -3.132812500000, 0.554687500000, -3.914062500000, 1490863786
0.087646484375, -0.166259765625, -1.017822265625, -3.132812500000, 0.554687500000, -3.914062500000, 1490863786
0.087646484375, -0.166259765625, -1.017822265625, -3.132812500000, 0.554687500000, -3.914062500000, 1490863786
0.087646484375, -0.166259765625, -1.017822265625, -3.132812500000, 0.554687500000, -3.914062500000, 1490863786
0.087646484375, -0.166259765625, -1.017822265625, -3.132812500000, 0.554687500000, -3.914062500000, 1490863787
0.087646484375, -0.166259765625, -1.017822265625, -3.132812500000, 0.554687500000, -3.914062500000, 1490863787
-0.033691406250, -0.182128906250, -0.956298828125, -4.859375000000, -2.390625000000, -6.593750000000, 1490863787
0.141601562500, -0.199951171875, -0.918457031250, -3.179687500000, 0.296875000000, -5.125000000000, 1490863787
0.064697265625, -0.179199218750, -1.003906250000, -6.617187500000, 2.632812500000, -2.703125000000, 1490863787
0.064697265625, -0.179199218750, -1.003906250000, -6.617187500000, 2.632812500000, -2.703125000000, 1490863787
0.064697265625, -0.179199218750, -1.003906250000, -6.617187500000, 2.632812500000, -2.703125000000, 1490863787
0.064697265625, -0.179199218750, -1.003906250000, -6.617187500000, 2.632812500000, -2.703125000000, 1490863787
0.064697265625, -0.179199218750, -1.003906250000, -6.617187500000, 2.632812500000, -2.703125000000, 1490863787
0.064697265625, -0.179199218750, -1.003906250000, -6.617187500000, 2.632812500000, -2.703125000000, 1490863787
0.064697265625, -0.179199218750, -1.003906250000, -6.617187500000, 2.632812500000, -2.703125000000, 1490863787
0.064697265625, -0.179199218750, -1.003906250000, -6.617187500000, 2.632812500000, -2.703125000000, 1490863787
-0.000732421875, -0.197509765625, -0.956787109375, -6.125000000000, -0.492187500000, -1.820312500000, 1490863787
-0.023925781250, -0.283691406250, -1.021728515625, -6.515625000000, -0.585937500000, -4.046875000000, 1490863787
-0.023925781250, -0.283691406250, -1.021728515625, -6.515625000000, -0.585937500000, -4.046875000000, 1490863787
0.080078125000, -0.267333984375, -0.947509765625, -3.664062500000, -0.867187500000, -3.460937500000, 1490863787
0.080078125000, -0.267333984375, -0.947509765625, -3.664062500000, -0.867187500000, -3.460937500000, 1490863787
0.080078125000, -0.267333984375, -0.947509765625, -3.664062500000, -0.867187500000, -3.460937500000, 1490863787
0.080078125000, -0.267333984375, -0.947509765625, -3.664062500000, -0.867187500000, -3.460937500000, 1490863787
0.080078125000, -0.267333984375, -0.947509765625, -3.664062500000, -0.867187500000, -3.460937500000, 1490863787
0.080078125000, -0.267333984375, -0.947509765625, -3.664062500000, -0.867187500000, -3.460937500000, 1490863787
0.080078125000, -0.267333984375, -0.947509765625, -3.664062500000, -0.867187500000, -3.460937500000, 1490863787
0.080078125000, -0.267333984375, -0.947509765625, -3.664062500000, -0.867187500000, -3.460937500000, 1490863787
0.080078125000, -0.267333984375, -0.947509765625, -3.664062500000, -0.867187500000, -3.460937500000, 1490863787
0.080078125000, -0.267333984375, -0.947509765625, -3.664062500000, -0.867187500000, -3.460937500000, 1490863787
-0.070068359375, -0.186767578125, -0.948730468750, -3.835937500000, -0.515625000000, -4.257812500000, 1490863787
-0.070068359375, -0.186767578125, -0.948730468750, -3.835937500000, -0.515625000000, -4.257812500000, 1490863787
-0.070068359375, -0.186767578125, -0.948730468750, -3.835937500000, -0.515625000000, -4.257812500000, 1490863787
-0.070068359375, -0.186767578125, -0.948730468750, -3.835937500000, -0.515625000000, -4.257812500000, 1490863787
-0.070068359375, -0.186767578125, -0.948730468750, -3.835937500000, -0.515625000000, -4.257812500000, 1490863787
0.022216796875, -0.178466796875, -1.006591796875, -3.726562500000, -2.156250000000, -4.804687500000, 1490863787
0.022216796875, -0.178466796875, -1.006591796875, -3.726562500000, -2.156250000000, -4.804687500000, 1490863787
0.022216796875, -0.178466796875, -1.006591796875, -3.726562500000, -2.156250000000, -4.804687500000, 1490863787
0.022216796875, -0.178466796875, -1.006591796875, -3.726562500000, -2.156250000000, -4.804687500000, 1490863787
0.022216796875, -0.178466796875, -1.006591796875, -3.726562500000, -2.156250000000, -4.804687500000, 1490863787
0.059082031250, -0.156738281250, -1.017578125000, -4.992187500000, -0.148437500000, -4.250000000000, 1490863787
0.059082031250, -0.156738281250, -1.017578125000, -4.992187500000, -0.148437500000, -4.250000000000, 1490863787
0.059082031250, -0.156738281250, -1.017578125000, -4.992187500000, -0.148437500000, -4.250000000000, 1490863787
-0.062988281250, -0.249511718750, -1.002197265625, -6.679687500000, 0.328125000000, -3.171875000000, 1490863787
-0.062988281250, -0.249511718750, -1.002197265625, -6.679687500000, 0.328125000000, -3.171875000000, 1490863787
-0.062988281250, -0.249511718750, -1.002197265625, -6.679687500000, 0.328125000000, -3.171875000000, 1490863787
-0.062988281250, -0.249511718750, -1.002197265625, -6.679687500000, 0.328125000000, -3.171875000000, 1490863787
-0.062988281250, -0.249511718750, -1.002197265625, -6.679687500000, 0.328125000000, -3.171875000000, 1490863787
-0.062988281250, -0.249511718750, -1.002197265625, -6.679687500000, 0.328125000000, -3.171875000000, 1490863787
0.025390625000, -0.122558593750, -1.034423828125, -1.656250000000, 0.515625000000, -4.281250000000, 1490863787
0.050048828125, -0.214111328125, -0.962158203125, -6.546875000000, -0.203125000000, -8.953125000000, 1490863787
0.050048828125, -0.214111328125, -0.962158203125, -6.546875000000, -0.203125000000, -8.953125000000, 1490863787
0.050048828125, -0.214111328125, -0.962158203125, -6.546875000000, -0.203125000000, -8.953125000000, 1490863787
0.050048828125, -0.214111328125, -0.962158203125, -6.546875000000, -0.203125000000, -8.953125000000, 1490863787
0.050048828125, -0.214111328125, -0.962158203125, -6.546875000000, -0.203125000000, -8.953125000000, 1490863787
0.050048828125, -0.214111328125, -0.962158203125, -6.546875000000, -0.203125000000, -8.953125000000, 1490863787
0.050048828125, -0.214111328125, -0.962158203125, -6.546875000000, -0.203125000000, -8.953125000000, 1490863787
0.050048828125, -0.214111328125, -0.962158203125, -6.546875000000, -0.203125000000, -8.953125000000, 1490863787
0.050048828125, -0.214111328125, -0.962158203125, -6.546875000000, -0.203125000000, -8.953125000000, 1490863787
0.074951171875, -0.212402343750, -0.917968750000, -4.945312500000, 1.515625000000, -4.601562500000, 1490863787
-0.007324218750, -0.217285156250, -1.011230468750, -3.164062500000, 0.421875000000, -6.000000000000, 1490863787
-0.007324218750, -0.217285156250, -1.011230468750, -3.164062500000, 0.421875000000, -6.000000000000, 1490863787
-0.007324218750, -0.217285156250, -1.011230468750, -3.164062500000, 0.421875000000, -6.000000000000, 1490863787
-0.001953125000, -0.206298828125, -0.929931640625, -3.984375000000, -0.445312500000, -5.742187500000, 1490863787
-0.013183593750, -0.168945312500, -0.977050781250, -3.882812500000, 2.203125000000, -1.429687500000, 1490863787
-0.013183593750, -0.168945312500, -0.977050781250, -3.882812500000, 2.203125000000, -1.429687500000, 1490863787
-0.013183593750, -0.168945312500, -0.977050781250, -3.882812500000, 2.203125000000, -1.429687500000, 1490863787
-0.013183593750, -0.168945312500, -0.977050781250, -3.882812500000, 2.203125000000, -1.429687500000, 1490863787
-0.013183593750, -0.168945312500, -0.977050781250, -3.882812500000, 2.203125000000, -1.429687500000, 1490863787
-0.013183593750, -0.168945312500, -0.977050781250, -3.882812500000, 2.203125000000, -1.429687500000, 1490863787
-0.013183593750, -0.168945312500, -0.977050781250, -3.882812500000, 2.203125000000, -1.429687500000, 1490863787
-0.013183593750, -0.168945312500, -0.977050781250, -3.882812500000, 2.203125000000, -1.429687500000, 1490863787
0.040039062500, -0.187744140625, -1.011474609375, -3.750000000000, -0.304687500000, -5.062500000000, 1490863788
-0.024414062500, -0.270019531250, -0.986572265625, -3.304687500000, 0.546875000000, -1.601562500000, 1490863788
-0.024414062500, -0.270019531250, -0.986572265625, -3.304687500000, 0.546875000000, -1.601562500000, 1490863788
-0.024414062500, -0.270019531250, -0.986572265625, -3.304687500000, 0.546875000000, -1.601562500000, 1490863788
0.065673828125, -0.255859375000, -1.014648437500, -4.234375000000, 0.945312500000, -1.765625000000, 1490863788
-0.011474609375, -0.094238281250, -0.915283203125, -6.953125000000, -0.812500000000, -4.718750000000, 1490863788
-0.011474609375, -0.094238281250, -0.915283203125, -6.953125000000, -0.812500000000, -4.718750000000, 1490863788
-0.011474609375, -0.094238281250, -0.915283203125, -6.953125000000, -0.812500000000, -4.718750000000, 1490863788
-0.011474609375, -0.094238281250, -0.915283203125, -6.953125000000, -0.812500000000, -4.718750000000, 1490863788
0.076660156250, -0.193359375000, -0.860107421875, -3.328125000000, 0.726562500000, -4.437500000000, 1490863788
0.023437500000, -0.169189453125, -0.912353515625, -3.328125000000, 0.726562500000, -4.437500000000, 1490863788
0.023437500000, -0.169189453125, -0.912353515625, -3.328125000000, 0.726562500000, -4.437500000000, 1490863788
0.023437500000, -0.169189453125, -0.912353515625, -3.328125000000, 0.726562500000, -4.437500000000, 1490863788
0.014404296875, -0.094726562500, -0.941406250000, -3.976562500000, 0.351562500000, -1.031250000000, 1490863788
0.014404296875, -0.094726562500, -0.941406250000, -3.976562500000, 0.351562500000, -1.031250000000, 1490863788
0.014404296875, -0.094726562500, -0.941406250000, -3.976562500000, 0.351562500000, -1.031250000000, 1490863788
0.016113281250, -0.256103515625, -0.931640625000, -3.703125000000, -0.867187500000, -6.937500000000, 1490863788
0.016113281250, -0.256103515625, -0.931640625000, -3.703125000000, -0.867187500000, -6.937500000000, 1490863788
0.016113281250, -0.256103515625, -0.931640625000, -3.703125000000, -0.867187500000, -6.937500000000, 1490863788
0.016113281250, -0.256103515625, -0.931640625000, -3.703125000000, -0.867187500000, -6.937500000000, 1490863788
0.027587890625, -0.061523437500, -0.869140625000, -4.937500000000, -0.414062500000, -2.500000000000, 1490863788
-0.006103515625, -0.097412109375, -0.918945312500, -3.289062500000, 0.734375000000, -6.171875000000, 1490863788
-0.006103515625, -0.097412109375, -0.918945312500, -3.289062500000, 0.734375000000, -6.171875000000, 1490863788
-0.006103515625, -0.097412109375, -0.918945312500, -3.289062500000, 0.734375000000, -6.171875000000, 1490863788
-0.006103515625, -0.097412109375, -0.918945312500, -3.289062500000, 0.734375000000, -6.171875000000, 1490863788
-0.002441406250, -0.095458984375, -1.001953125000, -6.468750000000, 0.531250000000, -3.210937500000, 1490863788
-0.002441406250, -0.095458984375, -1.001953125000, -6.468750000000, 0.531250000000, -3.210937500000, 1490863788
-0.002441406250, -0.095458984375, -1.001953125000, -6.468750000000, 0.531250000000, -3.210937500000, 1490863788
-0.002441406250, -0.095458984375, -1.001953125000, -6.468750000000, 0.531250000000, -3.210937500000, 1490863788
0.084960937500, -0.167236328125, -0.918212890625, -3.171875000000, 0.289062500000, -4.414062500000, 1490863788
-0.025390625000, -0.123779296875, -0.955810546875, -3.976562500000, 2.843750000000, -3.250000000000, 1490863788
-0.025390625000, -0.123779296875, -0.955810546875, -3.976562500000, 2.843750000000, -3.250000000000, 1490863788
-0.025390625000, -0.123779296875, -0.955810546875, -3.976562500000, 2.843750000000, -3.250000000000, 1490863788
0.041015625000, -0.189941406250, -0.848632812500, -3.312500000000, -0.203125000000, -6.468750000000, 1490863788
0.041015625000, -0.189941406250, -0.848632812500, -3.312500000000, -0.203125000000, -6.468750000000, 1490863788
0.041015625000, -0.189941406250, -0.848632812500, -3.312500000000, -0.203125000000, -6.468750000000, 1490863788
0.041015625000, -0.189941406250, -0.848632812500, -3.312500000000, -0.203125000000, -6.468750000000, 1490863788
0.041015625000, -0.189941406250, -0.848632812500, -3.312500000000, -0.203125000000, -6.468750000000, 1490863788
0.041015625000, -0.189941406250, -0.848632812500, -3.312500000000, -0.203125000000, -6.468750000000, 1490863788
-0.012939453125, -0.106689453125, -0.958496093750, -4.296875000000, 0.007812500000, -6.132812500000, 1490863788
-0.012939453125, -0.106689453125, -0.958496093750, -4.296875000000, 0.007812500000, -6.132812500000, 1490863788
-0.012939453125, -0.106689453125, -0.958496093750, -4.296875000000, 0.007812500000, -6.132812500000, 1490863788
0.065429687500, -0.255126953125, -0.942382812500, -4.132812500000, 0.015625000000, -3.929687500000, 1490863788
0.012207031250, -0.316894531250, -0.967041015625, -3.898437500000, 1.164062500000, -3.718750000000, 1490863788
0.012207031250, -0.316894531250, -0.967041015625, -3.898437500000, 1.164062500000, -3.718750000000, 1490863788
0.012207031250, -0.316894531250, -0.967041015625, -3.898437500000, 1.164062500000, -3.718750000000, 1490863788
0.012207031250, -0.316894531250, -0.967041015625, -3.898437500000, 1.164062500000, -3.718750000000, 1490863788
0.012207031250, -0.316894531250, -0.967041015625, -3.898437500000, 1.164062500000, -3.718750000000, 1490863788
0.012207031250, -0.316894531250, -0.967041015625, -3.898437500000, 1.164062500000, -3.718750000000, 1490863788
-0.069580078125, -0.096923828125, -1.013671875000, -3.187500000000, 0.632812500000, -3.648437500000, 1490863788
0.027343750000, -0.251708984375, -0.925292968750, -6.953125000000, -0.359375000000, -4.265625000000, 1490863788
0.027343750000, -0.251708984375, -0.925292968750, -6.953125000000, -0.359375000000, -4.265625000000, 1490863788
0.027343750000, -0.251708984375, -0.925292968750, -6.953125000000, -0.359375000000, -4.265625000000, 1490863788
0.027343750000, -0.251708984375, -0.925292968750, -6.953125000000, -0.359375000000, -4.265625000000, 1490863788
0.027343750000, -0.251708984375, -0.925292968750, -6.953125000000, -0.359375000000, -4.265625000000, 1490863788
-0.007568359375, -0.210205078125, -0.915527343750, -3.812500000000, 2.210937500000, -5.523437500000, 1490863788
-0.007568359375, -0.210205078125, -0.915527343750, -3.812500000000, 2.210937500000, -5.523437500000, 1490863788
-0.007568359375, -0.210205078125, -0.915527343750, -3.812500000000, 2.210937500000, -5.523437500000, 1490863788
-0.007568359375, -0.210205078125, -0.915527343750, -3.812500000000, 2.210937500000, -5.523437500000, 1490863788
-0.088378906250, -0.273437500000, -0.924560546875, -3.039062500000, -0.687500000000, -4.757812500000, 1490863788
-0.088378906250, -0.273437500000, -0.924560546875, -3.039062500000, -0.687500000000, -4.757812500000, 1490863788
-0.088378906250, -0.273437500000, -0.924560546875, -3.039062500000, -0.687500000000, -4.757812500000, 1490863788
-0.088378906250, -0.273437500000, -0.924560546875, -3.039062500000, -0.687500000000, -4.757812500000, 1490863788
-0.088378906250, -0.273437500000, -0.924560546875, -3.039062500000, -0.687500000000, -4.757812500000, 1490863788
-0.088378906250, -0.273437500000, -0.924560546875, -3.039062500000, -0.687500000000, -4.757812500000, 1490863788
-0.022705078125, -0.238037109375, -1.019042968750, -3.132812500000, -0.328125000000, -3.796875000000, 1490863788
-0.022705078125, -0.238037109375, -1.019042968750, -3.132812500000, -0.328125000000, -3.796875000000, 1490863788
-0.022705078125, -0.238037109375, -1.019042968750, -3.132812500000, -0.328125000000, -3.796875000000, 1490863788
0.081542968750, -0.116943359375, -0.925048828125, -3.257812500000, -0.562500000000, -4.812500000000, 1490863789
0.081542968750, -0.116943359375, -0.925048828125, -3.257812500000, -0.562500000000, -4.812500000000, 1490863789
0.080810546875, -0.172851562500, -1.013427734375, -3.257812500000, -0.164062500000, -3.734375000000, 1490863789
0.080810546875, -0.172851562500, -1.013427734375, -3.257812500000, -0.164062500000, -3.734375000000, 1490863789
0.080810546875, -0.172851562500, -1.013427734375, -3.257812500000, -0.164062500000, -3.734375000000, 1490863789
0.080810546875, -0.172851562500, -1.013427734375, -3.257812500000, -0.164062500000, -3.734375000000, 1490863789
-0.053222656250, -0.235107421875, -0.958251953125, -4.914062500000, 0.703125000000, -4.140625000000, 1490863789
-0.053222656250, -0.235107421875, -0.958251953125, -4.914062500000, 0.703125000000, -4.140625000000, 1490863789
-0.053222656250, -0.235107421875, -0.958251953125, -4.914062500000, 0.703125000000, -4.140625000000, 1490863789
-0.053222656250, -0.235107421875, -0.958251953125, -4.914062500000, 0.703125000000, -4.140625000000, 1490863789
-0.017578125000, -0.118652343750, -1.002441406250, -4.960937500000, 0.359375000000, -6.601562500000, 1490863789
-0.017578125000, -0.118652343750, -1.002441406250, -4.960937500000, 0.359375000000, -6.601562500000, 1490863789
-0.017578125000, -0.118652343750, -1.002441406250, -4.960937500000, 0.359375000000, -6.601562500000, 1490863789
0.023193359375, -0.044677734375, -0.911621093750, -3.023437500000, 0.375000000000, -6.070312500000, 1490863789
0.023193359375, -0.044677734375, -0.911621093750, -3.023437500000, 0.375000000000, -6.070312500000, 1490863789
0.023193359375, -0.044677734375, -0.911621093750, -3.023437500000, 0.375000000000, -6.070312500000, 1490863789
0.023193359375, -0.044677734375, -0.911621093750, -3.023437500000, 0.375000000000, -6.070312500000, 1490863789
0.098388671875, -0.164062500000, -1.007812500000, -3.375000000000, 2.203125000000, -3.101562500000, 1490863789
0.098388671875, -0.164062500000, -1.007812500000, -3.375000000000, 2.203125000000, -3.101562500000, 1490863789
0.098388671875, -0.164062500000, -1.007812500000, -3.375000000000, 2.203125000000, -3.101562500000, 1490863789
0.031250000000, -0.265869140625, -1.001464843750, -6.070312500000, -0.164062500000, -6.289062500000, 1490863789
0.022705078125, -0.140136718750, -0.910644531250, -5.234375000000, -0.171875000000, -6.539062500000, 1490863789
0.022705078125, -0.140136718750, -0.910644531250, -5.234375000000, -0.171875000000, -6.539062500000, 1490863789
0.022705078125, -0.140136718750, -0.910644531250, -5.234375000000, -0.171875000000, -6.539062500000, 1490863789
0.022705078125, -0.140136718750, -0.910644531250, -5.234375000000, -0.171875000000, -6.539062500000, 1490863789
0.022705078125, -0.140136718750, -0.910644531250, -5.234375000000, -0.171875000000, -6.539062500000, 1490863789
0.022705078125, -0.140136718750, -0.910644531250, -5.234375000000, -0.171875000000, -6.539062500000, 1490863789
0.022705078125, -0.140136718750, -0.910644531250, -5.234375000000, -0.171875000000, -6.539062500000, 1490863789
