ACC_X,ACC_Y,ACC_Z,G_X,G_Y,G_Z,Unix Time
0.215576171875, -0.914550781250, 0.429199218750, -3.312500000000, 2.257812500000, -1.734375000000, 1491366305
0.215576171875, -0.914550781250, 0.429199218750, -3.312500000000, 2.257812500000, -1.734375000000, 1491366305
0.215576171875, -0.914550781250, 0.429199218750, -3.312500000000, 2.257812500000, -1.734375000000, 1491366305
0.215576171875, -0.914550781250, 0.429199218750, -3.312500000000, 2.257812500000, -1.734375000000, 1491366305
0.313476562500, -0.865478515625, 0.423095703125, -3.070312500000, 2.750000000000, -1.820312500000, 1491366305
0.313476562500, -0.865478515625, 0.423095703125, -3.070312500000, 2.750000000000, -1.820312500000, 1491366305
0.313476562500, -0.865478515625, 0.423095703125, -3.070312500000, 2.750000000000, -1.820312500000, 1491366305
0.225830078125, -1.002929687500, 0.434570312500, -2.781250000000, 2.710937500000, -3.289062500000, 1491366305
0.225830078125, -1.002929687500, 0.434570312500, -2.781250000000, 2.710937500000, -3.289062500000, 1491366305
0.225830078125, -1.002929687500, 0.434570312500, -2.781250000000, 2.710937500000, -3.289062500000, 1491366305
0.250488281250, -0.961181640625, 0.473144531250, -4.609375000000, -3.648437500000, -1.468750000000, 1491366305
0.250488281250, -0.961181640625, 0.473144531250, -4.609375000000, -3.648437500000, -1.468750000000, 1491366305
0.250488281250, -0.961181640625, 0.473144531250, -4.609375000000, -3.648437500000, -1.468750000000, 1491366305
0.163085937500, -0.783447265625, 0.584228515625, -1.578125000000, -0.968750000000, -1.273437500000, 1491366305
0.163085937500, -0.783447265625, 0.584228515625, -1.578125000000, -0.968750000000, -1.273437500000, 1491366305
0.163085937500, -0.783447265625, 0.584228515625, -1.578125000000, -0.968750000000, -1.273437500000, 1491366305
0.326171875000, -0.862792968750, 0.408691406250, -4.937500000000, 2.531250000000, -4.078125000000, 1491366305
0.326171875000, -0.862792968750, 0.408691406250, -4.937500000000, 2.531250000000, -4.078125000000, 1491366305
0.326171875000, -0.862792968750, 0.408691406250, -4.937500000000, 2.531250000000, -4.078125000000, 1491366305
0.326171875000, -0.862792968750, 0.408691406250, -4.937500000000, 2.531250000000, -4.078125000000, 1491366305
0.248046875000, -0.799072265625, 0.510742187500, -3.015625000000, -0.437500000000, 0.562500000000, 1491366305
0.248046875000, -0.799072265625, 0.510742187500, -3.015625000000, -0.437500000000, 0.562500000000, 1491366305
0.248046875000, -0.799072265625, 0.510742187500, -3.015625000000, -0.437500000000, 0.562500000000, 1491366305
0.247314453125, -0.851806640625, 0.463378906250, -6.046875000000, 0.328125000000, -3.921875000000, 1491366305
0.247314453125, -0.851806640625, 0.463378906250, -6.046875000000, 0.328125000000, -3.921875000000, 1491366305
0.247314453125, -0.851806640625, 0.463378906250, -6.046875000000, 0.328125000000, -3.921875000000, 1491366305
0.234863281250, -0.792480468750, 0.481933593750, -3.757812500000, 0.843750000000, -1.710937500000, 1491366305
0.234863281250, -0.792480468750, 0.481933593750, -3.757812500000, 0.843750000000, -1.710937500000, 1491366305
0.234863281250, -0.792480468750, 0.481933593750, -3.757812500000, 0.843750000000, -1.710937500000, 1491366305
0.234863281250, -0.792480468750, 0.481933593750, -3.757812500000, 0.843750000000, -1.710937500000, 1491366305
0.186279296875, -0.858886718750, 0.478515625000, -1.804687500000, 0.250000000000, -3.835937500000, 1491366305
0.186279296875, -0.858886718750, 0.478515625000, -1.804687500000, 0.250000000000, -3.835937500000, 1491366305
0.186279296875, -0.858886718750, 0.478515625000, -1.804687500000, 0.250000000000, -3.835937500000, 1491366305
0.171386718750, -0.851806640625, 0.527832031250, -4.453125000000, -0.664062500000, -4.078125000000, 1491366305
0.171386718750, -0.851806640625, 0.527832031250, -4.453125000000, -0.664062500000, -4.078125000000, 1491366305
0.171386718750, -0.851806640625, 0.527832031250, -4.453125000000, -0.664062500000, -4.078125000000, 1491366305
0.209228515625, -0.848632812500, 0.476562500000, -3.171875000000, 2.015625000000, -1.109375000000, 1491366305
0.209228515625, -0.848632812500, 0.476562500000, -3.171875000000, 2.015625000000, -1.109375000000, 1491366305
0.224609375000, -0.893066406250, 0.527099609375, -4.140625000000, -2.867187500000, -5.023437500000, 1491366306
0.224609375000, -0.893066406250, 0.527099609375, -4.140625000000, -2.867187500000, -5.023437500000, 1491366306
0.224609375000, -0.893066406250, 0.527099609375, -4.140625000000, -2.867187500000, -5.023437500000, 1491366306
0.224609375000, -0.893066406250, 0.527099609375, -4.140625000000, -2.867187500000, -5.023437500000, 1491366306
0.224609375000, -0.893066406250, 0.527099609375, -3.960937500000, -1.265625000000, -4.148437500000, 1491366306
0.265380859375, -0.844238281250, 0.496582031250, -3.632812500000, -2.710937500000, -3.171875000000, 1491366306
0.265380859375, -0.844238281250, 0.496582031250, -3.632812500000, -2.710937500000, -3.171875000000, 1491366306
0.265380859375, -0.844238281250, 0.496582031250, -3.632812500000, -2.710937500000, -3.171875000000, 1491366306
0.202392578125, -0.742919921875, 0.503417968750, -6.453125000000, -2.242187500000, -4.015625000000, 1491366306
0.202392578125, -0.742919921875, 0.503417968750, -6.453125000000, -2.242187500000, -4.015625000000, 1491366306
0.202392578125, -0.742919921875, 0.503417968750, -6.453125000000, -2.242187500000, -4.015625000000, 1491366306
0.265869140625, -0.849365234375, 0.437011718750, -3.796875000000, 1.273437500000, -6.093750000000, 1491366306
0.265869140625, -0.849365234375, 0.437011718750, -3.796875000000, 1.273437500000, -6.093750000000, 1491366306
0.280761718750, -0.815185546875, 0.433837890625, -4.765625000000, -1.289062500000, -6.687500000000, 1491366306
0.280761718750, -0.815185546875, 0.433837890625, -4.765625000000, -1.289062500000, -6.687500000000, 1491366306
0.280761718750, -0.815185546875, 0.433837890625, -4.765625000000, -1.289062500000, -6.687500000000, 1491366306
0.280761718750, -0.815185546875, 0.433837890625, -4.765625000000, -1.289062500000, -6.687500000000, 1491366306
0.280761718750, -0.815185546875, 0.433837890625, -4.765625000000, -1.289062500000, -6.687500000000, 1491366306
0.313964843750, -0.815185546875, 0.573974609375, -6.960937500000, 4.140625000000, -1.882812500000, 1491366306
0.313964843750, -0.815185546875, 0.573974609375, -6.960937500000, 4.140625000000, -1.882812500000, 1491366306
0.313964843750, -0.815185546875, 0.573974609375, -6.960937500000, 4.140625000000, -1.882812500000, 1491366306
0.264648437500, -0.892089843750, 0.502685546875, -5.085937500000, -1.125000000000, -4.343750000000, 1491366306
0.264648437500, -0.892089843750, 0.502685546875, -5.085937500000, -1.125000000000, -4.343750000000, 1491366306
0.264648437500, -0.892089843750, 0.502685546875, -5.085937500000, -1.125000000000, -4.343750000000, 1491366306
0.333007812500, -0.822265625000, 0.423583984375, -3.695312500000, -6.570312500000, -3.375000000000, 1491366306
0.333007812500, -0.822265625000, 0.423583984375, -3.695312500000, -6.570312500000, -3.375000000000, 1491366306
0.171875000000, -0.790527343750, 0.512451171875, -6.187500000000, -2.648437500000, -1.812500000000, 1491366306
0.171875000000, -0.790527343750, 0.512451171875, -6.187500000000, -2.648437500000, -1.812500000000, 1491366306
0.171875000000, -0.790527343750, 0.512451171875, -6.187500000000, -2.648437500000, -1.812500000000, 1491366306
0.171875000000, -0.790527343750, 0.512451171875, -6.187500000000, -2.648437500000, -1.812500000000, 1491366306
0.171875000000, -0.790527343750, 0.512451171875, -6.187500000000, -2.648437500000, -1.812500000000, 1491366306
0.105957031250, -0.919677734375, 0.433837890625, -6.054687500000, -0.476562500000, -2.921875000000, 1491366306
0.105957031250, -0.919677734375, 0.433837890625, -6.054687500000, -0.476562500000, -2.921875000000, 1491366306
0.105957031250, -0.919677734375, 0.433837890625, -6.054687500000, -0.476562500000, -2.921875000000, 1491366306
0.274902343750, -0.890625000000, 0.586669921875, -6.789062500000, -5.554687500000, -6.367187500000, 1491366306
0.274902343750, -0.890625000000, 0.586669921875, -6.789062500000, -5.554687500000, -6.367187500000, 1491366306
0.274902343750, -0.890625000000, 0.586669921875, -6.789062500000, -5.554687500000, -6.367187500000, 1491366306
0.322753906250, -0.818115234375, 0.503173828125, -3.601562500000, -4.867187500000, -3.664062500000, 1491366306
0.322753906250, -0.818115234375, 0.503173828125, -3.601562500000, -4.867187500000, -3.664062500000, 1491366306
0.322753906250, -0.818115234375, 0.503173828125, -3.601562500000, -4.867187500000, -3.664062500000, 1491366306
0.340332031250, -0.854492187500, 0.459716796875, -6.203125000000, -5.593750000000, -4.890625000000, 1491366306
0.340332031250, -0.854492187500, 0.459716796875, -6.203125000000, -5.593750000000, -4.890625000000, 1491366306
0.340332031250, -0.854492187500, 0.459716796875, -6.203125000000, -5.593750000000, -4.890625000000, 1491366306
0.340332031250, -0.854492187500, 0.459716796875, -6.203125000000, -5.593750000000, -4.890625000000, 1491366306
0.247558593750, -0.892578125000, 0.417968750000, -3.187500000000, -6.656250000000, -5.609375000000, 1491366306
0.247558593750, -0.892578125000, 0.417968750000, -3.187500000000, -6.656250000000, -5.609375000000, 1491366306
0.247558593750, -0.892578125000, 0.417968750000, -3.187500000000, -6.656250000000, -5.609375000000, 1491366306
0.243408203125, -0.880615234375, 0.415283203125, -6.609375000000, -6.343750000000, -5.421875000000, 1491366306
0.243408203125, -0.880615234375, 0.415283203125, -6.609375000000, -6.343750000000, -5.421875000000, 1491366306
0.243408203125, -0.880615234375, 0.415283203125, -6.609375000000, -6.343750000000, -5.421875000000, 1491366306
0.229492187500, -0.798339843750, 0.584228515625, -6.750000000000, -6.257812500000, -5.742187500000, 1491366306
0.229492187500, -0.798339843750, 0.584228515625, -6.750000000000, -6.257812500000, -5.742187500000, 1491366306
0.229492187500, -0.798339843750, 0.584228515625, -6.750000000000, -6.257812500000, -5.742187500000, 1491366306
0.327392578125, -0.878662109375, 0.506347656250, -5.218750000000, -2.851562500000, -6.351562500000, 1491366306
0.327392578125, -0.878662109375, 0.506347656250, -5.218750000000, -2.851562500000, -6.351562500000, 1491366306
0.327392578125, -0.878662109375, 0.506347656250, -5.218750000000, -2.851562500000, -6.351562500000, 1491366306
0.327392578125, -0.878662109375, 0.506347656250, -5.218750000000, -2.851562500000, -6.351562500000, 1491366306
0.178955078125, -0.821533203125, 0.460693359375, -3.523437500000, 0.039062500000, -1.507812500000, 1491366306
0.178955078125, -0.821533203125, 0.460693359375, -3.523437500000, 0.039062500000, -1.507812500000, 1491366306
0.178955078125, -0.821533203125, 0.460693359375, -3.523437500000, 0.039062500000, -1.507812500000, 1491366306
0.242431640625, -0.803222656250, 0.363769531250, -6.117187500000, -4.507812500000, -4.789062500000, 1491366306
0.242431640625, -0.803222656250, 0.363769531250, -6.117187500000, -4.507812500000, -4.789062500000, 1491366306
0.242431640625, -0.803222656250, 0.363769531250, -6.117187500000, -4.507812500000, -4.789062500000, 1491366306
0.328125000000, -0.834228515625, 0.428955078125, -3.796875000000, -1.070312500000, -3.257812500000, 1491366306
0.328125000000, -0.834228515625, 0.428955078125, -3.796875000000, -1.070312500000, -3.257812500000, 1491366306
0.328125000000, -0.834228515625, 0.428955078125, -3.796875000000, -1.070312500000, -3.257812500000, 1491366306
0.269287109375, -0.881591796875, 0.417236328125, -6.062500000000, -0.015625000000, -3.656250000000, 1491366306
0.269287109375, -0.881591796875, 0.417236328125, -6.062500000000, -0.015625000000, -3.656250000000, 1491366306
0.269287109375, -0.881591796875, 0.417236328125, -6.062500000000, -0.015625000000, -3.656250000000, 1491366307
0.269287109375, -0.881591796875, 0.417236328125, -6.062500000000, -0.015625000000, -3.656250000000, 1491366307
0.257324218750, -0.847412109375, 0.565429687500, -3.093750000000, -4.609375000000, -5.734375000000, 1491366307
0.257324218750, -0.847412109375, 0.565429687500, -3.093750000000, -4.609375000000, -5.734375000000, 1491366307
0.257324218750, -0.847412109375, 0.565429687500, -3.093750000000, -4.609375000000, -5.734375000000, 1491366307
0.235107421875, -0.843505859375, 0.411132812500, -1.843750000000, 2.476562500000, -7.671875000000, 1491366307
0.235107421875, -0.843505859375, 0.411132812500, -1.843750000000, 2.476562500000, -7.671875000000, 1491366307
0.235107421875, -0.843505859375, 0.411132812500, -1.843750000000, 2.476562500000, -7.671875000000, 1491366307
0.250732421875, -0.732421875000, 0.509765625000, -4.476562500000, -2.523437500000, -8.007812500000, 1491366307
0.250732421875, -0.732421875000, 0.509765625000, -4.476562500000, -2.523437500000, -8.007812500000, 1491366307
0.250732421875, -0.732421875000, 0.509765625000, -4.476562500000, -2.523437500000, -8.007812500000, 1491366307
0.339355468750, -0.856933593750, 0.463867187500, -3.492187500000, -5.445312500000, -8.289062500000, 1491366307
0.339355468750, -0.856933593750, 0.463867187500, -3.492187500000, -5.445312500000, -8.289062500000, 1491366307
0.339355468750, -0.856933593750, 0.463867187500, -3.492187500000, -5.445312500000, -8.289062500000, 1491366307
0.339355468750, -0.856933593750, 0.463867187500, -3.492187500000, -5.445312500000, -8.289062500000, 1491366307
0.320800781250, -0.806640625000, 0.422851562500, -1.328125000000, 1.664062500000, -8.476562500000, 1491366307
0.320800781250, -0.806640625000, 0.422851562500, -1.328125000000, 1.664062500000, -8.476562500000, 1491366307
0.320800781250, -0.806640625000, 0.422851562500, -1.328125000000, 1.664062500000, -8.476562500000, 1491366307
0.240722656250, -0.875976562500, 0.477294921875, -4.234375000000, -0.078125000000, -4.695312500000, 1491366307
0.240722656250, -0.875976562500, 0.477294921875, -4.234375000000, -0.078125000000, -4.695312500000, 1491366307
0.240722656250, -0.875976562500, 0.477294921875, -4.234375000000, -0.078125000000, -4.695312500000, 1491366307
0.315917968750, -0.794677734375, 0.453613281250, -2.789062500000, -3.320312500000, -5.554687500000, 1491366307
0.315917968750, -0.794677734375, 0.453613281250, -2.789062500000, -3.320312500000, -5.554687500000, 1491366307
0.315917968750, -0.794677734375, 0.453613281250, -2.789062500000, -3.320312500000, -5.554687500000, 1491366307
0.217773437500, -0.890625000000, 0.496337890625, -4.945312500000, -1.343750000000, -8.015625000000, 1491366307
0.217773437500, -0.890625000000, 0.496337890625, -4.945312500000, -1.343750000000, -8.015625000000, 1491366307
0.217773437500, -0.890625000000, 0.496337890625, -4.945312500000, -1.343750000000, -8.015625000000, 1491366307
0.217773437500, -0.890625000000, 0.496337890625, -4.945312500000, -1.343750000000, -8.015625000000, 1491366307
0.256347656250, -0.903808593750, 0.462646484375, -6.328125000000, -2.851562500000, -1.398437500000, 1491366307
0.256347656250, -0.903808593750, 0.462646484375, -6.328125000000, -2.851562500000, -1.398437500000, 1491366307
0.256347656250, -0.903808593750, 0.462646484375, -6.328125000000, -2.851562500000, -1.398437500000, 1491366307
0.270751953125, -0.809082031250, 0.423339843750, -6.484375000000, 0.312500000000, -7.726562500000, 1491366307
0.270751953125, -0.809082031250, 0.423339843750, -6.484375000000, 0.312500000000, -7.726562500000, 1491366307
0.270751953125, -0.809082031250, 0.423339843750, -6.484375000000, 0.312500000000, -7.726562500000, 1491366307
0.315917968750, -0.893066406250, 0.512695312500, -5.554687500000, 0.703125000000, -4.578125000000, 1491366307
0.315917968750, -0.893066406250, 0.512695312500, -5.554687500000, 0.703125000000, -4.578125000000, 1491366307
0.315917968750, -0.893066406250, 0.512695312500, -5.554687500000, 0.703125000000, -4.578125000000, 1491366307
0.186035156250, -0.913574218750, 0.407958984375, -6.359375000000, -6.085937500000, -8.062500000000, 1491366307
0.186035156250, -0.913574218750, 0.407958984375, -6.359375000000, -6.085937500000, -8.062500000000, 1491366307
0.186035156250, -0.913574218750, 0.407958984375, -6.359375000000, -6.085937500000, -8.062500000000, 1491366307
0.226074218750, -0.895996093750, 0.462402343750, -3.718750000000, -3.164062500000, -6.953125000000, 1491366307
0.325439453125, -0.882568359375, 0.522949218750, -6.757812500000, -3.375000000000, -2.976562500000, 1491366307
0.325439453125, -0.882568359375, 0.522949218750, -6.757812500000, -3.375000000000, -2.976562500000, 1491366307
0.325439453125, -0.882568359375, 0.522949218750, -6.757812500000, -3.375000000000, -2.976562500000, 1491366307
0.236572265625, -0.893066406250, 0.356445312500, -4.898437500000, 2.015625000000, -1.078125000000, 1491366307
0.236572265625, -0.893066406250, 0.356445312500, -4.898437500000, 2.015625000000, -1.078125000000, 1491366307
0.236572265625, -0.893066406250, 0.356445312500, -4.898437500000, 2.015625000000, -1.078125000000, 1491366307
0.236572265625, -0.810791015625, 0.502197265625, -3.742187500000, -2.867187500000, -3.507812500000, 1491366307
0.236572265625, -0.810791015625, 0.502197265625, -3.742187500000, -2.867187500000, -3.507812500000, 1491366307
0.236572265625, -0.810791015625, 0.502197265625, -3.742187500000, -2.867187500000, -3.507812500000, 1491366307
0.322753906250, -0.824462890625, 0.523193359375, -6.062500000000, -1.804687500000, -2.000000000000, 1491366307
0.322753906250, -0.824462890625, 0.523193359375, -6.062500000000, -1.804687500000, -2.000000000000, 1491366307
0.322753906250, -0.824462890625, 0.523193359375, -6.062500000000, -1.804687500000, -2.000000000000, 1491366307
0.322753906250, -0.824462890625, 0.523193359375, -6.062500000000, -1.804687500000, -2.000000000000, 1491366307
0.246337890625, -0.839843750000, 0.409667968750, -5.945312500000, -0.148437500000, -1.914062500000, 1491366307
0.246337890625, -0.839843750000, 0.409667968750, -5.945312500000, -0.148437500000, -1.914062500000, 1491366307
0.246337890625, -0.839843750000, 0.409667968750, -5.945312500000, -0.148437500000, -1.914062500000, 1491366307
0.234130859375, -0.790039062500, 0.467529296875, -6.671875000000, 4.343750000000, 0.000000000000, 1491366307
0.234130859375, -0.790039062500, 0.467529296875, -6.671875000000, 4.343750000000, 0.000000000000, 1491366307
0.234130859375, -0.790039062500, 0.467529296875, -6.671875000000, 4.343750000000, 0.000000000000, 1491366307
0.250976562500, -0.933593750000, 0.460693359375, -1.296875000000, -4.320312500000, -6.453125000000, 1491366307
0.250976562500, -0.933593750000, 0.460693359375, -1.296875000000, -4.320312500000, -6.453125000000, 1491366307
0.250976562500, -0.933593750000, 0.460693359375, -1.296875000000, -4.320312500000, -6.453125000000, 1491366307
0.271972656250, -0.963378906250, 0.426513671875, -6.179687500000, -2.671875000000, -4.757812500000, 1491366307
0.271972656250, -0.963378906250, 0.426513671875, -6.179687500000, -2.671875000000, -4.757812500000, 1491366307
0.271972656250, -0.963378906250, 0.426513671875, -6.179687500000, -2.671875000000, -4.757812500000, 1491366307
0.271972656250, -0.963378906250, 0.426513671875, -6.179687500000, -2.671875000000, -4.757812500000, 1491366307
0.229003906250, -0.798583984375, 0.500732421875, -4.875000000000, 0.218750000000, -4.320312500000, 1491366308
0.229003906250, -0.798583984375, 0.500732421875, -4.875000000000, 0.218750000000, -4.320312500000, 1491366308
0.229003906250, -0.798583984375, 0.500732421875, -4.875000000000, 0.218750000000, -4.320312500000, 1491366308
0.342041015625, -0.855712890625, 0.486816406250, -3.242187500000, 2.609375000000, -2.335937500000, 1491366308
0.342041015625, -0.855712890625, 0.486816406250, -3.242187500000, 2.609375000000, -2.335937500000, 1491366308
0.342041015625, -0.855712890625, 0.486816406250, -3.242187500000, 2.609375000000, -2.335937500000, 1491366308
0.185302734375, -0.850585937500, 0.501953125000, -4.273437500000, -0.882812500000, -4.671875000000, 1491366308
0.185302734375, -0.850585937500, 0.501953125000, -4.273437500000, -0.882812500000, -4.671875000000, 1491366308
0.181396484375, -0.787841796875, 0.524658203125, -3.210937500000, -0.757812500000, -3.679687500000, 1491366308
0.181396484375, -0.787841796875, 0.524658203125, -3.210937500000, -0.757812500000, -3.679687500000, 1491366308
0.181396484375, -0.787841796875, 0.524658203125, -3.210937500000, -0.757812500000, -3.679687500000, 1491366308
0.181396484375, -0.787841796875, 0.524658203125, -3.210937500000, -0.757812500000, -3.679687500000, 1491366308
0.245605468750, -0.889160156250, 0.493408203125, -3.398437500000, 2.117187500000, -5.984375000000, 1491366308
0.245605468750, -0.889160156250, 0.493408203125, -3.398437500000, 2.117187500000, -5.984375000000, 1491366308
0.245605468750, -0.889160156250, 0.493408203125, -3.398437500000, 2.117187500000, -5.984375000000, 1491366308
0.392822265625, -0.938476562500, 0.473876953125, -1.914062500000, -0.187500000000, -1.984375000000, 1491366308
0.170410156250, -0.883300781250, 0.489746093750, -4.742187500000, 0.898437500000, -1.593750000000, 1491366308
0.170410156250, -0.883300781250, 0.489746093750, -4.742187500000, 0.898437500000, -1.593750000000, 1491366308
0.170410156250, -0.883300781250, 0.489746093750, -4.742187500000, 0.898437500000, -1.593750000000, 1491366308
0.331298828125, -0.807373046875, 0.464599609375, -4.882812500000, -2.179687500000, -3.976562500000, 1491366308
0.331298828125, -0.807373046875, 0.464599609375, -4.882812500000, -2.179687500000, -3.976562500000, 1491366308
0.331298828125, -0.807373046875, 0.464599609375, -4.882812500000, -2.179687500000, -3.976562500000, 1491366308
0.339355468750, -0.896972656250, 0.428466796875, -4.335937500000, -2.796875000000, -1.562500000000, 1491366308
0.339355468750, -0.896972656250, 0.428466796875, -4.335937500000, -2.796875000000, -1.562500000000, 1491366308
0.339355468750, -0.896972656250, 0.428466796875, -4.335937500000, -2.796875000000, -1.562500000000, 1491366308
0.339355468750, -0.896972656250, 0.428466796875, -4.335937500000, -2.796875000000, -1.562500000000, 1491366308
0.181884765625, -0.820312500000, 0.432617187500, -1.476562500000, 2.265625000000, -3.312500000000, 1491366308
0.181884765625, -0.820312500000, 0.432617187500, -1.476562500000, 2.265625000000, -3.312500000000, 1491366308
0.181884765625, -0.820312500000, 0.432617187500, -1.476562500000, 2.265625000000, -3.312500000000, 1491366308
0.166992187500, -0.739990234375, 0.483398437500, -3.125000000000, -0.921875000000, -3.757812500000, 1491366308
0.166992187500, -0.739990234375, 0.483398437500, -3.125000000000, -0.921875000000, -3.757812500000, 1491366308
0.166992187500, -0.739990234375, 0.483398437500, -3.125000000000, -0.921875000000, -3.757812500000, 1491366308
0.236328125000, -0.832519531250, 0.566650390625, -4.890625000000, -4.281250000000, -4.968750000000, 1491366308
0.236328125000, -0.832519531250, 0.566650390625, -4.890625000000, -4.281250000000, -4.968750000000, 1491366308
0.236328125000, -0.832519531250, 0.566650390625, -4.890625000000, -4.281250000000, -4.968750000000, 1491366308
0.267089843750, -0.856201171875, 0.577148437500, -3.257812500000, 0.953125000000, -4.875000000000, 1491366308
0.267089843750, -0.856201171875, 0.577148437500, -3.257812500000, 0.953125000000, -4.875000000000, 1491366308
0.186767578125, -0.866455078125, 0.476806640625, -4.906250000000, -1.226562500000, -1.757812500000, 1491366308
0.186767578125, -0.866455078125, 0.476806640625, -4.906250000000, -1.226562500000, -1.757812500000, 1491366308
0.186767578125, -0.866455078125, 0.476806640625, -4.906250000000, -1.226562500000, -1.757812500000, 1491366308
0.186767578125, -0.866455078125, 0.476806640625, -4.906250000000, -1.226562500000, -1.757812500000, 1491366308
0.186767578125, -0.866455078125, 0.476806640625, -4.906250000000, -1.226562500000, -1.757812500000, 1491366308
0.177978515625, -0.800048828125, 0.484619140625, -1.968750000000, -2.867187500000, -1.773437500000, 1491366308
0.177978515625, -0.800048828125, 0.484619140625, -1.968750000000, -2.867187500000, -1.773437500000, 1491366308
0.177978515625, -0.800048828125, 0.484619140625, -1.968750000000, -2.867187500000, -1.773437500000, 1491366308
0.331054687500, -0.869384765625, 0.472900390625, -5.085937500000, -1.523437500000, -6.382812500000, 1491366308
0.331054687500, -0.869384765625, 0.472900390625, -5.085937500000, -1.523437500000, -6.382812500000, 1491366308
0.331054687500, -0.869384765625, 0.472900390625, -5.085937500000, -1.523437500000, -6.382812500000, 1491366308
0.224365234375, -0.892333984375, 0.475097656250, -3.179687500000, -0.125000000000, -3.460937500000, 1491366308
0.224365234375, -0.892333984375, 0.475097656250, -3.179687500000, -0.125000000000, -3.460937500000, 1491366308
0.224365234375, -0.892333984375, 0.475097656250, -3.179687500000, -0.125000000000, -3.460937500000, 1491366308
0.224365234375, -0.892333984375, 0.475097656250, -3.179687500000, -0.125000000000, -3.460937500000, 1491366308
0.193847656250, -0.884033203125, 0.409667968750, -4.906250000000, 0.484375000000, -4.953125000000, 1491366308
0.193847656250, -0.884033203125, 0.409667968750, -4.906250000000, 0.484375000000, -4.953125000000, 1491366308
0.193847656250, -0.884033203125, 0.409667968750, -4.906250000000, 0.484375000000, -4.953125000000, 1491366308
0.228759765625, -0.879638671875, 0.433105468750, -1.617187500000, -0.679687500000, -2.093750000000, 1491366308
0.228759765625, -0.879638671875, 0.433105468750, -1.617187500000, -0.679687500000, -2.093750000000, 1491366308
0.228759765625, -0.879638671875, 0.433105468750, -1.617187500000, -0.679687500000, -2.093750000000, 1491366308
0.234863281250, -0.947265625000, 0.445068359375, -6.195312500000, -2.820312500000, -3.625000000000, 1491366308
0.234863281250, -0.947265625000, 0.445068359375, -6.195312500000, -2.820312500000, -3.625000000000, 1491366308
0.234863281250, -0.947265625000, 0.445068359375, -6.195312500000, -2.820312500000, -3.625000000000, 1491366308
0.235595703125, -0.888671875000, 0.517822265625, -1.242187500000, -0.710937500000, -3.078125000000, 1491366308
0.235595703125, -0.888671875000, 0.517822265625, -1.242187500000, -0.710937500000, -3.078125000000, 1491366308
0.235595703125, -0.888671875000, 0.517822265625, -1.242187500000, -0.710937500000, -3.078125000000, 1491366308
0.235595703125, -0.888671875000, 0.517822265625, -1.242187500000, -0.710937500000, -3.078125000000, 1491366308
0.249511718750, -0.918945312500, 0.450195312500, -2.000000000000, 1.000000000000, -2.765625000000, 1491366308
0.249511718750, -0.918945312500, 0.450195312500, -2.000000000000, 1.000000000000, -2.765625000000, 1491366308
0.249511718750, -0.918945312500, 0.450195312500, -2.000000000000, 1.000000000000, -2.765625000000, 1491366308
0.256103515625, -0.880859375000, 0.477050781250, -1.726562500000, 0.609375000000, -4.007812500000, 1491366309
0.256103515625, -0.880859375000, 0.477050781250, -1.726562500000, 0.609375000000, -4.007812500000, 1491366309
0.256103515625, -0.880859375000, 0.477050781250, -1.726562500000, 0.609375000000, -4.007812500000, 1491366309
0.242187500000, -0.857666015625, 0.508300781250, -6.351562500000, 2.679687500000, -1.203125000000, 1491366309
0.242187500000, -0.857666015625, 0.508300781250, -6.351562500000, 2.679687500000, -1.203125000000, 1491366309
0.242187500000, -0.857666015625, 0.508300781250, -6.351562500000, 2.679687500000, -1.203125000000, 1491366309
0.185791015625, -0.897705078125, 0.413330078125, -4.335937500000, -0.960937500000, -4.414062500000, 1491366309
0.185791015625, -0.897705078125, 0.413330078125, -4.335937500000, -0.960937500000, -4.414062500000, 1491366309
0.185791015625, -0.897705078125, 0.413330078125, -4.335937500000, -0.960937500000, -4.414062500000, 1491366309
0.185791015625, -0.897705078125, 0.413330078125, -4.335937500000, -0.960937500000, -4.414062500000, 1491366309
0.251953125000, -0.891357421875, 0.486083984375, -1.460937500000, -1.687500000000, -1.523437500000, 1491366309
0.251953125000, -0.891357421875, 0.486083984375, -1.460937500000, -1.687500000000, -1.523437500000, 1491366309
0.251953125000, -0.891357421875, 0.486083984375, -1.460937500000, -1.687500000000, -1.523437500000, 1491366309
0.270263671875, -0.816162109375, 0.504394531250, -3.789062500000, 6.101562500000, -1.085937500000, 1491366309
0.270263671875, -0.816162109375, 0.504394531250, -3.789062500000, 6.101562500000, -1.085937500000, 1491366309
0.270263671875, -0.816162109375, 0.504394531250, -3.789062500000, 6.101562500000, -1.085937500000, 1491366309
0.180419921875, -0.799804687500, 0.473388671875, -1.617187500000, -0.859375000000, -3.140625000000, 1491366309
0.180419921875, -0.799804687500, 0.473388671875, -1.617187500000, -0.859375000000, -3.140625000000, 1491366309
0.180419921875, -0.799804687500, 0.473388671875, -1.617187500000, -0.859375000000, -3.140625000000, 1491366309
0.184814453125, -0.882080078125, 0.374755859375, -3.695312500000, -3.601562500000, -6.390625000000, 1491366309
0.184814453125, -0.882080078125, 0.374755859375, -3.695312500000, -3.601562500000, -6.390625000000, 1491366309
0.184814453125, -0.882080078125, 0.374755859375, -3.695312500000, -3.601562500000, -6.390625000000, 1491366309
0.184814453125, -0.882080078125, 0.374755859375, -3.695312500000, -3.601562500000, -6.390625000000, 1491366309
0.108886718750, -0.954589843750, 0.471923828125, -3.148437500000, -0.195312500000, -4.828125000000, 1491366309
0.108886718750, -0.954589843750, 0.471923828125, -3.148437500000, -0.195312500000, -4.828125000000, 1491366309
0.108886718750, -0.954589843750, 0.471923828125, -3.148437500000, -0.195312500000, -4.828125000000, 1491366309
0.180664062500, -0.893310546875, 0.475830078125, -1.953125000000, 3.265625000000, -1.648437500000, 1491366309
0.180664062500, -0.893310546875, 0.475830078125, -1.953125000000, 3.265625000000, -1.648437500000, 1491366309
0.180664062500, -0.893310546875, 0.475830078125, -1.953125000000, 3.265625000000, -1.648437500000, 1491366309
0.244384765625, -0.852783203125, 0.506347656250, -4.640625000000, -1.796875000000, -3.796875000000, 1491366309
0.244384765625, -0.852783203125, 0.506347656250, -4.640625000000, -1.796875000000, -3.796875000000, 1491366309
0.244384765625, -0.852783203125, 0.506347656250, -4.640625000000, -1.796875000000, -3.796875000000, 1491366309
0.272460937500, -0.841552734375, 0.487548828125, -4.992187500000, -2.585937500000, -4.500000000000, 1491366309
0.272460937500, -0.841552734375, 0.487548828125, -4.992187500000, -2.585937500000, -4.500000000000, 1491366309
0.272460937500, -0.841552734375, 0.487548828125, -4.992187500000, -2.585937500000, -4.500000000000, 1491366309
0.272460937500, -0.841552734375, 0.487548828125, -4.992187500000, -2.585937500000, -4.500000000000, 1491366309
0.337890625000, -0.904785156250, 0.436767578125, -2.507812500000, 2.078125000000, -3.273437500000, 1491366309
0.337890625000, -0.904785156250, 0.436767578125, -2.507812500000, 2.078125000000, -3.273437500000, 1491366309
0.337890625000, -0.904785156250, 0.436767578125, -2.507812500000, 2.078125000000, -3.273437500000, 1491366309
0.245605468750, -0.832031250000, 0.415771484375, -4.195312500000, -1.656250000000, 0.421875000000, 1491366309
0.245605468750, -0.832031250000, 0.415771484375, -4.195312500000, -1.656250000000, 0.421875000000, 1491366309
0.245605468750, -0.832031250000, 0.415771484375, -4.195312500000, -1.656250000000, 0.421875000000, 1491366309
0.184082031250, -0.899414062500, 0.470214843750, 0.296875000000, -2.929687500000, -3.710937500000, 1491366309
0.184082031250, -0.899414062500, 0.470214843750, 0.296875000000, -2.929687500000, -3.710937500000, 1491366309
0.184082031250, -0.899414062500, 0.470214843750, 0.296875000000, -2.929687500000, -3.710937500000, 1491366309
0.284667968750, -0.789306640625, 0.509277343750, 5.726562500000, -4.945312500000, -3.023437500000, 1491366309
0.284667968750, -0.789306640625, 0.509277343750, 5.726562500000, -4.945312500000, -3.023437500000, 1491366309
0.284667968750, -0.789306640625, 0.509277343750, 5.726562500000, -4.945312500000, -3.023437500000, 1491366309
0.284667968750, -0.789306640625, 0.509277343750, 5.726562500000, -4.945312500000, -3.023437500000, 1491366309
0.265380859375, -0.955322265625, 0.479736328125, 9.851562500000, -5.445312500000, -10.429687500000, 1491366309
0.265380859375, -0.955322265625, 0.479736328125, 9.851562500000, -5.445312500000, -10.429687500000, 1491366309
0.265380859375, -0.955322265625, 0.479736328125, 9.851562500000, -5.445312500000, -10.429687500000, 1491366309
0.269287109375, -0.666992187500, 0.375000000000, 25.546875000000, 5.632812500000, -2.414062500000, 1491366309
0.269287109375, -0.666992187500, 0.375000000000, 25.546875000000, 5.632812500000, -2.414062500000, 1491366309
0.269287109375, -0.666992187500, 0.375000000000, 25.546875000000, 5.632812500000, -2.414062500000, 1491366309
0.169433593750, -0.626464843750, 0.290283203125, 41.523437500000, 15.671875000000, -3.375000000000, 1491366309
0.169433593750, -0.626464843750, 0.290283203125, 41.523437500000, 15.671875000000, -3.375000000000, 1491366309
0.169433593750, -0.626464843750, 0.290283203125, 41.523437500000, 15.671875000000, -3.375000000000, 1491366309
0.038085937500, -0.240722656250, 0.199218750000, 65.601562500000, 36.445312500000, -3.031250000000, 1491366309
0.038085937500, -0.240722656250, 0.199218750000, 65.601562500000, 36.445312500000, -3.031250000000, 1491366309
0.038085937500, -0.240722656250, 0.199218750000, 65.601562500000, 36.445312500000, -3.031250000000, 1491366309
0.038085937500, -0.240722656250, 0.199218750000, 65.601562500000, 36.445312500000, -3.031250000000, 1491366309
0.102539062500, -0.515380859375, 0.176757812500, 54.937500000000, 100.031250000000, 0.492187500000, 1491366309
0.102539062500, -0.515380859375, 0.176757812500, 54.937500000000, 100.031250000000, 0.492187500000, 1491366309
0.102539062500, -0.515380859375, 0.176757812500, 54.937500000000, 100.031250000000, 0.492187500000, 1491366309
0.251220703125, -0.930419921875, 0.237792968750, -12.101562500000, 30.570312500000, -8.210937500000, 1491366310
0.251220703125, -0.930419921875, 0.237792968750, -12.101562500000, 30.570312500000, -8.210937500000, 1491366310
0.251220703125, -0.930419921875, 0.237792968750, -12.101562500000, 30.570312500000, -8.210937500000, 1491366310
0.265136718750, -1.153564453125, 0.376464843750, 25.726562500000, -30.179687500000, -13.335937500000, 1491366310
0.265136718750, -1.153564453125, 0.376464843750, 25.726562500000, -30.179687500000, -13.335937500000, 1491366310
0.265136718750, -1.153564453125, 0.376464843750, 25.726562500000, -30.179687500000, -13.335937500000, 1491366310
0.280029296875, -1.588378906250, 0.416503906250, 2.539062500000, -18.328125000000, -15.617187500000, 1491366310
0.280029296875, -1.588378906250, 0.416503906250, 2.539062500000, -18.328125000000, -15.617187500000, 1491366310
0.280029296875, -1.588378906250, 0.416503906250, 2.539062500000, -18.328125000000, -15.617187500000, 1491366310
0.280029296875, -1.588378906250, 0.416503906250, 2.539062500000, -18.328125000000, -15.617187500000, 1491366310
0.375000000000, -1.886962890625, 0.525634765625, -38.140625000000, -49.625000000000, -26.554687500000, 1491366310
0.375000000000, -1.886962890625, 0.525634765625, -38.140625000000, -49.625000000000, -26.554687500000, 1491366310
0.375000000000, -1.886962890625, 0.525634765625, -38.140625000000, -49.625000000000, -26.554687500000, 1491366310
0.364013671875, -2.138671875000, 0.592529296875, -33.398437500000, -52.007812500000, -12.062500000000, 1491366310
0.364013671875, -2.138671875000, 0.592529296875, -33.398437500000, -52.007812500000, -12.062500000000, 1491366310
0.364013671875, -2.138671875000, 0.592529296875, -33.398437500000, -52.007812500000, -12.062500000000, 1491366310
0.375000000000, -1.973632812500, 0.600097656250, -12.460937500000, -85.632812500000, -4.976562500000, 1491366310
0.375000000000, -1.973632812500, 0.600097656250, -12.460937500000, -85.632812500000, -4.976562500000, 1491366310
0.375000000000, -1.973632812500, 0.600097656250, -12.460937500000, -85.632812500000, -4.976562500000, 1491366310
0.460449218750, -1.798828125000, 0.674316406250, -60.390625000000, -1.664062500000, 19.320312500000, 1491366310
0.460449218750, -1.798828125000, 0.674316406250, -60.390625000000, -1.664062500000, 19.320312500000, 1491366310
0.460449218750, -1.798828125000, 0.674316406250, -60.390625000000, -1.664062500000, 19.320312500000, 1491366310
0.460449218750, -1.798828125000, 0.674316406250, -60.390625000000, -1.664062500000, 19.320312500000, 1491366310
0.208007812500, -1.200195312500, 0.466064453125, -18.781250000000, 58.085937500000, -0.476562500000, 1491366310
0.208007812500, -1.200195312500, 0.466064453125, -18.781250000000, 58.085937500000, -0.476562500000, 1491366310
0.208007812500, -1.200195312500, 0.466064453125, -18.781250000000, 58.085937500000, -0.476562500000, 1491366310
0.062988281250, -0.348632812500, 0.202880859375, -23.859375000000, 89.343750000000, -7.125000000000, 1491366310
0.062988281250, -0.348632812500, 0.202880859375, -23.859375000000, 89.343750000000, -7.125000000000, 1491366310
0.062988281250, -0.348632812500, 0.202880859375, -23.859375000000, 89.343750000000, -7.125000000000, 1491366310
0.005859375000, -0.062744140625, 0.034423828125, -20.250000000000, 204.398437500000, 12.625000000000, 1491366310
0.005859375000, -0.062744140625, 0.034423828125, -20.250000000000, 204.398437500000, 12.625000000000, 1491366310
0.005859375000, -0.062744140625, 0.034423828125, -20.250000000000, 204.398437500000, 12.625000000000, 1491366310
-0.062500000000, 0.187988281250, 0.072753906250, -106.593750000000, 236.875000000000, -22.625000000000, 1491366310
-0.062500000000, 0.187988281250, 0.072753906250, -106.593750000000, 236.875000000000, -22.625000000000, 1491366310
-0.062500000000, 0.187988281250, 0.072753906250, -106.593750000000, 236.875000000000, -22.625000000000, 1491366310
-0.062500000000, 0.187988281250, 0.072753906250, -106.593750000000, 236.875000000000, -22.625000000000, 1491366310
0.014892578125, 0.019042968750, 0.010009765625, -140.570312500000, 201.507812500000, -52.648437500000, 1491366310
0.014892578125, 0.019042968750, 0.010009765625, -140.570312500000, 201.507812500000, -52.648437500000, 1491366310
0.014892578125, 0.019042968750, 0.010009765625, -140.570312500000, 201.507812500000, -52.648437500000, 1491366310
0.085205078125, -0.121337890625, 0.017089843750, -104.132812500000, 45.820312500000, -105.703125000000, 1491366310
0.085205078125, -0.121337890625, 0.017089843750, -104.132812500000, 45.820312500000, -105.703125000000, 1491366310
0.085205078125, -0.121337890625, 0.017089843750, -104.132812500000, 45.820312500000, -105.703125000000, 1491366310
-0.001464843750, -0.205810546875, 0.041992187500, -88.593750000000, -116.000000000000, -74.703125000000, 1491366310
-0.001464843750, -0.205810546875, 0.041992187500, -88.593750000000, -116.000000000000, -74.703125000000, 1491366310
-0.001464843750, -0.205810546875, 0.041992187500, -88.593750000000, -116.000000000000, -74.703125000000, 1491366310
0.016113281250, -0.200439453125, 0.073974609375, -80.140625000000, -93.843750000000, -62.828125000000, 1491366310
0.016113281250, -0.200439453125, 0.073974609375, -80.140625000000, -93.843750000000, -62.828125000000, 1491366310
0.016113281250, -0.200439453125, 0.073974609375, -80.140625000000, -93.843750000000, -62.828125000000, 1491366310
0.016113281250, -0.200439453125, 0.073974609375, -80.140625000000, -93.843750000000, -62.828125000000, 1491366310
0.376464843750, -1.861083984375, 0.474121093750, -144.882812500000, -214.632812500000, -79.289062500000, 1491366310
0.376464843750, -1.861083984375, 0.474121093750, -144.882812500000, -214.632812500000, -79.289062500000, 1491366310
0.376464843750, -1.861083984375, 0.474121093750, -144.882812500000, -214.632812500000, -79.289062500000, 1491366310
0.530029296875, -1.864501953125, 0.701660156250, 253.992187500000, -256.000000000000, -73.664062500000, 1491366310
0.530029296875, -1.864501953125, 0.701660156250, 253.992187500000, -256.000000000000, -73.664062500000, 1491366310
0.530029296875, -1.864501953125, 0.701660156250, 253.992187500000, -256.000000000000, -73.664062500000, 1491366310
0.552734375000, -2.486328125000, 1.310302734375, 253.992187500000, 253.992187500000, 7.703125000000, 1491366310
0.476806640625, -1.190185546875, 0.984863281250, -210.156250000000, 0.968750000000, 18.562500000000, 1491366310
0.476806640625, -1.190185546875, 0.984863281250, -210.156250000000, 0.968750000000, 18.562500000000, 1491366310
0.476806640625, -1.190185546875, 0.984863281250, -210.156250000000, 0.968750000000, 18.562500000000, 1491366310
0.252685546875, -1.160888671875, 0.285156250000, -70.023437500000, 253.992187500000, 33.617187500000, 1491366310
0.252685546875, -1.160888671875, 0.285156250000, -70.023437500000, 253.992187500000, 33.617187500000, 1491366310
0.252685546875, -1.160888671875, 0.285156250000, -70.023437500000, 253.992187500000, 33.617187500000, 1491366310
0.252685546875, -1.160888671875, 0.285156250000, -70.023437500000, 253.992187500000, 33.617187500000, 1491366310
0.252685546875, -1.160888671875, 0.285156250000, -70.023437500000, 253.992187500000, 33.617187500000, 1491366310
0.199462890625, -0.527343750000, 0.189697265625, -31.835937500000, 192.515625000000, -1.062500000000, 1491366310
0.199462890625, -0.527343750000, 0.189697265625, -31.835937500000, 192.515625000000, -1.062500000000, 1491366311
0.199462890625, -0.527343750000, 0.189697265625, -31.835937500000, 192.515625000000, -1.062500000000, 1491366311
0.199462890625, -0.527343750000, 0.189697265625, -31.835937500000, 192.515625000000, -1.062500000000, 1491366311
0.123291015625, -0.571289062500, 0.182861328125, -63.187500000000, 142.398437500000, -13.140625000000, 1491366311
0.123291015625, -0.571289062500, 0.182861328125, -63.187500000000, 142.398437500000, -13.140625000000, 1491366311
0.097167968750, -0.664062500000, 0.185058593750, 13.304687500000, -86.710937500000, -22.757812500000, 1491366311
0.097167968750, -0.664062500000, 0.185058593750, 13.304687500000, -86.710937500000, -22.757812500000, 1491366311
0.097167968750, -0.664062500000, 0.185058593750, 13.304687500000, -86.710937500000, -22.757812500000, 1491366311
0.097167968750, -0.664062500000, 0.185058593750, 13.304687500000, -86.710937500000, -22.757812500000, 1491366311
0.059570312500, -0.881103515625, 0.342041015625, 19.531250000000, -140.085937500000, -21.265625000000, 1491366311
-0.039794921875, -0.898193359375, 0.312255859375, 40.710937500000, -152.781250000000, -12.718750000000, 1491366311
-0.039794921875, -0.898193359375, 0.312255859375, 40.710937500000, -152.781250000000, -12.718750000000, 1491366311
-0.039794921875, -0.898193359375, 0.312255859375, 40.710937500000, -152.781250000000, -12.718750000000, 1491366311
0.194091796875, -0.984130859375, 0.631103515625, 84.609375000000, -256.000000000000, -85.835937500000, 1491366311
0.194091796875, -0.984130859375, 0.631103515625, 84.609375000000, -256.000000000000, -85.835937500000, 1491366311
0.194091796875, -0.984130859375, 0.631103515625, 84.609375000000, -256.000000000000, -85.835937500000, 1491366311
0.395507812500, -0.732910156250, 0.805664062500, -7.171875000000, 42.664062500000, 10.585937500000, 1491366311
0.395507812500, -0.732910156250, 0.805664062500, -7.171875000000, 42.664062500000, 10.585937500000, 1491366311
0.395507812500, -0.732910156250, 0.805664062500, -7.171875000000, 42.664062500000, 10.585937500000, 1491366311
0.127197265625, -0.795166015625, 0.312255859375, -37.156250000000, 71.101562500000, 7.195312500000, 1491366311
0.127197265625, -0.795166015625, 0.312255859375, -37.156250000000, 71.101562500000, 7.195312500000, 1491366311
0.127197265625, -0.795166015625, 0.312255859375, -37.156250000000, 71.101562500000, 7.195312500000, 1491366311
0.127197265625, -0.795166015625, 0.312255859375, -37.156250000000, 71.101562500000, 7.195312500000, 1491366311
0.193359375000, -0.846679687500, 0.348876953125, -9.804687500000, -4.695312500000, 2.906250000000, 1491366311
0.193359375000, -0.846679687500, 0.348876953125, -9.804687500000, -4.695312500000, 2.906250000000, 1491366311
0.193359375000, -0.846679687500, 0.348876953125, -9.804687500000, -4.695312500000, 2.906250000000, 1491366311
0.092773437500, -0.924804687500, 0.553955078125, 0.984375000000, -49.554687500000, -5.945312500000, 1491366311
0.092773437500, -0.924804687500, 0.553955078125, 0.984375000000, -49.554687500000, -5.945312500000, 1491366311
0.092773437500, -0.924804687500, 0.553955078125, 0.984375000000, -49.554687500000, -5.945312500000, 1491366311
0.251953125000, -0.868896484375, 0.628662109375, -8.554687500000, 8.359375000000, -2.976562500000, 1491366311
0.251953125000, -0.868896484375, 0.628662109375, -8.554687500000, 8.359375000000, -2.976562500000, 1491366311
0.251953125000, -0.868896484375, 0.628662109375, -8.554687500000, 8.359375000000, -2.976562500000, 1491366311
