ACC_X,ACC_Y,ACC_Z,G_X,G_Y,G_Z,Unix Time
-0.009765625000, -0.083496093750, -1.068603515625, -3.234375000000, 0.679687500000, -1.851562500000, 1491365828
-0.009765625000, -0.083496093750, -1.068603515625, -3.234375000000, 0.679687500000, -1.851562500000, 1491365828
-0.009765625000, -0.083496093750, -1.068603515625, -3.234375000000, 0.679687500000, -1.851562500000, 1491365828
0.023437500000, 0.076416015625, -0.926513671875, -3.437500000000, 0.492187500000, -3.710937500000, 1491365828
0.023437500000, 0.076416015625, -0.926513671875, -3.437500000000, 0.492187500000, -3.710937500000, 1491365828
0.023437500000, 0.076416015625, -0.926513671875, -3.437500000000, 0.492187500000, -3.710937500000, 1491365828
0.023437500000, 0.076416015625, -0.926513671875, -3.437500000000, 0.492187500000, -3.710937500000, 1491365828
-0.074462890625, -0.038330078125, -1.024169921875, -3.359375000000, -2.953125000000, -6.421875000000, 1491365828
0.072021484375, 0.007080078125, -0.969726562500, -3.710937500000, -1.843750000000, -4.296875000000, 1491365828
0.072021484375, 0.007080078125, -0.969726562500, -3.710937500000, -1.843750000000, -4.296875000000, 1491365828
0.072021484375, 0.007080078125, -0.969726562500, -3.710937500000, -1.843750000000, -4.296875000000, 1491365828
0.072021484375, 0.007080078125, -0.969726562500, -3.710937500000, -1.843750000000, -4.296875000000, 1491365828
0.108154296875, -0.016601562500, -1.016113281250, -3.250000000000, -1.835937500000, -1.453125000000, 1491365828
0.067871093750, -0.009033203125, -0.935302734375, -3.351562500000, -2.859375000000, -4.937500000000, 1491365828
0.067871093750, -0.009033203125, -0.935302734375, -3.351562500000, -2.859375000000, -4.937500000000, 1491365828
0.067871093750, -0.009033203125, -0.935302734375, -3.351562500000, -2.859375000000, -4.937500000000, 1491365828
0.011474609375, -0.083740234375, -0.977539062500, -4.390625000000, 0.851562500000, -1.257812500000, 1491365828
0.011474609375, -0.083740234375, -0.977539062500, -4.390625000000, 0.851562500000, -1.257812500000, 1491365828
0.011474609375, -0.083740234375, -0.977539062500, -4.390625000000, 0.851562500000, -1.257812500000, 1491365828
0.011474609375, -0.083740234375, -0.977539062500, -4.390625000000, 0.851562500000, -1.257812500000, 1491365828
0.036376953125, -0.083740234375, -0.988281250000, -3.453125000000, -0.546875000000, -4.789062500000, 1491365828
0.036376953125, -0.083740234375, -0.988281250000, -3.453125000000, -0.546875000000, -4.789062500000, 1491365828
0.036376953125, -0.083740234375, -0.988281250000, -3.453125000000, -0.546875000000, -4.789062500000, 1491365828
-0.005371093750, 0.010253906250, -0.937011718750, -6.343750000000, 0.828125000000, -4.695312500000, 1491365828
-0.005371093750, 0.010253906250, -0.937011718750, -6.343750000000, 0.828125000000, -4.695312500000, 1491365828
-0.005371093750, 0.010253906250, -0.937011718750, -6.343750000000, 0.828125000000, -4.695312500000, 1491365828
0.005859375000, -0.018310546875, -0.924316406250, -3.453125000000, 0.859375000000, -1.406250000000, 1491365828
0.005859375000, -0.018310546875, -0.924316406250, -3.453125000000, 0.859375000000, -1.406250000000, 1491365828
0.005859375000, -0.018310546875, -0.924316406250, -3.453125000000, 0.859375000000, -1.406250000000, 1491365828
0.081298828125, 0.022216796875, -1.067382812500, -3.929687500000, 0.953125000000, -6.054687500000, 1491365828
0.081298828125, 0.022216796875, -1.067382812500, -3.929687500000, 0.953125000000, -6.054687500000, 1491365828
0.081298828125, 0.022216796875, -1.067382812500, -3.929687500000, 0.953125000000, -6.054687500000, 1491365828
0.081298828125, 0.022216796875, -1.067382812500, -3.929687500000, 0.953125000000, -6.054687500000, 1491365828
0.018310546875, -0.027343750000, -0.985107421875, -3.148437500000, 0.968750000000, -1.421875000000, 1491365828
0.018310546875, -0.027343750000, -0.985107421875, -3.148437500000, 0.968750000000, -1.421875000000, 1491365828
0.018310546875, -0.027343750000, -0.985107421875, -3.148437500000, 0.968750000000, -1.421875000000, 1491365828
0.065917968750, -0.057617187500, -0.993164062500, -4.812500000000, -0.398437500000, -4.632812500000, 1491365828
0.065917968750, -0.057617187500, -0.993164062500, -4.812500000000, -0.398437500000, -4.632812500000, 1491365828
0.065917968750, -0.057617187500, -0.993164062500, -4.812500000000, -0.398437500000, -4.632812500000, 1491365828
-0.023437500000, 0.128662109375, -1.085693359375, -4.929687500000, -0.734375000000, -1.945312500000, 1491365828
-0.023437500000, 0.128662109375, -1.085693359375, -4.929687500000, -0.734375000000, -1.945312500000, 1491365828
-0.023437500000, 0.128662109375, -1.085693359375, -4.929687500000, -0.734375000000, -1.945312500000, 1491365828
0.064697265625, 0.021240234375, -1.068115234375, -4.000000000000, 0.398437500000, -4.382812500000, 1491365828
0.064697265625, 0.021240234375, -1.068115234375, -4.000000000000, 0.398437500000, -4.382812500000, 1491365828
0.064697265625, 0.021240234375, -1.068115234375, -4.000000000000, 0.398437500000, -4.382812500000, 1491365828
0.064697265625, 0.021240234375, -1.068115234375, -4.000000000000, 0.398437500000, -4.382812500000, 1491365828
0.008789062500, -0.011230468750, -1.030273437500, -6.164062500000, 2.484375000000, -4.046875000000, 1491365828
0.008789062500, -0.011230468750, -1.030273437500, -6.164062500000, 2.484375000000, -4.046875000000, 1491365828
0.008789062500, -0.011230468750, -1.030273437500, -6.164062500000, 2.484375000000, -4.046875000000, 1491365828
0.088867187500, -0.072021484375, -1.024414062500, -3.250000000000, 0.742187500000, -2.984375000000, 1491365828
0.088867187500, -0.072021484375, -1.024414062500, -3.250000000000, 0.742187500000, -2.984375000000, 1491365828
0.088867187500, -0.072021484375, -1.024414062500, -3.250000000000, 0.742187500000, -2.984375000000, 1491365828
0.081542968750, -0.085449218750, -1.019775390625, -3.328125000000, -0.796875000000, -1.718750000000, 1491365828
0.081542968750, -0.085449218750, -1.019775390625, -3.328125000000, -0.796875000000, -1.718750000000, 1491365828
0.081542968750, -0.085449218750, -1.019775390625, -3.328125000000, -0.796875000000, -1.718750000000, 1491365828
0.038330078125, -0.070312500000, -1.021728515625, -6.687500000000, -0.312500000000, -3.953125000000, 1491365828
0.038330078125, -0.070312500000, -1.021728515625, -6.687500000000, -0.312500000000, -3.953125000000, 1491365828
0.038330078125, -0.070312500000, -1.021728515625, -6.687500000000, -0.312500000000, -3.953125000000, 1491365828
0.038330078125, -0.070312500000, -1.021728515625, -6.687500000000, -0.312500000000, -3.953125000000, 1491365828
-0.078125000000, 0.002929687500, -1.017333984375, -3.289062500000, 0.234375000000, -3.101562500000, 1491365828
-0.078125000000, 0.002929687500, -1.017333984375, -3.289062500000, 0.234375000000, -3.101562500000, 1491365828
-0.078125000000, 0.002929687500, -1.017333984375, -3.289062500000, 0.234375000000, -3.101562500000, 1491365828
0.054199218750, -0.085449218750, -1.092773437500, -4.812500000000, 2.125000000000, -3.015625000000, 1491365828
0.054199218750, -0.085449218750, -1.092773437500, -4.812500000000, 2.125000000000, -3.015625000000, 1491365828
0.054199218750, -0.085449218750, -1.092773437500, -4.812500000000, 2.125000000000, -3.015625000000, 1491365829
-0.020019531250, 0.014160156250, -0.928466796875, -4.929687500000, 2.968750000000, -3.265625000000, 1491365829
-0.020019531250, 0.014160156250, -0.928466796875, -4.929687500000, 2.968750000000, -3.265625000000, 1491365829
-0.020019531250, 0.014160156250, -0.928466796875, -4.929687500000, 2.968750000000, -3.265625000000, 1491365829
0.087402343750, 0.071777343750, -1.005859375000, -3.890625000000, -0.140625000000, 0.148437500000, 1491365829
0.087402343750, 0.071777343750, -1.005859375000, -3.890625000000, -0.140625000000, 0.148437500000, 1491365829
0.087402343750, 0.071777343750, -1.005859375000, -3.890625000000, -0.140625000000, 0.148437500000, 1491365829
0.087402343750, 0.071777343750, -1.005859375000, -3.890625000000, -0.140625000000, 0.148437500000, 1491365829
0.128173828125, -0.002441406250, -0.999755859375, -3.554687500000, -0.406250000000, -3.234375000000, 1491365829
0.128173828125, -0.002441406250, -0.999755859375, -3.554687500000, -0.406250000000, -3.234375000000, 1491365829
0.128173828125, -0.002441406250, -0.999755859375, -3.554687500000, -0.406250000000, -3.234375000000, 1491365829
-0.029541015625, -0.049072265625, -0.933593750000, -3.476562500000, -0.945312500000, -1.273437500000, 1491365829
-0.029541015625, -0.049072265625, -0.933593750000, -3.476562500000, -0.945312500000, -1.273437500000, 1491365829
-0.029541015625, -0.049072265625, -0.933593750000, -3.476562500000, -0.945312500000, -1.273437500000, 1491365829
-0.038574218750, 0.011230468750, -0.984375000000, -3.234375000000, -1.179687500000, -4.718750000000, 1491365829
-0.038574218750, 0.011230468750, -0.984375000000, -3.234375000000, -1.179687500000, -4.718750000000, 1491365829
-0.038574218750, 0.011230468750, -0.984375000000, -3.234375000000, -1.179687500000, -4.718750000000, 1491365829
0.070068359375, 0.024414062500, -1.025146484375, -3.492187500000, 6.460937500000, -3.484375000000, 1491365829
0.070068359375, 0.024414062500, -1.025146484375, -3.492187500000, 6.460937500000, -3.484375000000, 1491365829
0.070068359375, 0.024414062500, -1.025146484375, -3.492187500000, 6.460937500000, -3.484375000000, 1491365829
0.070068359375, 0.024414062500, -1.025146484375, -3.492187500000, 6.460937500000, -3.484375000000, 1491365829
0.070068359375, 0.024414062500, -1.025146484375, -3.492187500000, 6.460937500000, -3.484375000000, 1491365829
0.070068359375, 0.024414062500, -1.025146484375, -3.492187500000, 6.460937500000, -3.484375000000, 1491365829
0.014404296875, -0.009521484375, -0.983398437500, -3.937500000000, -2.468750000000, -5.789062500000, 1491365829
0.014404296875, -0.009521484375, -0.983398437500, -3.937500000000, -2.468750000000, -5.789062500000, 1491365829
0.014404296875, -0.009521484375, -0.983398437500, -3.937500000000, -2.468750000000, -5.789062500000, 1491365829
0.014404296875, -0.009521484375, -0.983398437500, -3.937500000000, -2.468750000000, -5.789062500000, 1491365829
0.022949218750, -0.087402343750, -0.992919921875, -4.156250000000, 0.265625000000, -3.320312500000, 1491365829
0.022949218750, -0.087402343750, -0.992919921875, -4.156250000000, 0.265625000000, -3.320312500000, 1491365829
0.022949218750, -0.087402343750, -0.992919921875, -4.156250000000, 0.265625000000, -3.320312500000, 1491365829
0.012695312500, -0.024414062500, -1.089843750000, -4.203125000000, -0.679687500000, -3.617187500000, 1491365829
0.012695312500, -0.024414062500, -1.089843750000, -4.203125000000, -0.679687500000, -3.617187500000, 1491365829
0.012695312500, -0.024414062500, -1.089843750000, -4.203125000000, -0.679687500000, -3.617187500000, 1491365829
0.012695312500, -0.024414062500, -1.089843750000, -4.203125000000, -0.679687500000, -3.617187500000, 1491365829
0.027099609375, -0.087402343750, -1.063476562500, -3.554687500000, 2.882812500000, -1.601562500000, 1491365829
0.027099609375, -0.087402343750, -1.063476562500, -3.554687500000, 2.882812500000, -1.601562500000, 1491365829
0.027099609375, -0.087402343750, -1.063476562500, -3.554687500000, 2.882812500000, -1.601562500000, 1491365829
-0.008789062500, -0.031738281250, -0.979980468750, -4.398437500000, 2.015625000000, -3.960937500000, 1491365829
-0.008789062500, -0.031738281250, -0.979980468750, -4.398437500000, 2.015625000000, -3.960937500000, 1491365829
-0.008789062500, -0.031738281250, -0.979980468750, -4.398437500000, 2.015625000000, -3.960937500000, 1491365829
-0.000976562500, -0.078369140625, -1.014160156250, -4.257812500000, -0.062500000000, -1.515625000000, 1491365829
-0.000976562500, -0.078369140625, -1.014160156250, -4.257812500000, -0.062500000000, -1.515625000000, 1491365829
-0.000976562500, -0.078369140625, -1.014160156250, -4.257812500000, -0.062500000000, -1.515625000000, 1491365829
0.013427734375, -0.026855468750, -0.958740234375, -3.250000000000, -0.960937500000, -4.601562500000, 1491365829
0.013427734375, -0.026855468750, -0.958740234375, -3.250000000000, -0.960937500000, -4.601562500000, 1491365829
0.013427734375, -0.026855468750, -0.958740234375, -3.250000000000, -0.960937500000, -4.601562500000, 1491365829
0.013427734375, -0.026855468750, -0.958740234375, -3.250000000000, -0.960937500000, -4.601562500000, 1491365829
-0.037597656250, -0.002197265625, -0.981933593750, -6.125000000000, 2.273437500000, -1.828125000000, 1491365829
-0.037597656250, -0.002197265625, -0.981933593750, -6.125000000000, 2.273437500000, -1.828125000000, 1491365829
-0.037597656250, -0.002197265625, -0.981933593750, -6.125000000000, 2.273437500000, -1.828125000000, 1491365829
0.049804687500, -0.005615234375, -0.915527343750, -7.140625000000, 4.914062500000, -6.273437500000, 1491365829
0.075927734375, 0.027343750000, -1.027587890625, -10.921875000000, 2.453125000000, -1.835937500000, 1491365829
0.075927734375, 0.027343750000, -1.027587890625, -10.921875000000, 2.453125000000, -1.835937500000, 1491365829
0.075927734375, 0.027343750000, -1.027587890625, -10.921875000000, 2.453125000000, -1.835937500000, 1491365829
0.078125000000, 0.092529296875, -1.006347656250, -12.250000000000, -2.734375000000, -3.960937500000, 1491365829
0.078125000000, 0.092529296875, -1.006347656250, -12.250000000000, -2.734375000000, -3.960937500000, 1491365829
0.078125000000, 0.092529296875, -1.006347656250, -12.250000000000, -2.734375000000, -3.960937500000, 1491365829
0.078125000000, 0.092529296875, -1.006347656250, -12.250000000000, -2.734375000000, -3.960937500000, 1491365829
0.078125000000, 0.092529296875, -1.006347656250, -12.250000000000, -2.734375000000, -3.960937500000, 1491365829
0.078125000000, 0.092529296875, -1.006347656250, -12.250000000000, -2.734375000000, -3.960937500000, 1491365829
0.083007812500, -0.047607421875, -1.011962890625, -13.367187500000, 1.953125000000, -11.359375000000, 1491365829
0.083007812500, -0.047607421875, -1.011962890625, -13.367187500000, 1.953125000000, -11.359375000000, 1491365829
0.083007812500, -0.047607421875, -1.011962890625, -13.367187500000, 1.953125000000, -11.359375000000, 1491365829
-0.000000000000, -0.021972656250, -0.947265625000, -26.562500000000, -12.226562500000, -20.593750000000, 1491365829
-0.000000000000, -0.021972656250, -0.947265625000, -26.562500000000, -12.226562500000, -20.593750000000, 1491365829
-0.000000000000, -0.021972656250, -0.947265625000, -26.562500000000, -12.226562500000, -20.593750000000, 1491365829
-0.009521484375, 0.031005859375, -1.084960937500, -23.671875000000, -34.796875000000, -31.609375000000, 1491365830
-0.009521484375, 0.031005859375, -1.084960937500, -23.671875000000, -34.796875000000, -31.609375000000, 1491365830
-0.009521484375, 0.031005859375, -1.084960937500, -23.671875000000, -34.796875000000, -31.609375000000, 1491365830
0.101074218750, -0.073242187500, -1.020751953125, -28.312500000000, -73.101562500000, -49.125000000000, 1491365830
0.101074218750, -0.073242187500, -1.020751953125, -28.312500000000, -73.101562500000, -49.125000000000, 1491365830
0.101074218750, -0.073242187500, -1.020751953125, -28.312500000000, -73.101562500000, -49.125000000000, 1491365830
0.101074218750, -0.073242187500, -1.020751953125, -28.312500000000, -73.101562500000, -49.125000000000, 1491365830
-0.132812500000, -0.211914062500, -1.171875000000, -18.085937500000, -53.171875000000, -41.164062500000, 1491365830
-0.132812500000, -0.211914062500, -1.171875000000, -18.085937500000, -53.171875000000, -41.164062500000, 1491365830
-0.132812500000, -0.211914062500, -1.171875000000, -18.085937500000, -53.171875000000, -41.164062500000, 1491365830
-0.101318359375, -0.190673828125, -1.090332031250, -40.546875000000, -81.554687500000, -53.250000000000, 1491365830
-0.101318359375, -0.190673828125, -1.090332031250, -40.546875000000, -81.554687500000, -53.250000000000, 1491365830
-0.101318359375, -0.190673828125, -1.090332031250, -40.546875000000, -81.554687500000, -53.250000000000, 1491365830
-0.145507812500, -0.187500000000, -1.105712890625, -36.625000000000, -65.585937500000, -58.304687500000, 1491365830
-0.145507812500, -0.187500000000, -1.105712890625, -36.625000000000, -65.585937500000, -58.304687500000, 1491365830
-0.145507812500, -0.187500000000, -1.105712890625, -36.625000000000, -65.585937500000, -58.304687500000, 1491365830
-0.069091796875, -0.104248046875, -0.952148437500, -29.843750000000, -66.750000000000, -41.210937500000, 1491365830
-0.069091796875, -0.104248046875, -0.952148437500, -29.843750000000, -66.750000000000, -41.210937500000, 1491365830
-0.069091796875, -0.104248046875, -0.952148437500, -29.843750000000, -66.750000000000, -41.210937500000, 1491365830
-0.069091796875, -0.104248046875, -0.952148437500, -29.843750000000, -66.750000000000, -41.210937500000, 1491365830
-0.120117187500, -0.195068359375, -0.977050781250, -28.109375000000, -105.562500000000, -36.671875000000, 1491365830
-0.120117187500, -0.195068359375, -0.977050781250, -28.109375000000, -105.562500000000, -36.671875000000, 1491365830
-0.120117187500, -0.195068359375, -0.977050781250, -28.109375000000, -105.562500000000, -36.671875000000, 1491365830
-0.207519531250, -0.105712890625, -0.958984375000, -29.078125000000, -98.710937500000, -28.007812500000, 1491365830
-0.207519531250, -0.105712890625, -0.958984375000, -29.078125000000, -98.710937500000, -28.007812500000, 1491365830
-0.207519531250, -0.105712890625, -0.958984375000, -29.078125000000, -98.710937500000, -28.007812500000, 1491365830
-0.351562500000, -0.186035156250, -0.739257812500, -10.515625000000, -116.218750000000, -34.359375000000, 1491365830
-0.351562500000, -0.186035156250, -0.739257812500, -10.515625000000, -116.218750000000, -34.359375000000, 1491365830
-0.351562500000, -0.186035156250, -0.739257812500, -10.515625000000, -116.218750000000, -34.359375000000, 1491365830
-0.576660156250, -0.173339843750, -0.771484375000, 6.500000000000, -150.562500000000, -33.570312500000, 1491365830
-0.576660156250, -0.173339843750, -0.771484375000, 6.500000000000, -150.562500000000, -33.570312500000, 1491365830
-0.576660156250, -0.173339843750, -0.771484375000, 6.500000000000, -150.562500000000, -33.570312500000, 1491365830
-0.576660156250, -0.173339843750, -0.771484375000, 6.500000000000, -150.562500000000, -33.570312500000, 1491365830
-0.629638671875, -0.085937500000, -0.548828125000, 19.796875000000, -205.062500000000, -43.828125000000, 1491365830
-0.629638671875, -0.085937500000, -0.548828125000, 19.796875000000, -205.062500000000, -43.828125000000, 1491365830
-0.629638671875, -0.085937500000, -0.548828125000, 19.796875000000, -205.062500000000, -43.828125000000, 1491365830
-0.665527343750, -0.267822265625, -0.408691406250, 46.453125000000, -256.000000000000, -47.132812500000, 1491365830
-0.665527343750, -0.267822265625, -0.408691406250, 46.453125000000, -256.000000000000, -47.132812500000, 1491365830
-0.665527343750, -0.267822265625, -0.408691406250, 46.453125000000, -256.000000000000, -47.132812500000, 1491365830
-0.805664062500, -0.203369140625, -0.176025390625, 76.445312500000, -256.000000000000, -51.156250000000, 1491365830
-0.805664062500, -0.203369140625, -0.176025390625, 76.445312500000, -256.000000000000, -51.156250000000, 1491365830
-0.805664062500, -0.203369140625, -0.176025390625, 76.445312500000, -256.000000000000, -51.156250000000, 1491365830
-0.910644531250, -0.074218750000, 0.090087890625, 124.343750000000, -256.000000000000, -70.148437500000, 1491365830
-0.910644531250, -0.074218750000, 0.090087890625, 124.343750000000, -256.000000000000, -70.148437500000, 1491365830
-0.910644531250, -0.074218750000, 0.090087890625, 124.343750000000, -256.000000000000, -70.148437500000, 1491365830
-0.910644531250, -0.074218750000, 0.090087890625, 124.343750000000, -256.000000000000, -70.148437500000, 1491365830
-0.633056640625, -0.024902343750, 0.246093750000, 163.929687500000, -256.000000000000, -113.812500000000, 1491365830
-0.633056640625, -0.024902343750, 0.246093750000, 163.929687500000, -256.000000000000, -113.812500000000, 1491365830
-0.633056640625, -0.024902343750, 0.246093750000, 163.929687500000, -256.000000000000, -113.812500000000, 1491365830
0.062255859375, -0.073730468750, 0.531738281250, 103.351562500000, -256.000000000000, -172.476562500000, 1491365830
0.062255859375, -0.073730468750, 0.531738281250, 103.351562500000, -256.000000000000, -172.476562500000, 1491365830
0.062255859375, -0.073730468750, 0.531738281250, 103.351562500000, -256.000000000000, -172.476562500000, 1491365830
0.599365234375, 0.008544921875, 0.759521484375, 72.179687500000, -256.000000000000, -256.000000000000, 1491365830
0.599365234375, 0.008544921875, 0.759521484375, 72.179687500000, -256.000000000000, -256.000000000000, 1491365830
0.599365234375, 0.008544921875, 0.759521484375, 72.179687500000, -256.000000000000, -256.000000000000, 1491365830
0.561767578125, -1.010742187500, 0.653564453125, 82.328125000000, -240.023437500000, -256.000000000000, 1491365830
0.561767578125, -1.010742187500, 0.653564453125, 82.328125000000, -240.023437500000, -256.000000000000, 1491365830
0.561767578125, -1.010742187500, 0.653564453125, 82.328125000000, -240.023437500000, -256.000000000000, 1491365830
0.561767578125, -1.010742187500, 0.653564453125, 82.328125000000, -240.023437500000, -256.000000000000, 1491365830
0.241455078125, -0.234375000000, 0.162597656250, 72.515625000000, 253.992187500000, -1.109375000000, 1491365830
0.241455078125, -0.234375000000, 0.162597656250, 72.515625000000, 253.992187500000, -1.109375000000, 1491365830
0.241455078125, -0.234375000000, 0.162597656250, 72.515625000000, 253.992187500000, -1.109375000000, 1491365830
0.260742187500, -0.257568359375, 0.385009765625, -7.367187500000, -29.867187500000, -70.546875000000, 1491365830
0.260742187500, -0.257568359375, 0.385009765625, -7.367187500000, -29.867187500000, -70.546875000000, 1491365830
0.260742187500, -0.257568359375, 0.385009765625, -7.367187500000, -29.867187500000, -70.546875000000, 1491365830
0.308593750000, -0.469482421875, 0.478271484375, -48.609375000000, -256.000000000000, -111.046875000000, 1491365830
0.308593750000, -0.469482421875, 0.478271484375, -48.609375000000, -256.000000000000, -111.046875000000, 1491365830
0.308593750000, -0.469482421875, 0.478271484375, -48.609375000000, -256.000000000000, -111.046875000000, 1491365831
1.958007812500, -0.927246093750, 1.031494140625, 67.054687500000, -50.289062500000, -121.375000000000, 1491365831
1.958007812500, -0.927246093750, 1.031494140625, 67.054687500000, -50.289062500000, -121.375000000000, 1491365831
1.958007812500, -0.927246093750, 1.031494140625, 67.054687500000, -50.289062500000, -121.375000000000, 1491365831
1.958007812500, -0.927246093750, 1.031494140625, 67.054687500000, -50.289062500000, -121.375000000000, 1491365831
0.210937500000, 0.304443359375, 0.934814453125, -50.648437500000, -6.703125000000, 50.773437500000, 1491365831
0.210937500000, 0.304443359375, 0.934814453125, -50.648437500000, -6.703125000000, 50.773437500000, 1491365831
0.210937500000, 0.304443359375, 0.934814453125, -50.648437500000, -6.703125000000, 50.773437500000, 1491365831
0.276123046875, -0.018066406250, 1.087402343750, 138.578125000000, 253.992187500000, 36.742187500000, 1491365831
0.276123046875, -0.018066406250, 1.087402343750, 138.578125000000, 253.992187500000, 36.742187500000, 1491365831
0.276123046875, -0.018066406250, 1.087402343750, 138.578125000000, 253.992187500000, 36.742187500000, 1491365831
0.589599609375, -0.401123046875, 0.836914062500, 8.296875000000, 2.687500000000, 20.203125000000, 1491365831
0.589599609375, -0.401123046875, 0.836914062500, 8.296875000000, 2.687500000000, 20.203125000000, 1491365831
0.589599609375, -0.401123046875, 0.836914062500, 8.296875000000, 2.687500000000, 20.203125000000, 1491365831
0.552734375000, -0.372314453125, 0.721679687500, 6.164062500000, -3.945312500000, 15.304687500000, 1491365831
0.564941406250, -0.339111328125, 0.745605468750, -6.539062500000, -16.007812500000, 13.921875000000, 1491365831
0.564941406250, -0.339111328125, 0.745605468750, -6.539062500000, -16.007812500000, 13.921875000000, 1491365831
0.564941406250, -0.339111328125, 0.745605468750, -6.539062500000, -16.007812500000, 13.921875000000, 1491365831
0.564941406250, -0.339111328125, 0.745605468750, -6.539062500000, -16.007812500000, 13.921875000000, 1491365831
0.564941406250, -0.339111328125, 0.745605468750, -6.539062500000, -16.007812500000, 13.921875000000, 1491365831
0.474853515625, -0.376953125000, 0.770507812500, 5.031250000000, -3.664062500000, 7.609375000000, 1491365831
0.474853515625, -0.376953125000, 0.770507812500, 5.031250000000, -3.664062500000, 7.609375000000, 1491365831
0.474853515625, -0.376953125000, 0.770507812500, 5.031250000000, -3.664062500000, 7.609375000000, 1491365831
0.474853515625, -0.376953125000, 0.770507812500, 5.031250000000, -3.664062500000, 7.609375000000, 1491365831
0.605468750000, -0.443847656250, 0.741699218750, 2.664062500000, -23.234375000000, 15.515625000000, 1491365831
0.605468750000, -0.443847656250, 0.741699218750, 2.664062500000, -23.234375000000, 15.515625000000, 1491365831
0.605468750000, -0.443847656250, 0.741699218750, 2.664062500000, -23.234375000000, 15.515625000000, 1491365831
0.605468750000, -0.443847656250, 0.741699218750, 2.664062500000, -23.234375000000, 15.515625000000, 1491365831
0.605468750000, -0.443847656250, 0.741699218750, 2.664062500000, -23.234375000000, 15.515625000000, 1491365831
0.605468750000, -0.443847656250, 0.741699218750, -1.984375000000, -24.710937500000, 11.593750000000, 1491365831
0.541748046875, -0.395263671875, 0.801757812500, -5.000000000000, 3.398437500000, 4.453125000000, 1491365831
0.541748046875, -0.395263671875, 0.801757812500, -5.000000000000, 3.398437500000, 4.453125000000, 1491365831
0.541748046875, -0.395263671875, 0.801757812500, -5.000000000000, 3.398437500000, 4.453125000000, 1491365831
0.622070312500, -0.380371093750, 0.779052734375, -1.765625000000, -1.804687500000, 0.218750000000, 1491365831
0.622070312500, -0.380371093750, 0.779052734375, -1.765625000000, -1.804687500000, 0.218750000000, 1491365831
0.622070312500, -0.380371093750, 0.779052734375, -1.765625000000, -1.804687500000, 0.218750000000, 1491365831
0.622070312500, -0.380371093750, 0.779052734375, -1.765625000000, -1.804687500000, 0.218750000000, 1491365831
0.702148437500, -0.365234375000, 0.671875000000, -1.976562500000, -3.312500000000, -2.890625000000, 1491365831
0.702148437500, -0.365234375000, 0.671875000000, -1.976562500000, -3.312500000000, -2.890625000000, 1491365831
0.585693359375, -0.346679687500, 0.750244140625, -1.351562500000, -2.648437500000, -4.078125000000, 1491365831
0.585693359375, -0.346679687500, 0.750244140625, -1.351562500000, -2.648437500000, -4.078125000000, 1491365831
0.585693359375, -0.346679687500, 0.750244140625, -1.351562500000, -2.648437500000, -4.078125000000, 1491365831
0.585693359375, -0.346679687500, 0.750244140625, -1.351562500000, -2.648437500000, -4.078125000000, 1491365831
0.585693359375, -0.346679687500, 0.750244140625, -1.351562500000, -2.648437500000, -4.078125000000, 1491365831
0.629882812500, -0.282226562500, 0.834472656250, -5.093750000000, -0.031250000000, -2.992187500000, 1491365831
0.629882812500, -0.282226562500, 0.834472656250, -5.093750000000, -0.031250000000, -2.992187500000, 1491365831
0.629882812500, -0.282226562500, 0.834472656250, -5.093750000000, -0.031250000000, -2.992187500000, 1491365831
0.704345703125, -0.400146484375, 0.678222656250, -4.554687500000, 2.953125000000, 0.882812500000, 1491365831
0.704345703125, -0.400146484375, 0.678222656250, -4.554687500000, 2.953125000000, 0.882812500000, 1491365831
0.704345703125, -0.400146484375, 0.678222656250, -4.554687500000, 2.953125000000, 0.882812500000, 1491365831
0.588378906250, -0.294189453125, 0.813476562500, -6.265625000000, 1.343750000000, -1.179687500000, 1491365831
0.588378906250, -0.294189453125, 0.813476562500, -6.265625000000, 1.343750000000, -1.179687500000, 1491365831
0.588378906250, -0.294189453125, 0.813476562500, -6.265625000000, 1.343750000000, -1.179687500000, 1491365831
0.633056640625, -0.291748046875, 0.817871093750, -6.953125000000, 2.367187500000, 0.179687500000, 1491365831
0.633056640625, -0.291748046875, 0.817871093750, -6.953125000000, 2.367187500000, 0.179687500000, 1491365831
0.633056640625, -0.291748046875, 0.817871093750, -6.953125000000, 2.367187500000, 0.179687500000, 1491365831
0.633056640625, -0.291748046875, 0.817871093750, -6.953125000000, 2.367187500000, 0.179687500000, 1491365831
0.552246093750, -0.384765625000, 0.743652343750, -6.585937500000, -0.851562500000, -1.531250000000, 1491365831
0.552246093750, -0.384765625000, 0.743652343750, -6.585937500000, -0.851562500000, -1.531250000000, 1491365831
0.552246093750, -0.384765625000, 0.743652343750, -6.585937500000, -0.851562500000, -1.531250000000, 1491365831
0.547119140625, -0.286376953125, 0.826171875000, -4.000000000000, -0.039062500000, -3.687500000000, 1491365831
0.547119140625, -0.286376953125, 0.826171875000, -4.000000000000, -0.039062500000, -3.687500000000, 1491365831
0.547119140625, -0.286376953125, 0.826171875000, -4.000000000000, -0.039062500000, -3.687500000000, 1491365831
0.591796875000, -0.401123046875, 0.732421875000, -4.804687500000, 2.148437500000, -1.781250000000, 1491365831
0.591796875000, -0.401123046875, 0.732421875000, -4.804687500000, 2.148437500000, -1.781250000000, 1491365831
0.591796875000, -0.401123046875, 0.732421875000, -4.804687500000, 2.148437500000, -1.781250000000, 1491365831
0.553955078125, -0.391845703125, 0.723876953125, -3.078125000000, 2.109375000000, -3.039062500000, 1491365832
0.553955078125, -0.391845703125, 0.723876953125, -3.078125000000, 2.109375000000, -3.039062500000, 1491365832
0.553955078125, -0.391845703125, 0.723876953125, -3.078125000000, 2.109375000000, -3.039062500000, 1491365832
0.553955078125, -0.391845703125, 0.723876953125, -3.078125000000, 2.109375000000, -3.039062500000, 1491365832
0.489013671875, -0.399414062500, 0.816650390625, -3.421875000000, -0.859375000000, -3.984375000000, 1491365832
0.489013671875, -0.399414062500, 0.816650390625, -3.421875000000, -0.859375000000, -3.984375000000, 1491365832
0.489013671875, -0.399414062500, 0.816650390625, -3.421875000000, -0.859375000000, -3.984375000000, 1491365832
0.555175781250, -0.385498046875, 0.757324218750, -3.585937500000, -0.851562500000, -6.062500000000, 1491365832
0.555175781250, -0.385498046875, 0.757324218750, -3.585937500000, -0.851562500000, -6.062500000000, 1491365832
0.555175781250, -0.385498046875, 0.757324218750, -3.585937500000, -0.851562500000, -6.062500000000, 1491365832
0.649414062500, -0.244873046875, 0.880371093750, -3.539062500000, -0.585937500000, -4.164062500000, 1491365832
0.649414062500, -0.244873046875, 0.880371093750, -3.539062500000, -0.585937500000, -4.164062500000, 1491365832
0.649414062500, -0.244873046875, 0.880371093750, -3.539062500000, -0.585937500000, -4.164062500000, 1491365832
0.551513671875, -0.285644531250, 0.814697265625, -6.687500000000, 0.507812500000, -4.390625000000, 1491365832
0.551513671875, -0.285644531250, 0.814697265625, -6.687500000000, 0.507812500000, -4.390625000000, 1491365832
0.551513671875, -0.285644531250, 0.814697265625, -6.687500000000, 0.507812500000, -4.390625000000, 1491365832
0.551513671875, -0.285644531250, 0.814697265625, -6.687500000000, 0.507812500000, -4.390625000000, 1491365832
0.648437500000, -0.385498046875, 0.726562500000, -1.976562500000, -0.148437500000, -1.796875000000, 1491365832
0.648437500000, -0.385498046875, 0.726562500000, -1.976562500000, -0.148437500000, -1.796875000000, 1491365832
0.648437500000, -0.385498046875, 0.726562500000, -1.976562500000, -0.148437500000, -1.796875000000, 1491365832
0.584716796875, -0.284423828125, 0.816650390625, -6.085937500000, -0.578125000000, -4.578125000000, 1491365832
0.584716796875, -0.284423828125, 0.816650390625, -6.085937500000, -0.578125000000, -4.578125000000, 1491365832
0.584716796875, -0.284423828125, 0.816650390625, -6.085937500000, -0.578125000000, -4.578125000000, 1491365832
0.564697265625, -0.375488281250, 0.733886718750, -4.632812500000, 0.445312500000, -1.929687500000, 1491365832
0.564697265625, -0.375488281250, 0.733886718750, -4.632812500000, 0.445312500000, -1.929687500000, 1491365832
0.564697265625, -0.375488281250, 0.733886718750, -4.632812500000, 0.445312500000, -1.929687500000, 1491365832
0.496093750000, -0.258300781250, 0.759521484375, -4.679687500000, -0.375000000000, -2.703125000000, 1491365832
0.496093750000, -0.258300781250, 0.759521484375, -4.679687500000, -0.375000000000, -2.703125000000, 1491365832
0.496093750000, -0.258300781250, 0.759521484375, -4.679687500000, -0.375000000000, -2.703125000000, 1491365832
0.496093750000, -0.258300781250, 0.759521484375, -4.679687500000, -0.375000000000, -2.703125000000, 1491365832
0.617919921875, -0.307373046875, 0.840087890625, -3.789062500000, 0.906250000000, -1.406250000000, 1491365832
0.617919921875, -0.307373046875, 0.840087890625, -3.789062500000, 0.906250000000, -1.406250000000, 1491365832
0.617919921875, -0.307373046875, 0.840087890625, -3.789062500000, 0.906250000000, -1.406250000000, 1491365832
0.633056640625, -0.346435546875, 0.839111328125, -4.898437500000, 2.281250000000, -4.609375000000, 1491365832
0.633056640625, -0.346435546875, 0.839111328125, -4.898437500000, 2.281250000000, -4.609375000000, 1491365832
0.633056640625, -0.346435546875, 0.839111328125, -4.898437500000, 2.281250000000, -4.609375000000, 1491365832
0.546386718750, -0.398681640625, 0.742675781250, -4.765625000000, -0.210937500000, -1.953125000000, 1491365832
0.613525390625, -0.322509765625, 0.766113281250, -1.007812500000, 0.312500000000, -4.765625000000, 1491365832
0.613525390625, -0.322509765625, 0.766113281250, -1.007812500000, 0.312500000000, -4.765625000000, 1491365832
0.613525390625, -0.322509765625, 0.766113281250, -1.007812500000, 0.312500000000, -4.765625000000, 1491365832
0.594726562500, -0.405273437500, 0.813720703125, -3.125000000000, -0.242187500000, -2.921875000000, 1491365832
0.476074218750, -0.402832031250, 0.733398437500, -3.375000000000, -2.421875000000, -1.796875000000, 1491365832
0.476074218750, -0.402832031250, 0.733398437500, -3.375000000000, -2.421875000000, -1.796875000000, 1491365832
0.476074218750, -0.402832031250, 0.733398437500, -3.375000000000, -2.421875000000, -1.796875000000, 1491365832
0.476074218750, -0.402832031250, 0.733398437500, -3.375000000000, -2.421875000000, -1.796875000000, 1491365832
0.476074218750, -0.402832031250, 0.733398437500, -3.375000000000, -2.421875000000, -1.796875000000, 1491365832
0.612548828125, -0.222656250000, 0.730712890625, -3.101562500000, -0.906250000000, -3.867187500000, 1491365832
0.612548828125, -0.222656250000, 0.730712890625, -3.101562500000, -0.906250000000, -3.867187500000, 1491365832
0.612548828125, -0.222656250000, 0.730712890625, -3.101562500000, -0.906250000000, -3.867187500000, 1491365832
0.548828125000, -0.335693359375, 0.749511718750, -3.195312500000, -0.101562500000, -1.429687500000, 1491365832
0.548828125000, -0.335693359375, 0.749511718750, -3.195312500000, -0.101562500000, -1.429687500000, 1491365832
0.543457031250, -0.289306640625, 0.765869140625, -3.578125000000, 0.976562500000, -4.031250000000, 1491365832
0.543457031250, -0.289306640625, 0.765869140625, -3.578125000000, 0.976562500000, -4.031250000000, 1491365832
0.543457031250, -0.289306640625, 0.765869140625, -3.578125000000, 0.976562500000, -4.031250000000, 1491365832
0.543457031250, -0.289306640625, 0.765869140625, -3.578125000000, 0.976562500000, -4.031250000000, 1491365832
0.554687500000, -0.398437500000, 0.760253906250, -6.093750000000, -0.195312500000, -6.914062500000, 1491365832
0.554687500000, -0.398437500000, 0.760253906250, -6.093750000000, -0.195312500000, -6.914062500000, 1491365832
0.554687500000, -0.398437500000, 0.760253906250, -6.093750000000, -0.195312500000, -6.914062500000, 1491365832
0.554687500000, -0.398437500000, 0.760253906250, -6.093750000000, -0.195312500000, -6.914062500000, 1491365832
0.595947265625, -0.259277343750, 0.793212890625, -3.617187500000, -0.171875000000, -3.882812500000, 1491365832
0.595947265625, -0.259277343750, 0.793212890625, -3.617187500000, -0.171875000000, -3.882812500000, 1491365832
0.595947265625, -0.259277343750, 0.793212890625, -3.617187500000, -0.171875000000, -3.882812500000, 1491365832
0.634277343750, -0.293212890625, 0.732666015625, -1.984375000000, 0.859375000000, -1.031250000000, 1491365832
0.634277343750, -0.293212890625, 0.732666015625, -1.984375000000, 0.859375000000, -1.031250000000, 1491365832
0.634277343750, -0.293212890625, 0.732666015625, -1.984375000000, 0.859375000000, -1.031250000000, 1491365832
0.698486328125, -0.439208984375, 0.778076171875, -4.656250000000, 0.687500000000, -3.500000000000, 1491365832
0.698486328125, -0.439208984375, 0.778076171875, -4.656250000000, 0.687500000000, -3.500000000000, 1491365833
0.698486328125, -0.439208984375, 0.778076171875, -4.656250000000, 0.687500000000, -3.500000000000, 1491365833
0.578125000000, -0.404296875000, 0.740722656250, -3.679687500000, 0.046875000000, -6.664062500000, 1491365833
0.578125000000, -0.404296875000, 0.740722656250, -3.679687500000, 0.046875000000, -6.664062500000, 1491365833
0.578125000000, -0.404296875000, 0.740722656250, -3.679687500000, 0.046875000000, -6.664062500000, 1491365833
0.578125000000, -0.404296875000, 0.740722656250, -3.679687500000, 0.046875000000, -6.664062500000, 1491365833
0.561767578125, -0.370361328125, 0.877685546875, -3.953125000000, 0.992187500000, -1.531250000000, 1491365833
0.561767578125, -0.370361328125, 0.877685546875, -3.953125000000, 0.992187500000, -1.531250000000, 1491365833
0.561767578125, -0.370361328125, 0.877685546875, -3.953125000000, 0.992187500000, -1.531250000000, 1491365833
0.540039062500, -0.449707031250, 0.746826171875, -4.515625000000, 0.804687500000, -1.445312500000, 1491365833
0.540039062500, -0.449707031250, 0.746826171875, -4.515625000000, 0.804687500000, -1.445312500000, 1491365833
0.540039062500, -0.449707031250, 0.746826171875, -4.515625000000, 0.804687500000, -1.445312500000, 1491365833
0.539550781250, -0.247070312500, 0.720703125000, -1.492187500000, -0.601562500000, -3.656250000000, 1491365833
0.539550781250, -0.247070312500, 0.720703125000, -1.492187500000, -0.601562500000, -3.656250000000, 1491365833
0.539550781250, -0.247070312500, 0.720703125000, -1.492187500000, -0.601562500000, -3.656250000000, 1491365833
0.539550781250, -0.247070312500, 0.720703125000, -1.492187500000, -0.601562500000, -3.656250000000, 1491365833
0.594970703125, -0.352050781250, 0.743164062500, -3.437500000000, -2.343750000000, -6.093750000000, 1491365833
0.594970703125, -0.352050781250, 0.743164062500, -3.437500000000, -2.343750000000, -6.093750000000, 1491365833
0.594970703125, -0.352050781250, 0.743164062500, -3.437500000000, -2.343750000000, -6.093750000000, 1491365833
0.569335937500, -0.182373046875, 0.724853515625, -6.343750000000, 2.015625000000, -4.710937500000, 1491365833
0.569335937500, -0.182373046875, 0.724853515625, -6.343750000000, 2.015625000000, -4.710937500000, 1491365833
0.569335937500, -0.182373046875, 0.724853515625, -6.343750000000, 2.015625000000, -4.710937500000, 1491365833
0.599609375000, -0.250000000000, 0.780517578125, -6.570312500000, 0.664062500000, -1.820312500000, 1491365833
0.599609375000, -0.250000000000, 0.780517578125, -6.570312500000, 0.664062500000, -1.820312500000, 1491365833
0.599609375000, -0.250000000000, 0.780517578125, -6.570312500000, 0.664062500000, -1.820312500000, 1491365833
0.623779296875, -0.289062500000, 0.747558593750, -4.703125000000, -0.898437500000, -4.218750000000, 1491365833
0.623779296875, -0.289062500000, 0.747558593750, -4.703125000000, -0.898437500000, -4.218750000000, 1491365833
0.623779296875, -0.289062500000, 0.747558593750, -4.703125000000, -0.898437500000, -4.218750000000, 1491365833
0.623779296875, -0.289062500000, 0.747558593750, -4.703125000000, -0.898437500000, -4.218750000000, 1491365833
0.715087890625, -0.303710937500, 0.836669921875, -3.812500000000, 0.773437500000, -3.648437500000, 1491365833
0.715087890625, -0.303710937500, 0.836669921875, -3.812500000000, 0.773437500000, -3.648437500000, 1491365833
0.715087890625, -0.303710937500, 0.836669921875, -3.812500000000, 0.773437500000, -3.648437500000, 1491365833
0.564941406250, -0.398925781250, 0.761474609375, -4.867187500000, -0.148437500000, -3.710937500000, 1491365833
0.564941406250, -0.398925781250, 0.761474609375, -4.867187500000, -0.148437500000, -3.710937500000, 1491365833
0.564941406250, -0.398925781250, 0.761474609375, -4.867187500000, -0.148437500000, -3.710937500000, 1491365833
0.585937500000, -0.381347656250, 0.734619140625, -3.625000000000, -0.835937500000, -4.664062500000, 1491365833
0.585937500000, -0.381347656250, 0.734619140625, -3.625000000000, -0.835937500000, -4.664062500000, 1491365833
0.585937500000, -0.381347656250, 0.734619140625, -3.625000000000, -0.835937500000, -4.664062500000, 1491365833
0.539062500000, -0.229003906250, 0.749267578125, -3.453125000000, -0.164062500000, -2.976562500000, 1491365833
0.539062500000, -0.229003906250, 0.749267578125, -3.453125000000, -0.164062500000, -2.976562500000, 1491365833
0.539062500000, -0.229003906250, 0.749267578125, -3.453125000000, -0.164062500000, -2.976562500000, 1491365833
0.539062500000, -0.229003906250, 0.749267578125, -3.453125000000, -0.164062500000, -2.976562500000, 1491365833
0.567138671875, -0.331787109375, 0.838867187500, -6.687500000000, 2.054687500000, -4.359375000000, 1491365833
0.567138671875, -0.331787109375, 0.838867187500, -6.687500000000, 2.054687500000, -4.359375000000, 1491365833
0.567138671875, -0.331787109375, 0.838867187500, -6.687500000000, 2.054687500000, -4.359375000000, 1491365833
0.584716796875, -0.371337890625, 0.745117187500, -1.835937500000, 0.875000000000, -2.460937500000, 1491365833
0.584716796875, -0.371337890625, 0.745117187500, -1.835937500000, 0.875000000000, -2.460937500000, 1491365833
0.584716796875, -0.371337890625, 0.745117187500, -1.835937500000, 0.875000000000, -2.460937500000, 1491365833
0.605712890625, -0.287109375000, 0.723632812500, -4.000000000000, 2.617187500000, -4.140625000000, 1491365833
0.605712890625, -0.287109375000, 0.723632812500, -4.000000000000, 2.617187500000, -4.140625000000, 1491365833
0.605712890625, -0.287109375000, 0.723632812500, -4.000000000000, 2.617187500000, -4.140625000000, 1491365833
0.589355468750, -0.282714843750, 0.844970703125, -3.156250000000, -0.390625000000, -4.585937500000, 1491365833
0.589355468750, -0.282714843750, 0.844970703125, -3.156250000000, -0.390625000000, -4.585937500000, 1491365833
0.589355468750, -0.282714843750, 0.844970703125, -3.156250000000, -0.390625000000, -4.585937500000, 1491365833
0.589355468750, -0.282714843750, 0.844970703125, -3.156250000000, -0.390625000000, -4.585937500000, 1491365833
0.544921875000, -0.388183593750, 0.733886718750, -6.281250000000, 0.734375000000, -4.281250000000, 1491365833
0.544921875000, -0.388183593750, 0.733886718750, -6.281250000000, 0.734375000000, -4.281250000000, 1491365833
0.544921875000, -0.388183593750, 0.733886718750, -6.281250000000, 0.734375000000, -4.281250000000, 1491365833
0.535888671875, -0.366455078125, 0.756103515625, -3.046875000000, 0.664062500000, -3.062500000000, 1491365833
0.535888671875, -0.366455078125, 0.756103515625, -3.046875000000, 0.664062500000, -3.062500000000, 1491365833
0.535888671875, -0.366455078125, 0.756103515625, -3.046875000000, 0.664062500000, -3.062500000000, 1491365833
0.546630859375, -0.335449218750, 0.823730468750, -3.742187500000, -0.929687500000, -4.890625000000, 1491365833
0.546630859375, -0.335449218750, 0.823730468750, -3.742187500000, -0.929687500000, -4.890625000000, 1491365833
0.546630859375, -0.335449218750, 0.823730468750, -3.742187500000, -0.929687500000, -4.890625000000, 1491365833
0.587158203125, -0.378417968750, 0.783203125000, -1.585937500000, 0.382812500000, -6.203125000000, 1491365833
0.587158203125, -0.378417968750, 0.783203125000, -1.585937500000, 0.382812500000, -6.203125000000, 1491365833
0.587158203125, -0.378417968750, 0.783203125000, -1.585937500000, 0.382812500000, -6.203125000000, 1491365833
0.587158203125, -0.378417968750, 0.783203125000, -1.585937500000, 0.382812500000, -6.203125000000, 1491365833
0.624023437500, -0.337646484375, 0.781250000000, -4.953125000000, 2.015625000000, -3.929687500000, 1491365834
0.624023437500, -0.337646484375, 0.781250000000, -4.953125000000, 2.015625000000, -3.929687500000, 1491365834
0.624023437500, -0.337646484375, 0.781250000000, -4.953125000000, 2.015625000000, -3.929687500000, 1491365834
0.626953125000, -0.298095703125, 0.831054687500, -4.445312500000, -0.820312500000, -3.343750000000, 1491365834
0.626953125000, -0.298095703125, 0.831054687500, -4.445312500000, -0.820312500000, -3.343750000000, 1491365834
0.626953125000, -0.298095703125, 0.831054687500, -4.445312500000, -0.820312500000, -3.343750000000, 1491365834
0.615722656250, -0.389892578125, 0.775878906250, -3.492187500000, -0.273437500000, -3.062500000000, 1491365834
0.615722656250, -0.389892578125, 0.775878906250, -3.492187500000, -0.273437500000, -3.062500000000, 1491365834
0.615722656250, -0.389892578125, 0.775878906250, -3.492187500000, -0.273437500000, -3.062500000000, 1491365834
0.654296875000, -0.344482421875, 0.733886718750, -4.828125000000, -0.234375000000, -1.281250000000, 1491365834
0.654296875000, -0.344482421875, 0.733886718750, -4.828125000000, -0.234375000000, -1.281250000000, 1491365834
0.654296875000, -0.344482421875, 0.733886718750, -4.828125000000, -0.234375000000, -1.281250000000, 1491365834
0.654296875000, -0.344482421875, 0.733886718750, -4.828125000000, -0.234375000000, -1.281250000000, 1491365834
0.558349609375, -0.260742187500, 0.833007812500, -4.921875000000, 0.671875000000, -4.828125000000, 1491365834
0.558349609375, -0.260742187500, 0.833007812500, -4.921875000000, 0.671875000000, -4.828125000000, 1491365834
0.558349609375, -0.260742187500, 0.833007812500, -4.921875000000, 0.671875000000, -4.828125000000, 1491365834
0.649414062500, -0.369140625000, 0.812744140625, -2.781250000000, 0.984375000000, -1.937500000000, 1491365834
0.649414062500, -0.369140625000, 0.812744140625, -2.781250000000, 0.984375000000, -1.937500000000, 1491365834
0.649414062500, -0.369140625000, 0.812744140625, -2.781250000000, 0.984375000000, -1.937500000000, 1491365834
0.692138671875, -0.282470703125, 0.734375000000, -3.648437500000, -0.617187500000, -1.187500000000, 1491365834
0.692138671875, -0.282470703125, 0.734375000000, -3.648437500000, -0.617187500000, -1.187500000000, 1491365834
0.692138671875, -0.282470703125, 0.734375000000, -3.648437500000, -0.617187500000, -1.187500000000, 1491365834
0.629150390625, -0.226562500000, 0.753662109375, -6.156250000000, 0.960937500000, -6.007812500000, 1491365834
0.629150390625, -0.226562500000, 0.753662109375, -6.156250000000, 0.960937500000, -6.007812500000, 1491365834
0.556640625000, -0.333740234375, 0.791748046875, -1.851562500000, -0.546875000000, -4.562500000000, 1491365834
0.556640625000, -0.333740234375, 0.791748046875, -1.851562500000, -0.546875000000, -4.562500000000, 1491365834
0.556640625000, -0.333740234375, 0.791748046875, -1.851562500000, -0.546875000000, -4.562500000000, 1491365834
0.556640625000, -0.333740234375, 0.791748046875, -1.851562500000, -0.546875000000, -4.562500000000, 1491365834
0.556640625000, -0.333740234375, 0.791748046875, -1.851562500000, -0.546875000000, -4.562500000000, 1491365834
0.603759765625, -0.350830078125, 0.823730468750, -4.656250000000, -0.679687500000, -2.695312500000, 1491365834
0.603759765625, -0.350830078125, 0.823730468750, -4.656250000000, -0.679687500000, -2.695312500000, 1491365834
0.603759765625, -0.350830078125, 0.823730468750, -4.656250000000, -0.679687500000, -2.695312500000, 1491365834
0.641113281250, -0.344970703125, 0.831542968750, -6.070312500000, -0.445312500000, -1.140625000000, 1491365834
0.641113281250, -0.344970703125, 0.831542968750, -6.070312500000, -0.445312500000, -1.140625000000, 1491365834
