ACC_X,ACC_Y,ACC_Z,G_X,G_Y,G_Z,Unix Time
0.177978515625, -0.885742187500, 0.625488281250, -4.570312500000, 4.132812500000, -2.984375000000, 1491366131
0.177978515625, -0.885742187500, 0.625488281250, -4.570312500000, 4.132812500000, -2.984375000000, 1491366131
0.177978515625, -0.885742187500, 0.625488281250, -4.570312500000, 4.132812500000, -2.984375000000, 1491366132
0.165283203125, -0.867187500000, 0.573730468750, -1.882812500000, -2.007812500000, -3.500000000000, 1491366132
0.165283203125, -0.867187500000, 0.573730468750, -1.882812500000, -2.007812500000, -3.500000000000, 1491366132
0.165283203125, -0.867187500000, 0.573730468750, -1.882812500000, -2.007812500000, -3.500000000000, 1491366132
0.270751953125, -0.864501953125, 0.537109375000, -3.070312500000, -1.171875000000, -4.875000000000, 1491366132
0.270751953125, -0.864501953125, 0.537109375000, -3.070312500000, -1.171875000000, -4.875000000000, 1491366132
0.270751953125, -0.864501953125, 0.537109375000, -3.070312500000, -1.171875000000, -4.875000000000, 1491366132
0.220703125000, -0.844238281250, 0.472167968750, -6.546875000000, 6.039062500000, -4.367187500000, 1491366132
0.220703125000, -0.844238281250, 0.472167968750, -6.546875000000, 6.039062500000, -4.367187500000, 1491366132
0.220703125000, -0.844238281250, 0.472167968750, -6.546875000000, 6.039062500000, -4.367187500000, 1491366132
0.220703125000, -0.844238281250, 0.472167968750, -6.546875000000, 6.039062500000, -4.367187500000, 1491366132
0.123046875000, -0.902587890625, 0.432373046875, -4.039062500000, 1.445312500000, -4.570312500000, 1491366132
0.123046875000, -0.902587890625, 0.432373046875, -4.039062500000, 1.445312500000, -4.570312500000, 1491366132
0.235595703125, -0.958984375000, 0.494873046875, -3.453125000000, -1.367187500000, -6.218750000000, 1491366132
0.235595703125, -0.958984375000, 0.494873046875, -3.453125000000, -1.367187500000, -6.218750000000, 1491366132
0.235595703125, -0.958984375000, 0.494873046875, -3.453125000000, -1.367187500000, -6.218750000000, 1491366132
0.235595703125, -0.958984375000, 0.494873046875, -3.453125000000, -1.367187500000, -6.218750000000, 1491366132
0.096679687500, -0.810302734375, 0.528808593750, -4.296875000000, 4.882812500000, -3.718750000000, 1491366132
0.096679687500, -0.810302734375, 0.528808593750, -4.296875000000, 4.882812500000, -3.718750000000, 1491366132
0.096679687500, -0.810302734375, 0.528808593750, -4.296875000000, 4.882812500000, -3.718750000000, 1491366132
0.286376953125, -0.805908203125, 0.513916015625, -4.125000000000, -0.320312500000, -4.757812500000, 1491366132
0.286376953125, -0.805908203125, 0.513916015625, -4.125000000000, -0.320312500000, -4.757812500000, 1491366132
0.286376953125, -0.805908203125, 0.513916015625, -4.125000000000, -0.320312500000, -4.757812500000, 1491366132
0.286376953125, -0.805908203125, 0.513916015625, -4.125000000000, -0.320312500000, -4.757812500000, 1491366132
0.157470703125, -0.784423828125, 0.495605468750, -4.398437500000, 0.468750000000, -4.156250000000, 1491366132
0.157470703125, -0.784423828125, 0.495605468750, -4.398437500000, 0.468750000000, -4.156250000000, 1491366132
0.157470703125, -0.784423828125, 0.495605468750, -4.398437500000, 0.468750000000, -4.156250000000, 1491366132
0.272216796875, -0.865722656250, 0.523925781250, -4.476562500000, 0.726562500000, -6.875000000000, 1491366132
0.272216796875, -0.865722656250, 0.523925781250, -4.476562500000, 0.726562500000, -6.875000000000, 1491366132
0.272216796875, -0.865722656250, 0.523925781250, -4.476562500000, 0.726562500000, -6.875000000000, 1491366132
0.296630859375, -0.848144531250, 0.519775390625, -2.976562500000, 0.328125000000, -3.226562500000, 1491366132
0.296630859375, -0.848144531250, 0.519775390625, -2.976562500000, 0.328125000000, -3.226562500000, 1491366132
0.296630859375, -0.848144531250, 0.519775390625, -2.976562500000, 0.328125000000, -3.226562500000, 1491366132
0.163574218750, -0.887451171875, 0.482666015625, -6.031250000000, 0.601562500000, -3.625000000000, 1491366132
0.163574218750, -0.887451171875, 0.482666015625, -6.031250000000, 0.601562500000, -3.625000000000, 1491366132
0.163574218750, -0.887451171875, 0.482666015625, -6.031250000000, 0.601562500000, -3.625000000000, 1491366132
0.163574218750, -0.887451171875, 0.482666015625, -6.031250000000, 0.601562500000, -3.625000000000, 1491366132
0.184570312500, -0.889892578125, 0.530517578125, -3.296875000000, 1.703125000000, -6.390625000000, 1491366132
0.184570312500, -0.889892578125, 0.530517578125, -3.296875000000, 1.703125000000, -6.390625000000, 1491366132
0.184570312500, -0.889892578125, 0.530517578125, -3.296875000000, 1.703125000000, -6.390625000000, 1491366132
0.195312500000, -0.856689453125, 0.489501953125, -3.039062500000, -6.062500000000, -5.382812500000, 1491366132
0.195312500000, -0.856689453125, 0.489501953125, -3.039062500000, -6.062500000000, -5.382812500000, 1491366132
0.195312500000, -0.856689453125, 0.489501953125, -3.039062500000, -6.062500000000, -5.382812500000, 1491366132
0.253906250000, -0.967285156250, 0.493652343750, -4.703125000000, 0.031250000000, -4.929687500000, 1491366132
0.253906250000, -0.967285156250, 0.493652343750, -4.703125000000, 0.031250000000, -4.929687500000, 1491366132
0.253906250000, -0.967285156250, 0.493652343750, -4.703125000000, 0.031250000000, -4.929687500000, 1491366132
0.225097656250, -0.887939453125, 0.569580078125, -6.226562500000, -4.054687500000, -6.125000000000, 1491366132
0.225097656250, -0.887939453125, 0.569580078125, -6.226562500000, -4.054687500000, -6.125000000000, 1491366132
0.225097656250, -0.887939453125, 0.569580078125, -6.226562500000, -4.054687500000, -6.125000000000, 1491366132
0.225097656250, -0.887939453125, 0.569580078125, -6.226562500000, -4.054687500000, -6.125000000000, 1491366132
0.262695312500, -0.860351562500, 0.471679687500, -4.960937500000, -0.695312500000, -4.726562500000, 1491366132
0.262695312500, -0.860351562500, 0.471679687500, -4.960937500000, -0.695312500000, -4.726562500000, 1491366132
0.262695312500, -0.860351562500, 0.471679687500, -4.960937500000, -0.695312500000, -4.726562500000, 1491366132
0.161132812500, -0.883056640625, 0.468994140625, -2.445312500000, -1.468750000000, -3.664062500000, 1491366132
0.161132812500, -0.883056640625, 0.468994140625, -2.445312500000, -1.468750000000, -3.664062500000, 1491366132
0.161132812500, -0.883056640625, 0.468994140625, -2.445312500000, -1.468750000000, -3.664062500000, 1491366132
0.163330078125, -0.791259765625, 0.505371093750, -0.859375000000, 9.382812500000, -4.007812500000, 1491366132
0.163330078125, -0.791259765625, 0.505371093750, -0.859375000000, 9.382812500000, -4.007812500000, 1491366132
0.163330078125, -0.791259765625, 0.505371093750, -0.859375000000, 9.382812500000, -4.007812500000, 1491366132
0.254882812500, -0.850830078125, 0.513427734375, 0.046875000000, -6.468750000000, -14.757812500000, 1491366132
0.254882812500, -0.850830078125, 0.513427734375, 0.046875000000, -6.468750000000, -14.757812500000, 1491366132
0.254882812500, -0.850830078125, 0.513427734375, 0.046875000000, -6.468750000000, -14.757812500000, 1491366132
0.254882812500, -0.850830078125, 0.513427734375, 0.046875000000, -6.468750000000, -14.757812500000, 1491366132
0.192626953125, -0.842773437500, 0.511962890625, -2.796875000000, 8.703125000000, -11.648437500000, 1491366132
0.192626953125, -0.842773437500, 0.511962890625, -2.796875000000, 8.703125000000, -11.648437500000, 1491366132
0.192626953125, -0.842773437500, 0.511962890625, -2.796875000000, 8.703125000000, -11.648437500000, 1491366132
0.263916015625, -0.957031250000, 0.572753906250, -4.367187500000, 5.843750000000, -16.500000000000, 1491366132
0.263916015625, -0.957031250000, 0.572753906250, -4.367187500000, 5.843750000000, -16.500000000000, 1491366133
0.263916015625, -0.957031250000, 0.572753906250, -4.367187500000, 5.843750000000, -16.500000000000, 1491366133
0.316894531250, -0.903076171875, 0.480957031250, -4.023437500000, 7.070312500000, -9.171875000000, 1491366133
0.316894531250, -0.903076171875, 0.480957031250, -4.023437500000, 7.070312500000, -9.171875000000, 1491366133
0.316894531250, -0.903076171875, 0.480957031250, -4.023437500000, 7.070312500000, -9.171875000000, 1491366133
0.264404296875, -0.880126953125, 0.417724609375, -10.984375000000, 2.398437500000, -2.570312500000, 1491366133
0.264404296875, -0.880126953125, 0.417724609375, -10.984375000000, 2.398437500000, -2.570312500000, 1491366133
0.264404296875, -0.880126953125, 0.417724609375, -10.984375000000, 2.398437500000, -2.570312500000, 1491366133
0.264404296875, -0.880126953125, 0.417724609375, -10.984375000000, 2.398437500000, -2.570312500000, 1491366133
0.192871093750, -0.828125000000, 0.501464843750, 1.070312500000, 8.578125000000, -3.328125000000, 1491366133
0.192871093750, -0.828125000000, 0.501464843750, 1.070312500000, 8.578125000000, -3.328125000000, 1491366133
0.192871093750, -0.828125000000, 0.501464843750, 1.070312500000, 8.578125000000, -3.328125000000, 1491366133
0.263916015625, -0.878417968750, 0.467773437500, -5.531250000000, 2.593750000000, 0.007812500000, 1491366133
0.263916015625, -0.878417968750, 0.467773437500, -5.531250000000, 2.593750000000, 0.007812500000, 1491366133
0.263916015625, -0.878417968750, 0.467773437500, -5.531250000000, 2.593750000000, 0.007812500000, 1491366133
0.263183593750, -0.794433593750, 0.475585937500, -4.367187500000, -1.406250000000, -4.710937500000, 1491366133
0.263183593750, -0.794433593750, 0.475585937500, -4.367187500000, -1.406250000000, -4.710937500000, 1491366133
0.263183593750, -0.794433593750, 0.475585937500, -4.367187500000, -1.406250000000, -4.710937500000, 1491366133
0.267822265625, -0.817138671875, 0.436279296875, -4.039062500000, -6.390625000000, -3.359375000000, 1491366133
0.267822265625, -0.817138671875, 0.436279296875, -4.039062500000, -6.390625000000, -3.359375000000, 1491366133
0.267822265625, -0.817138671875, 0.436279296875, -4.039062500000, -6.390625000000, -3.359375000000, 1491366133
0.267822265625, -0.817138671875, 0.436279296875, -4.039062500000, -6.390625000000, -3.359375000000, 1491366133
0.259521484375, -0.832031250000, 0.501708984375, -1.906250000000, 2.039062500000, -8.140625000000, 1491366133
0.259521484375, -0.832031250000, 0.501708984375, -1.906250000000, 2.039062500000, -8.140625000000, 1491366133
0.259521484375, -0.832031250000, 0.501708984375, -1.906250000000, 2.039062500000, -8.140625000000, 1491366133
0.130371093750, -0.849853515625, 0.479492187500, -6.054687500000, -4.273437500000, -8.593750000000, 1491366133
0.130371093750, -0.849853515625, 0.479492187500, -6.054687500000, -4.273437500000, -8.593750000000, 1491366133
0.130371093750, -0.849853515625, 0.479492187500, -6.054687500000, -4.273437500000, -8.593750000000, 1491366133
0.204345703125, -0.901123046875, 0.520751953125, -0.671875000000, 2.179687500000, -6.000000000000, 1491366133
0.204345703125, -0.901123046875, 0.520751953125, -0.671875000000, 2.179687500000, -6.000000000000, 1491366133
0.204345703125, -0.901123046875, 0.520751953125, -0.671875000000, 2.179687500000, -6.000000000000, 1491366133
0.183105468750, -0.849365234375, 0.415283203125, -3.554687500000, -0.007812500000, -3.453125000000, 1491366133
0.183105468750, -0.849365234375, 0.415283203125, -3.554687500000, -0.007812500000, -3.453125000000, 1491366133
0.183105468750, -0.849365234375, 0.415283203125, -3.554687500000, -0.007812500000, -3.453125000000, 1491366133
0.183105468750, -0.849365234375, 0.415283203125, -3.554687500000, -0.007812500000, -3.453125000000, 1491366133
0.171386718750, -0.788330078125, 0.437255859375, -2.812500000000, 2.890625000000, 0.148437500000, 1491366133
0.171386718750, -0.788330078125, 0.437255859375, -2.812500000000, 2.890625000000, 0.148437500000, 1491366133
0.171386718750, -0.788330078125, 0.437255859375, -2.812500000000, 2.890625000000, 0.148437500000, 1491366133
0.200683593750, -0.854003906250, 0.489013671875, -1.789062500000, -0.289062500000, -4.328125000000, 1491366133
0.200683593750, -0.854003906250, 0.489013671875, -1.789062500000, -0.289062500000, -4.328125000000, 1491366133
0.200683593750, -0.854003906250, 0.489013671875, -1.789062500000, -0.289062500000, -4.328125000000, 1491366133
0.158691406250, -0.885498046875, 0.435058593750, -1.398437500000, 2.257812500000, -2.937500000000, 1491366133
0.158691406250, -0.885498046875, 0.435058593750, -1.398437500000, 2.257812500000, -2.937500000000, 1491366133
0.158691406250, -0.885498046875, 0.435058593750, -1.398437500000, 2.257812500000, -2.937500000000, 1491366133
0.214843750000, -0.812011718750, 0.479492187500, -1.343750000000, 0.625000000000, -0.906250000000, 1491366133
0.214843750000, -0.812011718750, 0.479492187500, -1.343750000000, 0.625000000000, -0.906250000000, 1491366133
0.214843750000, -0.812011718750, 0.479492187500, -1.343750000000, 0.625000000000, -0.906250000000, 1491366133
0.214843750000, -0.812011718750, 0.479492187500, -1.343750000000, 0.625000000000, -0.906250000000, 1491366133
0.167236328125, -0.844238281250, 0.514404296875, -6.156250000000, 2.187500000000, -4.335937500000, 1491366133
0.167236328125, -0.844238281250, 0.514404296875, -6.156250000000, 2.187500000000, -4.335937500000, 1491366133
0.167236328125, -0.844238281250, 0.514404296875, -6.156250000000, 2.187500000000, -4.335937500000, 1491366133
0.240234375000, -0.975585937500, 0.425292968750, -3.406250000000, 1.312500000000, 0.429687500000, 1491366133
0.240234375000, -0.975585937500, 0.425292968750, -3.406250000000, 1.312500000000, 0.429687500000, 1491366133
0.240234375000, -0.975585937500, 0.425292968750, -3.406250000000, 1.312500000000, 0.429687500000, 1491366133
0.158935546875, -0.851318359375, 0.528564453125, -3.242187500000, 0.539062500000, -6.382812500000, 1491366133
0.158935546875, -0.851318359375, 0.528564453125, -3.242187500000, 0.539062500000, -6.382812500000, 1491366133
0.158935546875, -0.851318359375, 0.528564453125, -3.242187500000, 0.539062500000, -6.382812500000, 1491366133
0.147949218750, -0.809814453125, 0.423828125000, -6.250000000000, -0.507812500000, -3.140625000000, 1491366133
0.147949218750, -0.809814453125, 0.423828125000, -6.250000000000, -0.507812500000, -3.140625000000, 1491366133
0.147949218750, -0.809814453125, 0.423828125000, -6.250000000000, -0.507812500000, -3.140625000000, 1491366133
0.147949218750, -0.809814453125, 0.423828125000, -6.250000000000, -0.507812500000, -3.140625000000, 1491366133
0.159179687500, -0.898925781250, 0.427490234375, -5.023437500000, 0.671875000000, -3.585937500000, 1491366133
0.159179687500, -0.898925781250, 0.427490234375, -5.023437500000, 0.671875000000, -3.585937500000, 1491366133
0.159179687500, -0.898925781250, 0.427490234375, -5.023437500000, 0.671875000000, -3.585937500000, 1491366133
0.061523437500, -0.897216796875, 0.498779296875, -6.343750000000, 3.554687500000, -1.859375000000, 1491366133
0.061523437500, -0.897216796875, 0.498779296875, -6.343750000000, 3.554687500000, -1.859375000000, 1491366133
0.061523437500, -0.897216796875, 0.498779296875, -6.343750000000, 3.554687500000, -1.859375000000, 1491366133
0.099365234375, -0.807617187500, 0.517333984375, -3.132812500000, 6.929687500000, -2.593750000000, 1491366134
0.099365234375, -0.807617187500, 0.517333984375, -3.132812500000, 6.929687500000, -2.593750000000, 1491366134
0.099365234375, -0.807617187500, 0.517333984375, -3.132812500000, 6.929687500000, -2.593750000000, 1491366134
0.157226562500, -0.871093750000, 0.479492187500, -3.781250000000, -6.156250000000, -7.437500000000, 1491366134
0.157226562500, -0.871093750000, 0.479492187500, -3.781250000000, -6.156250000000, -7.437500000000, 1491366134
0.157226562500, -0.871093750000, 0.479492187500, -3.781250000000, -6.156250000000, -7.437500000000, 1491366134
0.157226562500, -0.871093750000, 0.479492187500, -3.781250000000, -6.156250000000, -7.437500000000, 1491366134
0.202636718750, -0.865234375000, 0.562988281250, -6.718750000000, -0.242187500000, -4.859375000000, 1491366134
0.202636718750, -0.865234375000, 0.562988281250, -6.718750000000, -0.242187500000, -4.859375000000, 1491366134
0.202636718750, -0.865234375000, 0.562988281250, -6.718750000000, -0.242187500000, -4.859375000000, 1491366134
0.175048828125, -0.802246093750, 0.431396484375, -6.906250000000, 6.867187500000, -4.562500000000, 1491366134
0.175048828125, -0.802246093750, 0.431396484375, -6.906250000000, 6.867187500000, -4.562500000000, 1491366134
0.175048828125, -0.802246093750, 0.431396484375, -6.906250000000, 6.867187500000, -4.562500000000, 1491366134
0.192382812500, -0.850585937500, 0.430175781250, -3.531250000000, 1.421875000000, -4.859375000000, 1491366134
0.192382812500, -0.850585937500, 0.430175781250, -3.531250000000, 1.421875000000, -4.859375000000, 1491366134
0.192382812500, -0.850585937500, 0.430175781250, -3.531250000000, 1.421875000000, -4.859375000000, 1491366134
0.098388671875, -0.858398437500, 0.571044921875, -6.554687500000, 2.218750000000, -8.257812500000, 1491366134
0.098388671875, -0.858398437500, 0.571044921875, -6.554687500000, 2.218750000000, -8.257812500000, 1491366134
0.098388671875, -0.858398437500, 0.571044921875, -6.554687500000, 2.218750000000, -8.257812500000, 1491366134
0.098388671875, -0.858398437500, 0.571044921875, -6.554687500000, 2.218750000000, -8.257812500000, 1491366134
0.106445312500, -0.799072265625, 0.523681640625, -6.273437500000, 3.531250000000, -2.156250000000, 1491366134
0.106445312500, -0.799072265625, 0.523681640625, -6.273437500000, 3.531250000000, -2.156250000000, 1491366134
0.106445312500, -0.799072265625, 0.523681640625, -6.273437500000, 3.531250000000, -2.156250000000, 1491366134
0.101562500000, -0.904541015625, 0.519531250000, -6.687500000000, 5.093750000000, -1.148437500000, 1491366134
0.101562500000, -0.904541015625, 0.519531250000, -6.687500000000, 5.093750000000, -1.148437500000, 1491366134
0.101562500000, -0.904541015625, 0.519531250000, -6.687500000000, 5.093750000000, -1.148437500000, 1491366134
0.147705078125, -0.904541015625, 0.510253906250, -3.960937500000, -0.703125000000, -1.554687500000, 1491366134
0.147705078125, -0.904541015625, 0.510253906250, -3.960937500000, -0.703125000000, -1.554687500000, 1491366134
0.147705078125, -0.904541015625, 0.510253906250, -3.960937500000, -0.703125000000, -1.554687500000, 1491366134
0.105957031250, -0.848632812500, 0.422119140625, -3.570312500000, 4.085937500000, -4.937500000000, 1491366134
0.105957031250, -0.848632812500, 0.422119140625, -3.570312500000, 4.085937500000, -4.937500000000, 1491366134
0.105957031250, -0.848632812500, 0.422119140625, -3.570312500000, 4.085937500000, -4.937500000000, 1491366134
0.105957031250, -0.848632812500, 0.422119140625, -3.570312500000, 4.085937500000, -4.937500000000, 1491366134
0.257812500000, -0.891601562500, 0.483398437500, -4.562500000000, 6.515625000000, -2.484375000000, 1491366134
0.257812500000, -0.891601562500, 0.483398437500, -4.562500000000, 6.515625000000, -2.484375000000, 1491366134
0.257812500000, -0.891601562500, 0.483398437500, -4.562500000000, 6.515625000000, -2.484375000000, 1491366134
0.173095703125, -0.899414062500, 0.477050781250, -4.250000000000, -0.828125000000, -3.937500000000, 1491366134
0.173095703125, -0.899414062500, 0.477050781250, -4.250000000000, -0.828125000000, -3.937500000000, 1491366134
0.173095703125, -0.899414062500, 0.477050781250, -4.250000000000, -0.828125000000, -3.937500000000, 1491366134
0.321777343750, -0.843017578125, 0.423095703125, -1.375000000000, -6.062500000000, -4.304687500000, 1491366134
0.321777343750, -0.843017578125, 0.423095703125, -1.375000000000, -6.062500000000, -4.304687500000, 1491366134
0.321777343750, -0.843017578125, 0.423095703125, -1.375000000000, -6.062500000000, -4.304687500000, 1491366134
0.199951171875, -0.880859375000, 0.429443359375, -1.679687500000, 3.429687500000, -0.320312500000, 1491366134
0.199951171875, -0.880859375000, 0.429443359375, -1.679687500000, 3.429687500000, -0.320312500000, 1491366134
0.199951171875, -0.880859375000, 0.429443359375, -1.679687500000, 3.429687500000, -0.320312500000, 1491366134
0.199951171875, -0.880859375000, 0.429443359375, -1.679687500000, 3.429687500000, -0.320312500000, 1491366134
0.156738281250, -0.869140625000, 0.503173828125, -2.984375000000, 0.148437500000, -2.867187500000, 1491366134
0.156738281250, -0.869140625000, 0.503173828125, -2.984375000000, 0.148437500000, -2.867187500000, 1491366134
0.156738281250, -0.869140625000, 0.503173828125, -2.984375000000, 0.148437500000, -2.867187500000, 1491366134
0.134765625000, -0.790527343750, 0.480957031250, -1.500000000000, -1.523437500000, -3.382812500000, 1491366134
0.134765625000, -0.790527343750, 0.480957031250, -1.500000000000, -1.523437500000, -3.382812500000, 1491366134
0.134765625000, -0.790527343750, 0.480957031250, -1.500000000000, -1.523437500000, -3.382812500000, 1491366134
0.217773437500, -0.792480468750, 0.504394531250, 0.320312500000, 2.218750000000, -2.039062500000, 1491366134
0.217773437500, -0.792480468750, 0.504394531250, 0.320312500000, 2.218750000000, -2.039062500000, 1491366134
0.217773437500, -0.792480468750, 0.504394531250, 0.320312500000, 2.218750000000, -2.039062500000, 1491366134
0.203125000000, -0.798095703125, 0.477050781250, -2.468750000000, 4.007812500000, -3.632812500000, 1491366134
0.203125000000, -0.798095703125, 0.477050781250, -2.468750000000, 4.007812500000, -3.632812500000, 1491366134
0.203125000000, -0.798095703125, 0.477050781250, -2.468750000000, 4.007812500000, -3.632812500000, 1491366134
0.203125000000, -0.798095703125, 0.477050781250, -2.468750000000, 4.007812500000, -3.632812500000, 1491366134
0.269775390625, -0.903808593750, 0.514404296875, -2.851562500000, -4.726562500000, -4.281250000000, 1491366134
0.269775390625, -0.903808593750, 0.514404296875, -2.851562500000, -4.726562500000, -4.281250000000, 1491366134
0.269775390625, -0.903808593750, 0.514404296875, -2.851562500000, -4.726562500000, -4.281250000000, 1491366134
0.183105468750, -0.949951171875, 0.502197265625, -4.031250000000, 4.640625000000, -6.718750000000, 1491366134
0.183105468750, -0.949951171875, 0.502197265625, -4.031250000000, 4.640625000000, -6.718750000000, 1491366134
0.183105468750, -0.949951171875, 0.502197265625, -4.031250000000, 4.640625000000, -6.718750000000, 1491366134
0.198974609375, -0.825195312500, 0.471679687500, -1.820312500000, -0.867187500000, -3.929687500000, 1491366134
0.198974609375, -0.825195312500, 0.471679687500, -1.820312500000, -0.867187500000, -3.929687500000, 1491366135
0.198974609375, -0.825195312500, 0.471679687500, -1.820312500000, -0.867187500000, -3.929687500000, 1491366135
0.196044921875, -1.006591796875, 0.425048828125, -1.398437500000, -2.773437500000, -3.343750000000, 1491366135
0.196044921875, -1.006591796875, 0.425048828125, -1.398437500000, -2.773437500000, -3.343750000000, 1491366135
0.111328125000, -0.799560546875, 0.471435546875, -1.132812500000, -2.484375000000, -3.203125000000, 1491366135
0.111328125000, -0.799560546875, 0.471435546875, -1.132812500000, -2.484375000000, -3.203125000000, 1491366135
0.111328125000, -0.799560546875, 0.471435546875, -1.132812500000, -2.484375000000, -3.203125000000, 1491366135
0.111328125000, -0.799560546875, 0.471435546875, -1.132812500000, -2.484375000000, -3.203125000000, 1491366135
0.111328125000, -0.799560546875, 0.471435546875, -1.132812500000, -2.484375000000, -3.203125000000, 1491366135
0.152587890625, -0.880126953125, 0.506103515625, -4.812500000000, 0.257812500000, -8.140625000000, 1491366135
0.152587890625, -0.880126953125, 0.506103515625, -4.812500000000, 0.257812500000, -8.140625000000, 1491366135
0.152587890625, -0.880126953125, 0.506103515625, -4.812500000000, 0.257812500000, -8.140625000000, 1491366135
0.218750000000, -0.875244140625, 0.488281250000, -3.273437500000, 1.218750000000, -5.054687500000, 1491366135
0.218750000000, -0.875244140625, 0.488281250000, -3.273437500000, 1.218750000000, -5.054687500000, 1491366135
0.218750000000, -0.875244140625, 0.488281250000, -3.273437500000, 1.218750000000, -5.054687500000, 1491366135
0.200927734375, -0.841308593750, 0.412353515625, -4.015625000000, -2.164062500000, -5.109375000000, 1491366135
0.200927734375, -0.841308593750, 0.412353515625, -4.015625000000, -2.164062500000, -5.109375000000, 1491366135
0.200927734375, -0.841308593750, 0.412353515625, -4.015625000000, -2.164062500000, -5.109375000000, 1491366135
0.200927734375, -0.841308593750, 0.412353515625, -4.015625000000, -2.164062500000, -5.109375000000, 1491366135
0.206054687500, -0.798339843750, 0.489013671875, -1.992187500000, 1.171875000000, -4.718750000000, 1491366135
0.206054687500, -0.798339843750, 0.489013671875, -1.992187500000, 1.171875000000, -4.718750000000, 1491366135
0.206054687500, -0.798339843750, 0.489013671875, -1.992187500000, 1.171875000000, -4.718750000000, 1491366135
0.192871093750, -0.807861328125, 0.527099609375, -4.921875000000, 4.304687500000, -4.750000000000, 1491366135
0.192871093750, -0.807861328125, 0.527099609375, -4.921875000000, 4.304687500000, -4.750000000000, 1491366135
0.192871093750, -0.807861328125, 0.527099609375, -4.921875000000, 4.304687500000, -4.750000000000, 1491366135
0.190673828125, -0.838134765625, 0.515625000000, -3.664062500000, -3.742187500000, -10.210937500000, 1491366135
0.190673828125, -0.838134765625, 0.515625000000, -3.664062500000, -3.742187500000, -10.210937500000, 1491366135
0.190673828125, -0.838134765625, 0.515625000000, -3.664062500000, -3.742187500000, -10.210937500000, 1491366135
0.273437500000, -0.949462890625, 0.487548828125, -3.031250000000, 2.203125000000, -7.476562500000, 1491366135
0.273437500000, -0.949462890625, 0.487548828125, -3.031250000000, 2.203125000000, -7.476562500000, 1491366135
0.273437500000, -0.949462890625, 0.487548828125, -3.031250000000, 2.203125000000, -7.476562500000, 1491366135
0.273437500000, -0.949462890625, 0.487548828125, -3.031250000000, 2.203125000000, -7.476562500000, 1491366135
0.159423828125, -0.892822265625, 0.411621093750, -3.039062500000, 2.132812500000, -4.562500000000, 1491366135
0.159423828125, -0.892822265625, 0.411621093750, -3.039062500000, 2.132812500000, -4.562500000000, 1491366135
0.159423828125, -0.892822265625, 0.411621093750, -3.039062500000, 2.132812500000, -4.562500000000, 1491366135
0.106201171875, -0.868652343750, 0.586914062500, -1.578125000000, -0.523437500000, -3.015625000000, 1491366135
0.106201171875, -0.868652343750, 0.586914062500, -1.578125000000, -0.523437500000, -3.015625000000, 1491366135
0.106201171875, -0.868652343750, 0.586914062500, -1.578125000000, -0.523437500000, -3.015625000000, 1491366135
0.123046875000, -0.795166015625, 0.592285156250, -4.062500000000, -4.351562500000, -4.359375000000, 1491366135
0.123046875000, -0.795166015625, 0.592285156250, -4.062500000000, -4.351562500000, -4.359375000000, 1491366135
0.123046875000, -0.795166015625, 0.592285156250, -4.062500000000, -4.351562500000, -4.359375000000, 1491366135
0.050048828125, -0.850097656250, 0.483154296875, -3.546875000000, -0.796875000000, -6.343750000000, 1491366135
0.050048828125, -0.850097656250, 0.483154296875, -3.546875000000, -0.796875000000, -6.343750000000, 1491366135
0.050048828125, -0.850097656250, 0.483154296875, -3.546875000000, -0.796875000000, -6.343750000000, 1491366135
0.050048828125, -0.850097656250, 0.483154296875, -3.546875000000, -0.796875000000, -6.343750000000, 1491366135
0.199951171875, -0.960693359375, 0.517089843750, -1.945312500000, 0.921875000000, -6.414062500000, 1491366135
0.199951171875, -0.960693359375, 0.517089843750, -1.945312500000, 0.921875000000, -6.414062500000, 1491366135
0.199951171875, -0.960693359375, 0.517089843750, -1.945312500000, 0.921875000000, -6.414062500000, 1491366135
0.134277343750, -0.860351562500, 0.425292968750, -4.320312500000, -2.468750000000, -4.507812500000, 1491366135
0.134277343750, -0.860351562500, 0.425292968750, -4.320312500000, -2.468750000000, -4.507812500000, 1491366135
0.134277343750, -0.860351562500, 0.425292968750, -4.320312500000, -2.468750000000, -4.507812500000, 1491366135
0.211669921875, -0.811035156250, 0.564453125000, -4.289062500000, -0.726562500000, -1.070312500000, 1491366135
0.211669921875, -0.811035156250, 0.564453125000, -4.289062500000, -0.726562500000, -1.070312500000, 1491366135
0.211669921875, -0.811035156250, 0.564453125000, -4.289062500000, -0.726562500000, -1.070312500000, 1491366135
0.177490234375, -0.887939453125, 0.517578125000, -4.039062500000, 0.757812500000, -6.140625000000, 1491366135
0.177490234375, -0.887939453125, 0.517578125000, -4.039062500000, 0.757812500000, -6.140625000000, 1491366135
0.177490234375, -0.887939453125, 0.517578125000, -4.039062500000, 0.757812500000, -6.140625000000, 1491366135
0.177490234375, -0.887939453125, 0.517578125000, -4.039062500000, 0.757812500000, -6.140625000000, 1491366135
0.261718750000, -0.948242187500, 0.521484375000, -1.531250000000, 0.632812500000, -1.523437500000, 1491366135
0.261718750000, -0.948242187500, 0.521484375000, -1.531250000000, 0.632812500000, -1.523437500000, 1491366135
0.261718750000, -0.948242187500, 0.521484375000, -1.531250000000, 0.632812500000, -1.523437500000, 1491366135
0.159423828125, -0.886474609375, 0.415771484375, -2.546875000000, -1.007812500000, -6.328125000000, 1491366135
0.159423828125, -0.886474609375, 0.415771484375, -2.546875000000, -1.007812500000, -6.328125000000, 1491366135
0.159423828125, -0.886474609375, 0.415771484375, -2.546875000000, -1.007812500000, -6.328125000000, 1491366135
0.231201171875, -0.850585937500, 0.530761718750, -4.226562500000, -1.710937500000, -5.992187500000, 1491366135
0.231201171875, -0.850585937500, 0.530761718750, -4.226562500000, -1.710937500000, -5.992187500000, 1491366135
0.231201171875, -0.850585937500, 0.530761718750, -4.226562500000, -1.710937500000, -5.992187500000, 1491366135
0.111816406250, -0.836914062500, 0.492187500000, -3.687500000000, -0.406250000000, -2.992187500000, 1491366136
0.111816406250, -0.836914062500, 0.492187500000, -3.687500000000, -0.406250000000, -2.992187500000, 1491366136
0.111816406250, -0.836914062500, 0.492187500000, -3.687500000000, -0.406250000000, -2.992187500000, 1491366136
0.111816406250, -0.836914062500, 0.492187500000, -3.687500000000, -0.406250000000, -2.992187500000, 1491366136
0.173339843750, -0.927734375000, 0.506591796875, -6.859375000000, 6.156250000000, -3.414062500000, 1491366136
0.173339843750, -0.927734375000, 0.506591796875, -6.859375000000, 6.156250000000, -3.414062500000, 1491366136
0.173339843750, -0.927734375000, 0.506591796875, -6.859375000000, 6.156250000000, -3.414062500000, 1491366136
0.116943359375, -0.885253906250, 0.572998046875, -4.328125000000, 6.781250000000, -4.796875000000, 1491366136
0.116943359375, -0.885253906250, 0.572998046875, -4.328125000000, 6.781250000000, -4.796875000000, 1491366136
0.116943359375, -0.885253906250, 0.572998046875, -4.328125000000, 6.781250000000, -4.796875000000, 1491366136
0.317138671875, -0.902099609375, 0.514160156250, -1.945312500000, 5.500000000000, -8.640625000000, 1491366136
0.317138671875, -0.902099609375, 0.514160156250, -1.945312500000, 5.500000000000, -8.640625000000, 1491366136
0.317138671875, -0.902099609375, 0.514160156250, -1.945312500000, 5.500000000000, -8.640625000000, 1491366136
0.130615234375, -0.901611328125, 0.422851562500, -0.554687500000, -19.687500000000, -17.937500000000, 1491366136
0.130615234375, -0.901611328125, 0.422851562500, -0.554687500000, -19.687500000000, -17.937500000000, 1491366136
0.130615234375, -0.901611328125, 0.422851562500, -0.554687500000, -19.687500000000, -17.937500000000, 1491366136
0.130615234375, -0.901611328125, 0.422851562500, -0.554687500000, -19.687500000000, -17.937500000000, 1491366136
0.138916015625, -0.881835937500, 0.418457031250, 2.000000000000, -6.875000000000, -19.335937500000, 1491366136
0.138916015625, -0.881835937500, 0.418457031250, 2.000000000000, -6.875000000000, -19.335937500000, 1491366136
0.138916015625, -0.881835937500, 0.418457031250, 2.000000000000, -6.875000000000, -19.335937500000, 1491366136
0.068847656250, -0.846435546875, 0.453369140625, 10.421875000000, -16.320312500000, -24.234375000000, 1491366136
0.068847656250, -0.846435546875, 0.453369140625, 10.421875000000, -16.320312500000, -24.234375000000, 1491366136
0.068847656250, -0.846435546875, 0.453369140625, 10.421875000000, -16.320312500000, -24.234375000000, 1491366136
0.129150390625, -0.909179687500, 0.514892578125, 22.218750000000, -77.539062500000, -48.328125000000, 1491366136
0.129150390625, -0.909179687500, 0.514892578125, 22.218750000000, -77.539062500000, -48.328125000000, 1491366136
0.129150390625, -0.909179687500, 0.514892578125, 22.218750000000, -77.539062500000, -48.328125000000, 1491366136
0.174072265625, -0.782470703125, 0.479003906250, 10.054687500000, -65.437500000000, -29.726562500000, 1491366136
0.174072265625, -0.782470703125, 0.479003906250, 10.054687500000, -65.437500000000, -29.726562500000, 1491366136
0.174072265625, -0.782470703125, 0.479003906250, 10.054687500000, -65.437500000000, -29.726562500000, 1491366136
0.174072265625, -0.782470703125, 0.479003906250, 10.054687500000, -65.437500000000, -29.726562500000, 1491366136
0.209716796875, -0.805664062500, 0.585205078125, 23.656250000000, -7.164062500000, -19.015625000000, 1491366136
0.209716796875, -0.805664062500, 0.585205078125, 23.656250000000, -7.164062500000, -19.015625000000, 1491366136
0.209716796875, -0.805664062500, 0.585205078125, 23.656250000000, -7.164062500000, -19.015625000000, 1491366136
0.047851562500, -0.959716796875, 0.519287109375, 5.320312500000, 7.203125000000, -6.187500000000, 1491366136
0.047851562500, -0.959716796875, 0.519287109375, 5.320312500000, 7.203125000000, -6.187500000000, 1491366136
0.047851562500, -0.959716796875, 0.519287109375, 5.320312500000, 7.203125000000, -6.187500000000, 1491366136
0.126220703125, -0.885498046875, 0.436279296875, 6.578125000000, -4.234375000000, -5.757812500000, 1491366136
0.126220703125, -0.885498046875, 0.436279296875, 6.578125000000, -4.234375000000, -5.757812500000, 1491366136
0.126220703125, -0.885498046875, 0.436279296875, 6.578125000000, -4.234375000000, -5.757812500000, 1491366136
0.070556640625, -0.962402343750, 0.469238281250, 5.343750000000, 14.710937500000, 6.445312500000, 1491366136
0.070556640625, -0.962402343750, 0.469238281250, 5.343750000000, 14.710937500000, 6.445312500000, 1491366136
0.070556640625, -0.962402343750, 0.469238281250, 5.343750000000, 14.710937500000, 6.445312500000, 1491366136
0.070556640625, -0.962402343750, 0.469238281250, 5.343750000000, 14.710937500000, 6.445312500000, 1491366136
0.047119140625, -0.925781250000, 0.505371093750, -6.726562500000, 31.257812500000, 17.718750000000, 1491366136
0.047119140625, -0.925781250000, 0.505371093750, -6.726562500000, 31.257812500000, 17.718750000000, 1491366136
0.047119140625, -0.925781250000, 0.505371093750, -6.726562500000, 31.257812500000, 17.718750000000, 1491366136
0.142333984375, -1.082763671875, 0.417724609375, -14.351562500000, -3.718750000000, 22.445312500000, 1491366136
0.142333984375, -1.082763671875, 0.417724609375, -14.351562500000, -3.718750000000, 22.445312500000, 1491366136
0.142333984375, -1.082763671875, 0.417724609375, -14.351562500000, -3.718750000000, 22.445312500000, 1491366136
0.153564453125, -0.942871093750, 0.452392578125, 0.882812500000, 0.320312500000, 10.164062500000, 1491366136
0.153564453125, -0.942871093750, 0.452392578125, 0.882812500000, 0.320312500000, 10.164062500000, 1491366136
0.153564453125, -0.942871093750, 0.452392578125, 0.882812500000, 0.320312500000, 10.164062500000, 1491366136
0.127685546875, -0.859863281250, 0.480468750000, -31.281250000000, 87.328125000000, 37.320312500000, 1491366136
0.127685546875, -0.859863281250, 0.480468750000, -31.281250000000, 87.328125000000, 37.320312500000, 1491366136
0.127685546875, -0.859863281250, 0.480468750000, -31.281250000000, 87.328125000000, 37.320312500000, 1491366136
0.127685546875, -0.859863281250, 0.480468750000, -31.281250000000, 87.328125000000, 37.320312500000, 1491366136
0.100830078125, -1.075683593750, 0.303955078125, -25.359375000000, 89.242187500000, 17.156250000000, 1491366136
0.100830078125, -1.075683593750, 0.303955078125, -25.359375000000, 89.242187500000, 17.156250000000, 1491366136
0.100830078125, -1.075683593750, 0.303955078125, -25.359375000000, 89.242187500000, 17.156250000000, 1491366136
0.049560546875, -0.923095703125, 0.392578125000, -16.617187500000, 33.632812500000, 5.054687500000, 1491366136
0.049560546875, -0.923095703125, 0.392578125000, -16.617187500000, 33.632812500000, 5.054687500000, 1491366136
0.049560546875, -0.923095703125, 0.392578125000, -16.617187500000, 33.632812500000, 5.054687500000, 1491366136
0.104980468750, -1.020507812500, 0.307861328125, 3.093750000000, 8.437500000000, -2.398437500000, 1491366136
0.104980468750, -1.020507812500, 0.307861328125, 3.093750000000, 8.437500000000, -2.398437500000, 1491366136
0.104980468750, -1.020507812500, 0.307861328125, 3.093750000000, 8.437500000000, -2.398437500000, 1491366136
0.248779296875, -0.863525390625, 0.440429687500, 10.523437500000, -73.187500000000, -16.453125000000, 1491366137
0.248779296875, -0.863525390625, 0.440429687500, 10.523437500000, -73.187500000000, -16.453125000000, 1491366137
0.248779296875, -0.863525390625, 0.440429687500, 10.523437500000, -73.187500000000, -16.453125000000, 1491366137
0.178222656250, -0.730712890625, 0.363281250000, -0.789062500000, -8.875000000000, 0.421875000000, 1491366137
0.345458984375, -0.799804687500, 0.380126953125, -11.726562500000, 34.492187500000, 4.695312500000, 1491366137
0.345458984375, -0.799804687500, 0.380126953125, -11.726562500000, 34.492187500000, 4.695312500000, 1491366137
0.345458984375, -0.799804687500, 0.380126953125, -11.726562500000, 34.492187500000, 4.695312500000, 1491366137
0.247802734375, -0.955566406250, 0.401611328125, -5.429687500000, 57.867187500000, 11.921875000000, 1491366137
0.247802734375, -0.955566406250, 0.401611328125, -5.429687500000, 57.867187500000, 11.921875000000, 1491366137
0.247802734375, -0.955566406250, 0.401611328125, -5.429687500000, 57.867187500000, 11.921875000000, 1491366137
0.250244140625, -0.742675781250, 0.386474609375, 3.968750000000, 33.687500000000, 1.742187500000, 1491366137
0.250244140625, -0.742675781250, 0.386474609375, 3.968750000000, 33.687500000000, 1.742187500000, 1491366137
0.250244140625, -0.742675781250, 0.386474609375, 3.968750000000, 33.687500000000, 1.742187500000, 1491366137
0.200683593750, -0.900878906250, 0.435791015625, 11.820312500000, 18.812500000000, -6.648437500000, 1491366137
0.200683593750, -0.900878906250, 0.435791015625, 11.820312500000, 18.812500000000, -6.648437500000, 1491366137
0.200683593750, -0.900878906250, 0.435791015625, 11.820312500000, 18.812500000000, -6.648437500000, 1491366137
0.200683593750, -0.900878906250, 0.435791015625, 11.820312500000, 18.812500000000, -6.648437500000, 1491366137
0.114746093750, -0.844482421875, 0.520751953125, 19.742187500000, -18.531250000000, -22.078125000000, 1491366137
0.114746093750, -0.844482421875, 0.520751953125, 19.742187500000, -18.531250000000, -22.078125000000, 1491366137
0.114746093750, -0.844482421875, 0.520751953125, 19.742187500000, -18.531250000000, -22.078125000000, 1491366137
0.168457031250, -0.840576171875, 0.487060546875, 2.929687500000, 9.687500000000, -11.085937500000, 1491366137
0.168457031250, -0.840576171875, 0.487060546875, 2.929687500000, 9.687500000000, -11.085937500000, 1491366137
0.168457031250, -0.840576171875, 0.487060546875, 2.929687500000, 9.687500000000, -11.085937500000, 1491366137
0.095458984375, -0.848388671875, 0.427734375000, -9.953125000000, 14.304687500000, -13.476562500000, 1491366137
0.095458984375, -0.848388671875, 0.427734375000, -9.953125000000, 14.304687500000, -13.476562500000, 1491366137
0.095458984375, -0.848388671875, 0.427734375000, -9.953125000000, 14.304687500000, -13.476562500000, 1491366137
0.190185546875, -1.002685546875, 0.369873046875, -18.820312500000, 6.320312500000, -25.242187500000, 1491366137
0.190185546875, -1.002685546875, 0.369873046875, -18.820312500000, 6.320312500000, -25.242187500000, 1491366137
0.190185546875, -1.002685546875, 0.369873046875, -18.820312500000, 6.320312500000, -25.242187500000, 1491366137
0.190185546875, -1.002685546875, 0.369873046875, -18.820312500000, 6.320312500000, -25.242187500000, 1491366137
0.124755859375, -0.856201171875, 0.440917968750, -12.921875000000, -12.960937500000, -36.335937500000, 1491366137
0.124755859375, -0.856201171875, 0.440917968750, -12.921875000000, -12.960937500000, -36.335937500000, 1491366137
0.124755859375, -0.856201171875, 0.440917968750, -12.921875000000, -12.960937500000, -36.335937500000, 1491366137
0.099365234375, -1.198242187500, 0.569824218750, -11.687500000000, -27.593750000000, -31.523437500000, 1491366137
0.099365234375, -1.198242187500, 0.569824218750, -11.687500000000, -27.593750000000, -31.523437500000, 1491366137
0.099365234375, -1.198242187500, 0.569824218750, -11.687500000000, -27.593750000000, -31.523437500000, 1491366137
0.097167968750, -1.145751953125, 0.545166015625, -0.796875000000, -33.117187500000, -35.570312500000, 1491366137
0.097167968750, -1.145751953125, 0.545166015625, -0.796875000000, -33.117187500000, -35.570312500000, 1491366137
0.097167968750, -1.145751953125, 0.545166015625, -0.796875000000, -33.117187500000, -35.570312500000, 1491366137
0.063964843750, -0.750732421875, 0.393554687500, -19.164062500000, -6.960937500000, -20.445312500000, 1491366137
0.063964843750, -0.750732421875, 0.393554687500, -19.164062500000, -6.960937500000, -20.445312500000, 1491366137
0.063964843750, -0.750732421875, 0.393554687500, -19.164062500000, -6.960937500000, -20.445312500000, 1491366137
0.125976562500, -0.722167968750, 0.292480468750, -32.101562500000, 4.812500000000, -7.593750000000, 1491366137
0.099365234375, -0.793945312500, 0.287597656250, -37.882812500000, 9.695312500000, -4.640625000000, 1491366137
0.099365234375, -0.793945312500, 0.287597656250, -37.882812500000, 9.695312500000, -4.640625000000, 1491366137
0.099365234375, -0.793945312500, 0.287597656250, -37.882812500000, 9.695312500000, -4.640625000000, 1491366137
0.086425781250, -0.805175781250, 0.325195312500, -42.046875000000, 30.296875000000, -2.218750000000, 1491366137
0.086425781250, -0.805175781250, 0.325195312500, -42.046875000000, 30.296875000000, -2.218750000000, 1491366137
0.086425781250, -0.805175781250, 0.325195312500, -42.046875000000, 30.296875000000, -2.218750000000, 1491366137
-0.242187500000, -1.019531250000, 0.233398437500, -33.593750000000, 63.679687500000, 21.757812500000, 1491366137
-0.242187500000, -1.019531250000, 0.233398437500, -33.593750000000, 63.679687500000, 21.757812500000, 1491366137
-0.242187500000, -1.019531250000, 0.233398437500, -33.593750000000, 63.679687500000, 21.757812500000, 1491366137
-0.167480468750, -0.930419921875, 0.308349609375, 2.851562500000, -42.976562500000, -26.593750000000, 1491366137
-0.167480468750, -0.930419921875, 0.308349609375, 2.851562500000, -42.976562500000, -26.593750000000, 1491366137
-0.167480468750, -0.930419921875, 0.308349609375, 2.851562500000, -42.976562500000, -26.593750000000, 1491366137
-0.167480468750, -0.930419921875, 0.308349609375, 2.851562500000, -42.976562500000, -26.593750000000, 1491366137
0.069335937500, -0.960693359375, 0.395751953125, 20.343750000000, -86.781250000000, -32.835937500000, 1491366137
0.069335937500, -0.960693359375, 0.395751953125, 20.343750000000, -86.781250000000, -32.835937500000, 1491366137
0.069335937500, -0.960693359375, 0.395751953125, 20.343750000000, -86.781250000000, -32.835937500000, 1491366137
0.139648437500, -0.744384765625, 0.498046875000, 22.875000000000, -49.484375000000, -10.710937500000, 1491366137
0.139648437500, -0.744384765625, 0.498046875000, 22.875000000000, -49.484375000000, -10.710937500000, 1491366137
0.139648437500, -0.744384765625, 0.498046875000, 22.875000000000, -49.484375000000, -10.710937500000, 1491366137
-0.060546875000, -0.837402343750, 0.573730468750, -2.992187500000, 2.390625000000, 1.484375000000, 1491366137
-0.060546875000, -0.837402343750, 0.573730468750, -2.992187500000, 2.390625000000, 1.484375000000, 1491366137
-0.060546875000, -0.837402343750, 0.573730468750, -2.992187500000, 2.390625000000, 1.484375000000, 1491366137
-0.073730468750, -0.791015625000, 0.364013671875, 0.171875000000, -8.335937500000, -4.507812500000, 1491366137
-0.073730468750, -0.791015625000, 0.364013671875, 0.171875000000, -8.335937500000, -4.507812500000, 1491366137
-0.073730468750, -0.791015625000, 0.364013671875, 0.171875000000, -8.335937500000, -4.507812500000, 1491366137
-0.073730468750, -0.791015625000, 0.364013671875, 0.171875000000, -8.335937500000, -4.507812500000, 1491366137
0.023437500000, -0.882080078125, 0.461425781250, 10.085937500000, -20.312500000000, -0.414062500000, 1491366138
0.023437500000, -0.882080078125, 0.461425781250, 10.085937500000, -20.312500000000, -0.414062500000, 1491366138
0.023437500000, -0.882080078125, 0.461425781250, 10.085937500000, -20.312500000000, -0.414062500000, 1491366138
-0.058105468750, -0.736816406250, 0.447753906250, 10.906250000000, -15.304687500000, 4.039062500000, 1491366138
-0.058105468750, -0.736816406250, 0.447753906250, 10.906250000000, -15.304687500000, 4.039062500000, 1491366138
-0.058105468750, -0.736816406250, 0.447753906250, 10.906250000000, -15.304687500000, 4.039062500000, 1491366138
-0.078857421875, -0.849609375000, 0.591796875000, -1.078125000000, 3.375000000000, 8.703125000000, 1491366138
-0.078857421875, -0.849609375000, 0.591796875000, -1.078125000000, 3.375000000000, 8.703125000000, 1491366138
-0.078857421875, -0.849609375000, 0.591796875000, -1.078125000000, 3.375000000000, 8.703125000000, 1491366138
0.004882812500, -0.883056640625, 0.409423828125, -6.375000000000, 7.570312500000, 7.093750000000, 1491366138
0.004882812500, -0.883056640625, 0.409423828125, -6.375000000000, 7.570312500000, 7.093750000000, 1491366138
0.004882812500, -0.883056640625, 0.409423828125, -6.375000000000, 7.570312500000, 7.093750000000, 1491366138
0.004882812500, -0.883056640625, 0.409423828125, -6.375000000000, 7.570312500000, 7.093750000000, 1491366138
0.020507812500, -1.073486328125, 0.479248046875, -0.695312500000, -29.460937500000, 4.804687500000, 1491366138
0.020507812500, -1.073486328125, 0.479248046875, -0.695312500000, -29.460937500000, 4.804687500000, 1491366138
0.020507812500, -1.073486328125, 0.479248046875, -0.695312500000, -29.460937500000, 4.804687500000, 1491366138
0.094726562500, -0.909179687500, 0.639160156250, -9.578125000000, -14.468750000000, 16.304687500000, 1491366138
0.094726562500, -0.909179687500, 0.639160156250, -9.578125000000, -14.468750000000, 16.304687500000, 1491366138
0.094726562500, -0.909179687500, 0.639160156250, -9.578125000000, -14.468750000000, 16.304687500000, 1491366138
0.032470703125, -1.167236328125, 0.553466796875, -25.343750000000, 0.656250000000, 20.921875000000, 1491366138
0.032470703125, -1.167236328125, 0.553466796875, -25.343750000000, 0.656250000000, 20.921875000000, 1491366138
0.032470703125, -1.167236328125, 0.553466796875, -25.343750000000, 0.656250000000, 20.921875000000, 1491366138
0.048339843750, -1.064208984375, 0.506591796875, -15.820312500000, 10.945312500000, 9.671875000000, 1491366138
0.048339843750, -1.064208984375, 0.506591796875, -15.820312500000, 10.945312500000, 9.671875000000, 1491366138
0.048339843750, -1.064208984375, 0.506591796875, -15.820312500000, 10.945312500000, 9.671875000000, 1491366138
0.048339843750, -1.064208984375, 0.506591796875, -15.820312500000, 10.945312500000, 9.671875000000, 1491366138
0.041748046875, -0.842529296875, 0.428222656250, -7.085937500000, 3.398437500000, 3.164062500000, 1491366138
0.041748046875, -0.842529296875, 0.428222656250, -7.085937500000, 3.398437500000, 3.164062500000, 1491366138
0.041748046875, -0.842529296875, 0.428222656250, -7.085937500000, 3.398437500000, 3.164062500000, 1491366138
0.190673828125, -0.810058593750, 0.458740234375, -10.562500000000, 22.054687500000, 7.195312500000, 1491366138
0.190673828125, -0.810058593750, 0.458740234375, -10.562500000000, 22.054687500000, 7.195312500000, 1491366138
0.190673828125, -0.810058593750, 0.458740234375, -10.562500000000, 22.054687500000, 7.195312500000, 1491366138
0.191650390625, -0.827148437500, 0.379150390625, -10.992187500000, 53.015625000000, 19.890625000000, 1491366138
0.191650390625, -0.827148437500, 0.379150390625, -10.992187500000, 53.015625000000, 19.890625000000, 1491366138
0.191650390625, -0.827148437500, 0.379150390625, -10.992187500000, 53.015625000000, 19.890625000000, 1491366138
0.175537109375, -0.951660156250, 0.282226562500, -3.843750000000, 108.773437500000, 38.023437500000, 1491366138
0.175537109375, -0.951660156250, 0.282226562500, -3.843750000000, 108.773437500000, 38.023437500000, 1491366138
0.175537109375, -0.951660156250, 0.282226562500, -3.843750000000, 108.773437500000, 38.023437500000, 1491366138
0.175537109375, -0.951660156250, 0.282226562500, -3.843750000000, 108.773437500000, 38.023437500000, 1491366138
0.294189453125, -0.929687500000, 0.410156250000, 27.265625000000, 91.265625000000, 24.921875000000, 1491366138
0.294189453125, -0.929687500000, 0.410156250000, 27.265625000000, 91.265625000000, 24.921875000000, 1491366138
0.294189453125, -0.929687500000, 0.410156250000, 27.265625000000, 91.265625000000, 24.921875000000, 1491366138
0.165039062500, -0.930419921875, 0.494140625000, 22.343750000000, -58.687500000000, 1.046875000000, 1491366138
0.165039062500, -0.930419921875, 0.494140625000, 22.343750000000, -58.687500000000, 1.046875000000, 1491366138
0.165039062500, -0.930419921875, 0.494140625000, 22.343750000000, -58.687500000000, 1.046875000000, 1491366138
0.123779296875, -0.790039062500, 0.526367187500, 11.070312500000, 38.031250000000, 9.632812500000, 1491366138
0.123779296875, -0.790039062500, 0.526367187500, 11.070312500000, 38.031250000000, 9.632812500000, 1491366138
0.123779296875, -0.790039062500, 0.526367187500, 11.070312500000, 38.031250000000, 9.632812500000, 1491366138
0.182861328125, -0.802001953125, 0.435791015625, 4.289062500000, 9.414062500000, -1.343750000000, 1491366138
0.182861328125, -0.802001953125, 0.435791015625, 4.289062500000, 9.414062500000, -1.343750000000, 1491366138
0.182861328125, -0.802001953125, 0.435791015625, 4.289062500000, 9.414062500000, -1.343750000000, 1491366138
0.182861328125, -0.802001953125, 0.435791015625, 4.289062500000, 9.414062500000, -1.343750000000, 1491366138
0.194335937500, -0.840576171875, 0.473144531250, 5.515625000000, 2.609375000000, -8.234375000000, 1491366138
0.194335937500, -0.840576171875, 0.473144531250, 5.515625000000, 2.609375000000, -8.234375000000, 1491366138
0.194335937500, -0.840576171875, 0.473144531250, 5.515625000000, 2.609375000000, -8.234375000000, 1491366138
0.121093750000, -0.839111328125, 0.412841796875, -1.578125000000, -8.710937500000, -14.429687500000, 1491366138
0.121093750000, -0.839111328125, 0.412841796875, -1.578125000000, -8.710937500000, -14.429687500000, 1491366138
0.121093750000, -0.839111328125, 0.412841796875, -1.578125000000, -8.710937500000, -14.429687500000, 1491366138
0.200927734375, -0.849365234375, 0.429687500000, -9.578125000000, 14.257812500000, -14.898437500000, 1491366138
0.200927734375, -0.849365234375, 0.429687500000, -9.578125000000, 14.257812500000, -14.898437500000, 1491366138
0.200927734375, -0.849365234375, 0.429687500000, -9.578125000000, 14.257812500000, -14.898437500000, 1491366138
0.216552734375, -0.895019531250, 0.431884765625, -4.703125000000, -8.148437500000, -21.765625000000, 1491366138
0.216552734375, -0.895019531250, 0.431884765625, -4.703125000000, -8.148437500000, -21.765625000000, 1491366138
0.216552734375, -0.895019531250, 0.431884765625, -4.703125000000, -8.148437500000, -21.765625000000, 1491366138
0.216552734375, -0.895019531250, 0.431884765625, -4.703125000000, -8.148437500000, -21.765625000000, 1491366138
0.122314453125, -0.901367187500, 0.511474609375, -1.617187500000, -11.906250000000, -29.523437500000, 1491366139
0.122314453125, -0.901367187500, 0.511474609375, -1.617187500000, -11.906250000000, -29.523437500000, 1491366139
0.122314453125, -0.901367187500, 0.511474609375, -1.617187500000, -11.906250000000, -29.523437500000, 1491366139
0.148193359375, -0.838623046875, 0.493652343750, -12.398437500000, -12.867187500000, -36.265625000000, 1491366139
0.148193359375, -0.838623046875, 0.493652343750, -12.398437500000, -12.867187500000, -36.265625000000, 1491366139
0.148193359375, -0.838623046875, 0.493652343750, -12.398437500000, -12.867187500000, -36.265625000000, 1491366139
0.035644531250, -0.959472656250, 0.557861328125, -15.007812500000, -14.156250000000, -40.882812500000, 1491366139
-0.002685546875, -1.046630859375, 0.501708984375, -19.218750000000, -9.398437500000, -34.992187500000, 1491366139
-0.002685546875, -1.046630859375, 0.501708984375, -19.218750000000, -9.398437500000, -34.992187500000, 1491366139
-0.002685546875, -1.046630859375, 0.501708984375, -19.218750000000, -9.398437500000, -34.992187500000, 1491366139
-0.002685546875, -1.046630859375, 0.501708984375, -19.218750000000, -9.398437500000, -34.992187500000, 1491366139
-0.002685546875, -1.046630859375, 0.501708984375, -19.218750000000, -9.398437500000, -34.992187500000, 1491366139
0.063232421875, -0.892578125000, 0.515869140625, -11.554687500000, -15.687500000000, -25.804687500000, 1491366139
0.063232421875, -0.892578125000, 0.515869140625, -11.554687500000, -15.687500000000, -25.804687500000, 1491366139
0.063232421875, -0.892578125000, 0.515869140625, -11.554687500000, -15.687500000000, -25.804687500000, 1491366139
0.137695312500, -0.791748046875, 0.448242187500, -13.937500000000, -3.039062500000, -16.796875000000, 1491366139
-0.002441406250, -0.774658203125, 0.364746093750, -20.906250000000, 7.007812500000, -10.664062500000, 1491366139
-0.002441406250, -0.774658203125, 0.364746093750, -20.906250000000, 7.007812500000, -10.664062500000, 1491366139
-0.002441406250, -0.774658203125, 0.364746093750, -20.906250000000, 7.007812500000, -10.664062500000, 1491366139
-0.063476562500, -0.748046875000, 0.393798828125, -30.835937500000, 44.632812500000, 6.820312500000, 1491366139
-0.063476562500, -0.748046875000, 0.393798828125, -30.835937500000, 44.632812500000, 6.820312500000, 1491366139
-0.063476562500, -0.748046875000, 0.393798828125, -30.835937500000, 44.632812500000, 6.820312500000, 1491366139
-0.152832031250, -0.907714843750, 0.389160156250, -11.351562500000, 29.164062500000, 5.984375000000, 1491366139
-0.152832031250, -0.907714843750, 0.389160156250, -11.351562500000, 29.164062500000, 5.984375000000, 1491366139
-0.152832031250, -0.907714843750, 0.389160156250, -11.351562500000, 29.164062500000, 5.984375000000, 1491366139
-0.152832031250, -0.907714843750, 0.389160156250, -11.351562500000, 29.164062500000, 5.984375000000, 1491366139
-0.050781250000, -0.926269531250, 0.378662109375, -0.664062500000, 0.179687500000, 2.265625000000, 1491366139
-0.050781250000, -0.926269531250, 0.378662109375, -0.664062500000, 0.179687500000, 2.265625000000, 1491366139
-0.050781250000, -0.926269531250, 0.378662109375, -0.664062500000, 0.179687500000, 2.265625000000, 1491366139
-0.127441406250, -1.006835937500, 0.507812500000, 17.179687500000, -50.601562500000, -14.546875000000, 1491366139
-0.127441406250, -1.006835937500, 0.507812500000, 17.179687500000, -50.601562500000, -14.546875000000, 1491366139
-0.127441406250, -1.006835937500, 0.507812500000, 17.179687500000, -50.601562500000, -14.546875000000, 1491366139
0.012939453125, -0.869384765625, 0.448242187500, 23.523437500000, -88.343750000000, -21.093750000000, 1491366139
0.012939453125, -0.869384765625, 0.448242187500, 23.523437500000, -88.343750000000, -21.093750000000, 1491366139
0.012939453125, -0.869384765625, 0.448242187500, 23.523437500000, -88.343750000000, -21.093750000000, 1491366139
0.036132812500, -0.823974609375, 0.509765625000, -8.742187500000, 9.687500000000, 9.296875000000, 1491366139
0.036132812500, -0.823974609375, 0.509765625000, -8.742187500000, 9.687500000000, 9.296875000000, 1491366139
0.036132812500, -0.823974609375, 0.509765625000, -8.742187500000, 9.687500000000, 9.296875000000, 1491366139
0.036132812500, -0.823974609375, 0.509765625000, -8.742187500000, 9.687500000000, 9.296875000000, 1491366139
-0.064697265625, -0.763183593750, 0.422851562500, -14.179687500000, 27.625000000000, 9.992187500000, 1491366139
-0.064697265625, -0.763183593750, 0.422851562500, -14.179687500000, 27.625000000000, 9.992187500000, 1491366139
-0.064697265625, -0.763183593750, 0.422851562500, -14.179687500000, 27.625000000000, 9.992187500000, 1491366139
-0.055908203125, -0.844238281250, 0.464599609375, -0.281250000000, 12.414062500000, 1.953125000000, 1491366139
-0.055908203125, -0.844238281250, 0.464599609375, -0.281250000000, 12.414062500000, 1.953125000000, 1491366139
-0.055908203125, -0.844238281250, 0.464599609375, -0.281250000000, 12.414062500000, 1.953125000000, 1491366139
0.013916015625, -0.905029296875, 0.424072265625, 9.187500000000, -20.953125000000, -4.250000000000, 1491366139
0.013916015625, -0.905029296875, 0.424072265625, 9.187500000000, -20.953125000000, -4.250000000000, 1491366139
0.013916015625, -0.905029296875, 0.424072265625, 9.187500000000, -20.953125000000, -4.250000000000, 1491366139
0.010986328125, -0.883789062500, 0.538574218750, 1.437500000000, -5.382812500000, 3.398437500000, 1491366139
0.010986328125, -0.883789062500, 0.538574218750, 1.437500000000, -5.382812500000, 3.398437500000, 1491366139
0.010986328125, -0.883789062500, 0.538574218750, 1.437500000000, -5.382812500000, 3.398437500000, 1491366139
0.010986328125, -0.883789062500, 0.538574218750, 1.437500000000, -5.382812500000, 3.398437500000, 1491366139
-0.023437500000, -0.892822265625, 0.474121093750, -5.929687500000, 23.945312500000, 9.843750000000, 1491366139
-0.023437500000, -0.892822265625, 0.474121093750, -5.929687500000, 23.945312500000, 9.843750000000, 1491366139
-0.023437500000, -0.892822265625, 0.474121093750, -5.929687500000, 23.945312500000, 9.843750000000, 1491366139
0.050048828125, -0.840576171875, 0.500244140625, -10.250000000000, 27.000000000000, 15.890625000000, 1491366139
0.050048828125, -0.840576171875, 0.500244140625, -10.250000000000, 27.000000000000, 15.890625000000, 1491366139
0.050048828125, -0.840576171875, 0.500244140625, -10.250000000000, 27.000000000000, 15.890625000000, 1491366139
-0.065429687500, -0.869628906250, 0.483398437500, -4.406250000000, 4.117187500000, 11.046875000000, 1491366139
-0.065429687500, -0.869628906250, 0.483398437500, -4.406250000000, 4.117187500000, 11.046875000000, 1491366139
-0.065429687500, -0.869628906250, 0.483398437500, -4.406250000000, 4.117187500000, 11.046875000000, 1491366139
0.064941406250, -0.855468750000, 0.536865234375, -5.031250000000, -18.960937500000, 10.515625000000, 1491366139
0.064941406250, -0.855468750000, 0.536865234375, -5.031250000000, -18.960937500000, 10.515625000000, 1491366139
0.064941406250, -0.855468750000, 0.536865234375, -5.031250000000, -18.960937500000, 10.515625000000, 1491366139
0.064941406250, -0.855468750000, 0.536865234375, -5.031250000000, -18.960937500000, 10.515625000000, 1491366139
0.021240234375, -1.020263671875, 0.705566406250, -19.320312500000, 18.804687500000, 21.460937500000, 1491366139
0.021240234375, -1.020263671875, 0.705566406250, -19.320312500000, 18.804687500000, 21.460937500000, 1491366139
0.021240234375, -1.020263671875, 0.705566406250, -19.320312500000, 18.804687500000, 21.460937500000, 1491366139
0.093505859375, -1.010986328125, 0.498291015625, -26.585937500000, 54.382812500000, 22.992187500000, 1491366140
0.093505859375, -1.010986328125, 0.498291015625, -26.585937500000, 54.382812500000, 22.992187500000, 1491366140
0.093505859375, -1.010986328125, 0.498291015625, -26.585937500000, 54.382812500000, 22.992187500000, 1491366140
0.032226562500, -0.956542968750, 0.575439453125, -11.007812500000, 33.460937500000, 13.398437500000, 1491366140
0.032226562500, -0.956542968750, 0.575439453125, -11.007812500000, 33.460937500000, 13.398437500000, 1491366140
0.032226562500, -0.956542968750, 0.575439453125, -11.007812500000, 33.460937500000, 13.398437500000, 1491366140
0.034179687500, -0.810058593750, 0.569824218750, -8.453125000000, -22.703125000000, 0.484375000000, 1491366140
0.034179687500, -0.810058593750, 0.569824218750, -8.453125000000, -22.703125000000, 0.484375000000, 1491366140
0.034179687500, -0.810058593750, 0.569824218750, -8.453125000000, -22.703125000000, 0.484375000000, 1491366140
0.034179687500, -0.810058593750, 0.569824218750, -8.453125000000, -22.703125000000, 0.484375000000, 1491366140
0.080322265625, -0.685791015625, 0.433349609375, -20.687500000000, 20.351562500000, 11.773437500000, 1491366140
0.080322265625, -0.685791015625, 0.433349609375, -20.687500000000, 20.351562500000, 11.773437500000, 1491366140
0.080322265625, -0.685791015625, 0.433349609375, -20.687500000000, 20.351562500000, 11.773437500000, 1491366140
0.206054687500, -0.905029296875, 0.521728515625, -19.015625000000, 28.171875000000, 10.601562500000, 1491366140
0.206054687500, -0.905029296875, 0.521728515625, -19.015625000000, 28.171875000000, 10.601562500000, 1491366140
0.206054687500, -0.905029296875, 0.521728515625, -19.015625000000, 28.171875000000, 10.601562500000, 1491366140
0.174804687500, -0.887451171875, 0.426025390625, -3.164062500000, 21.539062500000, 7.765625000000, 1491366140
0.174804687500, -0.887451171875, 0.426025390625, -3.164062500000, 21.539062500000, 7.765625000000, 1491366140
0.174804687500, -0.887451171875, 0.426025390625, -3.164062500000, 21.539062500000, 7.765625000000, 1491366140
0.121826171875, -0.730957031250, 0.438476562500, 12.945312500000, 0.203125000000, 6.515625000000, 1491366140
0.121826171875, -0.730957031250, 0.438476562500, 12.945312500000, 0.203125000000, 6.515625000000, 1491366140
0.121826171875, -0.730957031250, 0.438476562500, 12.945312500000, 0.203125000000, 6.515625000000, 1491366140
0.121826171875, -0.730957031250, 0.438476562500, 12.945312500000, 0.203125000000, 6.515625000000, 1491366140
0.211669921875, -0.863037109375, 0.527587890625, 17.882812500000, 2.359375000000, 8.132812500000, 1491366140
0.211669921875, -0.863037109375, 0.527587890625, 17.882812500000, 2.359375000000, 8.132812500000, 1491366140
0.211669921875, -0.863037109375, 0.527587890625, 17.882812500000, 2.359375000000, 8.132812500000, 1491366140
0.100097656250, -0.848144531250, 0.486572265625, 16.726562500000, 18.585937500000, 5.968750000000, 1491366140
0.100097656250, -0.848144531250, 0.486572265625, 16.726562500000, 18.585937500000, 5.968750000000, 1491366140
0.100097656250, -0.848144531250, 0.486572265625, 16.726562500000, 18.585937500000, 5.968750000000, 1491366140
0.217529296875, -0.890136718750, 0.431152343750, 11.859375000000, 23.109375000000, 1.789062500000, 1491366140
0.140380859375, -0.840087890625, 0.476318359375, 9.015625000000, 32.304687500000, 4.664062500000, 1491366140
0.140380859375, -0.840087890625, 0.476318359375, 9.015625000000, 32.304687500000, 4.664062500000, 1491366140
0.103759765625, -0.783691406250, 0.503906250000, 11.617187500000, 4.234375000000, -10.671875000000, 1491366140
0.103759765625, -0.783691406250, 0.503906250000, 11.617187500000, 4.234375000000, -10.671875000000, 1491366140
0.103759765625, -0.783691406250, 0.503906250000, 11.617187500000, 4.234375000000, -10.671875000000, 1491366140
0.103759765625, -0.783691406250, 0.503906250000, 11.617187500000, 4.234375000000, -10.671875000000, 1491366140
0.269042968750, -0.788818359375, 0.504638671875, 7.820312500000, -9.328125000000, -11.710937500000, 1491366140
0.269042968750, -0.788818359375, 0.504638671875, 7.820312500000, -9.328125000000, -11.710937500000, 1491366140
0.269042968750, -0.788818359375, 0.504638671875, 7.820312500000, -9.328125000000, -11.710937500000, 1491366140
0.149902343750, -0.841552734375, 0.578613281250, 4.093750000000, -8.343750000000, -13.210937500000, 1491366140
0.149902343750, -0.841552734375, 0.578613281250, 4.093750000000, -8.343750000000, -13.210937500000, 1491366140
0.149902343750, -0.841552734375, 0.578613281250, 4.093750000000, -8.343750000000, -13.210937500000, 1491366140
0.116455078125, -0.883789062500, 0.431640625000, -4.515625000000, -3.429687500000, -21.828125000000, 1491366140
0.116455078125, -0.883789062500, 0.431640625000, -4.515625000000, -3.429687500000, -21.828125000000, 1491366140
0.116455078125, -0.883789062500, 0.431640625000, -4.515625000000, -3.429687500000, -21.828125000000, 1491366140
0.114746093750, -0.958740234375, 0.481445312500, -2.390625000000, -18.625000000000, -25.554687500000, 1491366140
0.114746093750, -0.958740234375, 0.481445312500, -2.390625000000, -18.625000000000, -25.554687500000, 1491366140
0.114746093750, -0.958740234375, 0.481445312500, -2.390625000000, -18.625000000000, -25.554687500000, 1491366140
0.114746093750, -0.958740234375, 0.481445312500, -2.390625000000, -18.625000000000, -25.554687500000, 1491366140
0.046630859375, -0.951904296875, 0.461181640625, -2.820312500000, -21.937500000000, -23.796875000000, 1491366140
0.046630859375, -0.951904296875, 0.461181640625, -2.820312500000, -21.937500000000, -23.796875000000, 1491366140
0.046630859375, -0.951904296875, 0.461181640625, -2.820312500000, -21.937500000000, -23.796875000000, 1491366140
-0.015869140625, -0.952392578125, 0.556640625000, -9.312500000000, -18.867187500000, -35.804687500000, 1491366140
-0.015869140625, -0.952392578125, 0.556640625000, -9.312500000000, -18.867187500000, -35.804687500000, 1491366140
-0.015869140625, -0.952392578125, 0.556640625000, -9.312500000000, -18.867187500000, -35.804687500000, 1491366140
0.033691406250, -1.015380859375, 0.546386718750, -35.070312500000, -7.375000000000, -37.265625000000, 1491366140
0.033691406250, -1.015380859375, 0.546386718750, -35.070312500000, -7.375000000000, -37.265625000000, 1491366140
0.033691406250, -1.015380859375, 0.546386718750, -35.070312500000, -7.375000000000, -37.265625000000, 1491366140
0.205078125000, -1.124755859375, 0.544433593750, -14.914062500000, -46.484375000000, -39.554687500000, 1491366140
0.205078125000, -1.124755859375, 0.544433593750, -14.914062500000, -46.484375000000, -39.554687500000, 1491366140
0.205078125000, -1.124755859375, 0.544433593750, -14.914062500000, -46.484375000000, -39.554687500000, 1491366140
0.205078125000, -1.124755859375, 0.544433593750, -14.914062500000, -46.484375000000, -39.554687500000, 1491366140
0.139892578125, -0.915039062500, 0.437500000000, -13.289062500000, -12.804687500000, -28.507812500000, 1491366140
0.139892578125, -0.915039062500, 0.437500000000, -13.289062500000, -12.804687500000, -28.507812500000, 1491366140
0.139892578125, -0.915039062500, 0.437500000000, -13.289062500000, -12.804687500000, -28.507812500000, 1491366140
0.129394531250, -0.759033203125, 0.402587890625, -17.648437500000, 42.554687500000, -16.046875000000, 1491366140
0.129394531250, -0.759033203125, 0.402587890625, -17.648437500000, 42.554687500000, -16.046875000000, 1491366140
0.129394531250, -0.759033203125, 0.402587890625, -17.648437500000, 42.554687500000, -16.046875000000, 1491366141
0.000732421875, -0.754882812500, 0.308593750000, -25.929687500000, 32.273437500000, -6.992187500000, 1491366141
0.000732421875, -0.754882812500, 0.308593750000, -25.929687500000, 32.273437500000, -6.992187500000, 1491366141
0.000732421875, -0.754882812500, 0.308593750000, -25.929687500000, 32.273437500000, -6.992187500000, 1491366141
-0.104980468750, -0.947509765625, 0.329589843750, -18.539062500000, 51.437500000000, 2.046875000000, 1491366141
-0.104980468750, -0.947509765625, 0.329589843750, -18.539062500000, 51.437500000000, 2.046875000000, 1491366141
-0.104980468750, -0.947509765625, 0.329589843750, -18.539062500000, 51.437500000000, 2.046875000000, 1491366141
-0.104980468750, -0.947509765625, 0.329589843750, -18.539062500000, 51.437500000000, 2.046875000000, 1491366141
-0.212890625000, -0.997558593750, 0.405273437500, -11.226562500000, 32.171875000000, 3.687500000000, 1491366141
-0.212890625000, -0.997558593750, 0.405273437500, -11.226562500000, 32.171875000000, 3.687500000000, 1491366141
-0.212890625000, -0.997558593750, 0.405273437500, -11.226562500000, 32.171875000000, 3.687500000000, 1491366141
-0.166748046875, -0.917480468750, 0.447998046875, 24.007812500000, -35.117187500000, -24.742187500000, 1491366141
-0.166748046875, -0.917480468750, 0.447998046875, 24.007812500000, -35.117187500000, -24.742187500000, 1491366141
-0.166748046875, -0.917480468750, 0.447998046875, 24.007812500000, -35.117187500000, -24.742187500000, 1491366141
-0.007812500000, -0.864013671875, 0.402343750000, 43.945312500000, -120.367187500000, -44.250000000000, 1491366141
-0.007812500000, -0.864013671875, 0.402343750000, 43.945312500000, -120.367187500000, -44.250000000000, 1491366141
-0.007812500000, -0.864013671875, 0.402343750000, 43.945312500000, -120.367187500000, -44.250000000000, 1491366141
0.000732421875, -0.878906250000, 0.578613281250, 11.515625000000, -59.625000000000, -10.679687500000, 1491366141
0.000732421875, -0.878906250000, 0.578613281250, 11.515625000000, -59.625000000000, -10.679687500000, 1491366141
0.000732421875, -0.878906250000, 0.578613281250, 11.515625000000, -59.625000000000, -10.679687500000, 1491366141
0.000732421875, -0.878906250000, 0.578613281250, 11.515625000000, -59.625000000000, -10.679687500000, 1491366141
-0.204589843750, -0.960205078125, 0.496337890625, -16.828125000000, 37.054687500000, 8.320312500000, 1491366141
-0.204589843750, -0.960205078125, 0.496337890625, -16.828125000000, 37.054687500000, 8.320312500000, 1491366141
-0.204589843750, -0.960205078125, 0.496337890625, -16.828125000000, 37.054687500000, 8.320312500000, 1491366141
-0.207031250000, -0.849121093750, 0.440429687500, -17.140625000000, 42.906250000000, 5.164062500000, 1491366141
-0.207031250000, -0.849121093750, 0.440429687500, -17.140625000000, 42.906250000000, 5.164062500000, 1491366141
-0.207031250000, -0.849121093750, 0.440429687500, -17.140625000000, 42.906250000000, 5.164062500000, 1491366141
-0.032470703125, -0.856201171875, 0.443847656250, 4.062500000000, -4.984375000000, -1.898437500000, 1491366141
-0.032470703125, -0.856201171875, 0.443847656250, 4.062500000000, -4.984375000000, -1.898437500000, 1491366141
-0.032470703125, -0.856201171875, 0.443847656250, 4.062500000000, -4.984375000000, -1.898437500000, 1491366141
-0.149902343750, -0.894042968750, 0.462646484375, -0.070312500000, 2.523437500000, 7.312500000000, 1491366141
-0.149902343750, -0.894042968750, 0.462646484375, -0.070312500000, 2.523437500000, 7.312500000000, 1491366141
-0.149902343750, -0.894042968750, 0.462646484375, -0.070312500000, 2.523437500000, 7.312500000000, 1491366141
-0.149902343750, -0.894042968750, 0.462646484375, -0.070312500000, 2.523437500000, 7.312500000000, 1491366141
-0.072509765625, -0.921875000000, 0.472412109375, -3.328125000000, 14.351562500000, 11.421875000000, 1491366141
-0.072509765625, -0.921875000000, 0.472412109375, -3.328125000000, 14.351562500000, 11.421875000000, 1491366141
-0.072509765625, -0.921875000000, 0.472412109375, -3.328125000000, 14.351562500000, 11.421875000000, 1491366141
-0.022705078125, -0.895751953125, 0.462646484375, -7.539062500000, 11.265625000000, 15.671875000000, 1491366141
-0.022705078125, -0.895751953125, 0.462646484375, -7.539062500000, 11.265625000000, 15.671875000000, 1491366141
-0.022705078125, -0.895751953125, 0.462646484375, -7.539062500000, 11.265625000000, 15.671875000000, 1491366141
-0.117431640625, -0.944091796875, 0.527587890625, -2.890625000000, -9.109375000000, 13.382812500000, 1491366141
-0.117431640625, -0.944091796875, 0.527587890625, -2.890625000000, -9.109375000000, 13.382812500000, 1491366141
-0.117431640625, -0.944091796875, 0.527587890625, -2.890625000000, -9.109375000000, 13.382812500000, 1491366141
-0.041503906250, -0.897216796875, 0.594482421875, -15.906250000000, 0.359375000000, 20.101562500000, 1491366141
-0.041503906250, -0.897216796875, 0.594482421875, -15.906250000000, 0.359375000000, 20.101562500000, 1491366141
-0.041503906250, -0.897216796875, 0.594482421875, -15.906250000000, 0.359375000000, 20.101562500000, 1491366141
-0.041503906250, -0.897216796875, 0.594482421875, -15.906250000000, 0.359375000000, 20.101562500000, 1491366141
-0.059814453125, -0.850341796875, 0.487792968750, -34.906250000000, 31.750000000000, 28.031250000000, 1491366141
-0.059814453125, -0.850341796875, 0.487792968750, -34.906250000000, 31.750000000000, 28.031250000000, 1491366141
-0.059814453125, -0.850341796875, 0.487792968750, -34.906250000000, 31.750000000000, 28.031250000000, 1491366141
-0.064697265625, -0.853027343750, 0.551757812500, -29.148437500000, 8.335937500000, 19.281250000000, 1491366141
-0.064697265625, -0.853027343750, 0.551757812500, -29.148437500000, 8.335937500000, 19.281250000000, 1491366141
-0.064697265625, -0.853027343750, 0.551757812500, -29.148437500000, 8.335937500000, 19.281250000000, 1491366141
0.046142578125, -1.044189453125, 0.576904296875, -47.921875000000, 18.328125000000, 30.867187500000, 1491366141
0.046142578125, -1.044189453125, 0.576904296875, -47.921875000000, 18.328125000000, 30.867187500000, 1491366141
0.046142578125, -1.044189453125, 0.576904296875, -47.921875000000, 18.328125000000, 30.867187500000, 1491366141
-0.033447265625, -1.145751953125, 0.634033203125, -29.585937500000, 42.625000000000, 21.109375000000, 1491366141
-0.033447265625, -1.145751953125, 0.634033203125, -29.585937500000, 42.625000000000, 21.109375000000, 1491366141
-0.033447265625, -1.145751953125, 0.634033203125, -29.585937500000, 42.625000000000, 21.109375000000, 1491366141
-0.033447265625, -1.145751953125, 0.634033203125, -29.585937500000, 42.625000000000, 21.109375000000, 1491366141
0.012451171875, -0.892333984375, 0.503417968750, -1.320312500000, -9.843750000000, 2.554687500000, 1491366141
0.012451171875, -0.892333984375, 0.503417968750, -1.320312500000, -9.843750000000, 2.554687500000, 1491366141
0.012451171875, -0.892333984375, 0.503417968750, -1.320312500000, -9.843750000000, 2.554687500000, 1491366141
-0.010253906250, -0.732666015625, 0.437011718750, -3.593750000000, -41.906250000000, -4.640625000000, 1491366141
-0.010253906250, -0.732666015625, 0.437011718750, -3.593750000000, -41.906250000000, -4.640625000000, 1491366141
-0.010253906250, -0.732666015625, 0.437011718750, -3.593750000000, -41.906250000000, -4.640625000000, 1491366141
0.029052734375, -0.677490234375, 0.579833984375, -20.609375000000, 3.437500000000, -0.437500000000, 1491366142
0.029052734375, -0.677490234375, 0.579833984375, -20.609375000000, 3.437500000000, -0.437500000000, 1491366142
0.029052734375, -0.677490234375, 0.579833984375, -20.609375000000, 3.437500000000, -0.437500000000, 1491366142
0.142333984375, -0.895996093750, 0.416992187500, -20.515625000000, 33.117187500000, 3.625000000000, 1491366142
0.142333984375, -0.895996093750, 0.416992187500, -20.515625000000, 33.117187500000, 3.625000000000, 1491366142
0.142333984375, -0.895996093750, 0.416992187500, -20.515625000000, 33.117187500000, 3.625000000000, 1491366142
0.142333984375, -0.895996093750, 0.416992187500, -20.515625000000, 33.117187500000, 3.625000000000, 1491366142
0.117431640625, -0.949462890625, 0.430908203125, 18.343750000000, -49.820312500000, -16.718750000000, 1491366142
0.117431640625, -0.949462890625, 0.430908203125, 18.343750000000, -49.820312500000, -16.718750000000, 1491366142
0.117431640625, -0.949462890625, 0.430908203125, 18.343750000000, -49.820312500000, -16.718750000000, 1491366142
0.251220703125, -0.847656250000, 0.592773437500, 15.750000000000, -65.984375000000, -16.078125000000, 1491366142
0.251220703125, -0.847656250000, 0.592773437500, 15.750000000000, -65.984375000000, -16.078125000000, 1491366142
0.251220703125, -0.847656250000, 0.592773437500, 15.750000000000, -65.984375000000, -16.078125000000, 1491366142
0.170166015625, -0.765869140625, 0.575439453125, -3.156250000000, 22.953125000000, 6.164062500000, 1491366142
0.170166015625, -0.765869140625, 0.575439453125, -3.156250000000, 22.953125000000, 6.164062500000, 1491366142
0.170166015625, -0.765869140625, 0.575439453125, -3.156250000000, 22.953125000000, 6.164062500000, 1491366142
0.262939453125, -0.898925781250, 0.515136718750, 2.742187500000, 39.328125000000, 12.156250000000, 1491366142
0.262939453125, -0.898925781250, 0.515136718750, 2.742187500000, 39.328125000000, 12.156250000000, 1491366142
0.262939453125, -0.898925781250, 0.515136718750, 2.742187500000, 39.328125000000, 12.156250000000, 1491366142
0.262939453125, -0.898925781250, 0.515136718750, 2.742187500000, 39.328125000000, 12.156250000000, 1491366142
0.148437500000, -0.857177734375, 0.417236328125, 14.039062500000, 15.015625000000, 8.429687500000, 1491366142
0.148437500000, -0.857177734375, 0.417236328125, 14.039062500000, 15.015625000000, 8.429687500000, 1491366142
0.148437500000, -0.857177734375, 0.417236328125, 14.039062500000, 15.015625000000, 8.429687500000, 1491366142
0.044677734375, -0.941406250000, 0.495849609375, 19.304687500000, -6.351562500000, -1.632812500000, 1491366142
0.044677734375, -0.941406250000, 0.495849609375, 19.304687500000, -6.351562500000, -1.632812500000, 1491366142
0.044677734375, -0.941406250000, 0.495849609375, 19.304687500000, -6.351562500000, -1.632812500000, 1491366142
0.137939453125, -0.887207031250, 0.586914062500, 9.148437500000, 3.187500000000, -9.000000000000, 1491366142
0.137939453125, -0.887207031250, 0.586914062500, 9.148437500000, 3.187500000000, -9.000000000000, 1491366142
0.137939453125, -0.887207031250, 0.586914062500, 9.148437500000, 3.187500000000, -9.000000000000, 1491366142
0.217285156250, -0.903320312500, 0.519042968750, -0.343750000000, 3.757812500000, -8.085937500000, 1491366142
0.217285156250, -0.903320312500, 0.519042968750, -0.343750000000, 3.757812500000, -8.085937500000, 1491366142
0.217285156250, -0.903320312500, 0.519042968750, -0.343750000000, 3.757812500000, -8.085937500000, 1491366142
0.217285156250, -0.903320312500, 0.519042968750, -0.343750000000, 3.757812500000, -8.085937500000, 1491366142
0.044677734375, -0.858886718750, 0.430664062500, -2.953125000000, -5.570312500000, -10.921875000000, 1491366142
0.044677734375, -0.858886718750, 0.430664062500, -2.953125000000, -5.570312500000, -10.921875000000, 1491366142
0.044677734375, -0.858886718750, 0.430664062500, -2.953125000000, -5.570312500000, -10.921875000000, 1491366142
0.067626953125, -0.894775390625, 0.364013671875, 0.093750000000, -21.054687500000, -15.367187500000, 1491366142
0.067626953125, -0.894775390625, 0.364013671875, 0.093750000000, -21.054687500000, -15.367187500000, 1491366142
0.067626953125, -0.894775390625, 0.364013671875, 0.093750000000, -21.054687500000, -15.367187500000, 1491366142
0.054443359375, -0.799316406250, 0.477783203125, -5.734375000000, -32.812500000000, -21.820312500000, 1491366142
0.054443359375, -0.799316406250, 0.477783203125, -5.734375000000, -32.812500000000, -21.820312500000, 1491366142
0.054443359375, -0.799316406250, 0.477783203125, -5.734375000000, -32.812500000000, -21.820312500000, 1491366142
0.187988281250, -0.919433593750, 0.583740234375, -15.007812500000, -26.031250000000, -23.257812500000, 1491366142
0.187988281250, -0.919433593750, 0.583740234375, -15.007812500000, -26.031250000000, -23.257812500000, 1491366142
0.187988281250, -0.919433593750, 0.583740234375, -15.007812500000, -26.031250000000, -23.257812500000, 1491366142
0.187988281250, -0.919433593750, 0.583740234375, -15.007812500000, -26.031250000000, -23.257812500000, 1491366142
0.122558593750, -0.854492187500, 0.543701171875, -17.296875000000, -17.750000000000, -25.765625000000, 1491366142
0.122558593750, -0.854492187500, 0.543701171875, -17.296875000000, -17.750000000000, -25.765625000000, 1491366142
0.122558593750, -0.854492187500, 0.543701171875, -17.296875000000, -17.750000000000, -25.765625000000, 1491366142
0.155761718750, -0.873779296875, 0.480712890625, -9.156250000000, -32.750000000000, -19.843750000000, 1491366142
0.155761718750, -0.873779296875, 0.480712890625, -9.156250000000, -32.750000000000, -19.843750000000, 1491366142
0.155761718750, -0.873779296875, 0.480712890625, -9.156250000000, -32.750000000000, -19.843750000000, 1491366142
0.214843750000, -0.858154296875, 0.553710937500, -7.687500000000, -16.179687500000, -11.718750000000, 1491366142
0.214843750000, -0.858154296875, 0.553710937500, -7.687500000000, -16.179687500000, -11.718750000000, 1491366142
0.214843750000, -0.858154296875, 0.553710937500, -7.687500000000, -16.179687500000, -11.718750000000, 1491366142
0.069335937500, -0.782470703125, 0.489990234375, -7.648437500000, 4.710937500000, -7.820312500000, 1491366142
0.069335937500, -0.782470703125, 0.489990234375, -7.648437500000, 4.710937500000, -7.820312500000, 1491366142
0.069335937500, -0.782470703125, 0.489990234375, -7.648437500000, 4.710937500000, -7.820312500000, 1491366142
0.069335937500, -0.782470703125, 0.489990234375, -7.648437500000, 4.710937500000, -7.820312500000, 1491366142
-0.008300781250, -0.957275390625, 0.451660156250, -3.125000000000, -9.679687500000, -12.242187500000, 1491366142
-0.008300781250, -0.957275390625, 0.451660156250, -3.125000000000, -9.679687500000, -12.242187500000, 1491366142
-0.008300781250, -0.957275390625, 0.451660156250, -3.125000000000, -9.679687500000, -12.242187500000, 1491366142
0.098144531250, -0.847656250000, 0.522949218750, -1.296875000000, -11.421875000000, -9.609375000000, 1491366142
0.098144531250, -0.847656250000, 0.522949218750, -1.296875000000, -11.421875000000, -9.609375000000, 1491366142
0.098144531250, -0.847656250000, 0.522949218750, -1.296875000000, -11.421875000000, -9.609375000000, 1491366142
0.045898437500, -0.837402343750, 0.518798828125, -5.171875000000, -7.554687500000, -10.921875000000, 1491366142
0.066650390625, -0.809082031250, 0.528564453125, -5.234375000000, -1.570312500000, -6.953125000000, 1491366143
0.066650390625, -0.809082031250, 0.528564453125, -5.234375000000, -1.570312500000, -6.953125000000, 1491366143
0.066650390625, -0.809082031250, 0.528564453125, -5.234375000000, -1.570312500000, -6.953125000000, 1491366143
0.066650390625, -0.809082031250, 0.528564453125, -5.234375000000, -1.570312500000, -6.953125000000, 1491366143
-0.015869140625, -0.941650390625, 0.429687500000, -5.265625000000, 0.804687500000, -3.929687500000, 1491366143
-0.015869140625, -0.941650390625, 0.429687500000, -5.265625000000, 0.804687500000, -3.929687500000, 1491366143
-0.015869140625, -0.941650390625, 0.429687500000, -5.265625000000, 0.804687500000, -3.929687500000, 1491366143
-0.024902343750, -0.837402343750, 0.430908203125, -4.531250000000, 8.320312500000, 0.031250000000, 1491366143
-0.024902343750, -0.837402343750, 0.430908203125, -4.531250000000, 8.320312500000, 0.031250000000, 1491366143
0.154785156250, -0.905273437500, 0.496826171875, 4.390625000000, -2.140625000000, -4.539062500000, 1491366143
0.154785156250, -0.905273437500, 0.496826171875, 4.390625000000, -2.140625000000, -4.539062500000, 1491366143
0.154785156250, -0.905273437500, 0.496826171875, 4.390625000000, -2.140625000000, -4.539062500000, 1491366143
0.154785156250, -0.905273437500, 0.496826171875, 4.390625000000, -2.140625000000, -4.539062500000, 1491366143
0.154785156250, -0.905273437500, 0.496826171875, 4.390625000000, -2.140625000000, -4.539062500000, 1491366143
0.154785156250, -0.905273437500, 0.496826171875, 4.390625000000, -2.140625000000, -4.539062500000, 1491366143
-0.002685546875, -0.853515625000, 0.577880859375, -0.843750000000, -6.578125000000, -4.289062500000, 1491366143
-0.002685546875, -0.853515625000, 0.577880859375, -0.843750000000, -6.578125000000, -4.289062500000, 1491366143
-0.002685546875, -0.853515625000, 0.577880859375, -0.843750000000, -6.578125000000, -4.289062500000, 1491366143
-0.002685546875, -0.853515625000, 0.577880859375, -0.843750000000, -6.578125000000, -4.289062500000, 1491366143
