ACC_X,ACC_Y,ACC_Z,G_X,G_Y,G_Z,Unix Time
0.343017578125, -1.152587890625, 0.407958984375, -14.828125000000, -11.648437500000, 21.968750000000, 1491365310
0.343017578125, -1.152587890625, 0.407958984375, -14.828125000000, -11.648437500000, 21.968750000000, 1491365310
0.343017578125, -1.152587890625, 0.407958984375, -14.828125000000, -11.648437500000, 21.968750000000, 1491365310
0.168212890625, -0.997070312500, 0.455566406250, -18.531250000000, -0.804687500000, 8.328125000000, 1491365311
0.168212890625, -0.997070312500, 0.455566406250, -18.531250000000, -0.804687500000, 8.328125000000, 1491365311
0.168212890625, -0.997070312500, 0.455566406250, -18.531250000000, -0.804687500000, 8.328125000000, 1491365311
0.168212890625, -0.997070312500, 0.455566406250, -18.531250000000, -0.804687500000, 8.328125000000, 1491365311
0.162109375000, -0.853515625000, 0.229003906250, -4.007812500000, 2.140625000000, -14.664062500000, 1491365311
0.162109375000, -0.853515625000, 0.229003906250, -4.007812500000, 2.140625000000, -14.664062500000, 1491365311
0.299316406250, -0.886962890625, 0.223388671875, -2.929687500000, 25.328125000000, -12.484375000000, 1491365311
0.299316406250, -0.886962890625, 0.223388671875, -2.929687500000, 25.328125000000, -12.484375000000, 1491365311
0.299316406250, -0.886962890625, 0.223388671875, -2.929687500000, 25.328125000000, -12.484375000000, 1491365311
0.299316406250, -0.886962890625, 0.223388671875, -2.929687500000, 25.328125000000, -12.484375000000, 1491365311
0.322509765625, -0.876953125000, 0.184082031250, 19.171875000000, 115.171875000000, 4.757812500000, 1491365311
0.322509765625, -0.876953125000, 0.184082031250, 19.171875000000, 115.171875000000, 4.757812500000, 1491365311
0.322509765625, -0.876953125000, 0.184082031250, 19.171875000000, 115.171875000000, 4.757812500000, 1491365311
0.389648437500, -0.862060546875, 0.275146484375, 26.015625000000, -10.250000000000, -3.328125000000, 1491365311
0.389648437500, -0.862060546875, 0.275146484375, 26.015625000000, -10.250000000000, -3.328125000000, 1491365311
0.389648437500, -0.862060546875, 0.275146484375, 26.015625000000, -10.250000000000, -3.328125000000, 1491365311
0.121826171875, -0.966552734375, 0.269287109375, 18.000000000000, -46.531250000000, 0.242187500000, 1491365311
0.053466796875, -1.019531250000, 0.418212890625, 14.601562500000, -15.828125000000, -15.843750000000, 1491365311
0.053466796875, -1.019531250000, 0.418212890625, 14.601562500000, -15.828125000000, -15.843750000000, 1491365311
0.053466796875, -1.019531250000, 0.418212890625, 14.601562500000, -15.828125000000, -15.843750000000, 1491365311
0.196777343750, -0.844238281250, 0.235351562500, 4.125000000000, 5.804687500000, -19.875000000000, 1491365311
0.196777343750, -0.844238281250, 0.235351562500, 4.125000000000, 5.804687500000, -19.875000000000, 1491365311
0.196777343750, -0.844238281250, 0.235351562500, 4.125000000000, 5.804687500000, -19.875000000000, 1491365311
0.258544921875, -0.821044921875, 0.375488281250, 8.187500000000, -24.726562500000, -25.132812500000, 1491365311
0.258544921875, -0.821044921875, 0.375488281250, 8.187500000000, -24.726562500000, -25.132812500000, 1491365311
0.258544921875, -0.821044921875, 0.375488281250, 8.187500000000, -24.726562500000, -25.132812500000, 1491365311
0.280761718750, -0.961425781250, 0.402832031250, -12.742187500000, -5.742187500000, -20.203125000000, 1491365311
0.280761718750, -0.961425781250, 0.402832031250, -12.742187500000, -5.742187500000, -20.203125000000, 1491365311
0.280761718750, -0.961425781250, 0.402832031250, -12.742187500000, -5.742187500000, -20.203125000000, 1491365311
0.280761718750, -0.961425781250, 0.402832031250, -12.742187500000, -5.742187500000, -20.203125000000, 1491365311
0.106201171875, -0.951416015625, 0.395019531250, -19.695312500000, -8.265625000000, -20.085937500000, 1491365311
0.106201171875, -0.951416015625, 0.395019531250, -19.695312500000, -8.265625000000, -20.085937500000, 1491365311
0.106201171875, -0.951416015625, 0.395019531250, -19.695312500000, -8.265625000000, -20.085937500000, 1491365311
0.255615234375, -0.935302734375, 0.340576171875, -21.796875000000, -41.796875000000, -30.492187500000, 1491365311
0.255615234375, -0.935302734375, 0.340576171875, -21.796875000000, -41.796875000000, -30.492187500000, 1491365311
0.255615234375, -0.935302734375, 0.340576171875, -21.796875000000, -41.796875000000, -30.492187500000, 1491365311
0.232666015625, -0.970458984375, 0.563964843750, -14.367187500000, -28.335937500000, -25.968750000000, 1491365311
0.232666015625, -0.970458984375, 0.563964843750, -14.367187500000, -28.335937500000, -25.968750000000, 1491365311
0.232666015625, -0.970458984375, 0.563964843750, -14.367187500000, -28.335937500000, -25.968750000000, 1491365311
0.110107421875, -1.039550781250, 0.436035156250, -14.531250000000, -6.718750000000, -19.242187500000, 1491365311
0.110107421875, -1.039550781250, 0.436035156250, -14.531250000000, -6.718750000000, -19.242187500000, 1491365311
0.110107421875, -1.039550781250, 0.436035156250, -14.531250000000, -6.718750000000, -19.242187500000, 1491365311
0.110107421875, -1.039550781250, 0.436035156250, -14.531250000000, -6.718750000000, -19.242187500000, 1491365311
0.057128906250, -1.163818359375, 0.375732421875, -15.585937500000, -37.906250000000, -30.539062500000, 1491365311
0.057128906250, -1.163818359375, 0.375732421875, -15.585937500000, -37.906250000000, -30.539062500000, 1491365311
0.057128906250, -1.163818359375, 0.375732421875, -15.585937500000, -37.906250000000, -30.539062500000, 1491365311
0.125000000000, -0.916992187500, 0.390625000000, -28.757812500000, -47.953125000000, -23.414062500000, 1491365311
0.125000000000, -0.916992187500, 0.390625000000, -28.757812500000, -47.953125000000, -23.414062500000, 1491365311
0.125000000000, -0.916992187500, 0.390625000000, -28.757812500000, -47.953125000000, -23.414062500000, 1491365311
-0.028808593750, -0.803955078125, 0.237060546875, -19.906250000000, -34.515625000000, -14.296875000000, 1491365311
-0.028808593750, -0.803955078125, 0.237060546875, -19.906250000000, -34.515625000000, -14.296875000000, 1491365311
-0.028808593750, -0.803955078125, 0.237060546875, -19.906250000000, -34.515625000000, -14.296875000000, 1491365311
-0.065673828125, -0.855468750000, 0.247070312500, -10.687500000000, -57.531250000000, -8.109375000000, 1491365311
-0.065673828125, -0.855468750000, 0.247070312500, -10.687500000000, -57.531250000000, -8.109375000000, 1491365311
-0.065673828125, -0.855468750000, 0.247070312500, -10.687500000000, -57.531250000000, -8.109375000000, 1491365311
-0.065673828125, -0.855468750000, 0.247070312500, -10.687500000000, -57.531250000000, -8.109375000000, 1491365311
-0.055664062500, -0.874267578125, 0.350830078125, 12.812500000000, -46.476562500000, -9.093750000000, 1491365311
-0.055664062500, -0.874267578125, 0.350830078125, 12.812500000000, -46.476562500000, -9.093750000000, 1491365311
-0.055664062500, -0.874267578125, 0.350830078125, 12.812500000000, -46.476562500000, -9.093750000000, 1491365311
0.163330078125, -0.918457031250, 0.296875000000, 28.875000000000, -37.984375000000, -16.671875000000, 1491365311
0.163330078125, -0.918457031250, 0.296875000000, 28.875000000000, -37.984375000000, -16.671875000000, 1491365311
0.163330078125, -0.918457031250, 0.296875000000, 28.875000000000, -37.984375000000, -16.671875000000, 1491365311
0.203613281250, -0.832031250000, 0.234130859375, 9.992187500000, -17.953125000000, 18.093750000000, 1491365311
0.203613281250, -0.832031250000, 0.234130859375, 9.992187500000, -17.953125000000, 18.093750000000, 1491365311
0.203613281250, -0.832031250000, 0.234130859375, 9.992187500000, -17.953125000000, 18.093750000000, 1491365311
0.042480468750, -0.904785156250, 0.452148437500, 9.531250000000, -32.242187500000, 2.937500000000, 1491365311
0.042480468750, -0.904785156250, 0.452148437500, 9.531250000000, -32.242187500000, 2.937500000000, 1491365312
0.042480468750, -0.904785156250, 0.452148437500, 9.531250000000, -32.242187500000, 2.937500000000, 1491365312
0.042480468750, -0.904785156250, 0.452148437500, 9.531250000000, -32.242187500000, 2.937500000000, 1491365312
0.113037109375, -0.787597656250, 0.447021484375, -2.953125000000, -2.656250000000, 4.593750000000, 1491365312
0.113037109375, -0.787597656250, 0.447021484375, -2.953125000000, -2.656250000000, 4.593750000000, 1491365312
0.113037109375, -0.787597656250, 0.447021484375, -2.953125000000, -2.656250000000, 4.593750000000, 1491365312
0.114501953125, -0.910644531250, 0.303466796875, -0.812500000000, 21.023437500000, 10.156250000000, 1491365312
0.114501953125, -0.910644531250, 0.303466796875, -0.812500000000, 21.023437500000, 10.156250000000, 1491365312
0.114501953125, -0.910644531250, 0.303466796875, -0.812500000000, 21.023437500000, 10.156250000000, 1491365312
0.082763671875, -0.901611328125, 0.292236328125, -1.523437500000, -5.460937500000, 13.171875000000, 1491365312
-0.007080078125, -1.043457031250, 0.368408203125, -4.265625000000, -5.335937500000, 16.101562500000, 1491365312
-0.007080078125, -1.043457031250, 0.368408203125, -4.265625000000, -5.335937500000, 16.101562500000, 1491365312
-0.007080078125, -1.043457031250, 0.368408203125, -4.265625000000, -5.335937500000, 16.101562500000, 1491365312
-0.007080078125, -1.043457031250, 0.368408203125, -4.265625000000, -5.335937500000, 16.101562500000, 1491365312
0.284423828125, -1.265625000000, 0.525390625000, -22.039062500000, 7.882812500000, 24.601562500000, 1491365312
0.284423828125, -1.265625000000, 0.525390625000, -22.039062500000, 7.882812500000, 24.601562500000, 1491365312
0.284423828125, -1.265625000000, 0.525390625000, -22.039062500000, 7.882812500000, 24.601562500000, 1491365312
0.284423828125, -1.265625000000, 0.525390625000, -22.039062500000, 7.882812500000, 24.601562500000, 1491365312
0.284423828125, -1.265625000000, 0.525390625000, -22.039062500000, 7.882812500000, 24.601562500000, 1491365312
0.312500000000, -1.183593750000, 0.307373046875, -21.968750000000, 3.132812500000, 20.750000000000, 1491365312
0.312500000000, -1.183593750000, 0.307373046875, -21.968750000000, 3.132812500000, 20.750000000000, 1491365312
0.312500000000, -1.183593750000, 0.307373046875, -21.968750000000, 3.132812500000, 20.750000000000, 1491365312
0.218261718750, -1.076660156250, 0.468750000000, -8.054687500000, 33.015625000000, 20.750000000000, 1491365312
0.218261718750, -1.076660156250, 0.468750000000, -8.054687500000, 33.015625000000, 20.750000000000, 1491365312
0.218261718750, -1.076660156250, 0.468750000000, -8.054687500000, 33.015625000000, 20.750000000000, 1491365312
0.314208984375, -0.832275390625, 0.246093750000, -8.484375000000, 36.390625000000, -0.453125000000, 1491365312
0.314208984375, -0.832275390625, 0.246093750000, -8.484375000000, 36.390625000000, -0.453125000000, 1491365312
0.314208984375, -0.832275390625, 0.246093750000, -8.484375000000, 36.390625000000, -0.453125000000, 1491365312
0.314208984375, -0.832275390625, 0.246093750000, -8.484375000000, 36.390625000000, -0.453125000000, 1491365312
0.331298828125, -0.758544921875, 0.197998046875, 4.429687500000, 81.328125000000, 12.453125000000, 1491365312
0.331298828125, -0.758544921875, 0.197998046875, 4.429687500000, 81.328125000000, 12.453125000000, 1491365312
0.331298828125, -0.758544921875, 0.197998046875, 4.429687500000, 81.328125000000, 12.453125000000, 1491365312
0.328857421875, -0.871093750000, 0.106445312500, 26.695312500000, 117.171875000000, 15.835937500000, 1491365312
0.328857421875, -0.871093750000, 0.106445312500, 26.695312500000, 117.171875000000, 15.835937500000, 1491365312
0.328857421875, -0.871093750000, 0.106445312500, 26.695312500000, 117.171875000000, 15.835937500000, 1491365312
0.385742187500, -0.957519531250, 0.155517578125, 26.515625000000, 7.171875000000, -2.546875000000, 1491365312
0.385742187500, -0.957519531250, 0.155517578125, 26.515625000000, 7.171875000000, -2.546875000000, 1491365312
0.385742187500, -0.957519531250, 0.155517578125, 26.515625000000, 7.171875000000, -2.546875000000, 1491365312
0.168945312500, -0.977294921875, 0.415039062500, 24.406250000000, 36.539062500000, -13.679687500000, 1491365312
0.168945312500, -0.977294921875, 0.415039062500, 24.406250000000, 36.539062500000, -13.679687500000, 1491365312
0.168945312500, -0.977294921875, 0.415039062500, 24.406250000000, 36.539062500000, -13.679687500000, 1491365312
0.168945312500, -0.977294921875, 0.415039062500, 24.406250000000, 36.539062500000, -13.679687500000, 1491365312
0.314941406250, -0.886718750000, 0.314941406250, 1.515625000000, 18.335937500000, -11.179687500000, 1491365312
0.314941406250, -0.886718750000, 0.314941406250, 1.515625000000, 18.335937500000, -11.179687500000, 1491365312
0.314941406250, -0.886718750000, 0.314941406250, 1.515625000000, 18.335937500000, -11.179687500000, 1491365312
0.223632812500, -0.791748046875, 0.364501953125, 4.546875000000, 9.257812500000, -9.648437500000, 1491365312
0.223632812500, -0.791748046875, 0.364501953125, 4.546875000000, 9.257812500000, -9.648437500000, 1491365312
0.223632812500, -0.791748046875, 0.364501953125, 4.546875000000, 9.257812500000, -9.648437500000, 1491365312
0.283935546875, -0.877929687500, 0.359863281250, -16.718750000000, 5.125000000000, -14.023437500000, 1491365312
0.283935546875, -0.877929687500, 0.359863281250, -16.718750000000, 5.125000000000, -14.023437500000, 1491365312
0.283935546875, -0.877929687500, 0.359863281250, -16.718750000000, 5.125000000000, -14.023437500000, 1491365312
0.175292968750, -0.995849609375, 0.281738281250, -13.781250000000, 5.070312500000, -15.570312500000, 1491365312
0.175292968750, -0.995849609375, 0.281738281250, -13.781250000000, 5.070312500000, -15.570312500000, 1491365312
0.175292968750, -0.995849609375, 0.281738281250, -13.781250000000, 5.070312500000, -15.570312500000, 1491365312
0.175292968750, -0.995849609375, 0.281738281250, -13.781250000000, 5.070312500000, -15.570312500000, 1491365312
0.289306640625, -0.930908203125, 0.438964843750, -4.726562500000, -15.687500000000, -24.617187500000, 1491365312
0.289306640625, -0.930908203125, 0.438964843750, -4.726562500000, -15.687500000000, -24.617187500000, 1491365312
0.289306640625, -0.930908203125, 0.438964843750, -4.726562500000, -15.687500000000, -24.617187500000, 1491365312
0.182128906250, -1.000976562500, 0.475585937500, -16.296875000000, 6.515625000000, -15.250000000000, 1491365312
0.182128906250, -1.000976562500, 0.475585937500, -16.296875000000, 6.515625000000, -15.250000000000, 1491365312
0.182128906250, -1.000976562500, 0.475585937500, -16.296875000000, 6.515625000000, -15.250000000000, 1491365312
0.197265625000, -1.171875000000, 0.574951171875, -36.171875000000, -4.742187500000, -12.601562500000, 1491365312
0.197265625000, -1.171875000000, 0.574951171875, -36.171875000000, -4.742187500000, -12.601562500000, 1491365312
0.197265625000, -1.171875000000, 0.574951171875, -36.171875000000, -4.742187500000, -12.601562500000, 1491365312
0.089599609375, -1.003662109375, 0.337402343750, -18.617187500000, -20.828125000000, -21.851562500000, 1491365312
0.089599609375, -1.003662109375, 0.337402343750, -18.617187500000, -20.828125000000, -21.851562500000, 1491365312
0.089599609375, -1.003662109375, 0.337402343750, -18.617187500000, -20.828125000000, -21.851562500000, 1491365312
0.089599609375, -1.003662109375, 0.337402343750, -18.617187500000, -20.828125000000, -21.851562500000, 1491365312
0.146728515625, -0.889648437500, 0.319091796875, -34.031250000000, -40.632812500000, -13.585937500000, 1491365313
0.146728515625, -0.889648437500, 0.319091796875, -34.031250000000, -40.632812500000, -13.585937500000, 1491365313
0.146728515625, -0.889648437500, 0.319091796875, -34.031250000000, -40.632812500000, -13.585937500000, 1491365313
0.062744140625, -0.815917968750, 0.318359375000, -23.648437500000, -41.156250000000, -10.773437500000, 1491365313
0.062744140625, -0.815917968750, 0.318359375000, -23.648437500000, -41.156250000000, -10.773437500000, 1491365313
0.062744140625, -0.815917968750, 0.318359375000, -23.648437500000, -41.156250000000, -10.773437500000, 1491365313
-0.028564453125, -0.858398437500, 0.340087890625, -15.203125000000, -36.703125000000, -10.664062500000, 1491365313
-0.028564453125, -0.858398437500, 0.340087890625, -15.203125000000, -36.703125000000, -10.664062500000, 1491365313
-0.028564453125, -0.858398437500, 0.340087890625, -15.203125000000, -36.703125000000, -10.664062500000, 1491365313
0.159179687500, -0.928222656250, 0.392578125000, 5.554687500000, -27.023437500000, -15.593750000000, 1491365313
0.159179687500, -0.928222656250, 0.392578125000, 5.554687500000, -27.023437500000, -15.593750000000, 1491365313
0.159179687500, -0.928222656250, 0.392578125000, 5.554687500000, -27.023437500000, -15.593750000000, 1491365313
0.159179687500, -0.928222656250, 0.392578125000, 5.554687500000, -27.023437500000, -15.593750000000, 1491365313
0.338134765625, -0.939208984375, 0.306640625000, 17.492187500000, 15.304687500000, 7.109375000000, 1491365313
0.338134765625, -0.939208984375, 0.306640625000, 17.492187500000, 15.304687500000, 7.109375000000, 1491365313
0.338134765625, -0.939208984375, 0.306640625000, 17.492187500000, 15.304687500000, 7.109375000000, 1491365313
0.145507812500, -0.904296875000, 0.446044921875, 12.570312500000, -6.382812500000, 15.234375000000, 1491365313
0.145507812500, -0.904296875000, 0.446044921875, 12.570312500000, -6.382812500000, 15.234375000000, 1491365313
0.145507812500, -0.904296875000, 0.446044921875, 12.570312500000, -6.382812500000, 15.234375000000, 1491365313
0.101318359375, -0.842773437500, 0.458984375000, 4.460937500000, 8.242187500000, 14.281250000000, 1491365313
0.101318359375, -0.842773437500, 0.458984375000, 4.460937500000, 8.242187500000, 14.281250000000, 1491365313
0.101318359375, -0.842773437500, 0.458984375000, 4.460937500000, 8.242187500000, 14.281250000000, 1491365313
0.203613281250, -0.953857421875, 0.473144531250, -4.210937500000, 19.828125000000, 13.015625000000, 1491365313
0.203613281250, -0.953857421875, 0.473144531250, -4.210937500000, 19.828125000000, 13.015625000000, 1491365313
0.203613281250, -0.953857421875, 0.473144531250, -4.210937500000, 19.828125000000, 13.015625000000, 1491365313
0.203613281250, -0.953857421875, 0.473144531250, -4.210937500000, 19.828125000000, 13.015625000000, 1491365313
0.159667968750, -0.882080078125, 0.380615234375, -2.835937500000, 31.976562500000, 19.101562500000, 1491365313
0.159667968750, -0.882080078125, 0.380615234375, -2.835937500000, 31.976562500000, 19.101562500000, 1491365313
0.159667968750, -0.882080078125, 0.380615234375, -2.835937500000, 31.976562500000, 19.101562500000, 1491365313
