ACC_X,ACC_Y,ACC_Z,G_X,G_Y,G_Z,Unix Time
0.118896484375, -0.738525390625, 0.644042968750, -11.828125000000, -7.859375000000, -11.492187500000, 1491365510
0.118896484375, -0.738525390625, 0.644042968750, -11.828125000000, -7.859375000000, -11.492187500000, 1491365510
0.118896484375, -0.738525390625, 0.644042968750, -11.828125000000, -7.859375000000, -11.492187500000, 1491365510
0.112060546875, -0.728759765625, 0.537353515625, -11.976562500000, -3.476562500000, -6.242187500000, 1491365510
0.112060546875, -0.728759765625, 0.537353515625, -11.976562500000, -3.476562500000, -6.242187500000, 1491365510
0.112060546875, -0.728759765625, 0.537353515625, -11.976562500000, -3.476562500000, -6.242187500000, 1491365510
0.112060546875, -0.728759765625, 0.537353515625, -11.976562500000, -3.476562500000, -6.242187500000, 1491365510
0.112060546875, -0.728759765625, 0.537353515625, -11.976562500000, -3.476562500000, -6.242187500000, 1491365510
0.138427734375, -0.728027343750, 0.586669921875, -13.703125000000, 0.515625000000, -1.179687500000, 1491365510
0.138427734375, -0.728027343750, 0.586669921875, -13.703125000000, 0.515625000000, -1.179687500000, 1491365510
0.138427734375, -0.728027343750, 0.586669921875, -13.703125000000, 0.515625000000, -1.179687500000, 1491365510
0.138427734375, -0.728027343750, 0.586669921875, -13.703125000000, 0.515625000000, -1.179687500000, 1491365510
0.138427734375, -0.728027343750, 0.586669921875, -13.703125000000, 0.515625000000, -1.179687500000, 1491365510
0.131835937500, -0.901855468750, 0.534179687500, -7.460937500000, 1.031250000000, -5.992187500000, 1491365510
0.131835937500, -0.901855468750, 0.534179687500, -7.460937500000, 1.031250000000, -5.992187500000, 1491365510
0.131835937500, -0.901855468750, 0.534179687500, -7.460937500000, 1.031250000000, -5.992187500000, 1491365510
0.092285156250, -0.739013671875, 0.550292968750, -5.945312500000, -0.296875000000, -10.320312500000, 1491365510
0.044677734375, -0.825683593750, 0.579345703125, -5.156250000000, 0.250000000000, -3.820312500000, 1491365510
0.064941406250, -0.843017578125, 0.562011718750, -6.914062500000, 5.265625000000, -1.218750000000, 1491365510
0.064941406250, -0.843017578125, 0.562011718750, -6.914062500000, 5.265625000000, -1.218750000000, 1491365510
0.064941406250, -0.843017578125, 0.562011718750, -6.914062500000, 5.265625000000, -1.218750000000, 1491365510
0.064941406250, -0.843017578125, 0.562011718750, -6.914062500000, 5.265625000000, -1.218750000000, 1491365510
0.151855468750, -0.729492187500, 0.653076171875, -4.515625000000, 3.398437500000, -3.968750000000, 1491365510
0.151855468750, -0.729492187500, 0.653076171875, -4.515625000000, 3.398437500000, -3.968750000000, 1491365510
0.151855468750, -0.729492187500, 0.653076171875, -4.515625000000, 3.398437500000, -3.968750000000, 1491365510
0.151855468750, -0.729492187500, 0.653076171875, -4.515625000000, 3.398437500000, -3.968750000000, 1491365510
0.151855468750, -0.729492187500, 0.653076171875, -4.515625000000, 3.398437500000, -3.968750000000, 1491365510
0.151855468750, -0.729492187500, 0.653076171875, -4.515625000000, 3.398437500000, -3.968750000000, 1491365510
0.151855468750, -0.729492187500, 0.653076171875, -4.515625000000, 3.398437500000, -3.968750000000, 1491365510
0.076660156250, -0.836425781250, 0.599609375000, 0.109375000000, 6.804687500000, -1.632812500000, 1491365511
-0.017089843750, -0.744873046875, 0.609375000000, 0.109375000000, 6.804687500000, -1.632812500000, 1491365511
-0.017089843750, -0.744873046875, 0.609375000000, 0.109375000000, 6.804687500000, -1.632812500000, 1491365511
-0.017089843750, -0.744873046875, 0.609375000000, 0.109375000000, 6.804687500000, -1.632812500000, 1491365511
0.132568359375, -0.801757812500, 0.538818359375, -1.445312500000, 7.500000000000, -6.023437500000, 1491365511
0.132568359375, -0.801757812500, 0.538818359375, -1.445312500000, 7.500000000000, -6.023437500000, 1491365511
0.132568359375, -0.801757812500, 0.538818359375, -1.445312500000, 7.500000000000, -6.023437500000, 1491365511
0.132568359375, -0.801757812500, 0.538818359375, -1.445312500000, 7.500000000000, -6.023437500000, 1491365511
0.130371093750, -0.781005859375, 0.609619140625, -4.257812500000, 6.023437500000, 0.898437500000, 1491365511
-0.004638671875, -0.806884765625, 0.628417968750, -1.281250000000, 6.414062500000, -1.367187500000, 1491365511
-0.004638671875, -0.806884765625, 0.628417968750, -1.281250000000, 6.414062500000, -1.367187500000, 1491365511
-0.004638671875, -0.806884765625, 0.628417968750, -1.281250000000, 6.414062500000, -1.367187500000, 1491365511
-0.004638671875, -0.806884765625, 0.628417968750, -1.281250000000, 6.414062500000, -1.367187500000, 1491365511
0.071044921875, -0.745849609375, 0.533935546875, -3.070312500000, 8.484375000000, -1.234375000000, 1491365511
0.071044921875, -0.745849609375, 0.533935546875, -3.070312500000, 8.484375000000, -1.234375000000, 1491365511
0.071044921875, -0.745849609375, 0.533935546875, -3.070312500000, 8.484375000000, -1.234375000000, 1491365511
0.071044921875, -0.745849609375, 0.533935546875, -3.070312500000, 8.484375000000, -1.234375000000, 1491365511
0.084228515625, -0.797363281250, 0.583496093750, -2.984375000000, 6.546875000000, 0.593750000000, 1491365511
0.065673828125, -0.870117187500, 0.629638671875, -1.765625000000, 3.546875000000, 0.476562500000, 1491365511
0.065673828125, -0.870117187500, 0.629638671875, -1.765625000000, 3.546875000000, 0.476562500000, 1491365511
0.065673828125, -0.870117187500, 0.629638671875, -1.765625000000, 3.546875000000, 0.476562500000, 1491365511
0.065673828125, -0.870117187500, 0.629638671875, -1.765625000000, 3.546875000000, 0.476562500000, 1491365511
0.065673828125, -0.870117187500, 0.629638671875, -1.765625000000, 3.546875000000, 0.476562500000, 1491365511
0.065673828125, -0.870117187500, 0.629638671875, -1.765625000000, 3.546875000000, 0.476562500000, 1491365511
0.065673828125, -0.870117187500, 0.629638671875, -1.765625000000, 3.546875000000, 0.476562500000, 1491365511
0.065673828125, -0.870117187500, 0.629638671875, -1.765625000000, 3.546875000000, 0.476562500000, 1491365511
0.031982421875, -0.818847656250, 0.649658203125, -1.210937500000, 6.078125000000, 0.593750000000, 1491365511
-0.002197265625, -0.825683593750, 0.546875000000, -1.578125000000, 6.015625000000, 0.632812500000, 1491365511
-0.002197265625, -0.825683593750, 0.546875000000, -1.578125000000, 6.015625000000, 0.632812500000, 1491365511
-0.002197265625, -0.825683593750, 0.546875000000, -1.578125000000, 6.015625000000, 0.632812500000, 1491365511
0.150390625000, -0.818115234375, 0.590820312500, -6.289062500000, 6.101562500000, -0.781250000000, 1491365511
0.150390625000, -0.818115234375, 0.590820312500, -6.289062500000, 6.101562500000, -0.781250000000, 1491365511
0.150390625000, -0.818115234375, 0.590820312500, -6.289062500000, 6.101562500000, -0.781250000000, 1491365511
0.150390625000, -0.818115234375, 0.590820312500, -6.289062500000, 6.101562500000, -0.781250000000, 1491365511
0.052490234375, -0.799804687500, 0.562255859375, -8.375000000000, 3.210937500000, 1.218750000000, 1491365511
0.052490234375, -0.799804687500, 0.562255859375, -8.375000000000, 3.210937500000, 1.218750000000, 1491365511
0.052490234375, -0.799804687500, 0.562255859375, -8.375000000000, 3.210937500000, 1.218750000000, 1491365511
0.052490234375, -0.799804687500, 0.562255859375, -8.375000000000, 3.210937500000, 1.218750000000, 1491365511
0.052490234375, -0.799804687500, 0.562255859375, -8.375000000000, 3.210937500000, 1.218750000000, 1491365511
0.035644531250, -0.889160156250, 0.516113281250, -4.125000000000, -1.460937500000, -3.484375000000, 1491365511
0.035644531250, -0.889160156250, 0.516113281250, -4.125000000000, -1.460937500000, -3.484375000000, 1491365511
0.035644531250, -0.889160156250, 0.516113281250, -4.125000000000, -1.460937500000, -3.484375000000, 1491365511
0.054687500000, -0.745605468750, 0.639160156250, -5.414062500000, 6.421875000000, -2.742187500000, 1491365511
0.054687500000, -0.745605468750, 0.639160156250, -5.414062500000, 6.421875000000, -2.742187500000, 1491365511
0.054687500000, -0.745605468750, 0.639160156250, -5.414062500000, 6.421875000000, -2.742187500000, 1491365511
0.054687500000, -0.745605468750, 0.639160156250, -5.414062500000, 6.421875000000, -2.742187500000, 1491365511
0.069091796875, -0.787353515625, 0.637451171875, -4.148437500000, 0.742187500000, -4.273437500000, 1491365511
0.069091796875, -0.787353515625, 0.637451171875, -4.148437500000, 0.742187500000, -4.273437500000, 1491365511
0.069091796875, -0.787353515625, 0.637451171875, -4.148437500000, 0.742187500000, -4.273437500000, 1491365511
0.039062500000, -0.747558593750, 0.555664062500, -3.437500000000, -0.765625000000, -1.671875000000, 1491365511
0.039062500000, -0.747558593750, 0.555664062500, -3.437500000000, -0.765625000000, -1.671875000000, 1491365511
0.039062500000, -0.747558593750, 0.555664062500, -3.437500000000, -0.765625000000, -1.671875000000, 1491365511
0.089843750000, -0.812255859375, 0.561523437500, -5.992187500000, -2.906250000000, -1.968750000000, 1491365511
0.089843750000, -0.812255859375, 0.561523437500, -5.992187500000, -2.906250000000, -1.968750000000, 1491365511
0.043945312500, -0.898925781250, 0.687744140625, -6.773437500000, 2.117187500000, -6.382812500000, 1491365511
0.043945312500, -0.898925781250, 0.687744140625, -6.773437500000, 2.117187500000, -6.382812500000, 1491365511
0.043945312500, -0.898925781250, 0.687744140625, -6.773437500000, 2.117187500000, -6.382812500000, 1491365511
0.043945312500, -0.898925781250, 0.687744140625, -6.773437500000, 2.117187500000, -6.382812500000, 1491365511
0.043945312500, -0.898925781250, 0.687744140625, -1.953125000000, -0.617187500000, -4.773437500000, 1491365511
0.046630859375, -0.821289062500, 0.644042968750, -1.265625000000, 3.523437500000, -4.859375000000, 1491365511
0.046630859375, -0.821289062500, 0.644042968750, -1.265625000000, 3.523437500000, -4.859375000000, 1491365511
0.046630859375, -0.821289062500, 0.644042968750, -1.265625000000, 3.523437500000, -4.859375000000, 1491365511
0.083496093750, -0.783203125000, 0.656982421875, -9.531250000000, 4.171875000000, -0.679687500000, 1491365511
0.083496093750, -0.783203125000, 0.656982421875, -9.531250000000, 4.171875000000, -0.679687500000, 1491365511
0.083496093750, -0.783203125000, 0.656982421875, -9.531250000000, 4.171875000000, -0.679687500000, 1491365511
0.046630859375, -0.791748046875, 0.621582031250, -11.039062500000, 25.343750000000, 3.226562500000, 1491365511
0.046630859375, -0.791748046875, 0.621582031250, -11.039062500000, 25.343750000000, 3.226562500000, 1491365511
0.046630859375, -0.791748046875, 0.621582031250, -11.039062500000, 25.343750000000, 3.226562500000, 1491365511
0.046630859375, -0.791748046875, 0.621582031250, -11.039062500000, 25.343750000000, 3.226562500000, 1491365512
0.023437500000, -0.824218750000, 0.641845703125, 2.843750000000, 39.265625000000, 9.523437500000, 1491365512
0.023437500000, -0.824218750000, 0.641845703125, 2.843750000000, 39.265625000000, 9.523437500000, 1491365512
0.023437500000, -0.824218750000, 0.641845703125, 2.843750000000, 39.265625000000, 9.523437500000, 1491365512
0.070068359375, -0.662353515625, 0.551757812500, -7.101562500000, 59.578125000000, 26.796875000000, 1491365512
0.070068359375, -0.662353515625, 0.551757812500, -7.101562500000, 59.578125000000, 26.796875000000, 1491365512
0.070068359375, -0.662353515625, 0.551757812500, -7.101562500000, 59.578125000000, 26.796875000000, 1491365512
-0.033935546875, -0.537109375000, 0.574707031250, -3.726562500000, 62.203125000000, 56.781250000000, 1491365512
-0.033935546875, -0.537109375000, 0.574707031250, -3.726562500000, 62.203125000000, 56.781250000000, 1491365512
-0.033935546875, -0.537109375000, 0.574707031250, -3.726562500000, 62.203125000000, 56.781250000000, 1491365512
-0.103027343750, -0.684326171875, 0.634521484375, 42.937500000000, 20.093750000000, 26.046875000000, 1491365512
-0.103027343750, -0.684326171875, 0.634521484375, 42.937500000000, 20.093750000000, 26.046875000000, 1491365512
-0.103027343750, -0.684326171875, 0.634521484375, 42.937500000000, 20.093750000000, 26.046875000000, 1491365512
-0.103027343750, -0.684326171875, 0.634521484375, 42.937500000000, 20.093750000000, 26.046875000000, 1491365512
-0.069091796875, -0.806396484375, 0.633789062500, 44.929687500000, -9.687500000000, 24.523437500000, 1491365512
0.256835937500, -0.882568359375, 0.578857421875, 58.953125000000, 64.843750000000, 45.695312500000, 1491365512
0.256835937500, -0.882568359375, 0.578857421875, 58.953125000000, 64.843750000000, 45.695312500000, 1491365512
0.256835937500, -0.882568359375, 0.578857421875, 58.953125000000, 64.843750000000, 45.695312500000, 1491365512
0.256835937500, -0.882568359375, 0.578857421875, 58.953125000000, 64.843750000000, 45.695312500000, 1491365512
0.256835937500, -0.882568359375, 0.578857421875, 58.953125000000, 64.843750000000, 45.695312500000, 1491365512
0.107910156250, -0.916992187500, 0.606201171875, 18.929687500000, 65.984375000000, 58.906250000000, 1491365512
0.107910156250, -0.916992187500, 0.606201171875, 18.929687500000, 65.984375000000, 58.906250000000, 1491365512
0.107910156250, -0.916992187500, 0.606201171875, 18.929687500000, 65.984375000000, 58.906250000000, 1491365512
0.107910156250, -0.916992187500, 0.606201171875, 18.929687500000, 65.984375000000, 58.906250000000, 1491365512
0.107910156250, -0.916992187500, 0.606201171875, 18.929687500000, 65.984375000000, 58.906250000000, 1491365512
0.107910156250, -0.916992187500, 0.606201171875, 18.929687500000, 65.984375000000, 58.906250000000, 1491365512
0.107910156250, -0.916992187500, 0.606201171875, 18.929687500000, 65.984375000000, 58.906250000000, 1491365512
0.084228515625, -1.024169921875, 0.499267578125, -17.843750000000, -12.757812500000, 35.968750000000, 1491365512
0.084228515625, -1.024169921875, 0.499267578125, -17.843750000000, -12.757812500000, 35.968750000000, 1491365512
0.084228515625, -1.024169921875, 0.499267578125, -17.843750000000, -12.757812500000, 35.968750000000, 1491365512
0.221679687500, -0.753906250000, 0.499267578125, 25.078125000000, 28.328125000000, 8.539062500000, 1491365512
0.170898437500, -0.795898437500, 0.373046875000, 10.367187500000, 13.625000000000, 8.429687500000, 1491365512
0.170898437500, -0.795898437500, 0.373046875000, 10.367187500000, 13.625000000000, 8.429687500000, 1491365512
0.239013671875, -0.964355468750, 0.438720703125, 44.125000000000, -7.070312500000, -16.796875000000, 1491365512
0.239013671875, -0.964355468750, 0.438720703125, 44.125000000000, -7.070312500000, -16.796875000000, 1491365512
0.239013671875, -0.964355468750, 0.438720703125, 44.125000000000, -7.070312500000, -16.796875000000, 1491365512
0.239013671875, -0.964355468750, 0.438720703125, 44.125000000000, -7.070312500000, -16.796875000000, 1491365512
0.239013671875, -0.964355468750, 0.438720703125, 44.125000000000, -7.070312500000, -16.796875000000, 1491365512
0.239013671875, -0.964355468750, 0.438720703125, 44.125000000000, -7.070312500000, -16.796875000000, 1491365512
0.218994140625, -0.802734375000, 0.637939453125, 41.851562500000, 2.507812500000, -16.992187500000, 1491365512
0.325927734375, -0.950683593750, 0.531982421875, 7.593750000000, 20.367187500000, -5.679687500000, 1491365512
0.325927734375, -0.950683593750, 0.531982421875, 7.593750000000, 20.367187500000, -5.679687500000, 1491365512
0.325927734375, -0.950683593750, 0.531982421875, 7.593750000000, 20.367187500000, -5.679687500000, 1491365512
0.325927734375, -0.950683593750, 0.531982421875, 7.593750000000, 20.367187500000, -5.679687500000, 1491365512
0.325927734375, -0.950683593750, 0.531982421875, 7.593750000000, 20.367187500000, -5.679687500000, 1491365512
0.345458984375, -1.180908203125, 0.402832031250, -15.210937500000, 15.023437500000, -18.546875000000, 1491365512
0.345458984375, -1.180908203125, 0.402832031250, -15.210937500000, 15.023437500000, -18.546875000000, 1491365512
0.345458984375, -1.180908203125, 0.402832031250, -15.210937500000, 15.023437500000, -18.546875000000, 1491365512
0.345458984375, -1.180908203125, 0.402832031250, -15.210937500000, 15.023437500000, -18.546875000000, 1491365512
0.345458984375, -1.180908203125, 0.402832031250, -15.210937500000, 15.023437500000, -18.546875000000, 1491365512
0.120849609375, -1.466064453125, 0.459960937500, -29.625000000000, 17.882812500000, -14.007812500000, 1491365512
0.120849609375, -1.466064453125, 0.459960937500, -29.625000000000, 17.882812500000, -14.007812500000, 1491365512
0.120849609375, -1.466064453125, 0.459960937500, -29.625000000000, 17.882812500000, -14.007812500000, 1491365512
0.120849609375, -1.466064453125, 0.459960937500, -29.625000000000, 17.882812500000, -14.007812500000, 1491365512
0.120849609375, -1.466064453125, 0.459960937500, -29.625000000000, 17.882812500000, -14.007812500000, 1491365512
-0.016845703125, -1.042236328125, 0.282714843750, -58.820312500000, 9.851562500000, -10.976562500000, 1491365512
-0.016845703125, -1.042236328125, 0.282714843750, -58.820312500000, 9.851562500000, -10.976562500000, 1491365512
-0.016845703125, -1.042236328125, 0.282714843750, -58.820312500000, 9.851562500000, -10.976562500000, 1491365512
-0.016845703125, -1.042236328125, 0.282714843750, -58.820312500000, 9.851562500000, -10.976562500000, 1491365512
-0.141357421875, -0.872802734375, 0.147949218750, -24.968750000000, -14.367187500000, -26.984375000000, 1491365512
-0.141357421875, -0.872802734375, 0.147949218750, -24.968750000000, -14.367187500000, -26.984375000000, 1491365512
-0.141357421875, -0.872802734375, 0.147949218750, -24.968750000000, -14.367187500000, -26.984375000000, 1491365512
-0.141357421875, -0.872802734375, 0.147949218750, -24.968750000000, -14.367187500000, -26.984375000000, 1491365512
-0.138427734375, -0.784912109375, 0.186523437500, -43.179687500000, -232.687500000000, -51.687500000000, 1491365513
-0.138427734375, -0.784912109375, 0.186523437500, -43.179687500000, -232.687500000000, -51.687500000000, 1491365513
-0.138427734375, -0.784912109375, 0.186523437500, -43.179687500000, -232.687500000000, -51.687500000000, 1491365513
0.046875000000, -0.762939453125, 0.211669921875, -17.882812500000, 38.968750000000, 3.476562500000, 1491365513
0.208984375000, -0.832763671875, 0.172607421875, -13.632812500000, 100.726562500000, 22.320312500000, 1491365513
0.198486328125, -0.826171875000, 0.150390625000, 35.062500000000, 147.195312500000, 30.250000000000, 1491365513
0.198486328125, -0.826171875000, 0.150390625000, 35.062500000000, 147.195312500000, 30.250000000000, 1491365513
0.198486328125, -0.826171875000, 0.150390625000, 35.062500000000, 147.195312500000, 30.250000000000, 1491365513
0.198486328125, -0.826171875000, 0.150390625000, 35.062500000000, 147.195312500000, 30.250000000000, 1491365513
0.198486328125, -0.826171875000, 0.150390625000, 35.062500000000, 147.195312500000, 30.250000000000, 1491365513
0.198486328125, -0.826171875000, 0.150390625000, 35.062500000000, 147.195312500000, 30.250000000000, 1491365513
-0.051025390625, -0.720214843750, 0.307861328125, 84.593750000000, -239.601562500000, -72.859375000000, 1491365513
-0.051025390625, -0.720214843750, 0.307861328125, 84.593750000000, -239.601562500000, -72.859375000000, 1491365513
-0.051025390625, -0.720214843750, 0.307861328125, 84.593750000000, -239.601562500000, -72.859375000000, 1491365513
-0.051025390625, -0.720214843750, 0.307861328125, 84.593750000000, -239.601562500000, -72.859375000000, 1491365513
-0.051025390625, -0.720214843750, 0.307861328125, 84.593750000000, -239.601562500000, -72.859375000000, 1491365513
-0.011962890625, -0.740722656250, 0.529785156250, 91.179687500000, -256.000000000000, -80.984375000000, 1491365513
0.319091796875, -0.859863281250, 0.489013671875, 8.492187500000, 32.718750000000, 4.312500000000, 1491365513
0.319091796875, -0.859863281250, 0.489013671875, 8.492187500000, 32.718750000000, 4.312500000000, 1491365513
0.319091796875, -0.859863281250, 0.489013671875, 8.492187500000, 32.718750000000, 4.312500000000, 1491365513
0.319091796875, -0.859863281250, 0.489013671875, 8.492187500000, 32.718750000000, 4.312500000000, 1491365513
0.319091796875, -0.859863281250, 0.489013671875, 8.492187500000, 32.718750000000, 4.312500000000, 1491365513
0.061035156250, -1.058837890625, 0.382568359375, -10.718750000000, 7.039062500000, 16.570312500000, 1491365513
0.061035156250, -1.058837890625, 0.382568359375, -10.718750000000, 7.039062500000, 16.570312500000, 1491365513
0.061035156250, -1.058837890625, 0.382568359375, -10.718750000000, 7.039062500000, 16.570312500000, 1491365513
0.061035156250, -1.058837890625, 0.382568359375, -10.718750000000, 7.039062500000, 16.570312500000, 1491365513
0.061035156250, -1.058837890625, 0.382568359375, -10.718750000000, 7.039062500000, 16.570312500000, 1491365513
0.061035156250, -1.058837890625, 0.382568359375, -10.718750000000, 7.039062500000, 16.570312500000, 1491365513
0.061035156250, -1.058837890625, 0.382568359375, -10.718750000000, 7.039062500000, 16.570312500000, 1491365513
0.213623046875, -1.319335937500, 0.309570312500, -41.054687500000, 12.179687500000, 37.507812500000, 1491365513
0.213623046875, -1.319335937500, 0.309570312500, -41.054687500000, 12.179687500000, 37.507812500000, 1491365513
0.213623046875, -1.319335937500, 0.309570312500, -41.054687500000, 12.179687500000, 37.507812500000, 1491365513
0.213623046875, -1.319335937500, 0.309570312500, -41.054687500000, 12.179687500000, 37.507812500000, 1491365513
0.213623046875, -1.319335937500, 0.309570312500, -41.054687500000, 12.179687500000, 37.507812500000, 1491365513
0.213623046875, -1.319335937500, 0.309570312500, -41.054687500000, 12.179687500000, 37.507812500000, 1491365513
0.213623046875, -1.319335937500, 0.309570312500, -41.054687500000, 12.179687500000, 37.507812500000, 1491365513
0.205566406250, -1.377197265625, 0.406250000000, -26.335937500000, 27.039062500000, 31.507812500000, 1491365513
0.205566406250, -1.377197265625, 0.406250000000, -26.335937500000, 27.039062500000, 31.507812500000, 1491365513
0.205566406250, -1.377197265625, 0.406250000000, -26.335937500000, 27.039062500000, 31.507812500000, 1491365513
0.351074218750, -1.015380859375, 0.173583984375, 8.625000000000, 29.671875000000, 35.812500000000, 1491365513
0.351074218750, -1.015380859375, 0.173583984375, 8.625000000000, 29.671875000000, 35.812500000000, 1491365513
0.351074218750, -1.015380859375, 0.173583984375, 8.625000000000, 29.671875000000, 35.812500000000, 1491365513
0.462890625000, -0.807128906250, 0.144775390625, -10.804687500000, 76.062500000000, 26.031250000000, 1491365513
0.462890625000, -0.807128906250, 0.144775390625, -10.804687500000, 76.062500000000, 26.031250000000, 1491365513
0.462890625000, -0.807128906250, 0.144775390625, -10.804687500000, 76.062500000000, 26.031250000000, 1491365513
0.349609375000, -0.946044921875, 0.141601562500, -22.757812500000, 95.187500000000, 47.476562500000, 1491365513
0.349609375000, -0.946044921875, 0.141601562500, -22.757812500000, 95.187500000000, 47.476562500000, 1491365513
0.227294921875, -0.903076171875, 0.120361328125, -47.445312500000, -0.273437500000, 30.812500000000, 1491365513
0.227294921875, -0.903076171875, 0.120361328125, -47.445312500000, -0.273437500000, 30.812500000000, 1491365513
0.227294921875, -0.903076171875, 0.120361328125, -47.445312500000, -0.273437500000, 30.812500000000, 1491365513
0.227294921875, -0.903076171875, 0.120361328125, -47.445312500000, -0.273437500000, 30.812500000000, 1491365513
0.227294921875, -0.903076171875, 0.120361328125, -47.445312500000, -0.273437500000, 30.812500000000, 1491365513
0.176757812500, -0.891845703125, 0.216796875000, -21.984375000000, -41.078125000000, 8.015625000000, 1491365513
0.176757812500, -0.891845703125, 0.216796875000, -21.984375000000, -41.078125000000, 8.015625000000, 1491365513
0.176757812500, -0.891845703125, 0.216796875000, -21.984375000000, -41.078125000000, 8.015625000000, 1491365513
0.158691406250, -0.830810546875, 0.274169921875, 14.640625000000, -24.812500000000, -3.789062500000, 1491365513
0.158691406250, -0.830810546875, 0.274169921875, 14.640625000000, -24.812500000000, -3.789062500000, 1491365513
0.397705078125, -0.809082031250, 0.131103515625, 31.179687500000, 107.476562500000, 17.171875000000, 1491365513
0.397705078125, -0.809082031250, 0.131103515625, 31.179687500000, 107.476562500000, 17.171875000000, 1491365513
0.397705078125, -0.809082031250, 0.131103515625, 31.179687500000, 107.476562500000, 17.171875000000, 1491365513
0.397705078125, -0.809082031250, 0.131103515625, 31.179687500000, 107.476562500000, 17.171875000000, 1491365513
0.304931640625, -0.767333984375, 0.193847656250, 83.734375000000, 141.773437500000, 17.984375000000, 1491365513
0.304931640625, -0.767333984375, 0.193847656250, 83.734375000000, 141.773437500000, 17.984375000000, 1491365513
0.304931640625, -0.767333984375, 0.193847656250, 83.734375000000, 141.773437500000, 17.984375000000, 1491365513
0.304931640625, -0.767333984375, 0.193847656250, 83.734375000000, 141.773437500000, 17.984375000000, 1491365513
0.320068359375, -0.701660156250, 0.948974609375, 178.312500000000, -159.859375000000, -81.179687500000, 1491365513
0.320068359375, -0.701660156250, 0.948974609375, 178.312500000000, -159.859375000000, -81.179687500000, 1491365513
0.320068359375, -0.701660156250, 0.948974609375, 178.312500000000, -159.859375000000, -81.179687500000, 1491365513
0.259033203125, -0.732177734375, 0.322021484375, -75.132812500000, 84.796875000000, 18.453125000000, 1491365514
0.259033203125, -0.732177734375, 0.322021484375, -75.132812500000, 84.796875000000, 18.453125000000, 1491365514
0.259033203125, -0.732177734375, 0.322021484375, -75.132812500000, 84.796875000000, 18.453125000000, 1491365514
0.314453125000, -0.864746093750, 0.228515625000, -37.109375000000, 63.718750000000, 9.351562500000, 1491365514
0.314453125000, -0.864746093750, 0.228515625000, -37.109375000000, 63.718750000000, 9.351562500000, 1491365514
0.314453125000, -0.864746093750, 0.228515625000, -37.109375000000, 63.718750000000, 9.351562500000, 1491365514
0.271484375000, -0.749511718750, 0.313476562500, 34.375000000000, 16.289062500000, -16.187500000000, 1491365514
0.271484375000, -0.749511718750, 0.313476562500, 34.375000000000, 16.289062500000, -16.187500000000, 1491365514
0.271484375000, -0.749511718750, 0.313476562500, 34.375000000000, 16.289062500000, -16.187500000000, 1491365514
0.271484375000, -0.749511718750, 0.313476562500, 34.375000000000, 16.289062500000, -16.187500000000, 1491365514
0.264160156250, -0.810546875000, 0.363281250000, 70.164062500000, -21.601562500000, -41.328125000000, 1491365514
0.264160156250, -0.810546875000, 0.363281250000, 70.164062500000, -21.601562500000, -41.328125000000, 1491365514
0.264160156250, -0.810546875000, 0.363281250000, 70.164062500000, -21.601562500000, -41.328125000000, 1491365514
0.386474609375, -1.011474609375, 0.372070312500, 54.375000000000, 22.335937500000, -32.109375000000, 1491365514
0.255615234375, -0.875000000000, 0.377197265625, -10.187500000000, 12.648437500000, -17.132812500000, 1491365514
0.255615234375, -0.875000000000, 0.377197265625, -10.187500000000, 12.648437500000, -17.132812500000, 1491365514
0.255615234375, -0.875000000000, 0.377197265625, -10.187500000000, 12.648437500000, -17.132812500000, 1491365514
0.255615234375, -0.875000000000, 0.377197265625, -10.187500000000, 12.648437500000, -17.132812500000, 1491365514
0.176757812500, -0.986572265625, 0.400146484375, -7.046875000000, 14.570312500000, -20.109375000000, 1491365514
0.176757812500, -0.986572265625, 0.400146484375, -7.046875000000, 14.570312500000, -20.109375000000, 1491365514
0.176757812500, -0.986572265625, 0.400146484375, -7.046875000000, 14.570312500000, -20.109375000000, 1491365514
0.095214843750, -1.383789062500, 0.240234375000, -40.000000000000, 50.656250000000, -28.273437500000, 1491365514
0.095214843750, -1.383789062500, 0.240234375000, -40.000000000000, 50.656250000000, -28.273437500000, 1491365514
0.095214843750, -1.383789062500, 0.240234375000, -40.000000000000, 50.656250000000, -28.273437500000, 1491365514
0.095214843750, -1.383789062500, 0.240234375000, -40.000000000000, 50.656250000000, -28.273437500000, 1491365514
0.071289062500, -1.386230468750, 0.249267578125, -68.265625000000, 56.453125000000, -22.421875000000, 1491365514
0.071289062500, -1.386230468750, 0.249267578125, -68.265625000000, 56.453125000000, -22.421875000000, 1491365514
0.071289062500, -1.386230468750, 0.249267578125, -68.265625000000, 56.453125000000, -22.421875000000, 1491365514
0.071289062500, -1.386230468750, 0.249267578125, -68.265625000000, 56.453125000000, -22.421875000000, 1491365514
0.071289062500, -1.386230468750, 0.249267578125, -68.265625000000, 56.453125000000, -22.421875000000, 1491365514
-0.186279296875, -0.866943359375, 0.210205078125, -69.414062500000, -45.070312500000, -73.742187500000, 1491365514
-0.186279296875, -0.866943359375, 0.210205078125, -69.414062500000, -45.070312500000, -73.742187500000, 1491365514
-0.186279296875, -0.866943359375, 0.210205078125, -69.414062500000, -45.070312500000, -73.742187500000, 1491365514
-0.186279296875, -0.866943359375, 0.210205078125, -69.414062500000, -45.070312500000, -73.742187500000, 1491365514
-0.186279296875, -0.866943359375, 0.210205078125, -69.414062500000, -45.070312500000, -73.742187500000, 1491365514
-0.186279296875, -0.866943359375, 0.210205078125, -76.515625000000, -112.648437500000, -94.367187500000, 1491365514
-0.057373046875, -0.965576171875, 0.177978515625, -49.140625000000, -207.484375000000, -107.804687500000, 1491365514
-0.057373046875, -0.965576171875, 0.177978515625, -49.140625000000, -207.484375000000, -107.804687500000, 1491365514
-0.057373046875, -0.965576171875, 0.177978515625, -49.140625000000, -207.484375000000, -107.804687500000, 1491365514
0.108642578125, -0.946533203125, 0.280273437500, 11.335937500000, -197.617187500000, -115.023437500000, 1491365514
0.108642578125, -0.946533203125, 0.280273437500, 11.335937500000, -197.617187500000, -115.023437500000, 1491365514
0.108642578125, -0.946533203125, 0.280273437500, 11.335937500000, -197.617187500000, -115.023437500000, 1491365514
0.064941406250, -0.878906250000, 0.278320312500, -21.390625000000, -18.578125000000, -39.843750000000, 1491365514
0.064941406250, -0.878906250000, 0.278320312500, -21.390625000000, -18.578125000000, -39.843750000000, 1491365514
0.064941406250, -0.878906250000, 0.278320312500, -21.390625000000, -18.578125000000, -39.843750000000, 1491365514
0.020507812500, -0.877685546875, 0.223876953125, 4.898437500000, 90.500000000000, 1.257812500000, 1491365514
0.020507812500, -0.877685546875, 0.223876953125, 4.898437500000, 90.500000000000, 1.257812500000, 1491365514
0.020507812500, -0.877685546875, 0.223876953125, 4.898437500000, 90.500000000000, 1.257812500000, 1491365514
0.020507812500, -0.877685546875, 0.223876953125, 4.898437500000, 90.500000000000, 1.257812500000, 1491365514
-0.226074218750, -0.725585937500, 1.023437500000, 107.265625000000, -94.742187500000, -76.468750000000, 1491365514
-0.226074218750, -0.725585937500, 1.023437500000, 107.265625000000, -94.742187500000, -76.468750000000, 1491365514
-0.226074218750, -0.725585937500, 1.023437500000, 107.265625000000, -94.742187500000, -76.468750000000, 1491365514
0.046386718750, -0.657714843750, 0.343261718750, -115.351562500000, -75.007812500000, -24.039062500000, 1491365514
0.046386718750, -0.657714843750, 0.343261718750, -115.351562500000, -75.007812500000, -24.039062500000, 1491365514
0.046386718750, -0.657714843750, 0.343261718750, -115.351562500000, -75.007812500000, -24.039062500000, 1491365514
-0.040039062500, -0.736572265625, 0.337158203125, -61.757812500000, 30.523437500000, 12.132812500000, 1491365514
-0.040039062500, -0.736572265625, 0.337158203125, -61.757812500000, 30.523437500000, 12.132812500000, 1491365514
-0.040039062500, -0.736572265625, 0.337158203125, -61.757812500000, 30.523437500000, 12.132812500000, 1491365514
-0.037597656250, -0.797851562500, 0.576904296875, 88.695312500000, -68.273437500000, -33.007812500000, 1491365514
-0.037597656250, -0.797851562500, 0.576904296875, 88.695312500000, -68.273437500000, -33.007812500000, 1491365514
-0.037597656250, -0.797851562500, 0.576904296875, 88.695312500000, -68.273437500000, -33.007812500000, 1491365514
0.001464843750, -0.937744140625, 0.713867187500, 94.625000000000, -57.468750000000, -28.929687500000, 1491365514
0.001464843750, -0.937744140625, 0.713867187500, 94.625000000000, -57.468750000000, -28.929687500000, 1491365514
0.030273437500, -0.953613281250, 0.579833984375, -40.875000000000, 14.617187500000, 9.109375000000, 1491365514
0.030273437500, -0.953613281250, 0.579833984375, -40.875000000000, 14.617187500000, 9.109375000000, 1491365515
0.030273437500, -0.953613281250, 0.579833984375, -40.875000000000, 14.617187500000, 9.109375000000, 1491365515
-0.051757812500, -0.844726562500, 0.482421875000, 16.578125000000, -11.750000000000, 0.523437500000, 1491365515
-0.057861328125, -0.853027343750, 0.638916015625, 16.750000000000, 15.070312500000, 9.460937500000, 1491365515
-0.057861328125, -0.853027343750, 0.638916015625, 16.750000000000, 15.070312500000, 9.460937500000, 1491365515
-0.057861328125, -0.853027343750, 0.638916015625, 16.750000000000, 15.070312500000, 9.460937500000, 1491365515
-0.057861328125, -0.853027343750, 0.638916015625, 16.750000000000, 15.070312500000, 9.460937500000, 1491365515
-0.065429687500, -0.878662109375, 0.639648437500, 2.609375000000, 10.304687500000, 12.437500000000, 1491365515
-0.193359375000, -0.894287109375, 0.631347656250, 0.007812500000, -1.031250000000, 11.968750000000, 1491365515
-0.193359375000, -0.894287109375, 0.631347656250, 0.007812500000, -1.031250000000, 11.968750000000, 1491365515
-0.193359375000, -0.894287109375, 0.631347656250, 0.007812500000, -1.031250000000, 11.968750000000, 1491365515
-0.086425781250, -0.888671875000, 0.373291015625, -0.750000000000, -18.210937500000, 12.585937500000, 1491365515
-0.086425781250, -0.888671875000, 0.373291015625, -0.750000000000, -18.210937500000, 12.585937500000, 1491365515
-0.086425781250, -0.888671875000, 0.373291015625, -0.750000000000, -18.210937500000, 12.585937500000, 1491365515
0.018066406250, -0.798339843750, 0.412109375000, 18.312500000000, 6.859375000000, 17.210937500000, 1491365515
0.018066406250, -0.798339843750, 0.412109375000, 18.312500000000, 6.859375000000, 17.210937500000, 1491365515
0.018066406250, -0.798339843750, 0.412109375000, 18.312500000000, 6.859375000000, 17.210937500000, 1491365515
0.088867187500, -0.852783203125, 0.526855468750, 18.468750000000, 12.125000000000, 19.242187500000, 1491365515
0.097900390625, -0.981933593750, 0.504150390625, -6.164062500000, 12.539062500000, 51.945312500000, 1491365515
0.097900390625, -0.981933593750, 0.504150390625, -6.164062500000, 12.539062500000, 51.945312500000, 1491365515
0.097900390625, -0.981933593750, 0.504150390625, -6.164062500000, 12.539062500000, 51.945312500000, 1491365515
0.097900390625, -0.981933593750, 0.504150390625, -6.164062500000, 12.539062500000, 51.945312500000, 1491365515
0.097900390625, -0.981933593750, 0.504150390625, -6.164062500000, 12.539062500000, 51.945312500000, 1491365515
0.097900390625, -0.981933593750, 0.504150390625, -6.164062500000, 12.539062500000, 51.945312500000, 1491365515
0.135742187500, -1.113525390625, 0.438720703125, 33.453125000000, -27.476562500000, 22.460937500000, 1491365515
0.210205078125, -1.214599609375, 0.376708984375, -11.906250000000, 11.968750000000, 36.210937500000, 1491365515
0.210205078125, -1.214599609375, 0.376708984375, -11.906250000000, 11.968750000000, 36.210937500000, 1491365515
0.210205078125, -1.214599609375, 0.376708984375, -11.906250000000, 11.968750000000, 36.210937500000, 1491365515
0.124267578125, -1.126708984375, 0.313232421875, -8.679687500000, 25.507812500000, 18.156250000000, 1491365515
0.124267578125, -1.126708984375, 0.313232421875, -8.679687500000, 25.507812500000, 18.156250000000, 1491365515
0.124267578125, -1.126708984375, 0.313232421875, -8.679687500000, 25.507812500000, 18.156250000000, 1491365515
0.124267578125, -1.126708984375, 0.313232421875, -8.679687500000, 25.507812500000, 18.156250000000, 1491365515
0.124267578125, -1.126708984375, 0.313232421875, -8.679687500000, 25.507812500000, 18.156250000000, 1491365515
0.124267578125, -1.126708984375, 0.313232421875, -8.679687500000, 25.507812500000, 18.156250000000, 1491365515
0.124267578125, -1.126708984375, 0.313232421875, -8.679687500000, 25.507812500000, 18.156250000000, 1491365515
0.117919921875, -1.019775390625, 0.275146484375, -8.945312500000, 32.726562500000, 18.734375000000, 1491365515
0.198486328125, -0.986328125000, 0.277587890625, -11.851562500000, 44.734375000000, 1.929687500000, 1491365515
0.198486328125, -0.986328125000, 0.277587890625, -11.851562500000, 44.734375000000, 1.929687500000, 1491365515
0.198486328125, -0.986328125000, 0.277587890625, -11.851562500000, 44.734375000000, 1.929687500000, 1491365515
0.198486328125, -0.986328125000, 0.277587890625, -11.851562500000, 44.734375000000, 1.929687500000, 1491365515
0.334716796875, -0.965820312500, 0.183837890625, 17.343750000000, 47.054687500000, -0.625000000000, 1491365515
0.334716796875, -0.965820312500, 0.183837890625, 17.343750000000, 47.054687500000, -0.625000000000, 1491365515
0.334716796875, -0.965820312500, 0.183837890625, 17.343750000000, 47.054687500000, -0.625000000000, 1491365515
0.171875000000, -0.948974609375, 0.351074218750, 29.320312500000, 50.039062500000, 5.539062500000, 1491365515
0.171875000000, -0.948974609375, 0.351074218750, 29.320312500000, 50.039062500000, 5.539062500000, 1491365515
0.171875000000, -0.948974609375, 0.351074218750, 29.320312500000, 50.039062500000, 5.539062500000, 1491365515
0.129150390625, -0.846435546875, 0.442382812500, 1.203125000000, 61.007812500000, 20.460937500000, 1491365515
0.129150390625, -0.846435546875, 0.442382812500, 1.203125000000, 61.007812500000, 20.460937500000, 1491365515
0.129150390625, -0.846435546875, 0.442382812500, 1.203125000000, 61.007812500000, 20.460937500000, 1491365515
0.091796875000, -0.827148437500, 0.339111328125, -15.335937500000, 23.023437500000, 16.765625000000, 1491365515
0.091796875000, -0.827148437500, 0.339111328125, -15.335937500000, 23.023437500000, 16.765625000000, 1491365515
0.091796875000, -0.827148437500, 0.339111328125, -15.335937500000, 23.023437500000, 16.765625000000, 1491365515
0.091796875000, -0.827148437500, 0.339111328125, -15.335937500000, 23.023437500000, 16.765625000000, 1491365515
0.009033203125, -0.795166015625, 0.283203125000, -5.992187500000, 21.804687500000, 20.140625000000, 1491365515
0.009033203125, -0.795166015625, 0.283203125000, -5.992187500000, 21.804687500000, 20.140625000000, 1491365515
0.009033203125, -0.795166015625, 0.283203125000, -5.992187500000, 21.804687500000, 20.140625000000, 1491365515
0.060791015625, -0.839355468750, 0.379638671875, -12.937500000000, -5.710937500000, 13.335937500000, 1491365515
0.060791015625, -0.839355468750, 0.379638671875, -12.937500000000, -5.710937500000, 13.335937500000, 1491365515
0.060791015625, -0.839355468750, 0.379638671875, -12.937500000000, -5.710937500000, 13.335937500000, 1491365515
0.209228515625, -0.789550781250, 0.341308593750, -13.867187500000, -15.804687500000, 14.875000000000, 1491365515
0.209228515625, -0.789550781250, 0.341308593750, -13.867187500000, -15.804687500000, 14.875000000000, 1491365515
0.189208984375, -0.952392578125, 0.459228515625, -14.210937500000, -9.101562500000, 3.468750000000, 1491365515
0.200195312500, -0.796875000000, 0.518554687500, -21.531250000000, -18.765625000000, 6.328125000000, 1491365515
0.200195312500, -0.796875000000, 0.518554687500, -21.531250000000, -18.765625000000, 6.328125000000, 1491365516
0.178466796875, -0.829589843750, 0.366210937500, -23.257812500000, -19.835937500000, 5.539062500000, 1491365516
0.178466796875, -0.829589843750, 0.366210937500, -23.257812500000, -19.835937500000, 5.539062500000, 1491365516
0.178466796875, -0.829589843750, 0.366210937500, -23.257812500000, -19.835937500000, 5.539062500000, 1491365516
0.178466796875, -0.829589843750, 0.366210937500, -23.257812500000, -19.835937500000, 5.539062500000, 1491365516
0.178466796875, -0.829589843750, 0.366210937500, -23.257812500000, -19.835937500000, 5.539062500000, 1491365516
0.178466796875, -0.829589843750, 0.366210937500, -23.257812500000, -19.835937500000, 5.539062500000, 1491365516
0.264648437500, -0.862304687500, 0.445312500000, -25.140625000000, -16.351562500000, 6.578125000000, 1491365516
