ACC_X,ACC_Y,ACC_Z,G_X,G_Y,G_Z,Unix Time
0.028320312500, -0.962158203125, 0.446289062500, -15.375000000000, 0.820312500000, -7.781250000000, 1491365969
0.028320312500, -0.962158203125, 0.446289062500, -15.375000000000, 0.820312500000, -7.781250000000, 1491365969
0.028320312500, -0.962158203125, 0.446289062500, -15.375000000000, 0.820312500000, -7.781250000000, 1491365969
0.028320312500, -0.962158203125, 0.446289062500, -15.375000000000, 0.820312500000, -7.781250000000, 1491365969
0.070068359375, -0.907470703125, 0.454833984375, -1.906250000000, 11.132812500000, -10.406250000000, 1491365969
0.070068359375, -0.907470703125, 0.454833984375, -1.906250000000, 11.132812500000, -10.406250000000, 1491365969
0.070068359375, -0.907470703125, 0.454833984375, -1.906250000000, 11.132812500000, -10.406250000000, 1491365969
0.070068359375, -0.907470703125, 0.454833984375, -1.906250000000, 11.132812500000, -10.406250000000, 1491365969
0.070068359375, -0.907470703125, 0.454833984375, -1.906250000000, 11.132812500000, -10.406250000000, 1491365969
0.022705078125, -0.869140625000, 0.409423828125, 10.304687500000, 9.601562500000, -13.328125000000, 1491365969
0.022705078125, -0.869140625000, 0.409423828125, 10.304687500000, 9.601562500000, -13.328125000000, 1491365969
0.022705078125, -0.869140625000, 0.409423828125, 10.304687500000, 9.601562500000, -13.328125000000, 1491365969
0.022705078125, -0.869140625000, 0.409423828125, 10.304687500000, 9.601562500000, -13.328125000000, 1491365969
-0.007324218750, -0.869628906250, 0.407226562500, 17.546875000000, -3.218750000000, -15.226562500000, 1491365969
-0.007324218750, -0.869628906250, 0.407226562500, 17.546875000000, -3.218750000000, -15.226562500000, 1491365969
-0.007324218750, -0.869628906250, 0.407226562500, 17.546875000000, -3.218750000000, -15.226562500000, 1491365969
0.043212890625, -0.887207031250, 0.514892578125, 11.453125000000, -13.515625000000, -11.812500000000, 1491365969
0.043212890625, -0.887207031250, 0.514892578125, 11.453125000000, -13.515625000000, -11.812500000000, 1491365969
-0.014648437500, -0.943359375000, 0.471435546875, 6.656250000000, -17.570312500000, -7.703125000000, 1491365969
-0.014648437500, -0.943359375000, 0.471435546875, 6.656250000000, -17.570312500000, -7.703125000000, 1491365969
-0.014648437500, -0.943359375000, 0.471435546875, 6.656250000000, -17.570312500000, -7.703125000000, 1491365969
-0.014648437500, -0.943359375000, 0.471435546875, 6.656250000000, -17.570312500000, -7.703125000000, 1491365969
0.028808593750, -0.956054687500, 0.418945312500, 5.187500000000, 6.859375000000, 0.421875000000, 1491365969
0.028808593750, -0.956054687500, 0.418945312500, 5.187500000000, 6.859375000000, 0.421875000000, 1491365969
0.028808593750, -0.956054687500, 0.418945312500, 5.187500000000, 6.859375000000, 0.421875000000, 1491365969
0.028808593750, -0.956054687500, 0.418945312500, 5.187500000000, 6.859375000000, 0.421875000000, 1491365969
0.097656250000, -0.809326171875, 0.463623046875, -2.710937500000, 1.562500000000, 7.921875000000, 1491365969
0.097656250000, -0.809326171875, 0.463623046875, -2.710937500000, 1.562500000000, 7.921875000000, 1491365969
0.097656250000, -0.809326171875, 0.463623046875, -2.710937500000, 1.562500000000, 7.921875000000, 1491365969
0.066406250000, -0.926513671875, 0.414794921875, 0.632812500000, -12.734375000000, 5.234375000000, 1491365969
0.066406250000, -0.926513671875, 0.414794921875, 0.632812500000, -12.734375000000, 5.234375000000, 1491365969
0.066406250000, -0.926513671875, 0.414794921875, 0.632812500000, -12.734375000000, 5.234375000000, 1491365969
0.078369140625, -0.809082031250, 0.444824218750, -11.414062500000, -13.687500000000, 8.632812500000, 1491365969
0.078369140625, -0.809082031250, 0.444824218750, -11.414062500000, -13.687500000000, 8.632812500000, 1491365969
0.000732421875, -0.905273437500, 0.347167968750, -48.351562500000, 25.734375000000, 12.140625000000, 1491365969
-0.074218750000, -0.954101562500, 0.374755859375, -29.421875000000, 28.132812500000, 2.984375000000, 1491365969
-0.074218750000, -0.954101562500, 0.374755859375, -29.421875000000, 28.132812500000, 2.984375000000, 1491365969
-0.193847656250, -0.854980468750, 0.354492187500, -22.484375000000, 16.500000000000, -13.835937500000, 1491365969
-0.193847656250, -0.854980468750, 0.354492187500, -22.484375000000, 16.500000000000, -13.835937500000, 1491365969
-0.193847656250, -0.854980468750, 0.354492187500, -22.484375000000, 16.500000000000, -13.835937500000, 1491365969
-0.193847656250, -0.854980468750, 0.354492187500, -22.484375000000, 16.500000000000, -13.835937500000, 1491365969
-0.193847656250, -0.854980468750, 0.354492187500, -22.484375000000, 16.500000000000, -13.835937500000, 1491365969
-0.193847656250, -0.854980468750, 0.354492187500, -22.484375000000, 16.500000000000, -13.835937500000, 1491365969
-0.193847656250, -0.854980468750, 0.354492187500, -22.484375000000, 16.500000000000, -13.835937500000, 1491365969
-0.193847656250, -0.854980468750, 0.354492187500, -22.484375000000, 16.500000000000, -13.835937500000, 1491365969
0.065673828125, -0.812500000000, 0.411865234375, 4.914062500000, 15.992187500000, -11.203125000000, 1491365969
0.065673828125, -0.812500000000, 0.411865234375, 4.914062500000, 15.992187500000, -11.203125000000, 1491365969
0.065673828125, -0.812500000000, 0.411865234375, 4.914062500000, 15.992187500000, -11.203125000000, 1491365969
0.065673828125, -0.812500000000, 0.411865234375, 4.914062500000, 15.992187500000, -11.203125000000, 1491365969
0.065673828125, -0.812500000000, 0.411865234375, 4.914062500000, 15.992187500000, -11.203125000000, 1491365969
-0.021728515625, -1.004638671875, 0.395263671875, 9.367187500000, 9.601562500000, -16.164062500000, 1491365969
-0.021728515625, -1.004638671875, 0.395263671875, 9.367187500000, 9.601562500000, -16.164062500000, 1491365969
-0.021728515625, -1.004638671875, 0.395263671875, 9.367187500000, 9.601562500000, -16.164062500000, 1491365969
-0.023925781250, -0.938964843750, 0.531250000000, 13.484375000000, 1.390625000000, -17.718750000000, 1491365969
0.012207031250, -0.909179687500, 0.371093750000, 14.453125000000, -17.617187500000, -5.875000000000, 1491365969
-0.017333984375, -1.067138671875, 0.426757812500, 15.281250000000, -16.804687500000, -3.484375000000, 1491365969
-0.017333984375, -1.067138671875, 0.426757812500, 15.281250000000, -16.804687500000, -3.484375000000, 1491365969
-0.017333984375, -1.067138671875, 0.426757812500, 15.281250000000, -16.804687500000, -3.484375000000, 1491365969
0.080566406250, -0.887451171875, 0.451904296875, 21.773437500000, -12.875000000000, -4.703125000000, 1491365969
-0.025634765625, -0.928222656250, 0.399902343750, 21.148437500000, -9.460937500000, -4.515625000000, 1491365969
-0.025634765625, -0.928222656250, 0.399902343750, 21.148437500000, -9.460937500000, -4.515625000000, 1491365969
-0.025634765625, -0.928222656250, 0.399902343750, 21.148437500000, -9.460937500000, -4.515625000000, 1491365969
-0.025634765625, -0.928222656250, 0.399902343750, 21.148437500000, -9.460937500000, -4.515625000000, 1491365969
-0.025634765625, -0.928222656250, 0.399902343750, 21.148437500000, -9.460937500000, -4.515625000000, 1491365970
-0.025634765625, -0.928222656250, 0.399902343750, 21.148437500000, -9.460937500000, -4.515625000000, 1491365970
-0.072265625000, -1.011230468750, 0.414550781250, 21.203125000000, -9.734375000000, -3.875000000000, 1491365970
-0.072265625000, -1.011230468750, 0.414550781250, 21.203125000000, -9.734375000000, -3.875000000000, 1491365970
-0.072265625000, -1.011230468750, 0.414550781250, 21.203125000000, -9.734375000000, -3.875000000000, 1491365970
0.057128906250, -1.031250000000, 0.456787109375, 13.234375000000, -6.656250000000, -1.234375000000, 1491365970
0.057128906250, -1.031250000000, 0.456787109375, 13.234375000000, -6.656250000000, -1.234375000000, 1491365970
0.057128906250, -1.031250000000, 0.456787109375, 13.234375000000, -6.656250000000, -1.234375000000, 1491365970
0.065917968750, -0.872802734375, 0.425537109375, -4.421875000000, 9.765625000000, 12.445312500000, 1491365970
0.065917968750, -0.872802734375, 0.425537109375, -4.421875000000, 9.765625000000, 12.445312500000, 1491365970
0.065917968750, -0.872802734375, 0.425537109375, -4.421875000000, 9.765625000000, 12.445312500000, 1491365970
0.068847656250, -0.911132812500, 0.410644531250, -40.531250000000, 0.054687500000, 13.679687500000, 1491365970
0.068847656250, -0.911132812500, 0.410644531250, -40.531250000000, 0.054687500000, 13.679687500000, 1491365970
0.068847656250, -0.911132812500, 0.410644531250, -40.531250000000, 0.054687500000, 13.679687500000, 1491365970
0.068847656250, -0.911132812500, 0.410644531250, -40.531250000000, 0.054687500000, 13.679687500000, 1491365970
-0.137451171875, -0.871337890625, 0.367675781250, -39.914062500000, -14.593750000000, 1.406250000000, 1491365970
-0.137451171875, -0.871337890625, 0.367675781250, -39.914062500000, -14.593750000000, 1.406250000000, 1491365970
-0.137451171875, -0.871337890625, 0.367675781250, -39.914062500000, -14.593750000000, 1.406250000000, 1491365970
-0.135742187500, -0.803955078125, 0.346435546875, -37.953125000000, -0.460937500000, -3.453125000000, 1491365970
-0.135742187500, -0.803955078125, 0.346435546875, -37.953125000000, -0.460937500000, -3.453125000000, 1491365970
-0.135742187500, -0.803955078125, 0.346435546875, -37.953125000000, -0.460937500000, -3.453125000000, 1491365970
-0.071533203125, -0.919921875000, 0.373291015625, -28.414062500000, 31.804687500000, 0.132812500000, 1491365970
-0.071533203125, -0.919921875000, 0.373291015625, -28.414062500000, 31.804687500000, 0.132812500000, 1491365970
-0.071533203125, -0.919921875000, 0.373291015625, -28.414062500000, 31.804687500000, 0.132812500000, 1491365970
0.054931640625, -0.864990234375, 0.344970703125, -14.148437500000, 33.601562500000, 4.234375000000, 1491365970
0.054931640625, -0.864990234375, 0.344970703125, -14.148437500000, 33.601562500000, 4.234375000000, 1491365970
0.054931640625, -0.864990234375, 0.344970703125, -14.148437500000, 33.601562500000, 4.234375000000, 1491365970
0.054931640625, -0.864990234375, 0.344970703125, -14.148437500000, 33.601562500000, 4.234375000000, 1491365970
0.145996093750, -0.865722656250, 0.463867187500, -3.062500000000, 0.281250000000, -9.000000000000, 1491365970
0.145996093750, -0.865722656250, 0.463867187500, -3.062500000000, 0.281250000000, -9.000000000000, 1491365970
0.145996093750, -0.865722656250, 0.463867187500, -3.062500000000, 0.281250000000, -9.000000000000, 1491365970
0.052490234375, -0.858886718750, 0.438232421875, 3.898437500000, -28.015625000000, -9.390625000000, 1491365970
0.052490234375, -0.858886718750, 0.438232421875, 3.898437500000, -28.015625000000, -9.390625000000, 1491365970
0.052490234375, -0.858886718750, 0.438232421875, 3.898437500000, -28.015625000000, -9.390625000000, 1491365970
-0.084228515625, -0.864501953125, 0.363037109375, 13.664062500000, -21.656250000000, -5.546875000000, 1491365970
-0.084228515625, -0.864501953125, 0.363037109375, 13.664062500000, -21.656250000000, -5.546875000000, 1491365970
-0.084228515625, -0.864501953125, 0.363037109375, 13.664062500000, -21.656250000000, -5.546875000000, 1491365970
-0.147705078125, -0.872070312500, 0.459228515625, 23.820312500000, -2.921875000000, -0.765625000000, 1491365970
-0.147705078125, -0.872070312500, 0.459228515625, 23.820312500000, -2.921875000000, -0.765625000000, 1491365970
-0.147705078125, -0.872070312500, 0.459228515625, 23.820312500000, -2.921875000000, -0.765625000000, 1491365970
-0.147705078125, -0.872070312500, 0.459228515625, 23.820312500000, -2.921875000000, -0.765625000000, 1491365970
0.058349609375, -0.933349609375, 0.411132812500, 26.648437500000, 0.984375000000, -1.593750000000, 1491365970
0.058349609375, -0.933349609375, 0.411132812500, 26.648437500000, 0.984375000000, -1.593750000000, 1491365970
0.058349609375, -0.933349609375, 0.411132812500, 26.648437500000, 0.984375000000, -1.593750000000, 1491365970
0.045166015625, -0.923339843750, 0.362792968750, 18.781250000000, -5.500000000000, -8.085937500000, 1491365970
0.045166015625, -0.923339843750, 0.362792968750, 18.781250000000, -5.500000000000, -8.085937500000, 1491365970
0.045166015625, -0.923339843750, 0.362792968750, 18.781250000000, -5.500000000000, -8.085937500000, 1491365970
0.079833984375, -0.854003906250, 0.360351562500, 6.882812500000, -8.625000000000, -8.039062500000, 1491365970
0.079833984375, -0.854003906250, 0.360351562500, 6.882812500000, -8.625000000000, -8.039062500000, 1491365970
0.079833984375, -0.854003906250, 0.360351562500, 6.882812500000, -8.625000000000, -8.039062500000, 1491365970
0.068603515625, -0.934570312500, 0.406494140625, -14.453125000000, -3.351562500000, -2.312500000000, 1491365970
0.068603515625, -0.934570312500, 0.406494140625, -14.453125000000, -3.351562500000, -2.312500000000, 1491365970
0.068603515625, -0.934570312500, 0.406494140625, -14.453125000000, -3.351562500000, -2.312500000000, 1491365970
0.068603515625, -0.934570312500, 0.406494140625, -14.453125000000, -3.351562500000, -2.312500000000, 1491365970
0.086669921875, -0.947021484375, 0.413330078125, -19.789062500000, 2.937500000000, -5.320312500000, 1491365970
0.086669921875, -0.947021484375, 0.413330078125, -19.789062500000, 2.937500000000, -5.320312500000, 1491365970
0.086669921875, -0.947021484375, 0.413330078125, -19.789062500000, 2.937500000000, -5.320312500000, 1491365970
-0.025390625000, -0.809814453125, 0.456054687500, -27.015625000000, 15.414062500000, -2.570312500000, 1491365970
-0.025390625000, -0.809814453125, 0.456054687500, -27.015625000000, 15.414062500000, -2.570312500000, 1491365970
-0.025390625000, -0.809814453125, 0.456054687500, -27.015625000000, 15.414062500000, -2.570312500000, 1491365970
0.024414062500, -0.949462890625, 0.458251953125, -26.515625000000, 21.664062500000, -0.406250000000, 1491365970
0.024414062500, -0.949462890625, 0.458251953125, -26.515625000000, 21.664062500000, -0.406250000000, 1491365970
0.024414062500, -0.949462890625, 0.458251953125, -26.515625000000, 21.664062500000, -0.406250000000, 1491365970
0.062988281250, -0.859619140625, 0.374755859375, -26.367187500000, 16.445312500000, -2.070312500000, 1491365970
0.062988281250, -0.859619140625, 0.374755859375, -26.367187500000, 16.445312500000, -2.070312500000, 1491365970
0.062988281250, -0.859619140625, 0.374755859375, -26.367187500000, 16.445312500000, -2.070312500000, 1491365970
0.016845703125, -0.918701171875, 0.426513671875, -16.601562500000, -3.726562500000, -6.750000000000, 1491365971
0.016845703125, -0.918701171875, 0.426513671875, -16.601562500000, -3.726562500000, -6.750000000000, 1491365971
0.016845703125, -0.918701171875, 0.426513671875, -16.601562500000, -3.726562500000, -6.750000000000, 1491365971
0.016845703125, -0.918701171875, 0.426513671875, -16.601562500000, -3.726562500000, -6.750000000000, 1491365971
0.073242187500, -0.933837890625, 0.393066406250, -8.242187500000, -8.843750000000, -8.007812500000, 1491365971
0.073242187500, -0.933837890625, 0.393066406250, -8.242187500000, -8.843750000000, -8.007812500000, 1491365971
0.073242187500, -0.933837890625, 0.393066406250, -8.242187500000, -8.843750000000, -8.007812500000, 1491365971
0.127441406250, -0.869628906250, 0.410156250000, 6.687500000000, -1.859375000000, -5.312500000000, 1491365971
0.127441406250, -0.869628906250, 0.410156250000, 6.687500000000, -1.859375000000, -5.312500000000, 1491365971
0.127441406250, -0.869628906250, 0.410156250000, 6.687500000000, -1.859375000000, -5.312500000000, 1491365971
0.093505859375, -0.957763671875, 0.407226562500, 13.000000000000, 0.304687500000, -8.242187500000, 1491365971
0.093505859375, -0.957763671875, 0.407226562500, 13.000000000000, 0.304687500000, -8.242187500000, 1491365971
0.093505859375, -0.957763671875, 0.407226562500, 13.000000000000, 0.304687500000, -8.242187500000, 1491365971
0.093505859375, -0.957763671875, 0.407226562500, 13.000000000000, 0.304687500000, -8.242187500000, 1491365971
-0.022216796875, -1.025878906250, 0.422607421875, 16.164062500000, -7.335937500000, -7.445312500000, 1491365971
-0.022216796875, -1.025878906250, 0.422607421875, 16.164062500000, -7.335937500000, -7.445312500000, 1491365971
-0.022216796875, -1.025878906250, 0.422607421875, 16.164062500000, -7.335937500000, -7.445312500000, 1491365971
0.067138671875, -0.873779296875, 0.525634765625, 14.656250000000, -10.882812500000, -9.398437500000, 1491365971
0.067138671875, -0.873779296875, 0.525634765625, 14.656250000000, -10.882812500000, -9.398437500000, 1491365971
0.067138671875, -0.873779296875, 0.525634765625, 14.656250000000, -10.882812500000, -9.398437500000, 1491365971
-0.075927734375, -0.860107421875, 0.508789062500, 8.296875000000, -8.554687500000, -6.265625000000, 1491365971
-0.075927734375, -0.860107421875, 0.508789062500, 8.296875000000, -8.554687500000, -6.265625000000, 1491365971
-0.075927734375, -0.860107421875, 0.508789062500, 8.296875000000, -8.554687500000, -6.265625000000, 1491365971
0.003662109375, -0.892089843750, 0.458251953125, -4.757812500000, -4.031250000000, -4.109375000000, 1491365971
0.003662109375, -0.892089843750, 0.458251953125, -4.757812500000, -4.031250000000, -4.109375000000, 1491365971
0.003662109375, -0.892089843750, 0.458251953125, -4.757812500000, -4.031250000000, -4.109375000000, 1491365971
0.003662109375, -0.892089843750, 0.458251953125, -4.757812500000, -4.031250000000, -4.109375000000, 1491365971
-0.008300781250, -0.857421875000, 0.513427734375, -6.671875000000, 0.031250000000, -1.906250000000, 1491365971
-0.020263671875, -1.001220703125, 0.428222656250, -16.773437500000, 3.851562500000, -1.585937500000, 1491365971
-0.020263671875, -1.001220703125, 0.428222656250, -16.773437500000, 3.851562500000, -1.585937500000, 1491365971
-0.020263671875, -1.001220703125, 0.428222656250, -16.773437500000, 3.851562500000, -1.585937500000, 1491365971
-0.020263671875, -1.001220703125, 0.428222656250, -16.773437500000, 3.851562500000, -1.585937500000, 1491365971
-0.020263671875, -1.001220703125, 0.428222656250, -16.773437500000, 3.851562500000, -1.585937500000, 1491365971
0.023193359375, -0.945312500000, 0.451904296875, -20.289062500000, 10.890625000000, -1.937500000000, 1491365971
0.023193359375, -0.945312500000, 0.451904296875, -20.289062500000, 10.890625000000, -1.937500000000, 1491365971
0.023193359375, -0.945312500000, 0.451904296875, -20.289062500000, 10.890625000000, -1.937500000000, 1491365971
0.091796875000, -0.907470703125, 0.459472656250, -20.796875000000, 8.671875000000, -4.242187500000, 1491365971
0.091796875000, -0.907470703125, 0.459472656250, -20.796875000000, 8.671875000000, -4.242187500000, 1491365971
0.091796875000, -0.907470703125, 0.459472656250, -20.796875000000, 8.671875000000, -4.242187500000, 1491365971
0.091796875000, -0.907470703125, 0.459472656250, -20.796875000000, 8.671875000000, -4.242187500000, 1491365971
-0.020019531250, -0.857421875000, 0.372314453125, -16.601562500000, 3.242187500000, -4.664062500000, 1491365971
-0.020019531250, -0.857421875000, 0.372314453125, -16.601562500000, 3.242187500000, -4.664062500000, 1491365971
-0.020019531250, -0.857421875000, 0.372314453125, -16.601562500000, 3.242187500000, -4.664062500000, 1491365971
0.088134765625, -0.941894531250, 0.447753906250, -10.226562500000, -0.070312500000, -4.789062500000, 1491365971
0.088134765625, -0.941894531250, 0.447753906250, -10.226562500000, -0.070312500000, -4.789062500000, 1491365971
0.088134765625, -0.941894531250, 0.447753906250, -10.226562500000, -0.070312500000, -4.789062500000, 1491365971
-0.066406250000, -0.865722656250, 0.509765625000, -3.671875000000, 0.375000000000, -6.109375000000, 1491365971
-0.066406250000, -0.865722656250, 0.509765625000, -3.671875000000, 0.375000000000, -6.109375000000, 1491365971
-0.066406250000, -0.865722656250, 0.509765625000, -3.671875000000, 0.375000000000, -6.109375000000, 1491365971
0.125732421875, -0.801757812500, 0.451171875000, 8.117187500000, -1.484375000000, -3.750000000000, 1491365971
0.125732421875, -0.801757812500, 0.451171875000, 8.117187500000, -1.484375000000, -3.750000000000, 1491365971
0.125732421875, -0.801757812500, 0.451171875000, 8.117187500000, -1.484375000000, -3.750000000000, 1491365971
0.125732421875, -0.801757812500, 0.451171875000, 8.117187500000, -1.484375000000, -3.750000000000, 1491365971
0.068847656250, -0.809570312500, 0.447509765625, 8.562500000000, -3.796875000000, -4.875000000000, 1491365971
0.068847656250, -0.809570312500, 0.447509765625, 8.562500000000, -3.796875000000, -4.875000000000, 1491365971
0.068847656250, -0.809570312500, 0.447509765625, 8.562500000000, -3.796875000000, -4.875000000000, 1491365971
-0.024169921875, -0.949218750000, 0.442138671875, 12.210937500000, -7.515625000000, -3.265625000000, 1491365971
-0.024169921875, -0.949218750000, 0.442138671875, 12.210937500000, -7.515625000000, -3.265625000000, 1491365971
-0.024169921875, -0.949218750000, 0.442138671875, 12.210937500000, -7.515625000000, -3.265625000000, 1491365971
0.024658203125, -0.864013671875, 0.428466796875, 7.304687500000, -6.921875000000, -3.578125000000, 1491365971
0.024658203125, -0.864013671875, 0.428466796875, 7.304687500000, -6.921875000000, -3.578125000000, 1491365971
-0.005126953125, -0.897949218750, 0.500732421875, 2.359375000000, -1.273437500000, -3.976562500000, 1491365971
-0.005126953125, -0.897949218750, 0.500732421875, 2.359375000000, -1.273437500000, -3.976562500000, 1491365971
-0.005126953125, -0.897949218750, 0.500732421875, 2.359375000000, -1.273437500000, -3.976562500000, 1491365971
-0.005126953125, -0.897949218750, 0.500732421875, 2.359375000000, -1.273437500000, -3.976562500000, 1491365971
-0.005126953125, -0.897949218750, 0.500732421875, 2.359375000000, -1.273437500000, -3.976562500000, 1491365971
-0.024169921875, -0.857177734375, 0.458984375000, -5.039062500000, 0.585937500000, -3.281250000000, 1491365971
-0.024169921875, -0.857177734375, 0.458984375000, -5.039062500000, 0.585937500000, -3.281250000000, 1491365971
-0.024169921875, -0.857177734375, 0.458984375000, -5.039062500000, 0.585937500000, -3.281250000000, 1491365971
-0.018310546875, -0.894775390625, 0.459960937500, -7.890625000000, 6.101562500000, -3.320312500000, 1491365972
-0.018310546875, -0.894775390625, 0.459960937500, -7.890625000000, 6.101562500000, -3.320312500000, 1491365972
-0.018310546875, -0.894775390625, 0.459960937500, -7.890625000000, 6.101562500000, -3.320312500000, 1491365972
-0.011230468750, -0.920898437500, 0.440429687500, -13.867187500000, 8.468750000000, -2.085937500000, 1491365972
-0.011230468750, -0.920898437500, 0.440429687500, -13.867187500000, 8.468750000000, -2.085937500000, 1491365972
-0.011230468750, -0.920898437500, 0.440429687500, -13.867187500000, 8.468750000000, -2.085937500000, 1491365972
0.033203125000, -0.979248046875, 0.419677734375, -13.359375000000, 6.718750000000, -1.632812500000, 1491365972
0.033203125000, -0.979248046875, 0.419677734375, -13.359375000000, 6.718750000000, -1.632812500000, 1491365972
0.033203125000, -0.979248046875, 0.419677734375, -13.359375000000, 6.718750000000, -1.632812500000, 1491365972
0.033203125000, -0.979248046875, 0.419677734375, -13.359375000000, 6.718750000000, -1.632812500000, 1491365972
-0.070068359375, -0.907958984375, 0.351562500000, -11.882812500000, 1.195312500000, -4.453125000000, 1491365972
-0.070068359375, -0.907958984375, 0.351562500000, -11.882812500000, 1.195312500000, -4.453125000000, 1491365972
-0.070068359375, -0.907958984375, 0.351562500000, -11.882812500000, 1.195312500000, -4.453125000000, 1491365972
-0.083496093750, -0.913330078125, 0.427490234375, -9.585937500000, -0.453125000000, -1.976562500000, 1491365972
-0.083496093750, -0.913330078125, 0.427490234375, -9.585937500000, -0.453125000000, -1.976562500000, 1491365972
-0.083496093750, -0.913330078125, 0.427490234375, -9.585937500000, -0.453125000000, -1.976562500000, 1491365972
-0.000244140625, -0.868652343750, 0.428955078125, -4.742187500000, 1.265625000000, -6.039062500000, 1491365972
-0.000244140625, -0.868652343750, 0.428955078125, -4.742187500000, 1.265625000000, -6.039062500000, 1491365972
-0.000244140625, -0.868652343750, 0.428955078125, -4.742187500000, 1.265625000000, -6.039062500000, 1491365972
0.022949218750, -0.908691406250, 0.466308593750, 4.179687500000, 0.992187500000, -4.937500000000, 1491365972
0.022949218750, -0.908691406250, 0.466308593750, 4.179687500000, 0.992187500000, -4.937500000000, 1491365972
0.022949218750, -0.908691406250, 0.466308593750, 4.179687500000, 0.992187500000, -4.937500000000, 1491365972
0.022949218750, -0.908691406250, 0.466308593750, 4.179687500000, 0.992187500000, -4.937500000000, 1491365972
-0.016357421875, -0.861083984375, 0.463378906250, 3.648437500000, -1.382812500000, -8.054687500000, 1491365972
-0.016357421875, -0.861083984375, 0.463378906250, 3.648437500000, -1.382812500000, -8.054687500000, 1491365972
-0.016357421875, -0.861083984375, 0.463378906250, 3.648437500000, -1.382812500000, -8.054687500000, 1491365972
0.073974609375, -0.981689453125, 0.418457031250, 4.203125000000, -5.203125000000, -5.312500000000, 1491365972
0.073974609375, -0.981689453125, 0.418457031250, 4.203125000000, -5.203125000000, -5.312500000000, 1491365972
0.073974609375, -0.981689453125, 0.418457031250, 4.203125000000, -5.203125000000, -5.312500000000, 1491365972
0.014404296875, -0.944824218750, 0.421386718750, 3.906250000000, -5.929687500000, -6.609375000000, 1491365972
-0.029052734375, -0.962890625000, 0.450195312500, 0.546875000000, -2.820312500000, -3.343750000000, 1491365972
-0.029052734375, -0.962890625000, 0.450195312500, 0.546875000000, -2.820312500000, -3.343750000000, 1491365972
-0.029052734375, -0.962890625000, 0.450195312500, 0.546875000000, -2.820312500000, -3.343750000000, 1491365972
-0.029052734375, -0.962890625000, 0.450195312500, 0.546875000000, -2.820312500000, -3.343750000000, 1491365972
-0.029052734375, -0.962890625000, 0.450195312500, 0.546875000000, -2.820312500000, -3.343750000000, 1491365972
-0.029052734375, -0.962890625000, 0.450195312500, 0.546875000000, -2.820312500000, -3.343750000000, 1491365972
-0.018798828125, -0.918457031250, 0.433349609375, -4.851562500000, -0.359375000000, -3.140625000000, 1491365972
-0.018798828125, -0.918457031250, 0.433349609375, -4.851562500000, -0.359375000000, -3.140625000000, 1491365972
0.015625000000, -0.848876953125, 0.506103515625, -8.148437500000, 2.710937500000, -4.382812500000, 1491365972
-0.006347656250, -0.811523437500, 0.441894531250, -5.406250000000, -0.375000000000, -3.656250000000, 1491365972
0.022460937500, -0.885986328125, 0.516357421875, -10.757812500000, 3.781250000000, -4.984375000000, 1491365972
0.022460937500, -0.885986328125, 0.516357421875, -10.757812500000, 3.781250000000, -4.984375000000, 1491365972
0.022460937500, -0.885986328125, 0.516357421875, -10.757812500000, 3.781250000000, -4.984375000000, 1491365972
0.022460937500, -0.885986328125, 0.516357421875, -10.757812500000, 3.781250000000, -4.984375000000, 1491365972
0.022460937500, -0.885986328125, 0.516357421875, -10.757812500000, 3.781250000000, -4.984375000000, 1491365972
0.032226562500, -0.943115234375, 0.416259765625, -10.648437500000, 5.742187500000, -1.273437500000, 1491365972
0.032226562500, -0.943115234375, 0.416259765625, -10.648437500000, 5.742187500000, -1.273437500000, 1491365972
0.032226562500, -0.943115234375, 0.416259765625, -10.648437500000, 5.742187500000, -1.273437500000, 1491365972
0.032226562500, -0.943115234375, 0.416259765625, -10.648437500000, 5.742187500000, -1.273437500000, 1491365972
-0.025634765625, -0.917480468750, 0.456787109375, -10.976562500000, 3.085937500000, -3.531250000000, 1491365972
-0.025634765625, -0.917480468750, 0.456787109375, -10.976562500000, 3.085937500000, -3.531250000000, 1491365972
-0.025634765625, -0.917480468750, 0.456787109375, -10.976562500000, 3.085937500000, -3.531250000000, 1491365972
0.073730468750, -0.923339843750, 0.447265625000, -10.460937500000, 0.976562500000, -3.765625000000, 1491365972
0.073730468750, -0.923339843750, 0.447265625000, -10.460937500000, 0.976562500000, -3.765625000000, 1491365972
0.073730468750, -0.923339843750, 0.447265625000, -10.460937500000, 0.976562500000, -3.765625000000, 1491365972
0.024169921875, -0.870117187500, 0.412597656250, -6.187500000000, 4.890625000000, -4.546875000000, 1491365972
0.024169921875, -0.870117187500, 0.412597656250, -6.187500000000, 4.890625000000, -4.546875000000, 1491365972
0.024169921875, -0.870117187500, 0.412597656250, -6.187500000000, 4.890625000000, -4.546875000000, 1491365972
0.064208984375, -0.851562500000, 0.417724609375, -3.046875000000, 3.539062500000, -2.546875000000, 1491365972
0.064208984375, -0.851562500000, 0.417724609375, -3.046875000000, 3.539062500000, -2.546875000000, 1491365972
0.064208984375, -0.851562500000, 0.417724609375, -3.046875000000, 3.539062500000, -2.546875000000, 1491365972
0.064208984375, -0.851562500000, 0.417724609375, -3.046875000000, 3.539062500000, -2.546875000000, 1491365972
-0.067138671875, -0.914306640625, 0.520996093750, -2.539062500000, -2.804687500000, -1.554687500000, 1491365972
-0.067138671875, -0.914306640625, 0.520996093750, -2.539062500000, -2.804687500000, -1.554687500000, 1491365972
-0.067138671875, -0.914306640625, 0.520996093750, -2.539062500000, -2.804687500000, -1.554687500000, 1491365972
0.004882812500, -0.857666015625, 0.413574218750, -1.875000000000, -5.187500000000, -5.914062500000, 1491365973
0.004882812500, -0.857666015625, 0.413574218750, -1.875000000000, -5.187500000000, -5.914062500000, 1491365973
0.004882812500, -0.857666015625, 0.413574218750, -1.875000000000, -5.187500000000, -5.914062500000, 1491365973
0.085693359375, -0.939208984375, 0.424560546875, -6.054687500000, -0.867187500000, -5.398437500000, 1491365973
0.085693359375, -0.939208984375, 0.424560546875, -6.054687500000, -0.867187500000, -5.398437500000, 1491365973
0.085693359375, -0.939208984375, 0.424560546875, -6.054687500000, -0.867187500000, -5.398437500000, 1491365973
0.070800781250, -1.000732421875, 0.525634765625, -10.828125000000, 8.203125000000, -4.757812500000, 1491365973
0.070800781250, -1.000732421875, 0.525634765625, -10.828125000000, 8.203125000000, -4.757812500000, 1491365973
0.070800781250, -1.000732421875, 0.525634765625, -10.828125000000, 8.203125000000, -4.757812500000, 1491365973
0.070800781250, -1.000732421875, 0.525634765625, -10.828125000000, 8.203125000000, -4.757812500000, 1491365973
-0.015869140625, -1.029052734375, 0.364257812500, -24.320312500000, 8.789062500000, -3.187500000000, 1491365973
-0.015869140625, -1.029052734375, 0.364257812500, -24.320312500000, 8.789062500000, -3.187500000000, 1491365973
-0.015869140625, -1.029052734375, 0.364257812500, -24.320312500000, 8.789062500000, -3.187500000000, 1491365973
0.004882812500, -0.908447265625, 0.451416015625, -36.859375000000, 3.429687500000, -12.281250000000, 1491365973
0.004882812500, -0.908447265625, 0.451416015625, -36.859375000000, 3.429687500000, -12.281250000000, 1491365973
0.004882812500, -0.908447265625, 0.451416015625, -36.859375000000, 3.429687500000, -12.281250000000, 1491365973
-0.065673828125, -0.921875000000, 0.385498046875, -47.750000000000, 3.710937500000, -7.773437500000, 1491365973
-0.065673828125, -0.921875000000, 0.385498046875, -47.750000000000, 3.710937500000, -7.773437500000, 1491365973
-0.065673828125, -0.921875000000, 0.385498046875, -47.750000000000, 3.710937500000, -7.773437500000, 1491365973
-0.012207031250, -0.913818359375, 0.418701171875, -49.195312500000, 2.554687500000, -8.359375000000, 1491365973
-0.012207031250, -0.913818359375, 0.418701171875, -49.195312500000, 2.554687500000, -8.359375000000, 1491365973
-0.012207031250, -0.913818359375, 0.418701171875, -49.195312500000, 2.554687500000, -8.359375000000, 1491365973
-0.012207031250, -0.913818359375, 0.418701171875, -49.195312500000, 2.554687500000, -8.359375000000, 1491365973
-0.034179687500, -0.921142578125, 0.456298828125, -44.296875000000, 3.015625000000, -10.882812500000, 1491365973
-0.034179687500, -0.921142578125, 0.456298828125, -44.296875000000, 3.015625000000, -10.882812500000, 1491365973
-0.034179687500, -0.921142578125, 0.456298828125, -44.296875000000, 3.015625000000, -10.882812500000, 1491365973
-0.063720703125, -0.867187500000, 0.357910156250, -37.210937500000, 0.304687500000, -12.851562500000, 1491365973
-0.063720703125, -0.867187500000, 0.357910156250, -37.210937500000, 0.304687500000, -12.851562500000, 1491365973
-0.063720703125, -0.867187500000, 0.357910156250, -37.210937500000, 0.304687500000, -12.851562500000, 1491365973
-0.007080078125, -0.893066406250, 0.346923828125, -30.062500000000, -9.250000000000, -15.367187500000, 1491365973
-0.007080078125, -0.893066406250, 0.346923828125, -30.062500000000, -9.250000000000, -15.367187500000, 1491365973
-0.007080078125, -0.893066406250, 0.346923828125, -30.062500000000, -9.250000000000, -15.367187500000, 1491365973
0.045898437500, -0.890380859375, 0.365966796875, -20.992187500000, -12.406250000000, -13.546875000000, 1491365973
0.045898437500, -0.890380859375, 0.365966796875, -20.992187500000, -12.406250000000, -13.546875000000, 1491365973
0.045898437500, -0.890380859375, 0.365966796875, -20.992187500000, -12.406250000000, -13.546875000000, 1491365973
0.045898437500, -0.890380859375, 0.365966796875, -20.992187500000, -12.406250000000, -13.546875000000, 1491365973
-0.021728515625, -0.888671875000, 0.374755859375, -5.312500000000, -5.359375000000, -13.992187500000, 1491365973
-0.021728515625, -0.888671875000, 0.374755859375, -5.312500000000, -5.359375000000, -13.992187500000, 1491365973
-0.021728515625, -0.888671875000, 0.374755859375, -5.312500000000, -5.359375000000, -13.992187500000, 1491365973
0.017333984375, -0.741210937500, 0.489013671875, -4.195312500000, 16.546875000000, -1.320312500000, 1491365973
0.017333984375, -0.741210937500, 0.489013671875, -4.195312500000, 16.546875000000, -1.320312500000, 1491365973
0.017333984375, -0.741210937500, 0.489013671875, -4.195312500000, 16.546875000000, -1.320312500000, 1491365973
0.008544921875, -0.667480468750, 0.480468750000, -12.593750000000, -10.804687500000, -9.296875000000, 1491365973
0.008544921875, -0.667480468750, 0.480468750000, -12.593750000000, -10.804687500000, -9.296875000000, 1491365973
0.008544921875, -0.667480468750, 0.480468750000, -12.593750000000, -10.804687500000, -9.296875000000, 1491365973
0.025634765625, -0.754394531250, 0.893310546875, -63.523437500000, 144.617187500000, 34.296875000000, 1491365973
0.025634765625, -0.754394531250, 0.893310546875, -63.523437500000, 144.617187500000, 34.296875000000, 1491365973
0.025634765625, -0.754394531250, 0.893310546875, -63.523437500000, 144.617187500000, 34.296875000000, 1491365973
0.025634765625, -0.754394531250, 0.893310546875, -63.523437500000, 144.617187500000, 34.296875000000, 1491365973
-0.034423828125, -0.840087890625, 0.698486328125, -115.476562500000, -16.812500000000, -21.351562500000, 1491365973
-0.034423828125, -0.840087890625, 0.698486328125, -115.476562500000, -16.812500000000, -21.351562500000, 1491365973
-0.034423828125, -0.840087890625, 0.698486328125, -115.476562500000, -16.812500000000, -21.351562500000, 1491365973
-0.042236328125, -0.727783203125, 0.704833984375, -91.609375000000, 8.390625000000, -11.062500000000, 1491365973
-0.042236328125, -0.727783203125, 0.704833984375, -91.609375000000, 8.390625000000, -11.062500000000, 1491365973
-0.042236328125, -0.727783203125, 0.704833984375, -91.609375000000, 8.390625000000, -11.062500000000, 1491365973
-0.108398437500, -0.544433593750, 0.731933593750, -95.351562500000, 49.867187500000, -1.843750000000, 1491365973
-0.108398437500, -0.544433593750, 0.731933593750, -95.351562500000, 49.867187500000, -1.843750000000, 1491365973
-0.108398437500, -0.544433593750, 0.731933593750, -95.351562500000, 49.867187500000, -1.843750000000, 1491365973
-0.153808593750, -0.427490234375, 0.662109375000, -108.671875000000, 31.398437500000, -22.851562500000, 1491365973
-0.153808593750, -0.427490234375, 0.662109375000, -108.671875000000, 31.398437500000, -22.851562500000, 1491365973
-0.153808593750, -0.427490234375, 0.662109375000, -108.671875000000, 31.398437500000, -22.851562500000, 1491365973
-0.153808593750, -0.427490234375, 0.662109375000, -108.671875000000, 31.398437500000, -22.851562500000, 1491365973
-0.087402343750, -0.466308593750, 0.788330078125, -89.460937500000, 22.429687500000, -24.859375000000, 1491365973
-0.087402343750, -0.466308593750, 0.788330078125, -89.460937500000, 22.429687500000, -24.859375000000, 1491365973
-0.262451171875, -0.388671875000, 0.904052734375, -113.781250000000, 6.656250000000, -38.109375000000, 1491365973
-0.262451171875, -0.388671875000, 0.904052734375, -113.781250000000, 6.656250000000, -38.109375000000, 1491365973
-0.262451171875, -0.388671875000, 0.904052734375, -113.781250000000, 6.656250000000, -38.109375000000, 1491365973
-0.262451171875, -0.388671875000, 0.904052734375, -113.781250000000, 6.656250000000, -38.109375000000, 1491365973
-0.245849609375, -0.222900390625, 0.921875000000, -110.015625000000, -4.226562500000, -37.976562500000, 1491365974
-0.245849609375, -0.222900390625, 0.921875000000, -110.015625000000, -4.226562500000, -37.976562500000, 1491365974
-0.245849609375, -0.222900390625, 0.921875000000, -110.015625000000, -4.226562500000, -37.976562500000, 1491365974
-0.313232421875, -0.133056640625, 1.211181640625, -113.554687500000, -4.062500000000, -32.093750000000, 1491365974
-0.313232421875, -0.133056640625, 1.211181640625, -113.554687500000, -4.062500000000, -32.093750000000, 1491365974
-0.313232421875, -0.133056640625, 1.211181640625, -113.554687500000, -4.062500000000, -32.093750000000, 1491365974
-0.313232421875, -0.133056640625, 1.211181640625, -113.554687500000, -4.062500000000, -32.093750000000, 1491365974
-0.262451171875, -0.140625000000, 1.179687500000, -120.523437500000, 8.101562500000, -30.539062500000, 1491365974
-0.262451171875, -0.140625000000, 1.179687500000, -120.523437500000, 8.101562500000, -30.539062500000, 1491365974
-0.262451171875, -0.140625000000, 1.179687500000, -120.523437500000, 8.101562500000, -30.539062500000, 1491365974
-0.354003906250, 0.114746093750, 1.031494140625, -126.437500000000, 9.656250000000, -27.750000000000, 1491365974
-0.354003906250, 0.114746093750, 1.031494140625, -126.437500000000, 9.656250000000, -27.750000000000, 1491365974
-0.354003906250, 0.114746093750, 1.031494140625, -126.437500000000, 9.656250000000, -27.750000000000, 1491365974
-0.382568359375, 0.093505859375, 1.252929687500, -78.523437500000, -24.742187500000, -40.703125000000, 1491365974
-0.382568359375, 0.093505859375, 1.252929687500, -78.523437500000, -24.742187500000, -40.703125000000, 1491365974
-0.382568359375, 0.093505859375, 1.252929687500, -78.523437500000, -24.742187500000, -40.703125000000, 1491365974
-0.270507812500, 0.666015625000, 0.889892578125, -76.656250000000, 44.687500000000, -31.085937500000, 1491365974
-0.270507812500, 0.666015625000, 0.889892578125, -76.656250000000, 44.687500000000, -31.085937500000, 1491365974
-0.270507812500, 0.666015625000, 0.889892578125, -76.656250000000, 44.687500000000, -31.085937500000, 1491365974
-0.270507812500, 0.666015625000, 0.889892578125, -76.656250000000, 44.687500000000, -31.085937500000, 1491365974
0.006835937500, 0.285156250000, 0.721435546875, -147.695312500000, -67.054687500000, -50.234375000000, 1491365974
0.006835937500, 0.285156250000, 0.721435546875, -147.695312500000, -67.054687500000, -50.234375000000, 1491365974
0.006835937500, 0.285156250000, 0.721435546875, -147.695312500000, -67.054687500000, -50.234375000000, 1491365974
-0.269775390625, 0.846923828125, 0.730957031250, 7.265625000000, 35.101562500000, 8.734375000000, 1491365974
-0.269775390625, 0.846923828125, 0.730957031250, 7.265625000000, 35.101562500000, 8.734375000000, 1491365974
-0.269775390625, 0.846923828125, 0.730957031250, 7.265625000000, 35.101562500000, 8.734375000000, 1491365974
-0.282714843750, 0.186035156250, 1.247558593750, -112.906250000000, -42.351562500000, -37.906250000000, 1491365974
-0.282714843750, 0.186035156250, 1.247558593750, -112.906250000000, -42.351562500000, -37.906250000000, 1491365974
-0.282714843750, 0.186035156250, 1.247558593750, -112.906250000000, -42.351562500000, -37.906250000000, 1491365974
-0.030517578125, 0.638671875000, 0.643798828125, -4.507812500000, 55.257812500000, -8.765625000000, 1491365974
-0.030517578125, 0.638671875000, 0.643798828125, -4.507812500000, 55.257812500000, -8.765625000000, 1491365974
-0.030517578125, 0.638671875000, 0.643798828125, -4.507812500000, 55.257812500000, -8.765625000000, 1491365974
-0.030517578125, 0.638671875000, 0.643798828125, -4.507812500000, 55.257812500000, -8.765625000000, 1491365974
-0.197265625000, 0.681396484375, 0.997802734375, -53.804687500000, 18.820312500000, 1.226562500000, 1491365974
-0.197265625000, 0.681396484375, 0.997802734375, -53.804687500000, 18.820312500000, 1.226562500000, 1491365974
-0.197265625000, 0.681396484375, 0.997802734375, -53.804687500000, 18.820312500000, 1.226562500000, 1491365974
-0.119628906250, 0.249023437500, 0.791259765625, -59.679687500000, -15.414062500000, -19.843750000000, 1491365974
-0.119628906250, 0.249023437500, 0.791259765625, -59.679687500000, -15.414062500000, -19.843750000000, 1491365974
-0.119628906250, 0.249023437500, 0.791259765625, -59.679687500000, -15.414062500000, -19.843750000000, 1491365974
-0.201171875000, 0.718750000000, 0.894287109375, 4.804687500000, -13.203125000000, -31.890625000000, 1491365974
-0.201171875000, 0.718750000000, 0.894287109375, 4.804687500000, -13.203125000000, -31.890625000000, 1491365974
-0.201171875000, 0.718750000000, 0.894287109375, 4.804687500000, -13.203125000000, -31.890625000000, 1491365974
-0.189941406250, 0.571289062500, 0.826904296875, 9.914062500000, 4.492187500000, 4.335937500000, 1491365974
-0.189941406250, 0.571289062500, 0.826904296875, 9.914062500000, 4.492187500000, 4.335937500000, 1491365974
-0.189941406250, 0.571289062500, 0.826904296875, 9.914062500000, 4.492187500000, 4.335937500000, 1491365974
-0.189941406250, 0.571289062500, 0.826904296875, 9.914062500000, 4.492187500000, 4.335937500000, 1491365974
-0.086669921875, 0.416503906250, 0.948486328125, 3.453125000000, 0.906250000000, -2.273437500000, 1491365974
-0.086669921875, 0.416503906250, 0.948486328125, 3.453125000000, 0.906250000000, -2.273437500000, 1491365974
-0.086669921875, 0.416503906250, 0.948486328125, 3.453125000000, 0.906250000000, -2.273437500000, 1491365974
-0.253662109375, 0.289062500000, 0.901611328125, -20.429687500000, 13.992187500000, 6.703125000000, 1491365974
-0.253662109375, 0.289062500000, 0.901611328125, -20.429687500000, 13.992187500000, 6.703125000000, 1491365974
-0.253662109375, 0.289062500000, 0.901611328125, -20.429687500000, 13.992187500000, 6.703125000000, 1491365974
-0.180419921875, 0.562744140625, 0.805419921875, -9.335937500000, -5.382812500000, -8.132812500000, 1491365974
-0.180419921875, 0.562744140625, 0.805419921875, -9.335937500000, -5.382812500000, -8.132812500000, 1491365974
-0.180419921875, 0.562744140625, 0.805419921875, -9.335937500000, -5.382812500000, -8.132812500000, 1491365974
-0.166015625000, 0.637207031250, 0.897705078125, -3.343750000000, -2.671875000000, -3.195312500000, 1491365974
-0.166015625000, 0.637207031250, 0.897705078125, -3.343750000000, -2.671875000000, -3.195312500000, 1491365974
-0.166015625000, 0.637207031250, 0.897705078125, -3.343750000000, -2.671875000000, -3.195312500000, 1491365974
-0.166015625000, 0.637207031250, 0.897705078125, -3.343750000000, -2.671875000000, -3.195312500000, 1491365974
-0.181640625000, 0.496337890625, 0.829101562500, -1.648437500000, 0.945312500000, -4.851562500000, 1491365974
-0.181640625000, 0.496337890625, 0.829101562500, -1.648437500000, 0.945312500000, -4.851562500000, 1491365974
-0.181640625000, 0.496337890625, 0.829101562500, -1.648437500000, 0.945312500000, -4.851562500000, 1491365974
-0.181640625000, 0.496337890625, 0.829101562500, -1.648437500000, 0.945312500000, -4.851562500000, 1491365974
-0.181640625000, 0.496337890625, 0.829101562500, -1.648437500000, 0.945312500000, -4.851562500000, 1491365974
-0.181640625000, 0.496337890625, 0.829101562500, -1.648437500000, 0.945312500000, -4.851562500000, 1491365974
-0.212890625000, 0.506347656250, 0.853271484375, -1.476562500000, 0.046875000000, -6.031250000000, 1491365974
-0.096435546875, 0.483886718750, 0.846679687500, -6.687500000000, 2.359375000000, -1.789062500000, 1491365975
-0.096435546875, 0.483886718750, 0.846679687500, -6.687500000000, 2.359375000000, -1.789062500000, 1491365975
-0.096435546875, 0.483886718750, 0.846679687500, -6.687500000000, 2.359375000000, -1.789062500000, 1491365975
-0.096435546875, 0.483886718750, 0.846679687500, -6.687500000000, 2.359375000000, -1.789062500000, 1491365975
-0.096435546875, 0.483886718750, 0.846679687500, -6.687500000000, 2.359375000000, -1.789062500000, 1491365975
-0.096435546875, 0.483886718750, 0.846679687500, -6.687500000000, 2.359375000000, -1.789062500000, 1491365975
-0.255859375000, 0.479736328125, 0.803955078125, 1.039062500000, 8.289062500000, -2.875000000000, 1491365975
-0.255859375000, 0.479736328125, 0.803955078125, 1.039062500000, 8.289062500000, -2.875000000000, 1491365975
-0.255859375000, 0.479736328125, 0.803955078125, 1.039062500000, 8.289062500000, -2.875000000000, 1491365975
-0.166992187500, 0.455810546875, 0.911376953125, -5.531250000000, 0.835937500000, -6.625000000000, 1491365975
-0.166992187500, 0.455810546875, 0.911376953125, -5.531250000000, 0.835937500000, -6.625000000000, 1491365975
-0.166992187500, 0.455810546875, 0.911376953125, -5.531250000000, 0.835937500000, -6.625000000000, 1491365975
-0.221435546875, 0.579101562500, 0.897705078125, -4.195312500000, -2.046875000000, -6.585937500000, 1491365975
-0.221435546875, 0.579101562500, 0.897705078125, -4.195312500000, -2.046875000000, -6.585937500000, 1491365975
-0.221435546875, 0.579101562500, 0.897705078125, -4.195312500000, -2.046875000000, -6.585937500000, 1491365975
-0.210693359375, 0.494873046875, 0.869384765625, -3.843750000000, 2.414062500000, -1.640625000000, 1491365975
-0.210693359375, 0.494873046875, 0.869384765625, -3.843750000000, 2.414062500000, -1.640625000000, 1491365975
-0.210693359375, 0.494873046875, 0.869384765625, -3.843750000000, 2.414062500000, -1.640625000000, 1491365975
-0.210693359375, 0.494873046875, 0.869384765625, -3.843750000000, 2.414062500000, -1.640625000000, 1491365975
-0.108886718750, 0.545898437500, 0.871337890625, -3.851562500000, 0.085937500000, -4.171875000000, 1491365975
-0.108886718750, 0.545898437500, 0.871337890625, -3.851562500000, 0.085937500000, -4.171875000000, 1491365975
-0.108886718750, 0.545898437500, 0.871337890625, -3.851562500000, 0.085937500000, -4.171875000000, 1491365975
-0.188476562500, 0.572021484375, 0.895263671875, -4.851562500000, 1.265625000000, -0.960937500000, 1491365975
-0.188476562500, 0.572021484375, 0.895263671875, -4.851562500000, 1.265625000000, -0.960937500000, 1491365975
-0.188476562500, 0.572021484375, 0.895263671875, -4.851562500000, 1.265625000000, -0.960937500000, 1491365975
-0.156982421875, 0.625732421875, 0.883789062500, -1.875000000000, 0.835937500000, -1.210937500000, 1491365975
-0.156982421875, 0.625732421875, 0.883789062500, -1.875000000000, 0.835937500000, -1.210937500000, 1491365975
-0.156982421875, 0.625732421875, 0.883789062500, -1.875000000000, 0.835937500000, -1.210937500000, 1491365975
-0.206787109375, 0.473632812500, 0.951660156250, -6.312500000000, -0.390625000000, -1.914062500000, 1491365975
-0.206787109375, 0.473632812500, 0.951660156250, -6.312500000000, -0.390625000000, -1.914062500000, 1491365975
-0.206787109375, 0.473632812500, 0.951660156250, -6.312500000000, -0.390625000000, -1.914062500000, 1491365975
-0.139648437500, 0.473632812500, 0.899169921875, -5.453125000000, 0.632812500000, -3.210937500000, 1491365975
-0.165283203125, 0.515625000000, 0.900878906250, -7.335937500000, -1.046875000000, -6.953125000000, 1491365975
-0.165283203125, 0.515625000000, 0.900878906250, -7.335937500000, -1.046875000000, -6.953125000000, 1491365975
-0.165283203125, 0.515625000000, 0.900878906250, -7.335937500000, -1.046875000000, -6.953125000000, 1491365975
-0.253417968750, 0.501708984375, 0.799316406250, -3.429687500000, 6.523437500000, -2.132812500000, 1491365975
-0.253417968750, 0.501708984375, 0.799316406250, -3.429687500000, 6.523437500000, -2.132812500000, 1491365975
-0.253417968750, 0.501708984375, 0.799316406250, -3.429687500000, 6.523437500000, -2.132812500000, 1491365975
-0.194335937500, 0.429443359375, 0.877929687500, -3.398437500000, -8.085937500000, 0.976562500000, 1491365975
-0.194335937500, 0.429443359375, 0.877929687500, -3.398437500000, -8.085937500000, 0.976562500000, 1491365975
-0.194335937500, 0.429443359375, 0.877929687500, -3.398437500000, -8.085937500000, 0.976562500000, 1491365975
-0.214111328125, 0.498779296875, 0.848632812500, -2.585937500000, -0.906250000000, -4.953125000000, 1491365975
-0.214111328125, 0.498779296875, 0.848632812500, -2.585937500000, -0.906250000000, -4.953125000000, 1491365975
-0.214111328125, 0.498779296875, 0.848632812500, -2.585937500000, -0.906250000000, -4.953125000000, 1491365975
-0.214111328125, 0.498779296875, 0.848632812500, -2.585937500000, -0.906250000000, -4.953125000000, 1491365975
-0.213623046875, 0.482910156250, 0.786621093750, -4.382812500000, 0.296875000000, -4.859375000000, 1491365975
-0.213623046875, 0.482910156250, 0.786621093750, -4.382812500000, 0.296875000000, -4.859375000000, 1491365975
-0.213623046875, 0.482910156250, 0.786621093750, -4.382812500000, 0.296875000000, -4.859375000000, 1491365975
-0.232421875000, 0.523925781250, 0.904052734375, -4.882812500000, 0.460937500000, -1.664062500000, 1491365975
-0.232421875000, 0.523925781250, 0.904052734375, -4.882812500000, 0.460937500000, -1.664062500000, 1491365975
-0.232421875000, 0.523925781250, 0.904052734375, -4.882812500000, 0.460937500000, -1.664062500000, 1491365975
-0.198974609375, 0.481933593750, 0.802734375000, -1.976562500000, 0.609375000000, -6.085937500000, 1491365975
-0.198974609375, 0.481933593750, 0.802734375000, -1.976562500000, 0.609375000000, -6.085937500000, 1491365975
-0.140625000000, 0.435302734375, 0.809082031250, -5.750000000000, 0.531250000000, -6.609375000000, 1491365975
-0.140625000000, 0.435302734375, 0.809082031250, -5.750000000000, 0.531250000000, -6.609375000000, 1491365975
-0.140625000000, 0.435302734375, 0.809082031250, -5.750000000000, 0.531250000000, -6.609375000000, 1491365975
-0.140625000000, 0.435302734375, 0.809082031250, -5.750000000000, 0.531250000000, -6.609375000000, 1491365975
-0.140625000000, 0.435302734375, 0.809082031250, -5.750000000000, 0.531250000000, -6.609375000000, 1491365975
-0.269042968750, 0.504150390625, 0.841064453125, -1.625000000000, 2.039062500000, -3.976562500000, 1491365975
-0.269042968750, 0.504150390625, 0.841064453125, -1.625000000000, 2.039062500000, -3.976562500000, 1491365975
-0.269042968750, 0.504150390625, 0.841064453125, -1.625000000000, 2.039062500000, -3.976562500000, 1491365975
-0.193115234375, 0.506103515625, 0.881347656250, -6.445312500000, -1.625000000000, -5.046875000000, 1491365975
-0.193115234375, 0.506103515625, 0.881347656250, -6.445312500000, -1.625000000000, -5.046875000000, 1491365975
-0.193115234375, 0.506103515625, 0.881347656250, -6.445312500000, -1.625000000000, -5.046875000000, 1491365975
-0.109130859375, 0.581542968750, 0.809814453125, -3.328125000000, 2.273437500000, -4.859375000000, 1491365975
-0.109130859375, 0.581542968750, 0.809814453125, -3.328125000000, 2.273437500000, -4.859375000000, 1491365975
-0.109130859375, 0.581542968750, 0.809814453125, -3.328125000000, 2.273437500000, -4.859375000000, 1491365975
-0.154052734375, 0.574218750000, 0.786865234375, -3.640625000000, 2.390625000000, -4.359375000000, 1491365976
-0.154052734375, 0.574218750000, 0.786865234375, -3.640625000000, 2.390625000000, -4.359375000000, 1491365976
-0.154052734375, 0.574218750000, 0.786865234375, -3.640625000000, 2.390625000000, -4.359375000000, 1491365976
-0.154052734375, 0.574218750000, 0.786865234375, -3.640625000000, 2.390625000000, -4.359375000000, 1491365976
-0.118652343750, 0.572753906250, 0.847656250000, -4.210937500000, -0.820312500000, -3.312500000000, 1491365976
-0.118652343750, 0.572753906250, 0.847656250000, -4.210937500000, -0.820312500000, -3.312500000000, 1491365976
-0.118652343750, 0.572753906250, 0.847656250000, -4.210937500000, -0.820312500000, -3.312500000000, 1491365976
-0.187988281250, 0.523437500000, 0.852783203125, -4.867187500000, 2.023437500000, -1.593750000000, 1491365976
-0.187988281250, 0.523437500000, 0.852783203125, -4.867187500000, 2.023437500000, -1.593750000000, 1491365976
-0.187988281250, 0.523437500000, 0.852783203125, -4.867187500000, 2.023437500000, -1.593750000000, 1491365976
-0.161621093750, 0.521728515625, 0.896240234375, -3.101562500000, 2.437500000000, -2.898437500000, 1491365976
-0.161621093750, 0.521728515625, 0.896240234375, -3.101562500000, 2.437500000000, -2.898437500000, 1491365976
-0.161621093750, 0.521728515625, 0.896240234375, -3.101562500000, 2.437500000000, -2.898437500000, 1491365976
-0.190673828125, 0.576171875000, 0.871337890625, -3.882812500000, 0.710937500000, -6.445312500000, 1491365976
-0.190673828125, 0.576171875000, 0.871337890625, -3.882812500000, 0.710937500000, -6.445312500000, 1491365976
-0.190673828125, 0.564208984375, 0.903076171875, -3.007812500000, 0.882812500000, -6.054687500000, 1491365976
-0.190673828125, 0.564208984375, 0.903076171875, -3.007812500000, 0.882812500000, -6.054687500000, 1491365976
-0.190673828125, 0.564208984375, 0.903076171875, -3.007812500000, 0.882812500000, -6.054687500000, 1491365976
-0.190673828125, 0.564208984375, 0.903076171875, -3.007812500000, 0.882812500000, -6.054687500000, 1491365976
-0.190673828125, 0.564208984375, 0.903076171875, -3.007812500000, 0.882812500000, -6.054687500000, 1491365976
-0.118408203125, 0.474365234375, 0.801757812500, -4.703125000000, 2.429687500000, -3.460937500000, 1491365976
-0.118408203125, 0.474365234375, 0.801757812500, -4.703125000000, 2.429687500000, -3.460937500000, 1491365976
-0.118408203125, 0.474365234375, 0.801757812500, -4.703125000000, 2.429687500000, -3.460937500000, 1491365976
-0.213134765625, 0.482177734375, 0.906005859375, -3.312500000000, -0.703125000000, -3.773437500000, 1491365976
-0.213134765625, 0.482177734375, 0.906005859375, -3.312500000000, -0.703125000000, -3.773437500000, 1491365976
-0.213134765625, 0.482177734375, 0.906005859375, -3.312500000000, -0.703125000000, -3.773437500000, 1491365976
-0.115966796875, 0.521484375000, 0.870605468750, -3.703125000000, 0.406250000000, -1.750000000000, 1491365976
-0.115966796875, 0.521484375000, 0.870605468750, -3.703125000000, 0.406250000000, -1.750000000000, 1491365976
-0.115966796875, 0.521484375000, 0.870605468750, -3.703125000000, 0.406250000000, -1.750000000000, 1491365976
-0.115966796875, 0.521484375000, 0.870605468750, -3.703125000000, 0.406250000000, -1.750000000000, 1491365976
-0.203613281250, 0.485595703125, 0.805175781250, -0.914062500000, -2.898437500000, -3.929687500000, 1491365976
-0.159179687500, 0.440917968750, 0.941406250000, -1.328125000000, 4.328125000000, -4.437500000000, 1491365976
-0.159179687500, 0.440917968750, 0.941406250000, -1.328125000000, 4.328125000000, -4.437500000000, 1491365976
-0.193847656250, 0.418212890625, 0.841796875000, 0.085937500000, -1.062500000000, -4.328125000000, 1491365976
-0.193847656250, 0.418212890625, 0.841796875000, 0.085937500000, -1.062500000000, -4.328125000000, 1491365976
-0.193847656250, 0.418212890625, 0.841796875000, 0.085937500000, -1.062500000000, -4.328125000000, 1491365976
-0.151855468750, 0.535400390625, 0.876220703125, -3.921875000000, -1.320312500000, -5.976562500000, 1491365976
-0.151855468750, 0.535400390625, 0.876220703125, -3.921875000000, -1.320312500000, -5.976562500000, 1491365976
-0.151855468750, 0.535400390625, 0.876220703125, -3.921875000000, -1.320312500000, -5.976562500000, 1491365976
-0.122314453125, 0.562744140625, 0.881591796875, -4.406250000000, 0.265625000000, -5.203125000000, 1491365976
-0.122314453125, 0.562744140625, 0.881591796875, -4.406250000000, 0.265625000000, -5.203125000000, 1491365976
-0.122314453125, 0.562744140625, 0.881591796875, -4.406250000000, 0.265625000000, -5.203125000000, 1491365976
-0.122314453125, 0.562744140625, 0.881591796875, -4.406250000000, 0.265625000000, -5.203125000000, 1491365976
-0.123779296875, 0.473632812500, 0.889160156250, -3.078125000000, -0.531250000000, -3.554687500000, 1491365976
-0.123779296875, 0.473632812500, 0.889160156250, -3.078125000000, -0.531250000000, -3.554687500000, 1491365976
-0.123779296875, 0.473632812500, 0.889160156250, -3.078125000000, -0.531250000000, -3.554687500000, 1491365976
-0.208984375000, 0.570068359375, 0.872070312500, -3.335937500000, 2.507812500000, -1.445312500000, 1491365976
-0.208984375000, 0.570068359375, 0.872070312500, -3.335937500000, 2.507812500000, -1.445312500000, 1491365976
-0.208984375000, 0.570068359375, 0.872070312500, -3.335937500000, 2.507812500000, -1.445312500000, 1491365976
-0.166015625000, 0.486328125000, 0.826904296875, -4.570312500000, -0.718750000000, -5.476562500000, 1491365976
-0.206054687500, 0.542968750000, 0.795410156250, -2.804687500000, 0.648437500000, -4.242187500000, 1491365976
-0.206054687500, 0.542968750000, 0.795410156250, -2.804687500000, 0.648437500000, -4.242187500000, 1491365976
-0.206054687500, 0.542968750000, 0.795410156250, -2.804687500000, 0.648437500000, -4.242187500000, 1491365976
-0.206054687500, 0.542968750000, 0.795410156250, -4.515625000000, -0.890625000000, -3.601562500000, 1491365976
-0.205566406250, 0.583496093750, 0.843994140625, -4.820312500000, 0.234375000000, -4.187500000000, 1491365976
-0.205566406250, 0.583496093750, 0.843994140625, -4.820312500000, 0.234375000000, -4.187500000000, 1491365976
-0.205566406250, 0.583496093750, 0.843994140625, -4.820312500000, 0.234375000000, -4.187500000000, 1491365976
-0.205566406250, 0.583496093750, 0.843994140625, -4.820312500000, 0.234375000000, -4.187500000000, 1491365976
-0.205566406250, 0.583496093750, 0.843994140625, -4.820312500000, 0.234375000000, -4.187500000000, 1491365976
-0.174560546875, 0.445312500000, 0.871337890625, -7.000000000000, -0.734375000000, -6.101562500000, 1491365976
-0.174560546875, 0.445312500000, 0.871337890625, -7.000000000000, -0.734375000000, -6.101562500000, 1491365976
-0.174560546875, 0.445312500000, 0.871337890625, -7.000000000000, -0.734375000000, -6.101562500000, 1491365976
-0.165039062500, 0.588378906250, 0.891601562500, -4.906250000000, -2.242187500000, -4.664062500000, 1491365976
-0.165039062500, 0.588378906250, 0.891601562500, -4.906250000000, -2.242187500000, -4.664062500000, 1491365976
-0.165039062500, 0.588378906250, 0.891601562500, -4.906250000000, -2.242187500000, -4.664062500000, 1491365976
-0.170410156250, 0.517578125000, 0.797119140625, -4.640625000000, 0.750000000000, -1.726562500000, 1491365976
-0.170410156250, 0.517578125000, 0.797119140625, -4.640625000000, 0.750000000000, -1.726562500000, 1491365977
-0.170410156250, 0.517578125000, 0.797119140625, -4.640625000000, 0.750000000000, -1.726562500000, 1491365977
-0.170410156250, 0.517578125000, 0.797119140625, -4.640625000000, 0.750000000000, -1.726562500000, 1491365977
-0.200683593750, 0.580078125000, 0.941650390625, -4.351562500000, 0.632812500000, -4.203125000000, 1491365977
-0.200683593750, 0.580078125000, 0.941650390625, -4.351562500000, 0.632812500000, -4.203125000000, 1491365977
-0.200683593750, 0.580078125000, 0.941650390625, -4.351562500000, 0.632812500000, -4.203125000000, 1491365977
-0.137207031250, 0.520263671875, 0.846191406250, -3.195312500000, 0.234375000000, -3.515625000000, 1491365977
-0.137207031250, 0.520263671875, 0.846191406250, -3.195312500000, 0.234375000000, -3.515625000000, 1491365977
-0.137207031250, 0.520263671875, 0.846191406250, -3.195312500000, 0.234375000000, -3.515625000000, 1491365977
-0.106933593750, 0.437011718750, 0.866699218750, -1.960937500000, 0.289062500000, -6.882812500000, 1491365977
-0.106933593750, 0.437011718750, 0.866699218750, -1.960937500000, 0.289062500000, -6.882812500000, 1491365977
-0.173339843750, 0.497558593750, 0.787841796875, -4.273437500000, 0.914062500000, -4.171875000000, 1491365977
-0.173339843750, 0.497558593750, 0.787841796875, -4.273437500000, 0.914062500000, -4.171875000000, 1491365977
-0.173339843750, 0.497558593750, 0.787841796875, -4.273437500000, 0.914062500000, -4.171875000000, 1491365977
-0.173339843750, 0.497558593750, 0.787841796875, -4.273437500000, 0.914062500000, -4.171875000000, 1491365977
-0.173339843750, 0.497558593750, 0.787841796875, -4.273437500000, 0.914062500000, -4.171875000000, 1491365977
-0.214843750000, 0.514160156250, 0.887939453125, -4.828125000000, -0.812500000000, -3.601562500000, 1491365977
-0.214843750000, 0.514160156250, 0.887939453125, -4.828125000000, -0.812500000000, -3.601562500000, 1491365977
-0.214843750000, 0.514160156250, 0.887939453125, -4.828125000000, -0.812500000000, -3.601562500000, 1491365977
-0.101074218750, 0.496337890625, 0.959960937500, -1.718750000000, -0.984375000000, -2.781250000000, 1491365977
-0.101074218750, 0.496337890625, 0.959960937500, -1.718750000000, -0.984375000000, -2.781250000000, 1491365977
-0.101074218750, 0.496337890625, 0.959960937500, -1.718750000000, -0.984375000000, -2.781250000000, 1491365977
-0.197753906250, 0.512451171875, 1.003906250000, -6.593750000000, 0.109375000000, -4.710937500000, 1491365977
-0.197753906250, 0.512451171875, 1.003906250000, -6.593750000000, 0.109375000000, -4.710937500000, 1491365977
-0.197753906250, 0.512451171875, 1.003906250000, -6.593750000000, 0.109375000000, -4.710937500000, 1491365977
-0.119140625000, 0.422851562500, 0.803710937500, -3.640625000000, -2.773437500000, -6.968750000000, 1491365977
-0.119140625000, 0.422851562500, 0.803710937500, -3.640625000000, -2.773437500000, -6.968750000000, 1491365977
-0.119140625000, 0.422851562500, 0.803710937500, -3.640625000000, -2.773437500000, -6.968750000000, 1491365977
-0.119140625000, 0.422851562500, 0.803710937500, -3.640625000000, -2.773437500000, -6.968750000000, 1491365977
-0.254394531250, 0.567626953125, 0.871826171875, -4.851562500000, 3.242187500000, -4.062500000000, 1491365977
-0.254394531250, 0.567626953125, 0.871826171875, -4.851562500000, 3.242187500000, -4.062500000000, 1491365977
-0.254394531250, 0.567626953125, 0.871826171875, -4.851562500000, 3.242187500000, -4.062500000000, 1491365977
-0.198486328125, 0.484375000000, 0.789794921875, -2.898437500000, 0.937500000000, -3.726562500000, 1491365977
-0.198486328125, 0.484375000000, 0.789794921875, -2.898437500000, 0.937500000000, -3.726562500000, 1491365977
-0.198486328125, 0.484375000000, 0.789794921875, -2.898437500000, 0.937500000000, -3.726562500000, 1491365977
-0.168701171875, 0.477539062500, 0.894775390625, -4.679687500000, -1.742187500000, -1.515625000000, 1491365977
-0.168701171875, 0.477539062500, 0.894775390625, -4.679687500000, -1.742187500000, -1.515625000000, 1491365977
-0.168701171875, 0.477539062500, 0.894775390625, -4.679687500000, -1.742187500000, -1.515625000000, 1491365977
-0.196044921875, 0.534667968750, 0.885498046875, -3.492187500000, 2.671875000000, -3.875000000000, 1491365977
-0.196044921875, 0.534667968750, 0.885498046875, -3.492187500000, 2.671875000000, -3.875000000000, 1491365977
-0.196044921875, 0.534667968750, 0.885498046875, -3.492187500000, 2.671875000000, -3.875000000000, 1491365977
-0.196044921875, 0.534667968750, 0.885498046875, -3.492187500000, 2.671875000000, -3.875000000000, 1491365977
-0.159667968750, 0.445556640625, 0.874267578125, -4.804687500000, 0.875000000000, -6.671875000000, 1491365977
-0.159667968750, 0.445556640625, 0.874267578125, -4.804687500000, 0.875000000000, -6.671875000000, 1491365977
-0.159667968750, 0.445556640625, 0.874267578125, -4.804687500000, 0.875000000000, -6.671875000000, 1491365977
-0.251953125000, 0.507324218750, 0.857666015625, -4.507812500000, 2.468750000000, -4.851562500000, 1491365977
-0.251953125000, 0.507324218750, 0.857666015625, -4.507812500000, 2.468750000000, -4.851562500000, 1491365977
-0.251953125000, 0.507324218750, 0.857666015625, -4.507812500000, 2.468750000000, -4.851562500000, 1491365977
-0.274414062500, 0.482666015625, 0.902832031250, -4.492187500000, -0.304687500000, -1.609375000000, 1491365977
-0.274414062500, 0.482666015625, 0.902832031250, -4.492187500000, -0.304687500000, -1.609375000000, 1491365977
-0.274414062500, 0.482666015625, 0.902832031250, -4.492187500000, -0.304687500000, -1.609375000000, 1491365977
