ACC_X,ACC_Y,ACC_Z,G_X,G_Y,G_Z,Unix Time
0.036376953125, -0.919921875000, 0.380615234375, -6.648437500000, -12.125000000000, -9.304687500000, 1491365297
0.036376953125, -0.919921875000, 0.380615234375, -6.648437500000, -12.125000000000, -9.304687500000, 1491365297
0.036376953125, -0.919921875000, 0.380615234375, -6.648437500000, -12.125000000000, -9.304687500000, 1491365297
0.138916015625, -1.028564453125, 0.339843750000, -3.960937500000, 2.742187500000, -10.992187500000, 1491365297
0.138916015625, -1.028564453125, 0.339843750000, -3.960937500000, 2.742187500000, -10.992187500000, 1491365297
0.138916015625, -1.028564453125, 0.339843750000, -3.960937500000, 2.742187500000, -10.992187500000, 1491365297
0.144287109375, -0.946044921875, 0.296142578125, -9.695312500000, -9.734375000000, -7.468750000000, 1491365298
0.144287109375, -0.946044921875, 0.296142578125, -9.695312500000, -9.734375000000, -7.468750000000, 1491365298
0.144287109375, -0.946044921875, 0.296142578125, -9.695312500000, -9.734375000000, -7.468750000000, 1491365298
0.144287109375, -0.946044921875, 0.296142578125, -9.695312500000, -9.734375000000, -7.468750000000, 1491365298
0.197509765625, -0.847656250000, 0.297363281250, 4.328125000000, 16.281250000000, -5.273437500000, 1491365298
0.197509765625, -0.847656250000, 0.297363281250, 4.328125000000, 16.281250000000, -5.273437500000, 1491365298
0.197509765625, -0.847656250000, 0.297363281250, 4.328125000000, 16.281250000000, -5.273437500000, 1491365298
0.185546875000, -0.975341796875, 0.382080078125, -4.562500000000, 12.773437500000, 8.609375000000, 1491365298
0.185546875000, -0.975341796875, 0.382080078125, -4.562500000000, 12.773437500000, 8.609375000000, 1491365298
0.185546875000, -0.975341796875, 0.382080078125, -4.562500000000, 12.773437500000, 8.609375000000, 1491365298
0.267089843750, -0.852539062500, 0.358398437500, 12.968750000000, 12.562500000000, -4.570312500000, 1491365298
0.267089843750, -0.852539062500, 0.358398437500, 12.968750000000, 12.562500000000, -4.570312500000, 1491365298
0.239990234375, -0.907714843750, 0.354492187500, -2.937500000000, 3.710937500000, -7.617187500000, 1491365298
0.239990234375, -0.907714843750, 0.354492187500, -2.937500000000, 3.710937500000, -7.617187500000, 1491365298
0.239990234375, -0.907714843750, 0.354492187500, -2.937500000000, 3.710937500000, -7.617187500000, 1491365298
0.239990234375, -0.907714843750, 0.354492187500, -2.937500000000, 3.710937500000, -7.617187500000, 1491365298
0.239990234375, -0.907714843750, 0.354492187500, -2.937500000000, 3.710937500000, -7.617187500000, 1491365298
0.026855468750, -0.744140625000, 0.286865234375, -9.937500000000, 5.171875000000, -8.468750000000, 1491365298
0.026855468750, -0.744140625000, 0.286865234375, -9.937500000000, 5.171875000000, -8.468750000000, 1491365298
0.026855468750, -0.744140625000, 0.286865234375, -9.937500000000, 5.171875000000, -8.468750000000, 1491365298
-0.061035156250, -0.981201171875, 0.287597656250, -34.593750000000, -16.117187500000, -12.171875000000, 1491365298
-0.061035156250, -0.981201171875, 0.287597656250, -34.593750000000, -16.117187500000, -12.171875000000, 1491365298
-0.061035156250, -0.981201171875, 0.287597656250, -34.593750000000, -16.117187500000, -12.171875000000, 1491365298
-0.207031250000, -0.980224609375, 0.474609375000, 21.757812500000, 14.359375000000, -20.203125000000, 1491365298
-0.207031250000, -0.980224609375, 0.474609375000, 21.757812500000, 14.359375000000, -20.203125000000, 1491365298
-0.207031250000, -0.980224609375, 0.474609375000, 21.757812500000, 14.359375000000, -20.203125000000, 1491365298
0.181396484375, -0.912841796875, 0.487060546875, 18.726562500000, -18.929687500000, -15.109375000000, 1491365298
0.181396484375, -0.912841796875, 0.487060546875, 18.726562500000, -18.929687500000, -15.109375000000, 1491365298
0.181396484375, -0.912841796875, 0.487060546875, 18.726562500000, -18.929687500000, -15.109375000000, 1491365298
0.181396484375, -0.912841796875, 0.487060546875, 18.726562500000, -18.929687500000, -15.109375000000, 1491365298
0.112060546875, -0.901611328125, 0.518310546875, 16.218750000000, 16.289062500000, 5.546875000000, 1491365298
0.112060546875, -0.901611328125, 0.518310546875, 16.218750000000, 16.289062500000, 5.546875000000, 1491365298
0.112060546875, -0.901611328125, 0.518310546875, 16.218750000000, 16.289062500000, 5.546875000000, 1491365298
-0.001464843750, -0.901367187500, 0.453613281250, 7.812500000000, 24.078125000000, 15.898437500000, 1491365298
-0.001464843750, -0.901367187500, 0.453613281250, 7.812500000000, 24.078125000000, 15.898437500000, 1491365298
-0.001464843750, -0.901367187500, 0.453613281250, 7.812500000000, 24.078125000000, 15.898437500000, 1491365298
-0.067626953125, -0.913574218750, 0.508056640625, 3.093750000000, 17.414062500000, 18.335937500000, 1491365298
-0.067626953125, -0.913574218750, 0.508056640625, 3.093750000000, 17.414062500000, 18.335937500000, 1491365298
-0.067626953125, -0.913574218750, 0.508056640625, 3.093750000000, 17.414062500000, 18.335937500000, 1491365298
0.003173828125, -0.936035156250, 0.461669921875, 18.835937500000, 18.835937500000, -4.828125000000, 1491365298
0.003173828125, -0.936035156250, 0.461669921875, 18.835937500000, 18.835937500000, -4.828125000000, 1491365298
0.003173828125, -0.936035156250, 0.461669921875, 18.835937500000, 18.835937500000, -4.828125000000, 1491365298
0.003173828125, -0.936035156250, 0.461669921875, 18.835937500000, 18.835937500000, -4.828125000000, 1491365298
-0.025146484375, -0.897705078125, 0.387939453125, -0.882812500000, 14.476562500000, 9.296875000000, 1491365298
-0.025146484375, -0.897705078125, 0.387939453125, -0.882812500000, 14.476562500000, 9.296875000000, 1491365298
-0.025146484375, -0.897705078125, 0.387939453125, -0.882812500000, 14.476562500000, 9.296875000000, 1491365298
0.021972656250, -0.958251953125, 0.285400390625, -11.109375000000, 18.289062500000, 30.242187500000, 1491365298
0.021972656250, -0.958251953125, 0.285400390625, -11.109375000000, 18.289062500000, 30.242187500000, 1491365298
0.021972656250, -0.958251953125, 0.285400390625, -11.109375000000, 18.289062500000, 30.242187500000, 1491365298
-0.059570312500, -0.992431640625, 0.369384765625, 0.382812500000, 19.148437500000, 25.937500000000, 1491365298
-0.059570312500, -0.992431640625, 0.369384765625, 0.382812500000, 19.148437500000, 25.937500000000, 1491365298
-0.059570312500, -0.992431640625, 0.369384765625, 0.382812500000, 19.148437500000, 25.937500000000, 1491365298
0.165771484375, -1.051025390625, 0.235839843750, -0.093750000000, -7.390625000000, 15.093750000000, 1491365298
0.165771484375, -1.051025390625, 0.235839843750, -0.093750000000, -7.390625000000, 15.093750000000, 1491365298
0.165771484375, -1.051025390625, 0.235839843750, -0.093750000000, -7.390625000000, 15.093750000000, 1491365298
0.165771484375, -1.051025390625, 0.235839843750, -0.093750000000, -7.390625000000, 15.093750000000, 1491365298
0.201416015625, -1.164550781250, 0.326171875000, -18.804687500000, -21.851562500000, 28.742187500000, 1491365298
0.201416015625, -1.164550781250, 0.326171875000, -18.804687500000, -21.851562500000, 28.742187500000, 1491365298
0.201416015625, -1.164550781250, 0.326171875000, -18.804687500000, -21.851562500000, 28.742187500000, 1491365298
0.147216796875, -0.973388671875, 0.379882812500, -12.414062500000, -28.734375000000, 6.781250000000, 1491365298
0.147216796875, -0.973388671875, 0.379882812500, -12.414062500000, -28.734375000000, 6.781250000000, 1491365298
0.147216796875, -0.973388671875, 0.379882812500, -12.414062500000, -28.734375000000, 6.781250000000, 1491365298
0.160156250000, -0.937988281250, 0.340576171875, -11.945312500000, 14.171875000000, 3.070312500000, 1491365298
0.160156250000, -0.937988281250, 0.340576171875, -11.945312500000, 14.171875000000, 3.070312500000, 1491365298
0.160156250000, -0.937988281250, 0.340576171875, -11.945312500000, 14.171875000000, 3.070312500000, 1491365298
0.175048828125, -0.937744140625, 0.124755859375, -12.703125000000, 18.351562500000, -5.851562500000, 1491365298
0.175048828125, -0.937744140625, 0.124755859375, -12.703125000000, 18.351562500000, -5.851562500000, 1491365298
0.175048828125, -0.937744140625, 0.124755859375, -12.703125000000, 18.351562500000, -5.851562500000, 1491365298
0.175048828125, -0.937744140625, 0.124755859375, -12.703125000000, 18.351562500000, -5.851562500000, 1491365299
0.386962890625, -0.869873046875, 0.186767578125, 5.570312500000, 51.273437500000, 20.679687500000, 1491365299
0.386962890625, -0.869873046875, 0.186767578125, 5.570312500000, 51.273437500000, 20.679687500000, 1491365299
0.386962890625, -0.869873046875, 0.186767578125, 5.570312500000, 51.273437500000, 20.679687500000, 1491365299
0.306640625000, -0.875000000000, 0.192138671875, 12.203125000000, 62.328125000000, 7.390625000000, 1491365299
0.306640625000, -0.875000000000, 0.192138671875, 12.203125000000, 62.328125000000, 7.390625000000, 1491365299
0.306640625000, -0.875000000000, 0.192138671875, 12.203125000000, 62.328125000000, 7.390625000000, 1491365299
0.172851562500, -0.968261718750, 0.237060546875, 13.539062500000, -32.492187500000, -4.078125000000, 1491365299
0.172851562500, -0.968261718750, 0.237060546875, 13.539062500000, -32.492187500000, -4.078125000000, 1491365299
0.172851562500, -0.968261718750, 0.237060546875, 13.539062500000, -32.492187500000, -4.078125000000, 1491365299
0.128417968750, -0.803710937500, 0.420410156250, 15.992187500000, -2.859375000000, -31.328125000000, 1491365299
0.128417968750, -0.803710937500, 0.420410156250, 15.992187500000, -2.859375000000, -31.328125000000, 1491365299
0.128417968750, -0.803710937500, 0.420410156250, 15.992187500000, -2.859375000000, -31.328125000000, 1491365299
0.128417968750, -0.803710937500, 0.420410156250, 15.992187500000, -2.859375000000, -31.328125000000, 1491365299
0.180419921875, -0.928466796875, 0.296386718750, -3.203125000000, 23.695312500000, -13.734375000000, 1491365299
0.180419921875, -0.928466796875, 0.296386718750, -3.203125000000, 23.695312500000, -13.734375000000, 1491365299
0.180419921875, -0.928466796875, 0.296386718750, -3.203125000000, 23.695312500000, -13.734375000000, 1491365299
0.165283203125, -0.949218750000, 0.404785156250, -3.679687500000, -0.484375000000, -15.867187500000, 1491365299
0.165283203125, -0.949218750000, 0.404785156250, -3.679687500000, -0.484375000000, -15.867187500000, 1491365299
0.165283203125, -0.949218750000, 0.404785156250, -3.679687500000, -0.484375000000, -15.867187500000, 1491365299
0.185791015625, -0.880126953125, 0.308349609375, -14.335937500000, 17.304687500000, -15.093750000000, 1491365299
0.275634765625, -0.971191406250, 0.369140625000, -19.921875000000, -8.921875000000, -19.140625000000, 1491365299
0.275634765625, -0.971191406250, 0.369140625000, -19.921875000000, -8.921875000000, -19.140625000000, 1491365299
0.275634765625, -0.971191406250, 0.369140625000, -19.921875000000, -8.921875000000, -19.140625000000, 1491365299
0.222900390625, -0.977783203125, 0.362304687500, -18.007812500000, -18.726562500000, -24.234375000000, 1491365299
0.208984375000, -0.955566406250, 0.293701171875, -16.203125000000, -12.210937500000, -21.414062500000, 1491365299
0.208984375000, -0.955566406250, 0.293701171875, -16.203125000000, -12.210937500000, -21.414062500000, 1491365299
0.208984375000, -0.955566406250, 0.293701171875, -16.203125000000, -12.210937500000, -21.414062500000, 1491365299
0.208984375000, -0.955566406250, 0.293701171875, -16.203125000000, -12.210937500000, -21.414062500000, 1491365299
0.208984375000, -0.955566406250, 0.293701171875, -16.203125000000, -12.210937500000, -21.414062500000, 1491365299
0.207275390625, -1.185058593750, 0.422119140625, -46.273437500000, 10.062500000000, -10.539062500000, 1491365299
0.207275390625, -1.185058593750, 0.422119140625, -46.273437500000, 10.062500000000, -10.539062500000, 1491365299
0.207275390625, -1.185058593750, 0.422119140625, -46.273437500000, 10.062500000000, -10.539062500000, 1491365299
0.211425781250, -1.286132812500, 0.448486328125, -25.406250000000, -22.937500000000, -29.390625000000, 1491365299
0.211425781250, -1.286132812500, 0.448486328125, -25.406250000000, -22.937500000000, -29.390625000000, 1491365299
0.211425781250, -1.286132812500, 0.448486328125, -25.406250000000, -22.937500000000, -29.390625000000, 1491365299
0.049560546875, -0.971679687500, 0.317382812500, -13.929687500000, -15.609375000000, -28.578125000000, 1491365299
0.049560546875, -0.971679687500, 0.317382812500, -13.929687500000, -15.609375000000, -28.578125000000, 1491365299
0.049560546875, -0.971679687500, 0.317382812500, -13.929687500000, -15.609375000000, -28.578125000000, 1491365299
0.049560546875, -0.971679687500, 0.317382812500, -13.929687500000, -15.609375000000, -28.578125000000, 1491365299
-0.014160156250, -0.785888671875, 0.159667968750, -15.429687500000, -27.507812500000, -12.328125000000, 1491365299
-0.014160156250, -0.785888671875, 0.159667968750, -15.429687500000, -27.507812500000, -12.328125000000, 1491365299
-0.014160156250, -0.785888671875, 0.159667968750, -15.429687500000, -27.507812500000, -12.328125000000, 1491365299
0.033447265625, -0.885498046875, 0.102783203125, -38.164062500000, -44.304687500000, -5.132812500000, 1491365299
0.033447265625, -0.885498046875, 0.102783203125, -38.164062500000, -44.304687500000, -5.132812500000, 1491365299
0.033447265625, -0.885498046875, 0.102783203125, -38.164062500000, -44.304687500000, -5.132812500000, 1491365299
-0.058349609375, -0.934570312500, 0.376220703125, -16.109375000000, -63.570312500000, 14.687500000000, 1491365299
-0.058349609375, -0.934570312500, 0.376220703125, -16.109375000000, -63.570312500000, 14.687500000000, 1491365299
-0.058349609375, -0.934570312500, 0.376220703125, -16.109375000000, -63.570312500000, 14.687500000000, 1491365299
0.090820312500, -0.911621093750, 0.237548828125, 13.617187500000, -66.359375000000, -15.890625000000, 1491365299
0.090820312500, -0.911621093750, 0.237548828125, 13.617187500000, -66.359375000000, -15.890625000000, 1491365299
0.090820312500, -0.911621093750, 0.237548828125, 13.617187500000, -66.359375000000, -15.890625000000, 1491365299
0.090820312500, -0.911621093750, 0.237548828125, 13.617187500000, -66.359375000000, -15.890625000000, 1491365299
0.096679687500, -0.749511718750, 0.306396484375, 16.867187500000, -32.054687500000, 3.992187500000, 1491365299
0.096679687500, -0.749511718750, 0.306396484375, 16.867187500000, -32.054687500000, 3.992187500000, 1491365299
0.096679687500, -0.749511718750, 0.306396484375, 16.867187500000, -32.054687500000, 3.992187500000, 1491365299
-0.013671875000, -0.880615234375, 0.375732421875, 5.671875000000, -43.796875000000, 8.945312500000, 1491365299
-0.013671875000, -0.880615234375, 0.375732421875, 5.671875000000, -43.796875000000, 8.945312500000, 1491365299
-0.013671875000, -0.880615234375, 0.375732421875, 5.671875000000, -43.796875000000, 8.945312500000, 1491365299
0.072265625000, -0.816650390625, 0.514404296875, -4.429687500000, -40.601562500000, -2.140625000000, 1491365299
0.072265625000, -0.816650390625, 0.514404296875, -4.429687500000, -40.601562500000, -2.140625000000, 1491365299
0.072265625000, -0.816650390625, 0.514404296875, -4.429687500000, -40.601562500000, -2.140625000000, 1491365299
0.116943359375, -0.906738281250, 0.397216796875, -6.718750000000, 15.265625000000, 14.125000000000, 1491365299
0.116943359375, -0.906738281250, 0.397216796875, -6.718750000000, 15.265625000000, 14.125000000000, 1491365299
0.116943359375, -0.906738281250, 0.397216796875, -6.718750000000, 15.265625000000, 14.125000000000, 1491365299
0.116943359375, -0.906738281250, 0.397216796875, -6.718750000000, 15.265625000000, 14.125000000000, 1491365299
-0.075683593750, -1.005371093750, 0.377685546875, -4.187500000000, 17.382812500000, 15.390625000000, 1491365300
-0.075683593750, -1.005371093750, 0.377685546875, -4.187500000000, 17.382812500000, 15.390625000000, 1491365300
-0.075683593750, -1.005371093750, 0.377685546875, -4.187500000000, 17.382812500000, 15.390625000000, 1491365300
0.028320312500, -0.913085937500, 0.296142578125, 0.343750000000, -14.156250000000, 9.945312500000, 1491365300
0.028320312500, -0.913085937500, 0.296142578125, 0.343750000000, -14.156250000000, 9.945312500000, 1491365300
0.028320312500, -0.913085937500, 0.296142578125, 0.343750000000, -14.156250000000, 9.945312500000, 1491365300
0.178710937500, -1.189697265625, 0.539306640625, -4.687500000000, -53.437500000000, -5.195312500000, 1491365300
0.178710937500, -1.189697265625, 0.539306640625, -4.687500000000, -53.437500000000, -5.195312500000, 1491365300
0.178710937500, -1.189697265625, 0.539306640625, -4.687500000000, -53.437500000000, -5.195312500000, 1491365300
0.184570312500, -1.136718750000, 0.457763671875, -5.117187500000, 26.484375000000, 23.054687500000, 1491365300
0.184570312500, -1.136718750000, 0.457763671875, -5.117187500000, 26.484375000000, 23.054687500000, 1491365300
0.184570312500, -1.136718750000, 0.457763671875, -5.117187500000, 26.484375000000, 23.054687500000, 1491365300
0.184570312500, -1.136718750000, 0.457763671875, -5.117187500000, 26.484375000000, 23.054687500000, 1491365300
0.232421875000, -1.027343750000, 0.376464843750, -12.859375000000, 25.218750000000, 28.406250000000, 1491365300
0.232421875000, -1.027343750000, 0.376464843750, -12.859375000000, 25.218750000000, 28.406250000000, 1491365300
0.232421875000, -1.027343750000, 0.376464843750, -12.859375000000, 25.218750000000, 28.406250000000, 1491365300
0.101562500000, -0.913818359375, 0.243652343750, -9.757812500000, 46.914062500000, 20.914062500000, 1491365300
0.101562500000, -0.913818359375, 0.243652343750, -9.757812500000, 46.914062500000, 20.914062500000, 1491365300
0.101562500000, -0.913818359375, 0.243652343750, -9.757812500000, 46.914062500000, 20.914062500000, 1491365300
0.333984375000, -0.741455078125, 0.268554687500, 13.039062500000, 56.023437500000, 4.554687500000, 1491365300
0.333984375000, -0.741455078125, 0.268554687500, 13.039062500000, 56.023437500000, 4.554687500000, 1491365300
0.333984375000, -0.741455078125, 0.268554687500, 13.039062500000, 56.023437500000, 4.554687500000, 1491365300
0.417480468750, -0.805419921875, 0.159423828125, 3.250000000000, 91.601562500000, 20.875000000000, 1491365300
0.417480468750, -0.805419921875, 0.159423828125, 3.250000000000, 91.601562500000, 20.875000000000, 1491365300
0.417480468750, -0.805419921875, 0.159423828125, 3.250000000000, 91.601562500000, 20.875000000000, 1491365300
0.417480468750, -0.805419921875, 0.159423828125, 3.250000000000, 91.601562500000, 20.875000000000, 1491365300
0.308105468750, -1.021240234375, 0.274169921875, 25.164062500000, 22.007812500000, 4.281250000000, 1491365300
0.308105468750, -1.021240234375, 0.274169921875, 25.164062500000, 22.007812500000, 4.281250000000, 1491365300
0.308105468750, -1.021240234375, 0.274169921875, 25.164062500000, 22.007812500000, 4.281250000000, 1491365300
0.111816406250, -1.011474609375, 0.290283203125, 24.382812500000, -38.328125000000, -10.546875000000, 1491365300
0.111816406250, -1.011474609375, 0.290283203125, 24.382812500000, -38.328125000000, -10.546875000000, 1491365300
0.235107421875, -0.875488281250, 0.353759765625, 11.726562500000, -26.234375000000, -35.015625000000, 1491365300
0.235107421875, -0.875488281250, 0.353759765625, 11.726562500000, -26.234375000000, -35.015625000000, 1491365300
0.235107421875, -0.875488281250, 0.353759765625, 11.726562500000, -26.234375000000, -35.015625000000, 1491365300
0.235107421875, -0.875488281250, 0.353759765625, 11.726562500000, -26.234375000000, -35.015625000000, 1491365300
0.235107421875, -0.875488281250, 0.353759765625, 11.726562500000, -26.234375000000, -35.015625000000, 1491365300
0.274169921875, -0.941894531250, 0.373779296875, -20.203125000000, 2.937500000000, -3.382812500000, 1491365300
0.124267578125, -0.947509765625, 0.361083984375, -18.281250000000, -1.882812500000, -9.726562500000, 1491365300
0.124267578125, -0.947509765625, 0.361083984375, -18.281250000000, -1.882812500000, -9.726562500000, 1491365300
0.124267578125, -0.947509765625, 0.361083984375, -18.281250000000, -1.882812500000, -9.726562500000, 1491365300
0.222167968750, -0.953857421875, 0.335205078125, -17.335937500000, 1.085937500000, -11.937500000000, 1491365300
0.222167968750, -0.953857421875, 0.335205078125, -17.335937500000, 1.085937500000, -11.937500000000, 1491365300
0.222167968750, -0.953857421875, 0.335205078125, -17.335937500000, 1.085937500000, -11.937500000000, 1491365300
0.222167968750, -0.953857421875, 0.335205078125, -17.335937500000, 1.085937500000, -11.937500000000, 1491365300
0.222167968750, -0.953857421875, 0.335205078125, -17.335937500000, 1.085937500000, -11.937500000000, 1491365300
0.269775390625, -0.904052734375, 0.398437500000, -10.054687500000, -22.710937500000, -18.328125000000, 1491365300
0.269775390625, -0.904052734375, 0.398437500000, -10.054687500000, -22.710937500000, -18.328125000000, 1491365300
0.269775390625, -0.904052734375, 0.398437500000, -10.054687500000, -22.710937500000, -18.328125000000, 1491365300
0.269775390625, -0.904052734375, 0.398437500000, -10.054687500000, -22.710937500000, -18.328125000000, 1491365300
0.170654296875, -0.924072265625, 0.448730468750, 2.257812500000, -11.343750000000, -20.570312500000, 1491365300
0.170654296875, -0.924072265625, 0.448730468750, 2.257812500000, -11.343750000000, -20.570312500000, 1491365300
0.170654296875, -0.924072265625, 0.448730468750, 2.257812500000, -11.343750000000, -20.570312500000, 1491365300
0.236572265625, -1.036865234375, 0.557128906250, -30.156250000000, 0.875000000000, -25.289062500000, 1491365300
0.236572265625, -1.036865234375, 0.557128906250, -30.156250000000, 0.875000000000, -25.289062500000, 1491365300
0.236572265625, -1.036865234375, 0.557128906250, -30.156250000000, 0.875000000000, -25.289062500000, 1491365300
0.270751953125, -1.032714843750, 0.470458984375, -41.273437500000, 35.406250000000, -11.945312500000, 1491365300
0.270751953125, -1.032714843750, 0.470458984375, -41.273437500000, 35.406250000000, -11.945312500000, 1491365300
0.270751953125, -1.032714843750, 0.470458984375, -41.273437500000, 35.406250000000, -11.945312500000, 1491365300
0.199707031250, -0.990966796875, 0.373046875000, -15.812500000000, -38.062500000000, -31.132812500000, 1491365300
0.199707031250, -0.990966796875, 0.373046875000, -15.812500000000, -38.062500000000, -31.132812500000, 1491365300
0.199707031250, -0.990966796875, 0.373046875000, -15.812500000000, -38.062500000000, -31.132812500000, 1491365300
0.199707031250, -0.990966796875, 0.373046875000, -15.812500000000, -38.062500000000, -31.132812500000, 1491365300
0.119384765625, -0.833740234375, 0.291748046875, -13.218750000000, -28.359375000000, -21.617187500000, 1491365300
0.119384765625, -0.833740234375, 0.291748046875, -13.218750000000, -28.359375000000, -21.617187500000, 1491365300
0.119384765625, -0.833740234375, 0.291748046875, -13.218750000000, -28.359375000000, -21.617187500000, 1491365300
-0.075683593750, -0.748535156250, 0.237304687500, -16.773437500000, 10.523437500000, -2.296875000000, 1491365300
-0.075683593750, -0.748535156250, 0.237304687500, -16.773437500000, 10.523437500000, -2.296875000000, 1491365300
-0.075683593750, -0.748535156250, 0.237304687500, -16.773437500000, 10.523437500000, -2.296875000000, 1491365301
0.001708984375, -0.869628906250, 0.376464843750, -22.500000000000, -2.328125000000, 3.421875000000, 1491365301
0.001708984375, -0.869628906250, 0.376464843750, -22.500000000000, -2.328125000000, 3.421875000000, 1491365301
0.001708984375, -0.869628906250, 0.376464843750, -22.500000000000, -2.328125000000, 3.421875000000, 1491365301
0.047607421875, -1.063232421875, 0.370605468750, 34.148437500000, -37.328125000000, -17.382812500000, 1491365301
0.047607421875, -1.063232421875, 0.370605468750, 34.148437500000, -37.328125000000, -17.382812500000, 1491365301
0.047607421875, -1.063232421875, 0.370605468750, 34.148437500000, -37.328125000000, -17.382812500000, 1491365301
0.047607421875, -1.063232421875, 0.370605468750, 34.148437500000, -37.328125000000, -17.382812500000, 1491365301
0.285156250000, -0.968750000000, 0.233886718750, 45.039062500000, -25.812500000000, -10.796875000000, 1491365301
0.285156250000, -0.968750000000, 0.233886718750, 45.039062500000, -25.812500000000, -10.796875000000, 1491365301
0.285156250000, -0.968750000000, 0.233886718750, 45.039062500000, -25.812500000000, -10.796875000000, 1491365301
0.070312500000, -0.955322265625, 0.373535156250, 10.023437500000, -8.585937500000, 31.859375000000, 1491365301
0.070312500000, -0.955322265625, 0.373535156250, 10.023437500000, -8.585937500000, 31.859375000000, 1491365301
0.070312500000, -0.955322265625, 0.373535156250, 10.023437500000, -8.585937500000, 31.859375000000, 1491365301
0.052978515625, -0.847167968750, 0.371093750000, 7.726562500000, -28.828125000000, 5.468750000000, 1491365301
0.052978515625, -0.847167968750, 0.371093750000, 7.726562500000, -28.828125000000, 5.468750000000, 1491365301
0.257324218750, -0.829345703125, 0.408935546875, 1.164062500000, 0.359375000000, 8.648437500000, 1491365301
0.257324218750, -0.829345703125, 0.408935546875, 1.164062500000, 0.359375000000, 8.648437500000, 1491365301
0.257324218750, -0.829345703125, 0.408935546875, 1.164062500000, 0.359375000000, 8.648437500000, 1491365301
0.257324218750, -0.829345703125, 0.408935546875, 1.164062500000, 0.359375000000, 8.648437500000, 1491365301
0.257324218750, -0.829345703125, 0.408935546875, 1.164062500000, 0.359375000000, 8.648437500000, 1491365301
0.112792968750, -0.896728515625, 0.386474609375, -0.234375000000, 25.031250000000, 24.593750000000, 1491365301
0.112792968750, -0.896728515625, 0.386474609375, -0.234375000000, 25.031250000000, 24.593750000000, 1491365301
0.112792968750, -0.896728515625, 0.386474609375, -0.234375000000, 25.031250000000, 24.593750000000, 1491365301
0.047363281250, -0.929687500000, 0.388183593750, -4.273437500000, 0.429687500000, 25.039062500000, 1491365301
0.047363281250, -0.929687500000, 0.388183593750, -4.273437500000, 0.429687500000, 25.039062500000, 1491365301
0.047363281250, -0.929687500000, 0.388183593750, -4.273437500000, 0.429687500000, 25.039062500000, 1491365301
0.208251953125, -0.997558593750, 0.522949218750, -5.437500000000, -48.445312500000, -4.742187500000, 1491365301
0.208251953125, -0.997558593750, 0.522949218750, -5.437500000000, -48.445312500000, -4.742187500000, 1491365301
0.208251953125, -0.997558593750, 0.522949218750, -5.437500000000, -48.445312500000, -4.742187500000, 1491365301
0.174804687500, -1.009521484375, 0.575927734375, 1.445312500000, 42.437500000000, 32.351562500000, 1491365301
0.174804687500, -1.009521484375, 0.575927734375, 1.445312500000, 42.437500000000, 32.351562500000, 1491365301
0.174804687500, -1.009521484375, 0.575927734375, 1.445312500000, 42.437500000000, 32.351562500000, 1491365301
0.174804687500, -1.009521484375, 0.575927734375, 1.445312500000, 42.437500000000, 32.351562500000, 1491365301
0.341552734375, -1.055175781250, 0.329589843750, -18.671875000000, 5.718750000000, 18.937500000000, 1491365301
0.341552734375, -1.055175781250, 0.329589843750, -18.671875000000, 5.718750000000, 18.937500000000, 1491365301
0.341552734375, -1.055175781250, 0.329589843750, -18.671875000000, 5.718750000000, 18.937500000000, 1491365301
0.211425781250, -1.050537109375, 0.378662109375, -14.195312500000, 29.062500000000, 21.171875000000, 1491365301
0.211425781250, -1.050537109375, 0.378662109375, -14.195312500000, 29.062500000000, 21.171875000000, 1491365301
0.211425781250, -1.050537109375, 0.378662109375, -14.195312500000, 29.062500000000, 21.171875000000, 1491365301
0.256103515625, -0.828613281250, 0.280029296875, -10.312500000000, 40.132812500000, 5.804687500000, 1491365301
0.256103515625, -0.828613281250, 0.280029296875, -10.312500000000, 40.132812500000, 5.804687500000, 1491365301
0.256103515625, -0.828613281250, 0.280029296875, -10.312500000000, 40.132812500000, 5.804687500000, 1491365301
0.308593750000, -0.662353515625, 0.168457031250, 7.460937500000, 102.304687500000, 11.382812500000, 1491365301
0.308593750000, -0.662353515625, 0.168457031250, 7.460937500000, 102.304687500000, 11.382812500000, 1491365301
0.308593750000, -0.662353515625, 0.168457031250, 7.460937500000, 102.304687500000, 11.382812500000, 1491365301
0.375976562500, -0.844482421875, 0.060546875000, 40.125000000000, 112.875000000000, 6.757812500000, 1491365301
0.375976562500, -0.844482421875, 0.060546875000, 40.125000000000, 112.875000000000, 6.757812500000, 1491365301
0.375976562500, -0.844482421875, 0.060546875000, 40.125000000000, 112.875000000000, 6.757812500000, 1491365301
0.375976562500, -0.844482421875, 0.060546875000, 40.125000000000, 112.875000000000, 6.757812500000, 1491365301
0.286132812500, -0.843750000000, 0.104736328125, 38.390625000000, -20.203125000000, -7.773437500000, 1491365301
0.286132812500, -0.843750000000, 0.104736328125, 38.390625000000, -20.203125000000, -7.773437500000, 1491365301
