ACC_X,ACC_Y,ACC_Z,G_X,G_Y,G_Z,Unix Time
-0.064941406250, -0.978759765625, 0.184326171875, 61.179687500000, 74.453125000000, 13.546875000000, 1490865900
-0.064941406250, -0.978759765625, 0.184326171875, 61.179687500000, 74.453125000000, 13.546875000000, 1490865900
-0.064941406250, -0.978759765625, 0.184326171875, 61.179687500000, 74.453125000000, 13.546875000000, 1490865900
0.079101562500, -0.988769531250, 0.165283203125, 28.156250000000, 120.640625000000, 17.945312500000, 1490865900
0.079101562500, -0.988769531250, 0.165283203125, 28.156250000000, 120.640625000000, 17.945312500000, 1490865900
0.079101562500, -0.988769531250, 0.165283203125, 28.156250000000, 120.640625000000, 17.945312500000, 1490865900
0.059570312500, -0.972656250000, 0.157470703125, -1.609375000000, -0.945312500000, -5.000000000000, 1490865900
0.059570312500, -0.972656250000, 0.157470703125, -1.609375000000, -0.945312500000, -5.000000000000, 1490865900
0.059570312500, -0.972656250000, 0.157470703125, -1.609375000000, -0.945312500000, -5.000000000000, 1490865900
-0.017089843750, -1.003662109375, 0.251220703125, -21.531250000000, -67.875000000000, -4.945312500000, 1490865900
-0.017089843750, -1.003662109375, 0.251220703125, -21.531250000000, -67.875000000000, -4.945312500000, 1490865900
-0.017089843750, -1.003662109375, 0.251220703125, -21.531250000000, -67.875000000000, -4.945312500000, 1490865900
-0.017089843750, -1.003662109375, 0.251220703125, -21.531250000000, -67.875000000000, -4.945312500000, 1490865900
-0.024902343750, -0.935302734375, 0.150878906250, -41.718750000000, -92.015625000000, -3.687500000000, 1490865901
-0.024902343750, -0.935302734375, 0.150878906250, -41.718750000000, -92.015625000000, -3.687500000000, 1490865901
-0.024902343750, -0.935302734375, 0.150878906250, -41.718750000000, -92.015625000000, -3.687500000000, 1490865901
0.137451171875, -1.064453125000, 0.097412109375, -29.750000000000, -57.640625000000, 9.335937500000, 1490865901
0.137451171875, -1.064453125000, 0.097412109375, -29.750000000000, -57.640625000000, 9.335937500000, 1490865901
0.137451171875, -1.064453125000, 0.097412109375, -29.750000000000, -57.640625000000, 9.335937500000, 1490865901
0.137451171875, -1.064453125000, 0.097412109375, -29.750000000000, -57.640625000000, 9.335937500000, 1490865901
0.137451171875, -1.064453125000, 0.097412109375, -29.750000000000, -57.640625000000, 9.335937500000, 1490865901
0.137451171875, -1.064453125000, 0.097412109375, -28.578125000000, -41.593750000000, 8.664062500000, 1490865901
0.144531250000, -1.045166015625, 0.115234375000, -30.601562500000, -12.523437500000, -8.093750000000, 1490865901
0.144531250000, -1.045166015625, 0.115234375000, -30.601562500000, -12.523437500000, -8.093750000000, 1490865901
0.144531250000, -1.045166015625, 0.115234375000, -30.601562500000, -12.523437500000, -8.093750000000, 1490865901
0.144531250000, -1.045166015625, 0.115234375000, -30.601562500000, -12.523437500000, -8.093750000000, 1490865901
0.051269531250, -0.931396484375, 0.195800781250, -5.546875000000, 29.023437500000, 3.312500000000, 1490865901
0.051269531250, -0.931396484375, 0.195800781250, -5.546875000000, 29.023437500000, 3.312500000000, 1490865901
0.051269531250, -0.931396484375, 0.195800781250, -5.546875000000, 29.023437500000, 3.312500000000, 1490865901
0.190917968750, -1.003173828125, 0.152099609375, 26.437500000000, 28.632812500000, 5.937500000000, 1490865901
0.190917968750, -1.003173828125, 0.152099609375, 26.437500000000, 28.632812500000, 5.937500000000, 1490865901
0.190917968750, -1.003173828125, 0.152099609375, 26.437500000000, 28.632812500000, 5.937500000000, 1490865901
0.144531250000, -1.046142578125, 0.103271484375, 47.226562500000, -1.203125000000, 13.617187500000, 1490865901
0.144531250000, -1.046142578125, 0.103271484375, 47.226562500000, -1.203125000000, 13.617187500000, 1490865901
0.144531250000, -1.046142578125, 0.103271484375, 47.226562500000, -1.203125000000, 13.617187500000, 1490865901
0.144531250000, -1.046142578125, 0.103271484375, 47.226562500000, -1.203125000000, 13.617187500000, 1490865901
0.043945312500, -1.015869140625, 0.097900390625, 65.179687500000, 33.742187500000, 20.125000000000, 1490865901
0.043945312500, -1.015869140625, 0.097900390625, 65.179687500000, 33.742187500000, 20.125000000000, 1490865901
0.043945312500, -1.015869140625, 0.097900390625, 65.179687500000, 33.742187500000, 20.125000000000, 1490865901
0.053222656250, -1.019287109375, 0.158935546875, 32.273437500000, 84.445312500000, 13.585937500000, 1490865901
0.053222656250, -1.019287109375, 0.158935546875, 32.273437500000, 84.445312500000, 13.585937500000, 1490865901
0.053222656250, -1.019287109375, 0.158935546875, 32.273437500000, 84.445312500000, 13.585937500000, 1490865901
0.048828125000, -0.857910156250, 0.115478515625, 11.414062500000, -5.968750000000, -2.000000000000, 1490865901
0.048828125000, -0.857910156250, 0.115478515625, 11.414062500000, -5.968750000000, -2.000000000000, 1490865901
0.048828125000, -0.857910156250, 0.115478515625, 11.414062500000, -5.968750000000, -2.000000000000, 1490865901
0.187255859375, -1.025390625000, 0.147705078125, -46.460937500000, -17.640625000000, -17.296875000000, 1490865901
0.187255859375, -1.025390625000, 0.147705078125, -46.460937500000, -17.640625000000, -17.296875000000, 1490865901
0.187255859375, -1.025390625000, 0.147705078125, -46.460937500000, -17.640625000000, -17.296875000000, 1490865901
0.187255859375, -1.025390625000, 0.147705078125, -46.460937500000, -17.640625000000, -17.296875000000, 1490865901
0.113769531250, -1.027099609375, 0.057128906250, -40.968750000000, -59.203125000000, -18.679687500000, 1490865901
0.113769531250, -1.027099609375, 0.057128906250, -40.968750000000, -59.203125000000, -18.679687500000, 1490865901
0.113769531250, -1.027099609375, 0.057128906250, -40.968750000000, -59.203125000000, -18.679687500000, 1490865901
0.031494140625, -1.012451171875, 0.211669921875, -33.828125000000, -82.937500000000, -16.398437500000, 1490865901
0.031494140625, -1.012451171875, 0.211669921875, -33.828125000000, -82.937500000000, -16.398437500000, 1490865901
0.031494140625, -1.012451171875, 0.211669921875, -33.828125000000, -82.937500000000, -16.398437500000, 1490865901
0.042724609375, -1.076660156250, 0.058593750000, -35.093750000000, -44.046875000000, -18.000000000000, 1490865901
0.042724609375, -1.076660156250, 0.058593750000, -35.093750000000, -44.046875000000, -18.000000000000, 1490865901
0.042724609375, -1.076660156250, 0.058593750000, -35.093750000000, -44.046875000000, -18.000000000000, 1490865901
0.151611328125, -0.990722656250, 0.144775390625, -24.273437500000, 40.187500000000, -7.773437500000, 1490865901
0.151611328125, -0.990722656250, 0.144775390625, -24.273437500000, 40.187500000000, -7.773437500000, 1490865901
0.151611328125, -0.990722656250, 0.144775390625, -24.273437500000, 40.187500000000, -7.773437500000, 1490865901
0.151611328125, -0.990722656250, 0.144775390625, -24.273437500000, 40.187500000000, -7.773437500000, 1490865901
0.206787109375, -1.073730468750, 0.190673828125, -0.687500000000, 16.859375000000, -6.742187500000, 1490865901
0.206787109375, -1.073730468750, 0.190673828125, -0.687500000000, 16.859375000000, -6.742187500000, 1490865901
0.206787109375, -1.073730468750, 0.190673828125, -0.687500000000, 16.859375000000, -6.742187500000, 1490865901
0.206787109375, -1.073730468750, 0.190673828125, -0.687500000000, 16.859375000000, -6.742187500000, 1490865901
0.121826171875, -1.026123046875, 0.105712890625, 4.500000000000, -0.843750000000, -7.250000000000, 1490865901
0.121826171875, -1.026123046875, 0.105712890625, 4.500000000000, -0.843750000000, -7.250000000000, 1490865901
0.121826171875, -1.026123046875, 0.105712890625, 4.500000000000, -0.843750000000, -7.250000000000, 1490865901
0.149658203125, -0.991943359375, 0.117675781250, 3.812500000000, -23.601562500000, -7.703125000000, 1490865901
0.149658203125, -0.991943359375, 0.117675781250, 3.812500000000, -23.601562500000, -7.703125000000, 1490865901
0.106933593750, -0.922363281250, 0.121337890625, 21.765625000000, 23.476562500000, 2.750000000000, 1490865901
0.106933593750, -0.922363281250, 0.121337890625, 21.765625000000, 23.476562500000, 2.750000000000, 1490865901
0.106933593750, -0.922363281250, 0.121337890625, 21.765625000000, 23.476562500000, 2.750000000000, 1490865901
0.106933593750, -0.922363281250, 0.121337890625, 21.765625000000, 23.476562500000, 2.750000000000, 1490865901
0.106933593750, -0.922363281250, 0.121337890625, 21.765625000000, 23.476562500000, 2.750000000000, 1490865901
0.106933593750, -0.922363281250, 0.121337890625, 21.765625000000, 23.476562500000, 2.750000000000, 1490865901
0.071777343750, -0.934326171875, 0.132812500000, 23.320312500000, 60.585937500000, 5.585937500000, 1490865901
0.071777343750, -0.934326171875, 0.132812500000, 23.320312500000, 60.585937500000, 5.585937500000, 1490865901
0.071777343750, -0.934326171875, 0.132812500000, 23.320312500000, 60.585937500000, 5.585937500000, 1490865902
0.071777343750, -0.934326171875, 0.132812500000, 23.320312500000, 60.585937500000, 5.585937500000, 1490865902
0.102783203125, -0.990966796875, 0.116699218750, 13.539062500000, 50.898437500000, 2.468750000000, 1490865902
0.102783203125, -0.990966796875, 0.116699218750, 13.539062500000, 50.898437500000, 2.468750000000, 1490865902
0.102783203125, -0.990966796875, 0.116699218750, 13.539062500000, 50.898437500000, 2.468750000000, 1490865902
0.138427734375, -1.026123046875, 0.140625000000, 3.148437500000, 6.820312500000, -6.617187500000, 1490865902
0.138427734375, -1.026123046875, 0.140625000000, 3.148437500000, 6.820312500000, -6.617187500000, 1490865902
0.138427734375, -1.026123046875, 0.140625000000, 3.148437500000, 6.820312500000, -6.617187500000, 1490865902
0.138427734375, -1.026123046875, 0.140625000000, 3.148437500000, 6.820312500000, -6.617187500000, 1490865902
0.126220703125, -1.026123046875, 0.100341796875, -19.585937500000, -31.992187500000, -7.921875000000, 1490865902
0.126220703125, -1.026123046875, 0.100341796875, -19.585937500000, -31.992187500000, -7.921875000000, 1490865902
0.126220703125, -1.026123046875, 0.100341796875, -19.585937500000, -31.992187500000, -7.921875000000, 1490865902
0.126220703125, -1.026123046875, 0.100341796875, -19.585937500000, -31.992187500000, -7.921875000000, 1490865902
0.126220703125, -1.026123046875, 0.100341796875, -19.585937500000, -31.992187500000, -7.921875000000, 1490865902
0.126220703125, -1.026123046875, 0.100341796875, -19.585937500000, -31.992187500000, -7.921875000000, 1490865902
0.045410156250, -1.071289062500, 0.124267578125, -21.812500000000, -23.593750000000, -12.281250000000, 1490865902
0.045410156250, -1.071289062500, 0.124267578125, -21.812500000000, -23.593750000000, -12.281250000000, 1490865902
0.045410156250, -1.071289062500, 0.124267578125, -21.812500000000, -23.593750000000, -12.281250000000, 1490865902
0.045410156250, -1.071289062500, 0.124267578125, -21.812500000000, -23.593750000000, -12.281250000000, 1490865902
0.036621093750, -0.974121093750, 0.155273437500, -24.929687500000, 1.593750000000, -9.921875000000, 1490865902
0.036621093750, -0.974121093750, 0.155273437500, -24.929687500000, 1.593750000000, -9.921875000000, 1490865902
0.036621093750, -0.974121093750, 0.155273437500, -24.929687500000, 1.593750000000, -9.921875000000, 1490865902
0.036621093750, -0.974121093750, 0.155273437500, -24.929687500000, 1.593750000000, -9.921875000000, 1490865902
0.036621093750, -0.974121093750, 0.155273437500, -21.257812500000, 11.492187500000, -9.734375000000, 1490865902
0.130859375000, -0.989013671875, 0.126220703125, -17.367187500000, 20.343750000000, -8.945312500000, 1490865902
0.130859375000, -0.989013671875, 0.126220703125, -17.367187500000, 20.343750000000, -8.945312500000, 1490865902
0.130859375000, -0.989013671875, 0.126220703125, -17.367187500000, 20.343750000000, -8.945312500000, 1490865902
0.130859375000, -0.989013671875, 0.126220703125, -17.367187500000, 20.343750000000, -8.945312500000, 1490865902
0.131835937500, -1.005615234375, 0.142089843750, -7.781250000000, 16.078125000000, -6.648437500000, 1490865902
0.131835937500, -1.005615234375, 0.142089843750, -7.781250000000, 16.078125000000, -6.648437500000, 1490865902
0.131835937500, -1.005615234375, 0.142089843750, -7.781250000000, 16.078125000000, -6.648437500000, 1490865902
0.094238281250, -0.988769531250, 0.101562500000, -0.523437500000, -4.335937500000, -1.679687500000, 1490865902
0.094238281250, -0.988769531250, 0.101562500000, -0.523437500000, -4.335937500000, -1.679687500000, 1490865902
0.094238281250, -0.988769531250, 0.101562500000, -0.523437500000, -4.335937500000, -1.679687500000, 1490865902
0.094238281250, -0.988769531250, 0.101562500000, -0.523437500000, -4.335937500000, -1.679687500000, 1490865902
0.112060546875, -1.027099609375, 0.160644531250, 12.007812500000, -4.351562500000, 2.703125000000, 1490865902
0.112060546875, -1.027099609375, 0.160644531250, 12.007812500000, -4.351562500000, 2.703125000000, 1490865902
0.112060546875, -1.027099609375, 0.160644531250, 12.007812500000, -4.351562500000, 2.703125000000, 1490865902
0.032958984375, -0.934814453125, 0.106689453125, 12.062500000000, 9.742187500000, 2.445312500000, 1490865902
0.032958984375, -0.934814453125, 0.106689453125, 12.062500000000, 9.742187500000, 2.445312500000, 1490865902
0.032958984375, -0.934814453125, 0.106689453125, 12.062500000000, 9.742187500000, 2.445312500000, 1490865902
0.071044921875, -0.970947265625, 0.114501953125, 13.968750000000, 25.859375000000, 1.250000000000, 1490865902
0.071044921875, -0.970947265625, 0.114501953125, 13.968750000000, 25.859375000000, 1.250000000000, 1490865902
0.071044921875, -0.970947265625, 0.114501953125, 13.968750000000, 25.859375000000, 1.250000000000, 1490865902
0.188720703125, -1.012695312500, 0.191650390625, 12.687500000000, 26.601562500000, 2.148437500000, 1490865902
0.188720703125, -1.012695312500, 0.191650390625, 12.687500000000, 26.601562500000, 2.148437500000, 1490865902
0.188720703125, -1.012695312500, 0.191650390625, 12.687500000000, 26.601562500000, 2.148437500000, 1490865902
0.173828125000, -1.075195312500, 0.111328125000, 14.484375000000, 16.804687500000, 2.609375000000, 1490865902
0.173828125000, -1.075195312500, 0.111328125000, 14.484375000000, 16.804687500000, 2.609375000000, 1490865902
0.173828125000, -1.075195312500, 0.111328125000, 14.484375000000, 16.804687500000, 2.609375000000, 1490865902
0.173828125000, -1.075195312500, 0.111328125000, 14.484375000000, 16.804687500000, 2.609375000000, 1490865902
0.141113281250, -1.006835937500, 0.119628906250, -0.359375000000, 12.406250000000, 0.078125000000, 1490865902
0.141113281250, -1.006835937500, 0.119628906250, -0.359375000000, 12.406250000000, 0.078125000000, 1490865902
0.141113281250, -1.006835937500, 0.119628906250, -0.359375000000, 12.406250000000, 0.078125000000, 1490865902
0.103515625000, -0.916015625000, 0.213867187500, -18.343750000000, -22.046875000000, -9.289062500000, 1490865902
0.149414062500, -1.062744140625, 0.149902343750, -17.914062500000, -34.515625000000, -11.101562500000, 1490865902
0.149414062500, -1.062744140625, 0.149902343750, -17.914062500000, -34.515625000000, -11.101562500000, 1490865902
0.079589843750, -1.020751953125, 0.122070312500, -21.109375000000, -36.859375000000, -11.914062500000, 1490865902
0.135498046875, -0.926513671875, 0.125000000000, -21.109375000000, -36.859375000000, -11.914062500000, 1490865902
0.135498046875, -0.926513671875, 0.125000000000, -21.109375000000, -36.859375000000, -11.914062500000, 1490865902
0.135498046875, -0.926513671875, 0.125000000000, -21.109375000000, -36.859375000000, -11.914062500000, 1490865902
0.154052734375, -0.905761718750, 0.118652343750, -22.523437500000, -18.117187500000, -11.273437500000, 1490865902
0.154052734375, -0.905761718750, 0.118652343750, -22.523437500000, -18.117187500000, -11.273437500000, 1490865902
0.154052734375, -0.905761718750, 0.118652343750, -22.523437500000, -18.117187500000, -11.273437500000, 1490865902
0.154052734375, -0.905761718750, 0.118652343750, -22.523437500000, -18.117187500000, -11.273437500000, 1490865902
0.154052734375, -0.905761718750, 0.118652343750, -22.523437500000, -18.117187500000, -11.273437500000, 1490865902
0.154052734375, -0.905761718750, 0.118652343750, -22.523437500000, -18.117187500000, -11.273437500000, 1490865902
0.150146484375, -0.967529296875, 0.124755859375, -11.132812500000, -0.671875000000, -8.796875000000, 1490865903
0.150146484375, -0.967529296875, 0.124755859375, -11.132812500000, -0.671875000000, -8.796875000000, 1490865903
0.150146484375, -0.967529296875, 0.124755859375, -11.132812500000, -0.671875000000, -8.796875000000, 1490865903
0.037109375000, -1.076171875000, 0.099609375000, -5.703125000000, 3.421875000000, -7.164062500000, 1490865903
0.037109375000, -1.076171875000, 0.099609375000, -5.703125000000, 3.421875000000, -7.164062500000, 1490865903
0.037109375000, -1.076171875000, 0.099609375000, -5.703125000000, 3.421875000000, -7.164062500000, 1490865903
0.037109375000, -1.076171875000, 0.099609375000, -5.703125000000, 3.421875000000, -7.164062500000, 1490865903
0.198486328125, -1.024658203125, 0.096435546875, 2.632812500000, -2.429687500000, -4.320312500000, 1490865903
0.198486328125, -1.024658203125, 0.096435546875, 2.632812500000, -2.429687500000, -4.320312500000, 1490865903
0.198486328125, -1.024658203125, 0.096435546875, 2.632812500000, -2.429687500000, -4.320312500000, 1490865903
0.136718750000, -0.973388671875, 0.144287109375, 7.945312500000, -0.554687500000, 2.226562500000, 1490865903
0.136718750000, -0.973388671875, 0.144287109375, 7.945312500000, -0.554687500000, 2.226562500000, 1490865903
0.136718750000, -0.973388671875, 0.144287109375, 7.945312500000, -0.554687500000, 2.226562500000, 1490865903
0.036132812500, -1.014648437500, 0.113281250000, 13.054687500000, 12.132812500000, 2.898437500000, 1490865903
0.036132812500, -1.014648437500, 0.113281250000, 13.054687500000, 12.132812500000, 2.898437500000, 1490865903
0.036132812500, -1.014648437500, 0.113281250000, 13.054687500000, 12.132812500000, 2.898437500000, 1490865903
-0.010253906250, -1.077636718750, 0.106201171875, 13.851562500000, 14.367187500000, 4.023437500000, 1490865903
-0.010253906250, -1.077636718750, 0.106201171875, 13.851562500000, 14.367187500000, 4.023437500000, 1490865903
-0.010253906250, -1.077636718750, 0.106201171875, 13.851562500000, 14.367187500000, 4.023437500000, 1490865903
-0.010253906250, -1.077636718750, 0.106201171875, 13.851562500000, 14.367187500000, 4.023437500000, 1490865903
0.093750000000, -0.981445312500, 0.174072265625, 8.546875000000, 5.937500000000, 0.640625000000, 1490865903
0.093750000000, -0.981445312500, 0.174072265625, 8.546875000000, 5.937500000000, 0.640625000000, 1490865903
0.093750000000, -0.981445312500, 0.174072265625, 8.546875000000, 5.937500000000, 0.640625000000, 1490865903
0.102539062500, -0.935791015625, 0.199218750000, 3.125000000000, 0.015625000000, -6.445312500000, 1490865903
0.102539062500, -0.935791015625, 0.199218750000, 3.125000000000, 0.015625000000, -6.445312500000, 1490865903
0.102539062500, -0.935791015625, 0.199218750000, 3.125000000000, 0.015625000000, -6.445312500000, 1490865903
0.041992187500, -1.074951171875, 0.100341796875, -6.710937500000, -10.992187500000, -8.179687500000, 1490865903
0.041992187500, -1.074951171875, 0.100341796875, -6.710937500000, -10.992187500000, -8.179687500000, 1490865903
0.041992187500, -1.074951171875, 0.100341796875, -6.710937500000, -10.992187500000, -8.179687500000, 1490865903
0.204589843750, -0.979003906250, 0.120849609375, -7.593750000000, -20.945312500000, -8.476562500000, 1490865903
0.204589843750, -0.979003906250, 0.120849609375, -7.593750000000, -20.945312500000, -8.476562500000, 1490865903
0.204589843750, -0.979003906250, 0.120849609375, -7.593750000000, -20.945312500000, -8.476562500000, 1490865903
0.204589843750, -0.979003906250, 0.120849609375, -7.593750000000, -20.945312500000, -8.476562500000, 1490865903
0.023437500000, -1.013916015625, 0.154785156250, -7.203125000000, -18.351562500000, -9.195312500000, 1490865903
0.023437500000, -1.013916015625, 0.154785156250, -7.203125000000, -18.351562500000, -9.195312500000, 1490865903
0.023437500000, -1.013916015625, 0.154785156250, -7.203125000000, -18.351562500000, -9.195312500000, 1490865903
0.024169921875, -0.940429687500, 0.107666015625, 8.945312500000, 14.718750000000, -12.507812500000, 1490865903
0.024169921875, -0.940429687500, 0.107666015625, 8.945312500000, 14.718750000000, -12.507812500000, 1490865903
0.024169921875, -0.940429687500, 0.107666015625, 8.945312500000, 14.718750000000, -12.507812500000, 1490865903
0.024169921875, -0.940429687500, 0.107666015625, 8.945312500000, 14.718750000000, -12.507812500000, 1490865903
0.068359375000, -0.871337890625, 0.212402343750, 21.781250000000, 20.289062500000, -0.703125000000, 1490865903
0.068359375000, -0.871337890625, 0.212402343750, 21.781250000000, 20.289062500000, -0.703125000000, 1490865903
0.068359375000, -0.871337890625, 0.212402343750, 21.781250000000, 20.289062500000, -0.703125000000, 1490865903
0.068359375000, -0.871337890625, 0.212402343750, 21.781250000000, 20.289062500000, -0.703125000000, 1490865903
0.068359375000, -0.871337890625, 0.212402343750, 30.648437500000, 15.734375000000, 3.609375000000, 1490865903
0.047607421875, -0.987060546875, 0.156250000000, 33.156250000000, 6.546875000000, 0.867187500000, 1490865903
0.047607421875, -0.987060546875, 0.156250000000, 33.156250000000, 6.546875000000, 0.867187500000, 1490865903
0.047607421875, -0.987060546875, 0.156250000000, 33.156250000000, 6.546875000000, 0.867187500000, 1490865903
0.047607421875, -0.987060546875, 0.156250000000, 33.156250000000, 6.546875000000, 0.867187500000, 1490865903
0.035156250000, -0.954345703125, 0.139648437500, 38.921875000000, 0.796875000000, -2.445312500000, 1490865903
0.035156250000, -0.954345703125, 0.139648437500, 38.921875000000, 0.796875000000, -2.445312500000, 1490865903
0.035156250000, -0.954345703125, 0.139648437500, 38.921875000000, 0.796875000000, -2.445312500000, 1490865903
-0.014648437500, -0.986572265625, 0.040039062500, 46.945312500000, -10.867187500000, -11.007812500000, 1490865903
-0.014648437500, -0.986572265625, 0.040039062500, 46.945312500000, -10.867187500000, -11.007812500000, 1490865903
-0.014648437500, -0.986572265625, 0.040039062500, 46.945312500000, -10.867187500000, -11.007812500000, 1490865903
0.065917968750, -0.845703125000, 0.112304687500, 25.929687500000, 1.609375000000, -18.046875000000, 1490865903
0.065917968750, -0.845703125000, 0.112304687500, 25.929687500000, 1.609375000000, -18.046875000000, 1490865903
0.065917968750, -0.845703125000, 0.112304687500, 25.929687500000, 1.609375000000, -18.046875000000, 1490865903
0.065917968750, -0.845703125000, 0.112304687500, 25.929687500000, 1.609375000000, -18.046875000000, 1490865903
0.126220703125, -1.058593750000, 0.166503906250, 9.648437500000, 9.015625000000, -15.210937500000, 1490865903
0.126220703125, -1.058593750000, 0.166503906250, 9.648437500000, 9.015625000000, -15.210937500000, 1490865903
0.126220703125, -1.058593750000, 0.166503906250, 9.648437500000, 9.015625000000, -15.210937500000, 1490865903
-0.083007812500, -0.954101562500, 0.153076171875, 21.328125000000, 39.531250000000, -6.718750000000, 1490865903
-0.083007812500, -0.954101562500, 0.153076171875, 21.328125000000, 39.531250000000, -6.718750000000, 1490865903
-0.083007812500, -0.954101562500, 0.153076171875, 21.328125000000, 39.531250000000, -6.718750000000, 1490865903
-0.034179687500, -1.007324218750, 0.118652343750, -12.187500000000, 72.898437500000, -15.148437500000, 1490865903
-0.034179687500, -1.007324218750, 0.118652343750, -12.187500000000, 72.898437500000, -15.148437500000, 1490865903
-0.034179687500, -1.007324218750, 0.118652343750, -12.187500000000, 72.898437500000, -15.148437500000, 1490865904
0.021728515625, -0.797851562500, 0.059814453125, -19.804687500000, 70.242187500000, -3.000000000000, 1490865904
0.021728515625, -0.797851562500, 0.059814453125, -19.804687500000, 70.242187500000, -3.000000000000, 1490865904
0.021728515625, -0.797851562500, 0.059814453125, -19.804687500000, 70.242187500000, -3.000000000000, 1490865904
0.021728515625, -0.797851562500, 0.059814453125, -19.804687500000, 70.242187500000, -3.000000000000, 1490865904
0.030761718750, -0.962890625000, 0.034912109375, -36.085937500000, 55.515625000000, -26.359375000000, 1490865904
0.030761718750, -0.962890625000, 0.034912109375, -36.085937500000, 55.515625000000, -26.359375000000, 1490865904
0.030761718750, -0.962890625000, 0.034912109375, -36.085937500000, 55.515625000000, -26.359375000000, 1490865904
0.005859375000, -0.923095703125, 0.152099609375, -71.539062500000, 2.515625000000, -68.554687500000, 1490865904
0.005859375000, -0.923095703125, 0.152099609375, -71.539062500000, 2.515625000000, -68.554687500000, 1490865904
0.005859375000, -0.923095703125, 0.152099609375, -71.539062500000, 2.515625000000, -68.554687500000, 1490865904
-0.115478515625, -1.137451171875, 0.052246093750, -70.945312500000, -47.031250000000, -93.007812500000, 1490865904
-0.115478515625, -1.137451171875, 0.052246093750, -70.945312500000, -47.031250000000, -93.007812500000, 1490865904
-0.115478515625, -1.137451171875, 0.052246093750, -70.945312500000, -47.031250000000, -93.007812500000, 1490865904
-0.224121093750, -1.542236328125, 0.136962890625, -55.851562500000, -41.125000000000, -45.687500000000, 1490865904
-0.224121093750, -1.542236328125, 0.136962890625, -55.851562500000, -41.125000000000, -45.687500000000, 1490865904
-0.224121093750, -1.542236328125, 0.136962890625, -55.851562500000, -41.125000000000, -45.687500000000, 1490865904
-0.224121093750, -1.542236328125, 0.136962890625, -55.851562500000, -41.125000000000, -45.687500000000, 1490865904
-0.202636718750, -1.523681640625, 0.103515625000, -51.851562500000, 67.890625000000, -24.695312500000, 1490865904
-0.202636718750, -1.523681640625, 0.103515625000, -51.851562500000, 67.890625000000, -24.695312500000, 1490865904
-0.202636718750, -1.523681640625, 0.103515625000, -51.851562500000, 67.890625000000, -24.695312500000, 1490865904
-0.202636718750, -1.523681640625, 0.103515625000, -51.851562500000, 67.890625000000, -24.695312500000, 1490865904
-0.202636718750, -1.523681640625, 0.103515625000, -51.851562500000, 67.890625000000, -24.695312500000, 1490865904
-0.189453125000, -1.388183593750, 0.044433593750, -68.078125000000, 68.757812500000, 12.015625000000, 1490865904
-0.189453125000, -1.388183593750, 0.044433593750, -68.078125000000, 68.757812500000, 12.015625000000, 1490865904
-0.189453125000, -1.388183593750, 0.044433593750, -68.078125000000, 68.757812500000, 12.015625000000, 1490865904
-0.189453125000, -1.388183593750, 0.044433593750, -68.078125000000, 68.757812500000, 12.015625000000, 1490865904
-0.060058593750, -1.161621093750, 0.048095703125, -36.882812500000, 41.257812500000, -53.109375000000, 1490865904
-0.060058593750, -1.161621093750, 0.048095703125, -36.882812500000, 41.257812500000, -53.109375000000, 1490865904
-0.060058593750, -1.161621093750, 0.048095703125, -36.882812500000, 41.257812500000, -53.109375000000, 1490865904
-0.060058593750, -1.161621093750, 0.048095703125, -36.882812500000, 41.257812500000, -53.109375000000, 1490865904
-0.236816406250, -1.226806640625, 0.086669921875, -19.242187500000, -19.546875000000, -47.234375000000, 1490865904
-0.236816406250, -1.226806640625, 0.086669921875, -19.242187500000, -19.546875000000, -47.234375000000, 1490865904
-0.236816406250, -1.226806640625, 0.086669921875, -19.242187500000, -19.546875000000, -47.234375000000, 1490865904
-0.336425781250, -1.160888671875, 0.060302734375, 23.781250000000, -69.476562500000, -56.796875000000, 1490865904
-0.336425781250, -1.160888671875, 0.060302734375, 23.781250000000, -69.476562500000, -56.796875000000, 1490865904
-0.336425781250, -1.160888671875, 0.060302734375, 23.781250000000, -69.476562500000, -56.796875000000, 1490865904
-0.271972656250, -1.261718750000, 0.108398437500, 43.531250000000, -54.703125000000, -22.281250000000, 1490865904
-0.271972656250, -1.261718750000, 0.108398437500, 43.531250000000, -54.703125000000, -22.281250000000, 1490865904
-0.271972656250, -1.261718750000, 0.108398437500, 43.531250000000, -54.703125000000, -22.281250000000, 1490865904
-0.143066406250, -1.151855468750, 0.174804687500, 43.039062500000, 19.640625000000, 22.351562500000, 1490865904
-0.143066406250, -1.151855468750, 0.174804687500, 43.039062500000, 19.640625000000, 22.351562500000, 1490865904
-0.143066406250, -1.151855468750, 0.174804687500, 43.039062500000, 19.640625000000, 22.351562500000, 1490865904
-0.143066406250, -1.151855468750, 0.174804687500, 43.039062500000, 19.640625000000, 22.351562500000, 1490865904
-0.055664062500, -1.189453125000, 0.208984375000, 28.750000000000, 76.062500000000, 41.195312500000, 1490865904
-0.055664062500, -1.189453125000, 0.208984375000, 28.750000000000, 76.062500000000, 41.195312500000, 1490865904
-0.055664062500, -1.189453125000, 0.208984375000, 28.750000000000, 76.062500000000, 41.195312500000, 1490865904
-0.001953125000, -0.995361328125, 0.191894531250, 36.875000000000, 76.039062500000, 57.750000000000, 1490865904
-0.001953125000, -0.995361328125, 0.191894531250, 36.875000000000, 76.039062500000, 57.750000000000, 1490865904
-0.001953125000, -0.995361328125, 0.191894531250, 36.875000000000, 76.039062500000, 57.750000000000, 1490865904
0.130371093750, -0.958007812500, 0.218017578125, 62.492187500000, 25.765625000000, 39.671875000000, 1490865904
0.130371093750, -0.958007812500, 0.218017578125, 62.492187500000, 25.765625000000, 39.671875000000, 1490865904
0.130371093750, -0.958007812500, 0.218017578125, 62.492187500000, 25.765625000000, 39.671875000000, 1490865904
0.153808593750, -0.966308593750, 0.218750000000, -0.273437500000, -59.109375000000, 10.554687500000, 1490865904
0.153808593750, -0.966308593750, 0.218750000000, -0.273437500000, -59.109375000000, 10.554687500000, 1490865904
0.153808593750, -0.966308593750, 0.218750000000, -0.273437500000, -59.109375000000, 10.554687500000, 1490865904
0.153808593750, -0.966308593750, 0.218750000000, -0.273437500000, -59.109375000000, 10.554687500000, 1490865904
-0.137451171875, -0.989990234375, 0.122314453125, -28.679687500000, -86.890625000000, -21.250000000000, 1490865904
-0.137451171875, -0.989990234375, 0.122314453125, -28.679687500000, -86.890625000000, -21.250000000000, 1490865904
-0.137451171875, -0.989990234375, 0.122314453125, -28.679687500000, -86.890625000000, -21.250000000000, 1490865904
-0.137451171875, -0.989990234375, 0.122314453125, -28.679687500000, -86.890625000000, -21.250000000000, 1490865904
-0.084228515625, -0.878173828125, 0.119628906250, 26.546875000000, -15.187500000000, 20.031250000000, 1490865904
-0.084228515625, -0.878173828125, 0.119628906250, 26.546875000000, -15.187500000000, 20.031250000000, 1490865904
-0.140625000000, -0.621337890625, 0.125732421875, -25.484375000000, 34.234375000000, 48.476562500000, 1490865905
-0.140625000000, -0.621337890625, 0.125732421875, -25.484375000000, 34.234375000000, 48.476562500000, 1490865905
-0.140625000000, -0.621337890625, 0.125732421875, -25.484375000000, 34.234375000000, 48.476562500000, 1490865905
-0.140625000000, -0.621337890625, 0.125732421875, -25.484375000000, 34.234375000000, 48.476562500000, 1490865905
-0.066162109375, -0.759765625000, 0.078857421875, -31.460937500000, -0.851562500000, -0.101562500000, 1490865905
-0.066162109375, -0.759765625000, 0.078857421875, -31.460937500000, -0.851562500000, -0.101562500000, 1490865905
-0.066162109375, -0.759765625000, 0.078857421875, -31.460937500000, -0.851562500000, -0.101562500000, 1490865905
-0.066162109375, -0.759765625000, 0.078857421875, -31.460937500000, -0.851562500000, -0.101562500000, 1490865905
-0.066162109375, -0.759765625000, 0.078857421875, -31.460937500000, -0.851562500000, -0.101562500000, 1490865905
-0.066162109375, -0.759765625000, 0.078857421875, -31.460937500000, -0.851562500000, -0.101562500000, 1490865905
-0.210937500000, -0.838867187500, -0.014160156250, -48.718750000000, -52.718750000000, -14.320312500000, 1490865905
-0.210937500000, -0.838867187500, -0.014160156250, -48.718750000000, -52.718750000000, -14.320312500000, 1490865905
-0.210937500000, -0.838867187500, -0.014160156250, -48.718750000000, -52.718750000000, -14.320312500000, 1490865905
-0.209716796875, -0.840820312500, 0.073974609375, -11.234375000000, 11.203125000000, 9.179687500000, 1490865905
-0.209716796875, -0.840820312500, 0.073974609375, -11.234375000000, 11.203125000000, 9.179687500000, 1490865905
-0.209716796875, -0.840820312500, 0.073974609375, -11.234375000000, 11.203125000000, 9.179687500000, 1490865905
-0.197753906250, -0.855224609375, -0.004394531250, -0.859375000000, 89.101562500000, 15.359375000000, 1490865905
-0.197753906250, -0.855224609375, -0.004394531250, -0.859375000000, 89.101562500000, 15.359375000000, 1490865905
-0.197753906250, -0.855224609375, -0.004394531250, -0.859375000000, 89.101562500000, 15.359375000000, 1490865905
-0.197753906250, -0.855224609375, -0.004394531250, -0.859375000000, 89.101562500000, 15.359375000000, 1490865905
-0.256103515625, -0.712402343750, 0.400146484375, 162.843750000000, -228.164062500000, 13.523437500000, 1490865905
-0.256103515625, -0.712402343750, 0.400146484375, 162.843750000000, -228.164062500000, 13.523437500000, 1490865905
-0.256103515625, -0.712402343750, 0.400146484375, 162.843750000000, -228.164062500000, 13.523437500000, 1490865905
-0.143798828125, -0.765136718750, 0.445312500000, 49.390625000000, -256.000000000000, -21.156250000000, 1490865905
-0.143798828125, -0.765136718750, 0.445312500000, 49.390625000000, -256.000000000000, -21.156250000000, 1490865905
-0.143798828125, -0.765136718750, 0.445312500000, 49.390625000000, -256.000000000000, -21.156250000000, 1490865905
0.289794921875, -1.010498046875, 0.707763671875, -60.203125000000, -64.523437500000, -62.367187500000, 1490865905
0.289794921875, -1.010498046875, 0.707763671875, -60.203125000000, -64.523437500000, -62.367187500000, 1490865905
0.289794921875, -1.010498046875, 0.707763671875, -60.203125000000, -64.523437500000, -62.367187500000, 1490865905
0.063964843750, -0.907226562500, 0.185302734375, -59.695312500000, 114.265625000000, 29.304687500000, 1490865905
0.063964843750, -0.907226562500, 0.185302734375, -59.695312500000, 114.265625000000, 29.304687500000, 1490865905
0.063964843750, -0.907226562500, 0.185302734375, -59.695312500000, 114.265625000000, 29.304687500000, 1490865905
0.063964843750, -0.907226562500, 0.185302734375, -59.695312500000, 114.265625000000, 29.304687500000, 1490865905
-0.063476562500, -0.972167968750, 0.171142578125, -96.179687500000, 2.859375000000, -4.617187500000, 1490865905
-0.063476562500, -0.972167968750, 0.171142578125, -96.179687500000, 2.859375000000, -4.617187500000, 1490865905
-0.063476562500, -0.972167968750, 0.171142578125, -96.179687500000, 2.859375000000, -4.617187500000, 1490865905
-0.086425781250, -0.933349609375, 0.216796875000, -52.890625000000, 23.570312500000, -6.531250000000, 1490865905
-0.086425781250, -0.933349609375, 0.216796875000, -52.890625000000, 23.570312500000, -6.531250000000, 1490865905
-0.086425781250, -0.933349609375, 0.216796875000, -52.890625000000, 23.570312500000, -6.531250000000, 1490865905
-0.064208984375, -0.993896484375, 0.264648437500, -2.390625000000, 12.531250000000, -3.328125000000, 1490865905
-0.064208984375, -0.993896484375, 0.264648437500, -2.390625000000, 12.531250000000, -3.328125000000, 1490865905
-0.064208984375, -0.993896484375, 0.264648437500, -2.390625000000, 12.531250000000, -3.328125000000, 1490865905
0.085205078125, -1.016845703125, 0.327636718750, 35.453125000000, -50.125000000000, 0.171875000000, 1490865905
0.085205078125, -1.016845703125, 0.327636718750, 35.453125000000, -50.125000000000, 0.171875000000, 1490865905
0.085205078125, -1.016845703125, 0.327636718750, 35.453125000000, -50.125000000000, 0.171875000000, 1490865905
0.085205078125, -1.016845703125, 0.327636718750, 35.453125000000, -50.125000000000, 0.171875000000, 1490865905
-0.133544921875, -0.944580078125, 0.413330078125, 7.609375000000, 8.835937500000, 7.328125000000, 1490865905
-0.133544921875, -0.944580078125, 0.413330078125, 7.609375000000, 8.835937500000, 7.328125000000, 1490865905
-0.133544921875, -0.944580078125, 0.413330078125, 7.609375000000, 8.835937500000, 7.328125000000, 1490865905
-0.126220703125, -1.007324218750, 0.351806640625, -29.218750000000, 2.718750000000, 3.382812500000, 1490865905
-0.126220703125, -1.007324218750, 0.351806640625, -29.218750000000, 2.718750000000, 3.382812500000, 1490865905
-0.126220703125, -1.007324218750, 0.351806640625, -29.218750000000, 2.718750000000, 3.382812500000, 1490865905
-0.007324218750, -0.960205078125, 0.377441406250, -16.710937500000, 3.218750000000, 2.140625000000, 1490865905
-0.007324218750, -0.960205078125, 0.377441406250, -16.710937500000, 3.218750000000, 2.140625000000, 1490865905
-0.007324218750, -0.960205078125, 0.377441406250, -16.710937500000, 3.218750000000, 2.140625000000, 1490865905
0.014648437500, -0.956054687500, 0.402099609375, -4.468750000000, -1.757812500000, -1.312500000000, 1490865905
0.014648437500, -0.956054687500, 0.402099609375, -4.468750000000, -1.757812500000, -1.312500000000, 1490865905
0.014648437500, -0.956054687500, 0.402099609375, -4.468750000000, -1.757812500000, -1.312500000000, 1490865905
0.014648437500, -0.956054687500, 0.402099609375, -4.468750000000, -1.757812500000, -1.312500000000, 1490865905
0.041015625000, -0.902832031250, 0.396972656250, -3.757812500000, -8.234375000000, -3.859375000000, 1490865905
0.041015625000, -0.902832031250, 0.396972656250, -3.757812500000, -8.234375000000, -3.859375000000, 1490865905
0.041015625000, -0.902832031250, 0.396972656250, -3.757812500000, -8.234375000000, -3.859375000000, 1490865905
0.034423828125, -0.930664062500, 0.305908203125, 0.617187500000, -6.804687500000, -6.375000000000, 1490865905
0.034423828125, -0.930664062500, 0.305908203125, 0.617187500000, -6.804687500000, -6.375000000000, 1490865905
0.034423828125, -0.930664062500, 0.305908203125, 0.617187500000, -6.804687500000, -6.375000000000, 1490865905
0.023681640625, -0.946044921875, 0.340576171875, 4.710937500000, -7.882812500000, -6.890625000000, 1490865905
0.023681640625, -0.946044921875, 0.340576171875, 4.710937500000, -7.882812500000, -6.890625000000, 1490865905
0.023681640625, -0.946044921875, 0.340576171875, 4.710937500000, -7.882812500000, -6.890625000000, 1490865905
-0.029785156250, -0.948486328125, 0.344482421875, 1.937500000000, -12.617187500000, -4.906250000000, 1490865905
-0.029785156250, -0.948486328125, 0.344482421875, 1.937500000000, -12.617187500000, -4.906250000000, 1490865906
-0.029785156250, -0.948486328125, 0.344482421875, 1.937500000000, -12.617187500000, -4.906250000000, 1490865906
-0.029785156250, -0.948486328125, 0.344482421875, 1.937500000000, -12.617187500000, -4.906250000000, 1490865906
0.073974609375, -0.848876953125, 0.445800781250, -5.289062500000, -2.187500000000, -4.062500000000, 1490865906
0.073974609375, -0.848876953125, 0.445800781250, -5.289062500000, -2.187500000000, -4.062500000000, 1490865906
0.073974609375, -0.848876953125, 0.445800781250, -5.289062500000, -2.187500000000, -4.062500000000, 1490865906
-0.015869140625, -0.795898437500, 0.310302734375, -11.500000000000, 2.570312500000, 2.250000000000, 1490865906
-0.015869140625, -0.795898437500, 0.310302734375, -11.500000000000, 2.570312500000, 2.250000000000, 1490865906
-0.015869140625, -0.795898437500, 0.310302734375, -11.500000000000, 2.570312500000, 2.250000000000, 1490865906
-0.030029296875, -0.918945312500, 0.296630859375, -5.851562500000, -1.265625000000, -0.953125000000, 1490865906
-0.030029296875, -0.918945312500, 0.296630859375, -5.851562500000, -1.265625000000, -0.953125000000, 1490865906
-0.030029296875, -0.918945312500, 0.296630859375, -5.851562500000, -1.265625000000, -0.953125000000, 1490865906
0.020751953125, -1.005371093750, 0.286132812500, -4.664062500000, -2.054687500000, 1.570312500000, 1490865906
0.020751953125, -1.005371093750, 0.286132812500, -4.664062500000, -2.054687500000, 1.570312500000, 1490865906
0.020751953125, -1.005371093750, 0.286132812500, -4.664062500000, -2.054687500000, 1.570312500000, 1490865906
0.020751953125, -1.005371093750, 0.286132812500, -4.664062500000, -2.054687500000, 1.570312500000, 1490865906
-0.006347656250, -0.925292968750, 0.304687500000, -3.476562500000, -0.554687500000, -0.140625000000, 1490865906
-0.006347656250, -0.925292968750, 0.304687500000, -3.476562500000, -0.554687500000, -0.140625000000, 1490865906
-0.006347656250, -0.925292968750, 0.304687500000, -3.476562500000, -0.554687500000, -0.140625000000, 1490865906
0.053710937500, -1.003906250000, 0.308593750000, -2.203125000000, 8.898437500000, 4.312500000000, 1490865906
0.053710937500, -1.003906250000, 0.308593750000, -2.203125000000, 8.898437500000, 4.312500000000, 1490865906
0.053710937500, -1.003906250000, 0.308593750000, -2.203125000000, 8.898437500000, 4.312500000000, 1490865906
0.033203125000, -0.962158203125, 0.291503906250, -2.976562500000, 7.101562500000, 2.351562500000, 1490865906
0.033203125000, -0.962158203125, 0.291503906250, -2.976562500000, 7.101562500000, 2.351562500000, 1490865906
0.033203125000, -0.962158203125, 0.291503906250, -2.976562500000, 7.101562500000, 2.351562500000, 1490865906
-0.069580078125, -1.031250000000, 0.400390625000, -1.789062500000, 8.156250000000, 6.375000000000, 1490865906
-0.069580078125, -1.031250000000, 0.400390625000, -1.789062500000, 8.156250000000, 6.375000000000, 1490865906
-0.069580078125, -1.031250000000, 0.400390625000, -1.789062500000, 8.156250000000, 6.375000000000, 1490865906
-0.069580078125, -1.031250000000, 0.400390625000, -1.789062500000, 8.156250000000, 6.375000000000, 1490865906
0.068603515625, -0.936767578125, 0.377929687500, -6.054687500000, 7.710937500000, 6.382812500000, 1490865906
0.068603515625, -0.936767578125, 0.377929687500, -6.054687500000, 7.710937500000, 6.382812500000, 1490865906
0.068603515625, -0.936767578125, 0.377929687500, -6.054687500000, 7.710937500000, 6.382812500000, 1490865906
0.020263671875, -0.915283203125, 0.418212890625, -3.765625000000, 8.304687500000, 2.414062500000, 1490865906
0.020263671875, -0.915283203125, 0.418212890625, -3.765625000000, 8.304687500000, 2.414062500000, 1490865906
0.020263671875, -0.915283203125, 0.418212890625, -3.765625000000, 8.304687500000, 2.414062500000, 1490865906
0.080078125000, -0.952392578125, 0.297851562500, -3.453125000000, 8.968750000000, 2.640625000000, 1490865906
0.080078125000, -0.952392578125, 0.297851562500, -3.453125000000, 8.968750000000, 2.640625000000, 1490865906
0.080078125000, -0.952392578125, 0.297851562500, -3.453125000000, 8.968750000000, 2.640625000000, 1490865906
0.023925781250, -0.851318359375, 0.340087890625, -4.859375000000, 6.773437500000, -0.015625000000, 1490865906
0.023925781250, -0.851318359375, 0.340087890625, -4.859375000000, 6.773437500000, -0.015625000000, 1490865906
0.023925781250, -0.851318359375, 0.340087890625, -4.859375000000, 6.773437500000, -0.015625000000, 1490865906
0.023925781250, -0.851318359375, 0.340087890625, -4.859375000000, 6.773437500000, -0.015625000000, 1490865906
0.128173828125, -0.948974609375, 0.384521484375, -2.296875000000, 6.460937500000, 2.312500000000, 1490865906
0.128173828125, -0.948974609375, 0.384521484375, -2.296875000000, 6.460937500000, 2.312500000000, 1490865906
0.128173828125, -0.948974609375, 0.384521484375, -2.296875000000, 6.460937500000, 2.312500000000, 1490865906
0.083984375000, -1.027587890625, 0.391845703125, -1.179687500000, 3.578125000000, -0.187500000000, 1490865906
0.083984375000, -1.027587890625, 0.391845703125, -1.179687500000, 3.578125000000, -0.187500000000, 1490865906
0.083984375000, -1.027587890625, 0.391845703125, -1.179687500000, 3.578125000000, -0.187500000000, 1490865906
0.108398437500, -0.911132812500, 0.375732421875, -2.484375000000, 6.093750000000, -1.039062500000, 1490865906
0.108398437500, -0.911132812500, 0.375732421875, -2.484375000000, 6.093750000000, -1.039062500000, 1490865906
0.108398437500, -0.911132812500, 0.375732421875, -2.484375000000, 6.093750000000, -1.039062500000, 1490865906
0.153808593750, -0.914306640625, 0.361083984375, -2.421875000000, 4.750000000000, -2.515625000000, 1490865906
0.153808593750, -0.914306640625, 0.361083984375, -2.421875000000, 4.750000000000, -2.515625000000, 1490865906
0.153808593750, -0.914306640625, 0.361083984375, -2.421875000000, 4.750000000000, -2.515625000000, 1490865906
0.153808593750, -0.914306640625, 0.361083984375, -2.421875000000, 4.750000000000, -2.515625000000, 1490865906
0.051757812500, -0.964355468750, 0.390380859375, -4.132812500000, 4.015625000000, -4.671875000000, 1490865906
0.051757812500, -0.964355468750, 0.390380859375, -4.132812500000, 4.015625000000, -4.671875000000, 1490865906
0.051757812500, -0.964355468750, 0.390380859375, -4.132812500000, 4.015625000000, -4.671875000000, 1490865906
-0.017822265625, -0.917968750000, 0.287353515625, -3.695312500000, 1.148437500000, -4.250000000000, 1490865906
-0.017822265625, -0.917968750000, 0.287353515625, -3.695312500000, 1.148437500000, -4.250000000000, 1490865906
0.060791015625, -1.087402343750, 0.444091796875, -3.750000000000, 1.140625000000, -3.640625000000, 1490865906
0.060791015625, -1.087402343750, 0.444091796875, -3.750000000000, 1.140625000000, -3.640625000000, 1490865906
0.060791015625, -1.087402343750, 0.444091796875, -3.750000000000, 1.140625000000, -3.640625000000, 1490865906
0.060791015625, -1.087402343750, 0.444091796875, -3.750000000000, 1.140625000000, -3.640625000000, 1490865906
0.003173828125, -0.884521484375, 0.301025390625, -6.867187500000, 2.265625000000, -5.281250000000, 1490865906
