ACC_X,ACC_Y,ACC_Z,G_X,G_Y,G_Z,Unix Time
-0.322509765625, -0.148681640625, -0.952636718750, -3.867187500000, 0.484375000000, -1.117187500000, 1490865276
-0.322509765625, -0.148681640625, -0.952636718750, -3.867187500000, 0.484375000000, -1.117187500000, 1490865276
-0.322509765625, -0.148681640625, -0.952636718750, -3.867187500000, 0.484375000000, -1.117187500000, 1490865276
-0.309326171875, -0.054443359375, -0.898681640625, -5.351562500000, 2.460937500000, -4.875000000000, 1490865276
-0.309326171875, -0.054443359375, -0.898681640625, -5.351562500000, 2.460937500000, -4.875000000000, 1490865276
-0.309326171875, -0.054443359375, -0.898681640625, -5.351562500000, 2.460937500000, -4.875000000000, 1490865276
-0.309326171875, -0.054443359375, -0.898681640625, -5.351562500000, 2.460937500000, -4.875000000000, 1490865276
-0.309326171875, -0.054443359375, -0.898681640625, -5.351562500000, 2.460937500000, -4.875000000000, 1490865276
-0.393798828125, -0.126953125000, -0.873779296875, -3.398437500000, -2.765625000000, -1.757812500000, 1490865276
-0.393798828125, -0.126953125000, -0.873779296875, -3.398437500000, -2.765625000000, -1.757812500000, 1490865276
-0.393798828125, -0.126953125000, -0.873779296875, -3.398437500000, -2.765625000000, -1.757812500000, 1490865276
-0.394775390625, -0.048583984375, -0.954101562500, -4.320312500000, -0.023437500000, -4.273437500000, 1490865276
-0.394775390625, -0.048583984375, -0.954101562500, -4.320312500000, -0.023437500000, -4.273437500000, 1490865276
-0.394775390625, -0.048583984375, -0.954101562500, -4.320312500000, -0.023437500000, -4.273437500000, 1490865276
-0.394775390625, -0.048583984375, -0.954101562500, -4.320312500000, -0.023437500000, -4.273437500000, 1490865276
-0.278320312500, -0.167480468750, -0.939208984375, -1.257812500000, -0.648437500000, -3.953125000000, 1490865276
-0.278320312500, -0.167480468750, -0.939208984375, -1.257812500000, -0.648437500000, -3.953125000000, 1490865276
-0.278320312500, -0.167480468750, -0.939208984375, -1.257812500000, -0.648437500000, -3.953125000000, 1490865276
-0.306396484375, -0.202880859375, -0.858642578125, -4.695312500000, 2.195312500000, -1.937500000000, 1490865276
-0.306396484375, -0.202880859375, -0.858642578125, -4.695312500000, 2.195312500000, -1.937500000000, 1490865276
-0.306396484375, -0.202880859375, -0.858642578125, -4.695312500000, 2.195312500000, -1.937500000000, 1490865276
-0.281982421875, -0.116943359375, -0.869384765625, -4.320312500000, 2.148437500000, -3.117187500000, 1490865276
-0.281982421875, -0.116943359375, -0.869384765625, -4.320312500000, 2.148437500000, -3.117187500000, 1490865276
-0.281982421875, -0.116943359375, -0.869384765625, -4.320312500000, 2.148437500000, -3.117187500000, 1490865276
-0.349121093750, -0.182128906250, -0.896484375000, -3.390625000000, -0.093750000000, -2.390625000000, 1490865276
-0.349121093750, -0.182128906250, -0.896484375000, -3.390625000000, -0.093750000000, -2.390625000000, 1490865276
-0.349121093750, -0.182128906250, -0.896484375000, -3.390625000000, -0.093750000000, -2.390625000000, 1490865276
-0.349121093750, -0.182128906250, -0.896484375000, -3.390625000000, -0.093750000000, -2.390625000000, 1490865276
-0.290771484375, -0.198730468750, -0.873046875000, -3.898437500000, 2.804687500000, -4.500000000000, 1490865276
-0.290771484375, -0.198730468750, -0.873046875000, -3.898437500000, 2.804687500000, -4.500000000000, 1490865276
-0.290771484375, -0.198730468750, -0.873046875000, -3.898437500000, 2.804687500000, -4.500000000000, 1490865276
-0.342529296875, -0.129638671875, -0.956542968750, -3.218750000000, -0.679687500000, -4.117187500000, 1490865276
-0.342529296875, -0.129638671875, -0.956542968750, -3.218750000000, -0.679687500000, -4.117187500000, 1490865276
-0.342529296875, -0.129638671875, -0.956542968750, -3.218750000000, -0.679687500000, -4.117187500000, 1490865276
-0.264160156250, -0.191650390625, -0.917968750000, -6.210937500000, 4.671875000000, -2.359375000000, 1490865276
-0.264160156250, -0.191650390625, -0.917968750000, -6.210937500000, 4.671875000000, -2.359375000000, 1490865276
-0.264160156250, -0.191650390625, -0.917968750000, -6.210937500000, 4.671875000000, -2.359375000000, 1490865276
-0.291259765625, -0.057861328125, -0.903564453125, -3.328125000000, 0.375000000000, -5.093750000000, 1490865276
-0.291259765625, -0.057861328125, -0.903564453125, -3.328125000000, 0.375000000000, -5.093750000000, 1490865276
-0.291259765625, -0.057861328125, -0.903564453125, -3.328125000000, 0.375000000000, -5.093750000000, 1490865276
-0.385986328125, -0.216064453125, -1.011718750000, -1.953125000000, 2.265625000000, -2.687500000000, 1490865276
-0.339355468750, -0.092529296875, -0.926025390625, -6.703125000000, -0.820312500000, -1.820312500000, 1490865276
-0.339355468750, -0.092529296875, -0.926025390625, -6.703125000000, -0.820312500000, -1.820312500000, 1490865276
-0.339355468750, -0.092529296875, -0.926025390625, -6.703125000000, -0.820312500000, -1.820312500000, 1490865276
-0.239257812500, -0.118896484375, -0.870605468750, -3.054687500000, -0.296875000000, -1.726562500000, 1490865276
-0.239257812500, -0.118896484375, -0.870605468750, -3.054687500000, -0.296875000000, -1.726562500000, 1490865276
-0.239257812500, -0.118896484375, -0.870605468750, -3.054687500000, -0.296875000000, -1.726562500000, 1490865276
-0.214599609375, -0.196289062500, -0.894287109375, -3.703125000000, -0.617187500000, -4.429687500000, 1490865276
-0.214599609375, -0.196289062500, -0.894287109375, -3.703125000000, -0.617187500000, -4.429687500000, 1490865276
-0.214599609375, -0.196289062500, -0.894287109375, -3.703125000000, -0.617187500000, -4.429687500000, 1490865276
-0.300292968750, -0.119628906250, -0.949218750000, -3.101562500000, -0.414062500000, -3.750000000000, 1490865276
-0.300292968750, -0.119628906250, -0.949218750000, -3.101562500000, -0.414062500000, -3.750000000000, 1490865276
-0.300292968750, -0.119628906250, -0.949218750000, -3.101562500000, -0.414062500000, -3.750000000000, 1490865276
-0.300292968750, -0.119628906250, -0.949218750000, -3.101562500000, -0.414062500000, -3.750000000000, 1490865276
-0.347656250000, -0.147216796875, -0.911132812500, -4.679687500000, -0.687500000000, -6.281250000000, 1490865276
-0.347656250000, -0.147216796875, -0.911132812500, -4.679687500000, -0.687500000000, -6.281250000000, 1490865276
-0.347656250000, -0.147216796875, -0.911132812500, -4.679687500000, -0.687500000000, -6.281250000000, 1490865276
-0.310791015625, -0.156250000000, -0.910400390625, -3.632812500000, -0.820312500000, -1.171875000000, 1490865276
-0.310791015625, -0.156250000000, -0.910400390625, -3.632812500000, -0.820312500000, -1.171875000000, 1490865276
-0.310791015625, -0.156250000000, -0.910400390625, -3.632812500000, -0.820312500000, -1.171875000000, 1490865276
-0.319824218750, -0.130371093750, -0.862304687500, -3.648437500000, 0.421875000000, -3.320312500000, 1490865276
-0.319824218750, -0.130371093750, -0.862304687500, -3.648437500000, 0.421875000000, -3.320312500000, 1490865276
-0.319824218750, -0.130371093750, -0.862304687500, -3.648437500000, 0.421875000000, -3.320312500000, 1490865276
-0.377929687500, -0.111816406250, -0.929443359375, -4.265625000000, -0.148437500000, -4.328125000000, 1490865277
-0.377929687500, -0.111816406250, -0.929443359375, -4.265625000000, -0.148437500000, -4.328125000000, 1490865277
-0.377929687500, -0.111816406250, -0.929443359375, -4.265625000000, -0.148437500000, -4.328125000000, 1490865277
-0.377929687500, -0.111816406250, -0.929443359375, -4.265625000000, -0.148437500000, -4.328125000000, 1490865277
-0.319091796875, -0.153808593750, -0.866699218750, -3.484375000000, 2.507812500000, -1.796875000000, 1490865277
-0.319091796875, -0.153808593750, -0.866699218750, -3.484375000000, 2.507812500000, -1.796875000000, 1490865277
-0.319091796875, -0.153808593750, -0.866699218750, -3.484375000000, 2.507812500000, -1.796875000000, 1490865277
-0.239013671875, -0.190917968750, -0.924560546875, -4.539062500000, 2.187500000000, -4.773437500000, 1490865277
-0.239013671875, -0.190917968750, -0.924560546875, -4.539062500000, 2.187500000000, -4.773437500000, 1490865277
-0.239013671875, -0.190917968750, -0.924560546875, -4.539062500000, 2.187500000000, -4.773437500000, 1490865277
-0.248535156250, -0.059326171875, -1.003906250000, -4.640625000000, 1.078125000000, -1.921875000000, 1490865277
-0.248535156250, -0.059326171875, -1.003906250000, -4.640625000000, 1.078125000000, -1.921875000000, 1490865277
-0.248535156250, -0.059326171875, -1.003906250000, -4.640625000000, 1.078125000000, -1.921875000000, 1490865277
-0.243164062500, -0.208007812500, -0.947509765625, -4.445312500000, -0.539062500000, -1.882812500000, 1490865277
-0.243164062500, -0.208007812500, -0.947509765625, -4.445312500000, -0.539062500000, -1.882812500000, 1490865277
-0.243164062500, -0.208007812500, -0.947509765625, -4.445312500000, -0.539062500000, -1.882812500000, 1490865277
-0.243164062500, -0.208007812500, -0.947509765625, -4.445312500000, -0.539062500000, -1.882812500000, 1490865277
-0.258300781250, -0.102050781250, -0.915039062500, -3.445312500000, 2.062500000000, -4.515625000000, 1490865277
-0.258300781250, -0.102050781250, -0.915039062500, -3.445312500000, 2.062500000000, -4.515625000000, 1490865277
-0.258300781250, -0.102050781250, -0.915039062500, -3.445312500000, 2.062500000000, -4.515625000000, 1490865277
-0.220214843750, -0.105957031250, -0.856201171875, -4.320312500000, 2.070312500000, -4.078125000000, 1490865277
-0.220214843750, -0.105957031250, -0.856201171875, -4.320312500000, 2.070312500000, -4.078125000000, 1490865277
-0.220214843750, -0.105957031250, -0.856201171875, -4.320312500000, 2.070312500000, -4.078125000000, 1490865277
-0.291259765625, -0.169189453125, -0.897216796875, -4.640625000000, -2.343750000000, -3.148437500000, 1490865277
-0.333251953125, -0.197753906250, -0.918701171875, -1.476562500000, 4.382812500000, -1.882812500000, 1490865277
-0.333251953125, -0.197753906250, -0.918701171875, -1.476562500000, 4.382812500000, -1.882812500000, 1490865277
-0.333251953125, -0.197753906250, -0.918701171875, -1.476562500000, 4.382812500000, -1.882812500000, 1490865277
-0.333251953125, -0.197753906250, -0.918701171875, -1.476562500000, 4.382812500000, -1.882812500000, 1490865277
-0.333251953125, -0.197753906250, -0.918701171875, -1.476562500000, 4.382812500000, -1.882812500000, 1490865277
-0.292236328125, -0.169677734375, -0.950439453125, -4.039062500000, 0.695312500000, -4.375000000000, 1490865277
-0.292236328125, -0.169677734375, -0.950439453125, -4.039062500000, 0.695312500000, -4.375000000000, 1490865277
-0.292236328125, -0.169677734375, -0.950439453125, -4.039062500000, 0.695312500000, -4.375000000000, 1490865277
-0.292236328125, -0.169677734375, -0.950439453125, -4.039062500000, 0.695312500000, -4.375000000000, 1490865277
-0.391601562500, -0.121826171875, -1.015625000000, -3.023437500000, 2.375000000000, -1.656250000000, 1490865277
-0.391601562500, -0.121826171875, -1.015625000000, -3.023437500000, 2.375000000000, -1.656250000000, 1490865277
-0.391601562500, -0.121826171875, -1.015625000000, -3.023437500000, 2.375000000000, -1.656250000000, 1490865277
-0.297607421875, -0.201416015625, -0.908447265625, -3.234375000000, -0.531250000000, -1.453125000000, 1490865277
-0.297607421875, -0.201416015625, -0.908447265625, -3.234375000000, -0.531250000000, -1.453125000000, 1490865277
-0.297607421875, -0.201416015625, -0.908447265625, -3.234375000000, -0.531250000000, -1.453125000000, 1490865277
-0.320556640625, -0.106445312500, -0.907958984375, -4.601562500000, 0.960937500000, -3.148437500000, 1490865277
-0.320556640625, -0.106445312500, -0.907958984375, -4.601562500000, 0.960937500000, -3.148437500000, 1490865277
-0.320556640625, -0.106445312500, -0.907958984375, -4.601562500000, 0.960937500000, -3.148437500000, 1490865277
-0.320556640625, -0.106445312500, -0.907958984375, -4.601562500000, 0.960937500000, -3.148437500000, 1490865277
-0.401611328125, -0.237548828125, -0.960205078125, -4.523437500000, -0.859375000000, -4.445312500000, 1490865277
-0.401611328125, -0.237548828125, -0.960205078125, -4.523437500000, -0.859375000000, -4.445312500000, 1490865277
-0.401611328125, -0.237548828125, -0.960205078125, -4.523437500000, -0.859375000000, -4.445312500000, 1490865277
-0.324707031250, -0.209960937500, -1.021728515625, -4.945312500000, 0.632812500000, -4.101562500000, 1490865277
-0.324707031250, -0.209960937500, -1.021728515625, -4.945312500000, 0.632812500000, -4.101562500000, 1490865277
-0.324707031250, -0.209960937500, -1.021728515625, -4.945312500000, 0.632812500000, -4.101562500000, 1490865277
-0.256835937500, -0.164062500000, -0.875000000000, -3.890625000000, 2.890625000000, -4.335937500000, 1490865277
-0.256835937500, -0.164062500000, -0.875000000000, -3.890625000000, 2.890625000000, -4.335937500000, 1490865277
-0.256835937500, -0.164062500000, -0.875000000000, -3.890625000000, 2.890625000000, -4.335937500000, 1490865277
-0.375732421875, -0.192382812500, -0.898437500000, -3.539062500000, -2.195312500000, -6.484375000000, 1490865277
-0.375732421875, -0.192382812500, -0.898437500000, -3.539062500000, -2.195312500000, -6.484375000000, 1490865277
-0.375732421875, -0.192382812500, -0.898437500000, -3.539062500000, -2.195312500000, -6.484375000000, 1490865277
-0.375732421875, -0.192382812500, -0.898437500000, -3.539062500000, -2.195312500000, -6.484375000000, 1490865277
-0.378417968750, -0.091552734375, -0.965820312500, -1.359375000000, -0.398437500000, -4.257812500000, 1490865277
-0.378417968750, -0.091552734375, -0.965820312500, -1.359375000000, -0.398437500000, -4.257812500000, 1490865277
-0.378417968750, -0.091552734375, -0.965820312500, -1.359375000000, -0.398437500000, -4.257812500000, 1490865277
-0.341552734375, -0.193359375000, -0.885742187500, -4.062500000000, -0.265625000000, -4.882812500000, 1490865277
-0.341552734375, -0.193359375000, -0.885742187500, -4.062500000000, -0.265625000000, -4.882812500000, 1490865277
-0.341552734375, -0.193359375000, -0.885742187500, -4.062500000000, -0.265625000000, -4.882812500000, 1490865277
-0.240234375000, -0.137207031250, -0.940917968750, -4.656250000000, 1.117187500000, -3.421875000000, 1490865277
-0.240234375000, -0.137207031250, -0.940917968750, -4.656250000000, 1.117187500000, -3.421875000000, 1490865277
-0.240234375000, -0.137207031250, -0.940917968750, -4.656250000000, 1.117187500000, -3.421875000000, 1490865277
-0.245605468750, -0.188232421875, -0.956054687500, -3.710937500000, 2.218750000000, -4.406250000000, 1490865277
-0.297607421875, -0.182373046875, -0.963623046875, -3.710937500000, 2.218750000000, -4.406250000000, 1490865278
-0.297607421875, -0.182373046875, -0.963623046875, -3.710937500000, 2.218750000000, -4.406250000000, 1490865278
-0.286865234375, -0.098632812500, -0.867675781250, -5.101562500000, -0.250000000000, -3.203125000000, 1490865278
-0.286865234375, -0.098632812500, -0.867675781250, -5.101562500000, -0.250000000000, -3.203125000000, 1490865278
-0.286865234375, -0.098632812500, -0.867675781250, -5.101562500000, -0.250000000000, -3.203125000000, 1490865278
-0.286865234375, -0.098632812500, -0.867675781250, -5.101562500000, -0.250000000000, -3.203125000000, 1490865278
-0.312500000000, -0.210937500000, -0.943847656250, -3.289062500000, -0.500000000000, -3.312500000000, 1490865278
-0.312500000000, -0.210937500000, -0.943847656250, -3.289062500000, -0.500000000000, -3.312500000000, 1490865278
-0.312500000000, -0.210937500000, -0.943847656250, -3.289062500000, -0.500000000000, -3.312500000000, 1490865278
-0.300292968750, -0.185546875000, -0.885498046875, -6.625000000000, -0.828125000000, -3.273437500000, 1490865278
-0.300292968750, -0.185546875000, -0.885498046875, -6.625000000000, -0.828125000000, -3.273437500000, 1490865278
-0.377441406250, -0.112304687500, -1.007568359375, -6.265625000000, 2.000000000000, -4.429687500000, 1490865278
-0.378662109375, -0.098388671875, -0.913085937500, -3.843750000000, 4.578125000000, -2.257812500000, 1490865278
-0.378662109375, -0.098388671875, -0.913085937500, -3.843750000000, 4.578125000000, -2.257812500000, 1490865278
-0.378662109375, -0.098388671875, -0.913085937500, -3.843750000000, 4.578125000000, -2.257812500000, 1490865278
-0.378662109375, -0.098388671875, -0.913085937500, -3.843750000000, 4.578125000000, -2.257812500000, 1490865278
-0.378662109375, -0.098388671875, -0.913085937500, -3.843750000000, 4.578125000000, -2.257812500000, 1490865278
-0.225341796875, -0.187744140625, -0.855712890625, -6.375000000000, -1.070312500000, -4.656250000000, 1490865278
-0.225341796875, -0.187744140625, -0.855712890625, -6.375000000000, -1.070312500000, -4.656250000000, 1490865278
-0.225341796875, -0.187744140625, -0.855712890625, -6.375000000000, -1.070312500000, -4.656250000000, 1490865278
-0.225341796875, -0.187744140625, -0.855712890625, -6.375000000000, -1.070312500000, -4.656250000000, 1490865278
-0.402587890625, -0.097900390625, -1.023193359375, -3.773437500000, -2.210937500000, -1.937500000000, 1490865278
-0.402587890625, -0.097900390625, -1.023193359375, -3.773437500000, -2.210937500000, -1.937500000000, 1490865278
-0.402587890625, -0.097900390625, -1.023193359375, -3.773437500000, -2.210937500000, -1.937500000000, 1490865278
-0.402587890625, -0.097900390625, -1.023193359375, -3.773437500000, -2.210937500000, -1.937500000000, 1490865278
-0.299072265625, -0.119140625000, -0.951660156250, -3.750000000000, 0.679687500000, -1.796875000000, 1490865278
-0.299072265625, -0.119140625000, -0.951660156250, -3.750000000000, 0.679687500000, -1.796875000000, 1490865278
-0.299072265625, -0.119140625000, -0.951660156250, -3.750000000000, 0.679687500000, -1.796875000000, 1490865278
-0.299072265625, -0.119140625000, -0.951660156250, -3.750000000000, 0.679687500000, -1.796875000000, 1490865278
-0.314208984375, -0.121337890625, -0.958496093750, -5.976562500000, 2.398437500000, -6.234375000000, 1490865278
-0.314208984375, -0.121337890625, -0.958496093750, -5.976562500000, 2.398437500000, -6.234375000000, 1490865278
-0.314208984375, -0.121337890625, -0.958496093750, -5.976562500000, 2.398437500000, -6.234375000000, 1490865278
-0.346435546875, -0.130615234375, -0.940673828125, -1.710937500000, 1.140625000000, -6.507812500000, 1490865278
-0.346435546875, -0.130615234375, -0.940673828125, -1.710937500000, 1.140625000000, -6.507812500000, 1490865278
-0.346435546875, -0.130615234375, -0.940673828125, -1.710937500000, 1.140625000000, -6.507812500000, 1490865278
-0.283447265625, -0.198486328125, -0.985595703125, -4.234375000000, 2.125000000000, -1.960937500000, 1490865278
-0.283447265625, -0.198486328125, -0.985595703125, -4.234375000000, 2.125000000000, -1.960937500000, 1490865278
-0.283447265625, -0.198486328125, -0.985595703125, -4.234375000000, 2.125000000000, -1.960937500000, 1490865278
-0.236572265625, -0.204101562500, -0.855468750000, -6.765625000000, -0.531250000000, 0.085937500000, 1490865278
-0.236572265625, -0.204101562500, -0.855468750000, -6.765625000000, -0.531250000000, 0.085937500000, 1490865278
-0.236572265625, -0.204101562500, -0.855468750000, -6.765625000000, -0.531250000000, 0.085937500000, 1490865278
-0.383056640625, -0.326904296875, -1.015869140625, -3.718750000000, -0.726562500000, -2.992187500000, 1490865278
-0.383056640625, -0.326904296875, -1.015869140625, -3.718750000000, -0.726562500000, -2.992187500000, 1490865278
-0.383056640625, -0.326904296875, -1.015869140625, -3.718750000000, -0.726562500000, -2.992187500000, 1490865278
-0.383056640625, -0.326904296875, -1.015869140625, -3.718750000000, -0.726562500000, -2.992187500000, 1490865278
-0.353515625000, -0.135498046875, -0.956298828125, -6.023437500000, 0.796875000000, -4.765625000000, 1490865278
-0.353515625000, -0.135498046875, -0.956298828125, -6.023437500000, 0.796875000000, -4.765625000000, 1490865278
-0.353515625000, -0.135498046875, -0.956298828125, -6.023437500000, 0.796875000000, -4.765625000000, 1490865278
-0.332031250000, -0.244140625000, -1.015869140625, -9.031250000000, -0.296875000000, -2.953125000000, 1490865278
-0.332031250000, -0.244140625000, -1.015869140625, -9.031250000000, -0.296875000000, -2.953125000000, 1490865278
-0.332031250000, -0.244140625000, -1.015869140625, -9.031250000000, -0.296875000000, -2.953125000000, 1490865278
-0.332031250000, -0.244140625000, -1.015869140625, -9.031250000000, -0.296875000000, -2.953125000000, 1490865278
-0.321777343750, -0.190673828125, -0.841308593750, -11.187500000000, -2.718750000000, 0.546875000000, 1490865278
-0.321777343750, -0.190673828125, -0.841308593750, -11.187500000000, -2.718750000000, 0.546875000000, 1490865278
-0.321777343750, -0.190673828125, -0.841308593750, -11.187500000000, -2.718750000000, 0.546875000000, 1490865278
-0.321777343750, -0.190673828125, -0.841308593750, -11.187500000000, -2.718750000000, 0.546875000000, 1490865278
-0.272460937500, -0.264648437500, -0.793457031250, -7.976562500000, -2.656250000000, -2.273437500000, 1490865278
-0.272460937500, -0.264648437500, -0.793457031250, -7.976562500000, -2.656250000000, -2.273437500000, 1490865278
-0.272460937500, -0.264648437500, -0.793457031250, -7.976562500000, -2.656250000000, -2.273437500000, 1490865278
-0.272460937500, -0.264648437500, -0.793457031250, -7.976562500000, -2.656250000000, -2.273437500000, 1490865278
-0.156250000000, -0.162353515625, -0.788330078125, 3.320312500000, 13.507812500000, -9.367187500000, 1490865278
-0.156250000000, -0.162353515625, -0.788330078125, 3.320312500000, 13.507812500000, -9.367187500000, 1490865278
-0.156250000000, -0.162353515625, -0.788330078125, 3.320312500000, 13.507812500000, -9.367187500000, 1490865278
-0.335449218750, -0.324707031250, -0.941650390625, 27.859375000000, -9.367187500000, -42.992187500000, 1490865278
-0.335449218750, -0.324707031250, -0.941650390625, 27.859375000000, -9.367187500000, -42.992187500000, 1490865278
-0.335449218750, -0.324707031250, -0.941650390625, 27.859375000000, -9.367187500000, -42.992187500000, 1490865278
-0.335449218750, -0.324707031250, -0.941650390625, 27.859375000000, -9.367187500000, -42.992187500000, 1490865278
-0.335449218750, -0.324707031250, -0.941650390625, 27.859375000000, -9.367187500000, -42.992187500000, 1490865279
-0.266845703125, 0.030517578125, -1.198242187500, 43.039062500000, -47.796875000000, -29.023437500000, 1490865279
-0.266845703125, 0.030517578125, -1.198242187500, 43.039062500000, -47.796875000000, -29.023437500000, 1490865279
-0.266845703125, 0.030517578125, -1.198242187500, 43.039062500000, -47.796875000000, -29.023437500000, 1490865279
-0.319580078125, -0.072753906250, -0.972900390625, 37.968750000000, -122.289062500000, -27.921875000000, 1490865279
-0.319580078125, -0.072753906250, -0.972900390625, 37.968750000000, -122.289062500000, -27.921875000000, 1490865279
-0.319580078125, -0.072753906250, -0.972900390625, 37.968750000000, -122.289062500000, -27.921875000000, 1490865279
-0.359619140625, -0.152343750000, -0.908691406250, 23.664062500000, -162.218750000000, -51.156250000000, 1490865279
-0.359619140625, -0.152343750000, -0.908691406250, 23.664062500000, -162.218750000000, -51.156250000000, 1490865279
-0.359619140625, -0.152343750000, -0.908691406250, 23.664062500000, -162.218750000000, -51.156250000000, 1490865279
-0.409912109375, 0.073486328125, -0.846435546875, 7.984375000000, -145.882812500000, -68.859375000000, 1490865279
-0.409912109375, 0.073486328125, -0.846435546875, 7.984375000000, -145.882812500000, -68.859375000000, 1490865279
-0.409912109375, 0.073486328125, -0.846435546875, 7.984375000000, -145.882812500000, -68.859375000000, 1490865279
-0.409912109375, 0.073486328125, -0.846435546875, 7.984375000000, -145.882812500000, -68.859375000000, 1490865279
-0.439453125000, -0.018554687500, -0.702636718750, 8.078125000000, -146.835937500000, -59.960937500000, 1490865279
-0.439453125000, -0.018554687500, -0.702636718750, 8.078125000000, -146.835937500000, -59.960937500000, 1490865279
-0.439453125000, -0.018554687500, -0.702636718750, 8.078125000000, -146.835937500000, -59.960937500000, 1490865279
-0.591064453125, 0.148681640625, -0.539306640625, 5.171875000000, -160.593750000000, -54.929687500000, 1490865279
-0.591064453125, 0.148681640625, -0.539306640625, 5.171875000000, -160.593750000000, -54.929687500000, 1490865279
-0.591064453125, 0.148681640625, -0.539306640625, 5.171875000000, -160.593750000000, -54.929687500000, 1490865279
-0.805175781250, 0.336669921875, -0.460693359375, 10.429687500000, -161.929687500000, -56.132812500000, 1490865279
-0.805175781250, 0.336669921875, -0.460693359375, 10.429687500000, -161.929687500000, -56.132812500000, 1490865279
-0.805175781250, 0.336669921875, -0.460693359375, 10.429687500000, -161.929687500000, -56.132812500000, 1490865279
-0.804199218750, 0.232666015625, -0.269042968750, -1.039062500000, -183.343750000000, -49.476562500000, 1490865279
-0.804199218750, 0.232666015625, -0.269042968750, -1.039062500000, -183.343750000000, -49.476562500000, 1490865279
-0.804199218750, 0.232666015625, -0.269042968750, -1.039062500000, -183.343750000000, -49.476562500000, 1490865279
-0.804199218750, 0.232666015625, -0.269042968750, -1.039062500000, -183.343750000000, -49.476562500000, 1490865279
-0.953369140625, 0.251464843750, -0.045654296875, 2.265625000000, -194.429687500000, -22.484375000000, 1490865279
-0.934570312500, 0.329101562500, -0.007324218750, -24.406250000000, -206.570312500000, -5.945312500000, 1490865279
-0.834716796875, 0.157226562500, 0.186523437500, -27.828125000000, -234.242187500000, 0.484375000000, 1490865279
-0.834716796875, 0.157226562500, 0.186523437500, -27.828125000000, -234.242187500000, 0.484375000000, 1490865279
-0.834716796875, 0.157226562500, 0.186523437500, -27.828125000000, -234.242187500000, 0.484375000000, 1490865279
-0.551757812500, 0.200195312500, 0.241455078125, -19.820312500000, -143.351562500000, -24.835937500000, 1490865279
-0.551757812500, 0.200195312500, 0.241455078125, -19.820312500000, -143.351562500000, -24.835937500000, 1490865279
-0.551757812500, 0.200195312500, 0.241455078125, -19.820312500000, -143.351562500000, -24.835937500000, 1490865279
-0.551757812500, 0.200195312500, 0.241455078125, -19.820312500000, -143.351562500000, -24.835937500000, 1490865279
-0.551757812500, 0.200195312500, 0.241455078125, -19.820312500000, -143.351562500000, -24.835937500000, 1490865279
-0.551757812500, 0.200195312500, 0.241455078125, -19.820312500000, -143.351562500000, -24.835937500000, 1490865279
-0.699218750000, 0.104492187500, 0.229980468750, -42.804687500000, -107.773437500000, -33.468750000000, 1490865279
-0.699218750000, 0.104492187500, 0.229980468750, -42.804687500000, -107.773437500000, -33.468750000000, 1490865279
-0.699218750000, 0.104492187500, 0.229980468750, -42.804687500000, -107.773437500000, -33.468750000000, 1490865279
-0.699218750000, 0.104492187500, 0.229980468750, -42.804687500000, -107.773437500000, -33.468750000000, 1490865279
-0.699218750000, 0.104492187500, 0.229980468750, -42.804687500000, -107.773437500000, -33.468750000000, 1490865279
-0.343505859375, 0.233642578125, -0.074951171875, -71.617187500000, 94.695312500000, 31.968750000000, 1490865279
-0.343505859375, 0.233642578125, -0.074951171875, -71.617187500000, 94.695312500000, 31.968750000000, 1490865279
-0.343505859375, 0.233642578125, -0.074951171875, -71.617187500000, 94.695312500000, 31.968750000000, 1490865279
0.298583984375, 0.436523437500, -0.291015625000, -256.000000000000, 198.414062500000, -90.343750000000, 1490865279
0.298583984375, 0.436523437500, -0.291015625000, -256.000000000000, 198.414062500000, -90.343750000000, 1490865279
0.298583984375, 0.436523437500, -0.291015625000, -256.000000000000, 198.414062500000, -90.343750000000, 1490865279
0.298583984375, 0.436523437500, -0.291015625000, -256.000000000000, 198.414062500000, -90.343750000000, 1490865279
0.139892578125, 0.220214843750, 1.440185546875, -68.367187500000, -256.000000000000, -102.703125000000, 1490865279
0.139892578125, 0.220214843750, 1.440185546875, -68.367187500000, -256.000000000000, -102.703125000000, 1490865279
0.139892578125, 0.220214843750, 1.440185546875, -68.367187500000, -256.000000000000, -102.703125000000, 1490865279
0.510498046875, -0.090087890625, -0.329345703125, 81.718750000000, 253.992187500000, -4.281250000000, 1490865279
0.510498046875, -0.090087890625, -0.329345703125, 81.718750000000, 253.992187500000, -4.281250000000, 1490865279
0.510498046875, -0.090087890625, -0.329345703125, 81.718750000000, 253.992187500000, -4.281250000000, 1490865279
0.093750000000, 0.615966796875, -0.277587890625, 8.656250000000, 45.351562500000, -238.250000000000, 1490865279
0.093750000000, 0.615966796875, -0.277587890625, 8.656250000000, 45.351562500000, -238.250000000000, 1490865279
0.093750000000, 0.615966796875, -0.277587890625, 8.656250000000, 45.351562500000, -238.250000000000, 1490865279
-0.631347656250, 0.392578125000, 0.746093750000, -62.429687500000, -39.515625000000, -9.265625000000, 1490865279
-0.631347656250, 0.392578125000, 0.746093750000, -62.429687500000, -39.515625000000, -9.265625000000, 1490865279
-0.631347656250, 0.392578125000, 0.746093750000, -62.429687500000, -39.515625000000, -9.265625000000, 1490865279
-0.360107421875, 0.455810546875, 0.549072265625, 34.554687500000, 65.148437500000, 8.203125000000, 1490865279
-0.360107421875, 0.455810546875, 0.549072265625, 34.554687500000, 65.148437500000, 8.203125000000, 1490865279
-0.360107421875, 0.455810546875, 0.549072265625, 34.554687500000, 65.148437500000, 8.203125000000, 1490865279
-0.360107421875, 0.455810546875, 0.549072265625, 34.554687500000, 65.148437500000, 8.203125000000, 1490865279
-0.372314453125, 0.303955078125, 1.087402343750, -15.851562500000, 7.695312500000, 11.585937500000, 1490865279
-0.372314453125, 0.303955078125, 1.087402343750, -15.851562500000, 7.695312500000, 11.585937500000, 1490865280
-0.372314453125, 0.303955078125, 1.087402343750, -15.851562500000, 7.695312500000, 11.585937500000, 1490865280
-0.513427734375, 0.282714843750, 0.686035156250, 0.320312500000, 26.375000000000, 23.453125000000, 1490865280
-0.513427734375, 0.282714843750, 0.686035156250, 0.320312500000, 26.375000000000, 23.453125000000, 1490865280
-0.513427734375, 0.282714843750, 0.686035156250, 0.320312500000, 26.375000000000, 23.453125000000, 1490865280
-0.518798828125, 0.170898437500, 0.922363281250, -11.492187500000, 10.242187500000, -0.062500000000, 1490865280
-0.518798828125, 0.170898437500, 0.922363281250, -11.492187500000, 10.242187500000, -0.062500000000, 1490865280
-0.518798828125, 0.170898437500, 0.922363281250, -11.492187500000, 10.242187500000, -0.062500000000, 1490865280
-0.527587890625, 0.318603515625, 0.779541015625, -36.890625000000, -30.265625000000, -6.398437500000, 1490865280
-0.527587890625, 0.318603515625, 0.779541015625, -36.890625000000, -30.265625000000, -6.398437500000, 1490865280
-0.527587890625, 0.318603515625, 0.779541015625, -36.890625000000, -30.265625000000, -6.398437500000, 1490865280
-0.527587890625, 0.318603515625, 0.779541015625, -36.890625000000, -30.265625000000, -6.398437500000, 1490865280
-0.529052734375, 0.365966796875, 0.818847656250, -34.765625000000, -49.359375000000, -14.226562500000, 1490865280
-0.529052734375, 0.365966796875, 0.818847656250, -34.765625000000, -49.359375000000, -14.226562500000, 1490865280
-0.529052734375, 0.365966796875, 0.818847656250, -34.765625000000, -49.359375000000, -14.226562500000, 1490865280
-0.496093750000, 0.347656250000, 0.897216796875, -21.609375000000, -19.734375000000, -8.882812500000, 1490865280
-0.496093750000, 0.347656250000, 0.897216796875, -21.609375000000, -19.734375000000, -8.882812500000, 1490865280
-0.496093750000, 0.347656250000, 0.897216796875, -21.609375000000, -19.734375000000, -8.882812500000, 1490865280
-0.456542968750, 0.520751953125, 0.786376953125, -13.046875000000, -3.765625000000, -2.945312500000, 1490865280
-0.456542968750, 0.520751953125, 0.786376953125, -13.046875000000, -3.765625000000, -2.945312500000, 1490865280
-0.456542968750, 0.520751953125, 0.786376953125, -13.046875000000, -3.765625000000, -2.945312500000, 1490865280
-0.456542968750, 0.520751953125, 0.786376953125, -13.046875000000, -3.765625000000, -2.945312500000, 1490865280
-0.591796875000, 0.403808593750, 0.829345703125, -10.429687500000, 11.687500000000, 6.632812500000, 1490865280
-0.591796875000, 0.403808593750, 0.829345703125, -10.429687500000, 11.687500000000, 6.632812500000, 1490865280
-0.591796875000, 0.403808593750, 0.829345703125, -10.429687500000, 11.687500000000, 6.632812500000, 1490865280
-0.529785156250, 0.414794921875, 0.781982421875, -2.726562500000, 26.210937500000, 11.140625000000, 1490865280
-0.529785156250, 0.414794921875, 0.781982421875, -2.726562500000, 26.210937500000, 11.140625000000, 1490865280
-0.529785156250, 0.414794921875, 0.781982421875, -2.726562500000, 26.210937500000, 11.140625000000, 1490865280
-0.564208984375, 0.441162109375, 0.842285156250, -8.140625000000, 12.484375000000, 16.289062500000, 1490865280
-0.564208984375, 0.441162109375, 0.842285156250, -8.140625000000, 12.484375000000, 16.289062500000, 1490865280
-0.564208984375, 0.441162109375, 0.842285156250, -8.140625000000, 12.484375000000, 16.289062500000, 1490865280
-0.414794921875, 0.230957031250, 0.838378906250, -2.000000000000, 9.078125000000, 14.765625000000, 1490865280
-0.414794921875, 0.230957031250, 0.838378906250, -2.000000000000, 9.078125000000, 14.765625000000, 1490865280
-0.414794921875, 0.230957031250, 0.838378906250, -2.000000000000, 9.078125000000, 14.765625000000, 1490865280
-0.575195312500, 0.351074218750, 0.787109375000, 0.906250000000, -1.710937500000, 1.156250000000, 1490865280
-0.575195312500, 0.351074218750, 0.787109375000, 0.906250000000, -1.710937500000, 1.156250000000, 1490865280
-0.575195312500, 0.351074218750, 0.787109375000, 0.906250000000, -1.710937500000, 1.156250000000, 1490865280
-0.575195312500, 0.351074218750, 0.787109375000, 0.906250000000, -1.710937500000, 1.156250000000, 1490865280
-0.565673828125, 0.437988281250, 0.762451171875, -1.109375000000, -2.257812500000, -7.750000000000, 1490865280
-0.565673828125, 0.437988281250, 0.762451171875, -1.109375000000, -2.257812500000, -7.750000000000, 1490865280
-0.565673828125, 0.437988281250, 0.762451171875, -1.109375000000, -2.257812500000, -7.750000000000, 1490865280
-0.503417968750, 0.410644531250, 0.879882812500, -0.695312500000, -22.203125000000, -15.632812500000, 1490865280
-0.429687500000, 0.364990234375, 0.782714843750, 1.078125000000, -25.187500000000, -13.578125000000, 1490865280
-0.429687500000, 0.364990234375, 0.782714843750, 1.078125000000, -25.187500000000, -13.578125000000, 1490865280
-0.429687500000, 0.364990234375, 0.782714843750, 1.078125000000, -25.187500000000, -13.578125000000, 1490865280
-0.346679687500, 0.485839843750, 0.825927734375, -4.921875000000, -7.000000000000, -7.664062500000, 1490865280
-0.346679687500, 0.485839843750, 0.825927734375, -4.921875000000, -7.000000000000, -7.664062500000, 1490865280
-0.346679687500, 0.485839843750, 0.825927734375, -4.921875000000, -7.000000000000, -7.664062500000, 1490865280
-0.346679687500, 0.485839843750, 0.825927734375, -4.921875000000, -7.000000000000, -7.664062500000, 1490865280
-0.526611328125, 0.373046875000, 0.783935546875, 0.046875000000, 0.812500000000, -4.015625000000, 1490865280
-0.433837890625, 0.297607421875, 0.802734375000, 0.046875000000, 0.812500000000, -4.015625000000, 1490865280
-0.433837890625, 0.297607421875, 0.802734375000, 0.046875000000, 0.812500000000, -4.015625000000, 1490865280
-0.433837890625, 0.297607421875, 0.802734375000, 0.046875000000, 0.812500000000, -4.015625000000, 1490865280
-0.417480468750, 0.441894531250, 0.836669921875, -1.132812500000, 7.953125000000, 0.343750000000, 1490865280
-0.417480468750, 0.441894531250, 0.836669921875, -1.132812500000, 7.953125000000, 0.343750000000, 1490865280
-0.417480468750, 0.441894531250, 0.836669921875, -1.132812500000, 7.953125000000, 0.343750000000, 1490865280
-0.417480468750, 0.441894531250, 0.836669921875, -1.132812500000, 7.953125000000, 0.343750000000, 1490865280
-0.490722656250, 0.345703125000, 0.744873046875, -1.304687500000, 10.203125000000, 4.250000000000, 1490865280
-0.490722656250, 0.345703125000, 0.744873046875, -1.304687500000, 10.203125000000, 4.250000000000, 1490865280
-0.490722656250, 0.345703125000, 0.744873046875, -1.304687500000, 10.203125000000, 4.250000000000, 1490865280
-0.490722656250, 0.345703125000, 0.744873046875, -1.304687500000, 10.203125000000, 4.250000000000, 1490865280
-0.570800781250, 0.369628906250, 0.790527343750, -5.921875000000, 4.515625000000, -0.773437500000, 1490865280
-0.570800781250, 0.369628906250, 0.790527343750, -5.921875000000, 4.515625000000, -0.773437500000, 1490865280
-0.570800781250, 0.369628906250, 0.790527343750, -5.921875000000, 4.515625000000, -0.773437500000, 1490865280
-0.514404296875, 0.284423828125, 0.835449218750, -6.218750000000, 4.765625000000, -1.015625000000, 1490865280
-0.514404296875, 0.284423828125, 0.835449218750, -6.218750000000, 4.765625000000, -1.015625000000, 1490865280
-0.514404296875, 0.284423828125, 0.835449218750, -6.218750000000, 4.765625000000, -1.015625000000, 1490865280
-0.512451171875, 0.357421875000, 0.740722656250, -6.757812500000, -0.242187500000, -4.312500000000, 1490865281
-0.512451171875, 0.357421875000, 0.740722656250, -6.757812500000, -0.242187500000, -4.312500000000, 1490865281
-0.512451171875, 0.357421875000, 0.740722656250, -6.757812500000, -0.242187500000, -4.312500000000, 1490865281
-0.516357421875, 0.406982421875, 0.725097656250, -4.773437500000, -4.671875000000, -6.773437500000, 1490865281
-0.516357421875, 0.406982421875, 0.725097656250, -4.773437500000, -4.671875000000, -6.773437500000, 1490865281
-0.516357421875, 0.406982421875, 0.725097656250, -4.773437500000, -4.671875000000, -6.773437500000, 1490865281
-0.510742187500, 0.411865234375, 0.824462890625, -6.546875000000, -2.257812500000, -3.328125000000, 1490865281
-0.510742187500, 0.411865234375, 0.824462890625, -6.546875000000, -2.257812500000, -3.328125000000, 1490865281
-0.510742187500, 0.411865234375, 0.824462890625, -6.546875000000, -2.257812500000, -3.328125000000, 1490865281
-0.510742187500, 0.411865234375, 0.824462890625, -6.546875000000, -2.257812500000, -3.328125000000, 1490865281
-0.410644531250, 0.453369140625, 0.743164062500, -1.445312500000, -2.695312500000, -3.789062500000, 1490865281
-0.410644531250, 0.453369140625, 0.743164062500, -1.445312500000, -2.695312500000, -3.789062500000, 1490865281
-0.410644531250, 0.453369140625, 0.743164062500, -1.445312500000, -2.695312500000, -3.789062500000, 1490865281
-0.513183593750, 0.369384765625, 0.790527343750, -2.882812500000, -0.875000000000, -6.523437500000, 1490865281
-0.513183593750, 0.369384765625, 0.790527343750, -2.882812500000, -0.875000000000, -6.523437500000, 1490865281
-0.513183593750, 0.369384765625, 0.790527343750, -2.882812500000, -0.875000000000, -6.523437500000, 1490865281
-0.419433593750, 0.475585937500, 0.803222656250, -1.375000000000, 2.328125000000, -3.257812500000, 1490865281
-0.419433593750, 0.475585937500, 0.803222656250, -1.375000000000, 2.328125000000, -3.257812500000, 1490865281
-0.411376953125, 0.423583984375, 0.847900390625, -3.289062500000, -0.390625000000, -4.273437500000, 1490865281
-0.504150390625, 0.421386718750, 0.831298828125, -3.289062500000, -0.390625000000, -4.273437500000, 1490865281
-0.504150390625, 0.421386718750, 0.831298828125, -3.289062500000, -0.390625000000, -4.273437500000, 1490865281
-0.504150390625, 0.421386718750, 0.831298828125, -3.289062500000, -0.390625000000, -4.273437500000, 1490865281
-0.504150390625, 0.421386718750, 0.831298828125, -3.289062500000, -0.390625000000, -4.273437500000, 1490865281
-0.444091796875, 0.437744140625, 0.836914062500, -6.523437500000, 0.710937500000, -3.093750000000, 1490865281
-0.444091796875, 0.437744140625, 0.836914062500, -6.523437500000, 0.710937500000, -3.093750000000, 1490865281
-0.444091796875, 0.437744140625, 0.836914062500, -6.523437500000, 0.710937500000, -3.093750000000, 1490865281
-0.565429687500, 0.286621093750, 0.827636718750, -5.429687500000, 3.273437500000, -1.734375000000, 1490865281
-0.565429687500, 0.286621093750, 0.827636718750, -5.429687500000, 3.273437500000, -1.734375000000, 1490865281
-0.565429687500, 0.286621093750, 0.827636718750, -5.429687500000, 3.273437500000, -1.734375000000, 1490865281
-0.468261718750, 0.356933593750, 0.825439453125, -6.609375000000, 2.335937500000, -1.437500000000, 1490865281
-0.445556640625, 0.508544921875, 0.875976562500, -3.539062500000, 0.992187500000, -3.078125000000, 1490865281
-0.476318359375, 0.366943359375, 0.894531250000, -3.539062500000, 0.992187500000, -3.078125000000, 1490865281
-0.476318359375, 0.366943359375, 0.894531250000, -3.539062500000, 0.992187500000, -3.078125000000, 1490865281
-0.476318359375, 0.366943359375, 0.894531250000, -3.539062500000, 0.992187500000, -3.078125000000, 1490865281
-0.423339843750, 0.447509765625, 0.851806640625, -4.828125000000, 0.687500000000, -4.078125000000, 1490865281
-0.518798828125, 0.361328125000, 0.813476562500, -3.015625000000, 2.250000000000, -2.195312500000, 1490865281
-0.518798828125, 0.361328125000, 0.813476562500, -3.015625000000, 2.250000000000, -2.195312500000, 1490865281
-0.518798828125, 0.361328125000, 0.813476562500, -3.015625000000, 2.250000000000, -2.195312500000, 1490865281
-0.518798828125, 0.361328125000, 0.813476562500, -3.015625000000, 2.250000000000, -2.195312500000, 1490865281
-0.532470703125, 0.345458984375, 0.816650390625, -3.859375000000, 0.828125000000, -8.054687500000, 1490865281
-0.532470703125, 0.345458984375, 0.816650390625, -3.859375000000, 0.828125000000, -8.054687500000, 1490865281
-0.532470703125, 0.345458984375, 0.816650390625, -3.859375000000, 0.828125000000, -8.054687500000, 1490865281
-0.517822265625, 0.443115234375, 0.795166015625, -3.257812500000, -1.335937500000, -4.890625000000, 1490865281
-0.517822265625, 0.443115234375, 0.795166015625, -3.257812500000, -1.335937500000, -4.890625000000, 1490865281
-0.517822265625, 0.443115234375, 0.795166015625, -3.257812500000, -1.335937500000, -4.890625000000, 1490865281
-0.517822265625, 0.443115234375, 0.795166015625, -3.257812500000, -1.335937500000, -4.890625000000, 1490865281
-0.479980468750, 0.356445312500, 0.805175781250, -3.414062500000, 0.585937500000, -3.460937500000, 1490865281
-0.479980468750, 0.356445312500, 0.805175781250, -3.414062500000, 0.585937500000, -3.460937500000, 1490865281
-0.479980468750, 0.356445312500, 0.805175781250, -3.414062500000, 0.585937500000, -3.460937500000, 1490865281
