ACC_X,ACC_Y,ACC_Z,G_X,G_Y,G_Z,Unix Time
-0.572509765625, 0.145507812500, 0.808837890625, -6.218750000000, 2.054687500000, -3.437500000000, 1490865840
-0.452148437500, 0.052246093750, 0.725341796875, -1.890625000000, 2.468750000000, -1.664062500000, 1490865840
-0.452148437500, 0.052246093750, 0.725341796875, -1.890625000000, 2.468750000000, -1.664062500000, 1490865840
-0.452148437500, 0.052246093750, 0.725341796875, -1.890625000000, 2.468750000000, -1.664062500000, 1490865840
-0.558105468750, 0.087646484375, 0.792724609375, -3.226562500000, -0.218750000000, -3.390625000000, 1490865840
-0.558105468750, 0.087646484375, 0.792724609375, -3.226562500000, -0.218750000000, -3.390625000000, 1490865840
-0.489501953125, 0.104492187500, 0.801513671875, -4.093750000000, 1.132812500000, -1.929687500000, 1490865840
-0.489501953125, 0.104492187500, 0.801513671875, -4.093750000000, 1.132812500000, -1.929687500000, 1490865840
-0.489501953125, 0.104492187500, 0.801513671875, -4.093750000000, 1.132812500000, -1.929687500000, 1490865840
-0.489501953125, 0.104492187500, 0.801513671875, -4.093750000000, 1.132812500000, -1.929687500000, 1490865840
-0.526367187500, 0.073242187500, 0.953125000000, -3.000000000000, -0.867187500000, -4.820312500000, 1490865840
-0.526367187500, 0.073242187500, 0.953125000000, -3.000000000000, -0.867187500000, -4.820312500000, 1490865840
-0.526367187500, 0.073242187500, 0.953125000000, -3.000000000000, -0.867187500000, -4.820312500000, 1490865840
-0.526367187500, 0.073242187500, 0.953125000000, -3.000000000000, -0.867187500000, -4.820312500000, 1490865840
-0.498291015625, 0.092041015625, 0.856933593750, -1.695312500000, -2.367187500000, -4.562500000000, 1490865840
-0.498291015625, 0.092041015625, 0.856933593750, -1.695312500000, -2.367187500000, -4.562500000000, 1490865840
-0.498291015625, 0.092041015625, 0.856933593750, -1.695312500000, -2.367187500000, -4.562500000000, 1490865840
-0.583740234375, 0.154052734375, 0.891601562500, -4.312500000000, -0.984375000000, -3.039062500000, 1490865841
-0.583740234375, 0.154052734375, 0.891601562500, -4.312500000000, -0.984375000000, -3.039062500000, 1490865841
-0.583740234375, 0.154052734375, 0.891601562500, -4.312500000000, -0.984375000000, -3.039062500000, 1490865841
-0.532470703125, 0.063232421875, 0.824462890625, -1.632812500000, -2.789062500000, -4.945312500000, 1490865841
-0.532470703125, 0.063232421875, 0.824462890625, -1.632812500000, -2.789062500000, -4.945312500000, 1490865841
-0.532470703125, 0.063232421875, 0.824462890625, -1.632812500000, -2.789062500000, -4.945312500000, 1490865841
-0.532470703125, 0.063232421875, 0.824462890625, -1.632812500000, -2.789062500000, -4.945312500000, 1490865841
-0.589843750000, 0.137695312500, 0.786621093750, -1.984375000000, 0.687500000000, -3.460937500000, 1490865841
-0.589843750000, 0.137695312500, 0.786621093750, -1.984375000000, 0.687500000000, -3.460937500000, 1490865841
-0.589843750000, 0.137695312500, 0.786621093750, -1.984375000000, 0.687500000000, -3.460937500000, 1490865841
-0.643310546875, 0.105224609375, 0.829345703125, -2.968750000000, -2.054687500000, -4.968750000000, 1490865841
-0.643310546875, 0.105224609375, 0.829345703125, -2.968750000000, -2.054687500000, -4.968750000000, 1490865841
-0.643310546875, 0.105224609375, 0.829345703125, -2.968750000000, -2.054687500000, -4.968750000000, 1490865841
-0.648925781250, 0.192138671875, 0.784912109375, -6.843750000000, 4.445312500000, -3.750000000000, 1490865841
-0.648925781250, 0.192138671875, 0.784912109375, -6.843750000000, 4.445312500000, -3.750000000000, 1490865841
-0.648925781250, 0.192138671875, 0.784912109375, -6.843750000000, 4.445312500000, -3.750000000000, 1490865841
-0.576171875000, 0.094726562500, 0.795654296875, -1.812500000000, -2.570312500000, -6.382812500000, 1490865841
-0.576171875000, 0.094726562500, 0.795654296875, -1.812500000000, -2.570312500000, -6.382812500000, 1490865841
-0.576171875000, 0.094726562500, 0.795654296875, -1.812500000000, -2.570312500000, -6.382812500000, 1490865841
-0.576171875000, 0.094726562500, 0.795654296875, -1.812500000000, -2.570312500000, -6.382812500000, 1490865841
-0.510498046875, 0.156005859375, 0.782714843750, -4.289062500000, -1.835937500000, -4.187500000000, 1490865841
-0.510498046875, 0.156005859375, 0.782714843750, -4.289062500000, -1.835937500000, -4.187500000000, 1490865841
-0.510498046875, 0.156005859375, 0.782714843750, -4.289062500000, -1.835937500000, -4.187500000000, 1490865841
-0.495361328125, -0.016601562500, 0.800781250000, -4.687500000000, 0.765625000000, -3.414062500000, 1490865841
-0.495361328125, -0.016601562500, 0.800781250000, -4.687500000000, 0.765625000000, -3.414062500000, 1490865841
-0.495361328125, -0.016601562500, 0.800781250000, -4.687500000000, 0.765625000000, -3.414062500000, 1490865841
-0.524902343750, 0.133789062500, 0.882080078125, -1.578125000000, 0.835937500000, -3.320312500000, 1490865841
-0.524902343750, 0.133789062500, 0.882080078125, -1.578125000000, 0.835937500000, -3.320312500000, 1490865841
-0.524902343750, 0.133789062500, 0.882080078125, -1.578125000000, 0.835937500000, -3.320312500000, 1490865841
-0.564941406250, 0.100830078125, 0.814208984375, -4.765625000000, 2.882812500000, -6.156250000000, 1490865841
-0.564941406250, 0.100830078125, 0.814208984375, -4.765625000000, 2.882812500000, -6.156250000000, 1490865841
-0.564941406250, 0.100830078125, 0.814208984375, -4.765625000000, 2.882812500000, -6.156250000000, 1490865841
-0.564941406250, 0.100830078125, 0.814208984375, -4.765625000000, 2.882812500000, -6.156250000000, 1490865841
-0.510498046875, 0.032958984375, 0.897949218750, -3.437500000000, 0.414062500000, -4.867187500000, 1490865841
-0.510498046875, 0.032958984375, 0.897949218750, -3.437500000000, 0.414062500000, -4.867187500000, 1490865841
-0.510498046875, 0.032958984375, 0.897949218750, -3.437500000000, 0.414062500000, -4.867187500000, 1490865841
-0.546875000000, 0.155029296875, 0.900878906250, -6.062500000000, -0.718750000000, -3.718750000000, 1490865841
-0.546875000000, 0.155029296875, 0.900878906250, -6.062500000000, -0.718750000000, -3.718750000000, 1490865841
-0.546875000000, 0.155029296875, 0.900878906250, -6.062500000000, -0.718750000000, -3.718750000000, 1490865841
-0.531982421875, 0.127197265625, 0.889160156250, -3.492187500000, 0.968750000000, -1.890625000000, 1490865841
-0.531982421875, 0.127197265625, 0.889160156250, -3.492187500000, 0.968750000000, -1.890625000000, 1490865841
-0.531982421875, 0.127197265625, 0.889160156250, -3.492187500000, 0.968750000000, -1.890625000000, 1490865841
-0.613281250000, 0.126220703125, 0.876953125000, -4.750000000000, -0.968750000000, -4.156250000000, 1490865841
-0.613281250000, 0.126220703125, 0.876953125000, -4.750000000000, -0.968750000000, -4.156250000000, 1490865841
-0.613281250000, 0.126220703125, 0.876953125000, -4.750000000000, -0.968750000000, -4.156250000000, 1490865841
-0.613281250000, 0.126220703125, 0.876953125000, -4.750000000000, -0.968750000000, -4.156250000000, 1490865841
-0.492187500000, 0.154296875000, 0.855712890625, -2.960937500000, -2.007812500000, -1.578125000000, 1490865841
-0.492187500000, 0.154296875000, 0.855712890625, -2.960937500000, -2.007812500000, -1.578125000000, 1490865841
-0.492187500000, 0.154296875000, 0.855712890625, -2.960937500000, -2.007812500000, -1.578125000000, 1490865841
-0.473388671875, 0.060058593750, 0.843505859375, -1.843750000000, 0.945312500000, -1.695312500000, 1490865841
-0.473388671875, 0.060058593750, 0.843505859375, -1.843750000000, 0.945312500000, -1.695312500000, 1490865841
-0.473388671875, 0.060058593750, 0.843505859375, -1.843750000000, 0.945312500000, -1.695312500000, 1490865841
-0.485839843750, -0.016113281250, 0.842773437500, -1.937500000000, 0.734375000000, -6.054687500000, 1490865841
-0.485839843750, -0.016113281250, 0.842773437500, -1.937500000000, 0.734375000000, -6.054687500000, 1490865841
-0.485839843750, -0.016113281250, 0.842773437500, -1.937500000000, 0.734375000000, -6.054687500000, 1490865841
-0.455566406250, 0.191894531250, 0.886962890625, -4.195312500000, -3.421875000000, -1.210937500000, 1490865841
-0.455566406250, 0.191894531250, 0.886962890625, -4.195312500000, -3.421875000000, -1.210937500000, 1490865841
-0.455566406250, 0.191894531250, 0.886962890625, -4.195312500000, -3.421875000000, -1.210937500000, 1490865841
-0.455566406250, 0.191894531250, 0.886962890625, -4.195312500000, -3.421875000000, -1.210937500000, 1490865841
-0.526855468750, 0.142578125000, 0.821044921875, -4.062500000000, 0.406250000000, -3.140625000000, 1490865841
-0.526855468750, 0.142578125000, 0.821044921875, -4.062500000000, 0.406250000000, -3.140625000000, 1490865841
-0.526855468750, 0.142578125000, 0.821044921875, -4.062500000000, 0.406250000000, -3.140625000000, 1490865841
-0.548095703125, 0.144287109375, 0.798583984375, -3.507812500000, -2.031250000000, -6.890625000000, 1490865841
-0.548095703125, 0.144287109375, 0.798583984375, -3.507812500000, -2.031250000000, -6.890625000000, 1490865841
-0.548095703125, 0.144287109375, 0.798583984375, -3.507812500000, -2.031250000000, -6.890625000000, 1490865841
-0.652099609375, 0.072998046875, 0.884277343750, -3.140625000000, -0.304687500000, -6.281250000000, 1490865841
-0.652099609375, 0.072998046875, 0.884277343750, -3.140625000000, -0.304687500000, -6.281250000000, 1490865841
-0.652099609375, 0.072998046875, 0.884277343750, -3.140625000000, -0.304687500000, -6.281250000000, 1490865841
-0.523681640625, 0.041015625000, 0.798828125000, -4.656250000000, 2.484375000000, -1.250000000000, 1490865842
-0.523681640625, 0.041015625000, 0.798828125000, -4.656250000000, 2.484375000000, -1.250000000000, 1490865842
-0.523681640625, 0.041015625000, 0.798828125000, -4.656250000000, 2.484375000000, -1.250000000000, 1490865842
-0.523681640625, 0.041015625000, 0.798828125000, -4.656250000000, 2.484375000000, -1.250000000000, 1490865842
-0.554199218750, 0.122802734375, 0.851074218750, -1.867187500000, 0.601562500000, -1.320312500000, 1490865842
-0.554199218750, 0.122802734375, 0.851074218750, -1.867187500000, 0.601562500000, -1.320312500000, 1490865842
-0.554199218750, 0.122802734375, 0.851074218750, -1.867187500000, 0.601562500000, -1.320312500000, 1490865842
-0.492187500000, 0.108154296875, 0.864013671875, -4.289062500000, 2.492187500000, -4.460937500000, 1490865842
-0.492187500000, 0.108154296875, 0.864013671875, -4.289062500000, 2.492187500000, -4.460937500000, 1490865842
-0.492187500000, 0.108154296875, 0.864013671875, -4.289062500000, 2.492187500000, -4.460937500000, 1490865842
-0.543701171875, 0.039306640625, 0.794677734375, -3.093750000000, -0.898437500000, -3.695312500000, 1490865842
-0.543701171875, 0.039306640625, 0.794677734375, -3.093750000000, -0.898437500000, -3.695312500000, 1490865842
-0.543701171875, 0.039306640625, 0.794677734375, -3.093750000000, -0.898437500000, -3.695312500000, 1490865842
-0.492675781250, -0.014160156250, 0.958740234375, -1.546875000000, -0.773437500000, -3.429687500000, 1490865842
-0.492675781250, -0.014160156250, 0.958740234375, -1.546875000000, -0.773437500000, -3.429687500000, 1490865842
-0.492675781250, -0.014160156250, 0.958740234375, -1.546875000000, -0.773437500000, -3.429687500000, 1490865842
-0.492675781250, -0.014160156250, 0.958740234375, -1.546875000000, -0.773437500000, -3.429687500000, 1490865842
-0.527832031250, 0.087646484375, 0.847656250000, -4.859375000000, -2.546875000000, -1.960937500000, 1490865842
-0.527832031250, 0.087646484375, 0.847656250000, -4.859375000000, -2.546875000000, -1.960937500000, 1490865842
-0.527832031250, 0.087646484375, 0.847656250000, -4.859375000000, -2.546875000000, -1.960937500000, 1490865842
-0.582763671875, 0.040527343750, 0.785400390625, -4.421875000000, -2.460937500000, -4.679687500000, 1490865842
-0.582763671875, 0.040527343750, 0.785400390625, -4.421875000000, -2.460937500000, -4.679687500000, 1490865842
-0.582763671875, 0.040527343750, 0.785400390625, -4.421875000000, -2.460937500000, -4.679687500000, 1490865842
-0.579589843750, 0.094238281250, 0.834472656250, -4.546875000000, -1.187500000000, -4.796875000000, 1490865842
-0.579589843750, 0.094238281250, 0.834472656250, -4.546875000000, -1.187500000000, -4.796875000000, 1490865842
-0.579589843750, 0.094238281250, 0.834472656250, -4.546875000000, -1.187500000000, -4.796875000000, 1490865842
-0.534179687500, 0.078613281250, 0.820312500000, -4.609375000000, 2.539062500000, -4.062500000000, 1490865842
-0.534179687500, 0.078613281250, 0.820312500000, -4.609375000000, 2.539062500000, -4.062500000000, 1490865842
-0.534179687500, 0.078613281250, 0.820312500000, -4.609375000000, 2.539062500000, -4.062500000000, 1490865842
-0.534179687500, 0.078613281250, 0.820312500000, -4.609375000000, 2.539062500000, -4.062500000000, 1490865842
-0.549804687500, 0.069091796875, 0.853759765625, -1.921875000000, -0.679687500000, -1.937500000000, 1490865842
-0.549804687500, 0.069091796875, 0.853759765625, -1.921875000000, -0.679687500000, -1.937500000000, 1490865842
-0.549804687500, 0.069091796875, 0.853759765625, -1.921875000000, -0.679687500000, -1.937500000000, 1490865842
-0.496582031250, 0.145751953125, 0.889648437500, -3.617187500000, 4.328125000000, 0.156250000000, 1490865842
-0.496582031250, 0.145751953125, 0.889648437500, -3.617187500000, 4.328125000000, 0.156250000000, 1490865842
-0.496582031250, 0.145751953125, 0.889648437500, -3.617187500000, 4.328125000000, 0.156250000000, 1490865842
-0.539306640625, 0.194580078125, 0.904541015625, -4.507812500000, 2.390625000000, -4.328125000000, 1490865842
-0.539306640625, 0.194580078125, 0.904541015625, -4.507812500000, 2.390625000000, -4.328125000000, 1490865842
-0.539306640625, 0.194580078125, 0.904541015625, -4.507812500000, 2.390625000000, -4.328125000000, 1490865842
-0.524902343750, 0.135498046875, 0.894531250000, -8.640625000000, 0.703125000000, -6.703125000000, 1490865842
-0.524902343750, 0.135498046875, 0.894531250000, -8.640625000000, 0.703125000000, -6.703125000000, 1490865842
-0.524902343750, 0.135498046875, 0.894531250000, -8.640625000000, 0.703125000000, -6.703125000000, 1490865842
-0.524902343750, 0.135498046875, 0.894531250000, -8.640625000000, 0.703125000000, -6.703125000000, 1490865842
-0.589355468750, 0.089599609375, 0.800781250000, -7.500000000000, -1.015625000000, -7.281250000000, 1490865842
-0.589355468750, 0.089599609375, 0.800781250000, -7.500000000000, -1.015625000000, -7.281250000000, 1490865842
-0.589355468750, 0.089599609375, 0.800781250000, -7.500000000000, -1.015625000000, -7.281250000000, 1490865842
-0.570556640625, 0.118164062500, 0.846923828125, -12.546875000000, 0.242187500000, -5.804687500000, 1490865842
-0.570556640625, 0.118164062500, 0.846923828125, -12.546875000000, 0.242187500000, -5.804687500000, 1490865842
-0.570556640625, 0.118164062500, 0.846923828125, -12.546875000000, 0.242187500000, -5.804687500000, 1490865842
-0.487792968750, 0.040283203125, 0.891113281250, -10.054687500000, 0.320312500000, -10.890625000000, 1490865842
-0.487792968750, 0.040283203125, 0.891113281250, -10.054687500000, 0.320312500000, -10.890625000000, 1490865842
-0.487792968750, 0.040283203125, 0.891113281250, -10.054687500000, 0.320312500000, -10.890625000000, 1490865842
-0.574707031250, 0.054931640625, 0.798095703125, -10.890625000000, -0.789062500000, -7.554687500000, 1490865842
-0.574707031250, 0.054931640625, 0.798095703125, -10.890625000000, -0.789062500000, -7.554687500000, 1490865842
-0.574707031250, 0.054931640625, 0.798095703125, -10.890625000000, -0.789062500000, -7.554687500000, 1490865842
-0.574707031250, 0.054931640625, 0.798095703125, -10.890625000000, -0.789062500000, -7.554687500000, 1490865842
-0.418945312500, 0.217041015625, 0.718994140625, -10.281250000000, 0.234375000000, -7.195312500000, 1490865842
-0.418945312500, 0.217041015625, 0.718994140625, -10.281250000000, 0.234375000000, -7.195312500000, 1490865842
-0.418945312500, 0.217041015625, 0.718994140625, -10.281250000000, 0.234375000000, -7.195312500000, 1490865842
-0.651855468750, 0.154785156250, 0.906250000000, -8.671875000000, 0.804687500000, -7.265625000000, 1490865842
-0.651855468750, 0.154785156250, 0.906250000000, -8.671875000000, 0.804687500000, -7.265625000000, 1490865842
-0.651855468750, 0.154785156250, 0.906250000000, -8.671875000000, 0.804687500000, -7.265625000000, 1490865842
-0.544433593750, 0.026367187500, 0.752441406250, -35.960937500000, -12.960937500000, -36.734375000000, 1490865843
-0.544433593750, 0.026367187500, 0.752441406250, -35.960937500000, -12.960937500000, -36.734375000000, 1490865843
-0.544433593750, 0.026367187500, 0.752441406250, -35.960937500000, -12.960937500000, -36.734375000000, 1490865843
-0.544433593750, 0.026367187500, 0.752441406250, -35.960937500000, -12.960937500000, -36.734375000000, 1490865843
-0.544433593750, 0.026367187500, 0.752441406250, -35.960937500000, -12.960937500000, -36.734375000000, 1490865843
-0.404541015625, 0.303466796875, 0.748046875000, -10.187500000000, 18.765625000000, -14.812500000000, 1490865843
-0.404541015625, 0.303466796875, 0.748046875000, -10.187500000000, 18.765625000000, -14.812500000000, 1490865843
-0.404541015625, 0.303466796875, 0.748046875000, -10.187500000000, 18.765625000000, -14.812500000000, 1490865843
-0.404541015625, 0.303466796875, 0.748046875000, -10.187500000000, 18.765625000000, -14.812500000000, 1490865843
-0.404541015625, 0.303466796875, 0.748046875000, -10.187500000000, 18.765625000000, -14.812500000000, 1490865843
-0.646728515625, 0.339599609375, 0.773193359375, 35.421875000000, 38.289062500000, 14.531250000000, 1490865843
-0.646728515625, 0.339599609375, 0.773193359375, 35.421875000000, 38.289062500000, 14.531250000000, 1490865843
-0.646728515625, 0.339599609375, 0.773193359375, 35.421875000000, 38.289062500000, 14.531250000000, 1490865843
-0.646728515625, 0.339599609375, 0.773193359375, 35.421875000000, 38.289062500000, 14.531250000000, 1490865843
-0.521484375000, 0.374755859375, 0.832031250000, 35.992187500000, 16.492187500000, 22.742187500000, 1490865843
-0.579101562500, 0.335449218750, 1.022949218750, 58.484375000000, 28.695312500000, 47.156250000000, 1490865843
-0.579101562500, 0.335449218750, 1.022949218750, 58.484375000000, 28.695312500000, 47.156250000000, 1490865843
-0.579101562500, 0.335449218750, 1.022949218750, 58.484375000000, 28.695312500000, 47.156250000000, 1490865843
-0.559814453125, 0.080566406250, 1.110351562500, 79.062500000000, 29.585937500000, 57.625000000000, 1490865843
-0.559814453125, 0.080566406250, 1.110351562500, 79.062500000000, 29.585937500000, 57.625000000000, 1490865843
-0.559814453125, 0.080566406250, 1.110351562500, 79.062500000000, 29.585937500000, 57.625000000000, 1490865843
-0.559814453125, 0.080566406250, 1.110351562500, 79.062500000000, 29.585937500000, 57.625000000000, 1490865843
-0.559814453125, 0.080566406250, 1.110351562500, 79.062500000000, 29.585937500000, 57.625000000000, 1490865843
-0.672851562500, -0.145019531250, 0.837890625000, 27.382812500000, 58.476562500000, 47.375000000000, 1490865843
-0.672851562500, -0.145019531250, 0.837890625000, 27.382812500000, 58.476562500000, 47.375000000000, 1490865843
-0.672851562500, -0.145019531250, 0.837890625000, 27.382812500000, 58.476562500000, 47.375000000000, 1490865843
-0.939941406250, 0.138671875000, 0.815429687500, 18.804687500000, 83.710937500000, 60.976562500000, 1490865843
-0.939941406250, 0.138671875000, 0.815429687500, 18.804687500000, 83.710937500000, 60.976562500000, 1490865843
-0.783203125000, 0.014892578125, 0.633789062500, 36.351562500000, 58.765625000000, 74.710937500000, 1490865843
-0.783203125000, 0.014892578125, 0.633789062500, 36.351562500000, 58.765625000000, 74.710937500000, 1490865843
-0.783203125000, 0.014892578125, 0.633789062500, 36.351562500000, 58.765625000000, 74.710937500000, 1490865843
-0.783203125000, 0.014892578125, 0.633789062500, 36.351562500000, 58.765625000000, 74.710937500000, 1490865843
-0.860351562500, -0.256103515625, 0.644287109375, 47.523437500000, -7.890625000000, 65.617187500000, 1490865843
-0.860351562500, -0.256103515625, 0.644287109375, 47.523437500000, -7.890625000000, 65.617187500000, 1490865843
-0.860351562500, -0.256103515625, 0.644287109375, 47.523437500000, -7.890625000000, 65.617187500000, 1490865843
-0.860351562500, -0.256103515625, 0.644287109375, 47.523437500000, -7.890625000000, 65.617187500000, 1490865843
-0.801269531250, -0.269042968750, 0.698730468750, 69.757812500000, -53.125000000000, 64.859375000000, 1490865843
-0.801269531250, -0.269042968750, 0.698730468750, 69.757812500000, -53.125000000000, 64.859375000000, 1490865843
-0.801269531250, -0.269042968750, 0.698730468750, 69.757812500000, -53.125000000000, 64.859375000000, 1490865843
-1.008789062500, -0.185058593750, 0.614013671875, 75.453125000000, -48.492187500000, 58.625000000000, 1490865843
-1.008789062500, -0.185058593750, 0.614013671875, 75.453125000000, -48.492187500000, 58.625000000000, 1490865843
-0.544433593750, -0.437500000000, 0.605224609375, 111.242187500000, -71.601562500000, 75.156250000000, 1490865843
-0.544433593750, -0.437500000000, 0.605224609375, 111.242187500000, -71.601562500000, 75.156250000000, 1490865843
-0.544433593750, -0.437500000000, 0.605224609375, 111.242187500000, -71.601562500000, 75.156250000000, 1490865843
-0.544433593750, -0.437500000000, 0.605224609375, 111.242187500000, -71.601562500000, 75.156250000000, 1490865843
-0.544433593750, -0.437500000000, 0.605224609375, 111.242187500000, -71.601562500000, 75.156250000000, 1490865843
-0.529541015625, -0.571289062500, 0.595214843750, 118.492187500000, -44.757812500000, 92.148437500000, 1490865843
-0.529541015625, -0.571289062500, 0.595214843750, 118.492187500000, -44.757812500000, 92.148437500000, 1490865843
-0.529541015625, -0.571289062500, 0.595214843750, 118.492187500000, -44.757812500000, 92.148437500000, 1490865843
-0.255615234375, -0.614013671875, 0.351562500000, 110.062500000000, -26.132812500000, 77.554687500000, 1490865843
-0.255615234375, -0.614013671875, 0.351562500000, 110.062500000000, -26.132812500000, 77.554687500000, 1490865843
-0.255615234375, -0.614013671875, 0.351562500000, 110.062500000000, -26.132812500000, 77.554687500000, 1490865843
-0.255615234375, -0.614013671875, 0.351562500000, 110.062500000000, -26.132812500000, 77.554687500000, 1490865843
-0.255615234375, -0.614013671875, 0.351562500000, 110.062500000000, -26.132812500000, 77.554687500000, 1490865843
-0.255615234375, -0.614013671875, 0.351562500000, 110.062500000000, -26.132812500000, 77.554687500000, 1490865843
-0.336181640625, -0.879882812500, 0.450683593750, 96.671875000000, 12.976562500000, 66.875000000000, 1490865843
-0.336181640625, -0.879882812500, 0.450683593750, 96.671875000000, 12.976562500000, 66.875000000000, 1490865843
-0.336181640625, -0.879882812500, 0.450683593750, 96.671875000000, 12.976562500000, 66.875000000000, 1490865843
-0.336181640625, -0.879882812500, 0.450683593750, 96.671875000000, 12.976562500000, 66.875000000000, 1490865843
-0.275878906250, -0.748291015625, 0.222900390625, 79.359375000000, 8.187500000000, 68.898437500000, 1490865843
-0.275878906250, -0.748291015625, 0.222900390625, 79.359375000000, 8.187500000000, 68.898437500000, 1490865843
-0.275878906250, -0.748291015625, 0.222900390625, 79.359375000000, 8.187500000000, 68.898437500000, 1490865843
-0.260009765625, -0.865478515625, 0.226806640625, 62.726562500000, -23.929687500000, 60.015625000000, 1490865843
-0.260009765625, -0.865478515625, 0.226806640625, 62.726562500000, -23.929687500000, 60.015625000000, 1490865843
-0.260009765625, -0.865478515625, 0.226806640625, 62.726562500000, -23.929687500000, 60.015625000000, 1490865843
-0.039550781250, -0.847412109375, 0.239013671875, 58.484375000000, -66.984375000000, 40.914062500000, 1490865843
-0.039550781250, -0.847412109375, 0.239013671875, 58.484375000000, -66.984375000000, 40.914062500000, 1490865843
-0.039550781250, -0.847412109375, 0.239013671875, 58.484375000000, -66.984375000000, 40.914062500000, 1490865843
-0.105712890625, -1.013427734375, 0.211181640625, 21.554687500000, -38.320312500000, 24.273437500000, 1490865843
-0.105712890625, -1.013427734375, 0.211181640625, 21.554687500000, -38.320312500000, 24.273437500000, 1490865843
-0.105712890625, -1.013427734375, 0.211181640625, 21.554687500000, -38.320312500000, 24.273437500000, 1490865843
-0.105712890625, -1.013427734375, 0.211181640625, 21.554687500000, -38.320312500000, 24.273437500000, 1490865843
-0.147460937500, -0.928710937500, 0.121337890625, 39.539062500000, -84.859375000000, 18.757812500000, 1490865844
-0.147460937500, -0.928710937500, 0.121337890625, 39.539062500000, -84.859375000000, 18.757812500000, 1490865844
-0.147460937500, -0.928710937500, 0.121337890625, 39.539062500000, -84.859375000000, 18.757812500000, 1490865844
-0.086914062500, -1.054687500000, 0.203369140625, 55.648437500000, -32.796875000000, 37.062500000000, 1490865844
-0.086914062500, -1.054687500000, 0.203369140625, 55.648437500000, -32.796875000000, 37.062500000000, 1490865844
-0.086914062500, -1.054687500000, 0.203369140625, 55.648437500000, -32.796875000000, 37.062500000000, 1490865844
-0.036376953125, -0.978027343750, 0.195556640625, 53.117187500000, -21.164062500000, 40.898437500000, 1490865844
-0.036376953125, -0.978027343750, 0.195556640625, 53.117187500000, -21.164062500000, 40.898437500000, 1490865844
-0.036376953125, -0.978027343750, 0.195556640625, 53.117187500000, -21.164062500000, 40.898437500000, 1490865844
0.002929687500, -1.002685546875, 0.042724609375, 36.843750000000, -47.820312500000, 20.125000000000, 1490865844
0.002929687500, -1.002685546875, 0.042724609375, 36.843750000000, -47.820312500000, 20.125000000000, 1490865844
0.002929687500, -1.002685546875, 0.042724609375, 36.843750000000, -47.820312500000, 20.125000000000, 1490865844
0.002929687500, -1.002685546875, 0.042724609375, 36.843750000000, -47.820312500000, 20.125000000000, 1490865844
-0.150146484375, -0.744384765625, 0.076660156250, 20.921875000000, -58.757812500000, 6.804687500000, 1490865844
-0.150146484375, -0.744384765625, 0.076660156250, 20.921875000000, -58.757812500000, 6.804687500000, 1490865844
-0.150146484375, -0.744384765625, 0.076660156250, 20.921875000000, -58.757812500000, 6.804687500000, 1490865844
-0.097167968750, -0.911376953125, 0.063232421875, -9.804687500000, -26.609375000000, -11.304687500000, 1490865844
-0.097167968750, -0.911376953125, 0.063232421875, -9.804687500000, -26.609375000000, -11.304687500000, 1490865844
-0.097167968750, -0.911376953125, 0.063232421875, -9.804687500000, -26.609375000000, -11.304687500000, 1490865844
-0.071533203125, -1.016845703125, 0.066894531250, -33.812500000000, -32.500000000000, -20.195312500000, 1490865844
-0.071533203125, -1.016845703125, 0.066894531250, -33.812500000000, -32.500000000000, -20.195312500000, 1490865844
-0.071533203125, -1.016845703125, 0.066894531250, -33.812500000000, -32.500000000000, -20.195312500000, 1490865844
0.136230468750, -1.145996093750, 0.183105468750, -47.968750000000, -12.796875000000, 29.679687500000, 1490865844
0.136230468750, -1.145996093750, 0.183105468750, -47.968750000000, -12.796875000000, 29.679687500000, 1490865844
0.136230468750, -1.145996093750, 0.183105468750, -47.968750000000, -12.796875000000, 29.679687500000, 1490865844
0.136230468750, -1.145996093750, 0.183105468750, -47.968750000000, -12.796875000000, 29.679687500000, 1490865844
0.010742187500, -1.155517578125, 0.049072265625, -77.062500000000, -50.015625000000, -67.734375000000, 1490865844
0.010742187500, -1.155517578125, 0.049072265625, -77.062500000000, -50.015625000000, -67.734375000000, 1490865844
0.010742187500, -1.155517578125, 0.049072265625, -77.062500000000, -50.015625000000, -67.734375000000, 1490865844
0.010742187500, -1.155517578125, 0.049072265625, -77.062500000000, -50.015625000000, -67.734375000000, 1490865844
0.010742187500, -1.155517578125, 0.049072265625, -77.062500000000, -50.015625000000, -67.734375000000, 1490865844
-0.054443359375, -0.940917968750, 0.055175781250, -29.781250000000, -33.945312500000, -22.593750000000, 1490865844
-0.054443359375, -0.940917968750, 0.055175781250, -29.781250000000, -33.945312500000, -22.593750000000, 1490865844
-0.054443359375, -0.940917968750, 0.055175781250, -29.781250000000, -33.945312500000, -22.593750000000, 1490865844
-0.054443359375, -0.940917968750, 0.055175781250, -29.781250000000, -33.945312500000, -22.593750000000, 1490865844
0.018798828125, -1.066406250000, 0.120605468750, -43.125000000000, 39.750000000000, 4.968750000000, 1490865844
0.018798828125, -1.066406250000, 0.120605468750, -43.125000000000, 39.750000000000, 4.968750000000, 1490865844
0.018798828125, -1.066406250000, 0.120605468750, -43.125000000000, 39.750000000000, 4.968750000000, 1490865844
0.018798828125, -1.066406250000, 0.120605468750, -43.125000000000, 39.750000000000, 4.968750000000, 1490865844
0.136718750000, -0.926757812500, 0.134033203125, -20.187500000000, 59.046875000000, -16.296875000000, 1490865844
0.136718750000, -0.926757812500, 0.134033203125, -20.187500000000, 59.046875000000, -16.296875000000, 1490865844
0.136718750000, -0.926757812500, 0.134033203125, -20.187500000000, 59.046875000000, -16.296875000000, 1490865844
0.041992187500, -0.939208984375, 0.129882812500, -7.554687500000, -7.320312500000, 37.890625000000, 1490865844
0.041992187500, -0.939208984375, 0.129882812500, -7.554687500000, -7.320312500000, 37.890625000000, 1490865844
0.041992187500, -0.939208984375, 0.129882812500, -7.554687500000, -7.320312500000, 37.890625000000, 1490865844
0.041992187500, -0.939208984375, 0.129882812500, -7.554687500000, -7.320312500000, 37.890625000000, 1490865844
0.151367187500, -1.006347656250, 0.154296875000, 2.898437500000, -26.445312500000, 13.976562500000, 1490865844
0.151367187500, -1.006347656250, 0.154296875000, 2.898437500000, -26.445312500000, 13.976562500000, 1490865844
0.151367187500, -1.006347656250, 0.154296875000, 2.898437500000, -26.445312500000, 13.976562500000, 1490865844
0.151367187500, -1.006347656250, 0.154296875000, 2.898437500000, -26.445312500000, 13.976562500000, 1490865844
0.151367187500, -1.006347656250, 0.154296875000, 2.898437500000, -26.445312500000, 13.976562500000, 1490865844
0.191406250000, -0.996582031250, 0.154785156250, 18.343750000000, -15.367187500000, 18.976562500000, 1490865844
0.191406250000, -0.996582031250, 0.154785156250, 18.343750000000, -15.367187500000, 18.976562500000, 1490865844
0.191406250000, -0.996582031250, 0.154785156250, 18.343750000000, -15.367187500000, 18.976562500000, 1490865844
0.087646484375, -1.059570312500, 0.096923828125, 18.609375000000, -9.062500000000, 22.679687500000, 1490865844
0.073974609375, -1.152099609375, 0.104980468750, 17.492187500000, 0.500000000000, 12.984375000000, 1490865844
0.073974609375, -1.152099609375, 0.104980468750, 17.492187500000, 0.500000000000, 12.984375000000, 1490865844
0.073974609375, -1.152099609375, 0.104980468750, 17.492187500000, 0.500000000000, 12.984375000000, 1490865844
-0.046875000000, -1.061767578125, 0.060058593750, 47.820312500000, -6.507812500000, -3.562500000000, 1490865844
-0.046875000000, -1.061767578125, 0.060058593750, 47.820312500000, -6.507812500000, -3.562500000000, 1490865844
-0.085449218750, -1.072509765625, 0.135253906250, 68.906250000000, -17.414062500000, 21.960937500000, 1490865844
-0.085449218750, -1.072509765625, 0.135253906250, 68.906250000000, -17.414062500000, 21.960937500000, 1490865844
-0.085449218750, -1.072509765625, 0.135253906250, 68.906250000000, -17.414062500000, 21.960937500000, 1490865844
-0.054443359375, -1.027832031250, 0.092529296875, 70.312500000000, -17.515625000000, 19.773437500000, 1490865844
-0.036132812500, -1.012207031250, 0.100341796875, 74.171875000000, -20.406250000000, 16.460937500000, 1490865845
-0.036132812500, -1.012207031250, 0.100341796875, 74.171875000000, -20.406250000000, 16.460937500000, 1490865845
0.024658203125, -0.989013671875, 0.061035156250, 68.273437500000, -8.546875000000, 19.648437500000, 1490865845
0.109863281250, -0.960205078125, 0.117675781250, 64.914062500000, 5.664062500000, 38.976562500000, 1490865845
0.109863281250, -0.960205078125, 0.117675781250, 64.914062500000, 5.664062500000, 38.976562500000, 1490865845
0.109863281250, -0.960205078125, 0.117675781250, 64.914062500000, 5.664062500000, 38.976562500000, 1490865845
0.109863281250, -0.960205078125, 0.117675781250, 64.914062500000, 5.664062500000, 38.976562500000, 1490865845
0.093750000000, -0.957763671875, 0.115478515625, 67.195312500000, 5.406250000000, 25.335937500000, 1490865845
0.093750000000, -0.957763671875, 0.115478515625, 67.195312500000, 5.406250000000, 25.335937500000, 1490865845
0.098876953125, -1.012207031250, 0.035888671875, -8.570312500000, -15.671875000000, -3.585937500000, 1490865845
0.098876953125, -1.012207031250, 0.035888671875, -8.570312500000, -15.671875000000, -3.585937500000, 1490865845
0.098876953125, -1.012207031250, 0.035888671875, -8.570312500000, -15.671875000000, -3.585937500000, 1490865845
0.098876953125, -1.012207031250, 0.035888671875, -8.570312500000, -15.671875000000, -3.585937500000, 1490865845
0.098876953125, -1.012207031250, 0.035888671875, -8.570312500000, -15.671875000000, -3.585937500000, 1490865845
-0.001953125000, -1.021484375000, 0.091064453125, -47.242187500000, -13.171875000000, -32.062500000000, 1490865845
-0.001953125000, -1.021484375000, 0.091064453125, -47.242187500000, -13.171875000000, -32.062500000000, 1490865845
-0.001953125000, -1.021484375000, 0.091064453125, -47.242187500000, -13.171875000000, -32.062500000000, 1490865845
-0.041259765625, -1.009033203125, 0.105712890625, -34.296875000000, 14.796875000000, -26.851562500000, 1490865845
-0.041259765625, -1.009033203125, 0.105712890625, -34.296875000000, 14.796875000000, -26.851562500000, 1490865845
-0.041259765625, -1.009033203125, 0.105712890625, -34.296875000000, 14.796875000000, -26.851562500000, 1490865845
-0.069824218750, -1.083984375000, 0.155761718750, -47.218750000000, 21.382812500000, -21.625000000000, 1490865845
-0.069824218750, -1.083984375000, 0.155761718750, -47.218750000000, 21.382812500000, -21.625000000000, 1490865845
0.037841796875, -0.934082031250, 0.098632812500, -64.664062500000, 22.273437500000, -19.148437500000, 1490865845
0.037841796875, -0.934082031250, 0.098632812500, -64.664062500000, 22.273437500000, -19.148437500000, 1490865845
0.037841796875, -0.934082031250, 0.098632812500, -64.664062500000, 22.273437500000, -19.148437500000, 1490865845
0.037841796875, -0.934082031250, 0.098632812500, -64.664062500000, 22.273437500000, -19.148437500000, 1490865845
-0.017089843750, -1.079345703125, 0.140380859375, -62.007812500000, 17.390625000000, -32.117187500000, 1490865845
-0.017089843750, -1.079345703125, 0.140380859375, -62.007812500000, 17.390625000000, -32.117187500000, 1490865845
-0.017089843750, -1.079345703125, 0.140380859375, -62.007812500000, 17.390625000000, -32.117187500000, 1490865845
-0.017089843750, -1.079345703125, 0.140380859375, -62.007812500000, 17.390625000000, -32.117187500000, 1490865845
-0.017333984375, -0.899658203125, 0.136962890625, -68.515625000000, 22.015625000000, -24.976562500000, 1490865845
-0.017333984375, -0.899658203125, 0.136962890625, -68.515625000000, 22.015625000000, -24.976562500000, 1490865845
-0.017333984375, -0.899658203125, 0.136962890625, -68.515625000000, 22.015625000000, -24.976562500000, 1490865845
0.073486328125, -1.023437500000, 0.135009765625, -52.750000000000, 12.812500000000, -17.640625000000, 1490865845
0.073486328125, -1.023437500000, 0.135009765625, -52.750000000000, 12.812500000000, -17.640625000000, 1490865845
-0.018554687500, -1.089111328125, 0.187744140625, -26.218750000000, 3.632812500000, -12.468750000000, 1490865845
-0.006347656250, -1.079833984375, 0.135009765625, -23.054687500000, 2.507812500000, -5.382812500000, 1490865845
-0.006347656250, -1.079833984375, 0.135009765625, -23.054687500000, 2.507812500000, -5.382812500000, 1490865845
-0.006347656250, -1.079833984375, 0.135009765625, -23.054687500000, 2.507812500000, -5.382812500000, 1490865845
-0.006347656250, -1.079833984375, 0.135009765625, -23.054687500000, 2.507812500000, -5.382812500000, 1490865845
0.038330078125, -0.882812500000, 0.057128906250, -8.507812500000, -2.179687500000, -3.007812500000, 1490865845
0.038330078125, -0.882812500000, 0.057128906250, -8.507812500000, -2.179687500000, -3.007812500000, 1490865845
0.038330078125, -0.882812500000, 0.057128906250, -8.507812500000, -2.179687500000, -3.007812500000, 1490865845
0.011230468750, -1.070800781250, 0.146972656250, 13.953125000000, -2.359375000000, -4.718750000000, 1490865845
0.011230468750, -1.070800781250, 0.146972656250, 13.953125000000, -2.359375000000, -4.718750000000, 1490865845
0.011230468750, -1.070800781250, 0.146972656250, 13.953125000000, -2.359375000000, -4.718750000000, 1490865845
0.010253906250, -1.068603515625, 0.051757812500, 29.562500000000, 0.843750000000, 5.218750000000, 1490865845
0.010253906250, -1.068603515625, 0.051757812500, 29.562500000000, 0.843750000000, 5.218750000000, 1490865845
0.010253906250, -1.068603515625, 0.051757812500, 29.562500000000, 0.843750000000, 5.218750000000, 1490865845
