ACC_X,ACC_Y,ACC_Z,G_X,G_Y,G_Z,Unix Time
-0.076171875000, -1.092529296875, 0.233398437500, -7.773437500000, -5.828125000000, -4.843750000000, 1490866378
-0.076171875000, -1.092529296875, 0.233398437500, -7.773437500000, -5.828125000000, -4.843750000000, 1490866378
-0.076171875000, -1.092529296875, 0.233398437500, -7.773437500000, -5.828125000000, -4.843750000000, 1490866378
0.035888671875, -0.968017578125, 0.226074218750, -5.429687500000, -4.945312500000, -2.695312500000, 1490866378
0.035888671875, -0.968017578125, 0.226074218750, -5.429687500000, -4.945312500000, -2.695312500000, 1490866378
0.035888671875, -0.968017578125, 0.226074218750, -5.429687500000, -4.945312500000, -2.695312500000, 1490866378
0.035888671875, -0.968017578125, 0.226074218750, -5.429687500000, -4.945312500000, -2.695312500000, 1490866378
0.011962890625, -0.966552734375, 0.281005859375, -1.585937500000, 4.101562500000, -3.578125000000, 1490866378
0.011962890625, -0.966552734375, 0.281005859375, -1.585937500000, 4.101562500000, -3.578125000000, 1490866378
0.011962890625, -0.966552734375, 0.281005859375, -1.585937500000, 4.101562500000, -3.578125000000, 1490866378
-0.010498046875, -0.978027343750, 0.265625000000, -3.859375000000, 2.593750000000, -1.156250000000, 1490866378
-0.010498046875, -0.978027343750, 0.265625000000, -3.859375000000, 2.593750000000, -1.156250000000, 1490866378
-0.010498046875, -0.978027343750, 0.265625000000, -3.859375000000, 2.593750000000, -1.156250000000, 1490866378
-0.070800781250, -0.932128906250, 0.279785156250, -2.578125000000, -0.781250000000, 2.398437500000, 1490866378
-0.070800781250, -0.932128906250, 0.279785156250, -2.578125000000, -0.781250000000, 2.398437500000, 1490866378
0.063476562500, -0.908447265625, 0.241455078125, -8.304687500000, -0.843750000000, -4.289062500000, 1490866378
-0.035888671875, -0.932373046875, 0.277832031250, -6.820312500000, -0.562500000000, -1.320312500000, 1490866378
-0.035888671875, -0.932373046875, 0.277832031250, -6.820312500000, -0.562500000000, -1.320312500000, 1490866378
-0.035888671875, -0.932373046875, 0.277832031250, -6.820312500000, -0.562500000000, -1.320312500000, 1490866378
-0.035888671875, -0.932373046875, 0.277832031250, -6.820312500000, -0.562500000000, -1.320312500000, 1490866378
0.030761718750, -1.016601562500, 0.214843750000, -1.406250000000, -0.460937500000, -4.492187500000, 1490866378
0.030761718750, -1.016601562500, 0.214843750000, -1.406250000000, -0.460937500000, -4.492187500000, 1490866378
0.030761718750, -1.016601562500, 0.214843750000, -1.406250000000, -0.460937500000, -4.492187500000, 1490866378
-0.069335937500, -0.915283203125, 0.266601562500, 2.234375000000, 6.500000000000, 2.125000000000, 1490866378
-0.069335937500, -0.915283203125, 0.266601562500, 2.234375000000, 6.500000000000, 2.125000000000, 1490866378
-0.069335937500, -0.915283203125, 0.266601562500, 2.234375000000, 6.500000000000, 2.125000000000, 1490866378
-0.150146484375, -0.861816406250, 0.211181640625, -4.515625000000, 5.382812500000, -0.890625000000, 1490866378
-0.150146484375, -0.861816406250, 0.211181640625, -4.515625000000, 5.382812500000, -0.890625000000, 1490866378
-0.150146484375, -0.861816406250, 0.211181640625, -4.515625000000, 5.382812500000, -0.890625000000, 1490866378
0.025146484375, -1.092285156250, 0.264160156250, -6.281250000000, -5.171875000000, -5.039062500000, 1490866378
0.025146484375, -1.092285156250, 0.264160156250, -6.281250000000, -5.171875000000, -5.039062500000, 1490866378
0.025146484375, -1.092285156250, 0.264160156250, -6.281250000000, -5.171875000000, -5.039062500000, 1490866378
0.025146484375, -1.092285156250, 0.264160156250, -6.281250000000, -5.171875000000, -5.039062500000, 1490866378
0.064453125000, -0.935791015625, 0.196044921875, -6.390625000000, -1.703125000000, 2.359375000000, 1490866378
0.064453125000, -0.935791015625, 0.196044921875, -6.390625000000, -1.703125000000, 2.359375000000, 1490866378
0.064453125000, -0.935791015625, 0.196044921875, -6.390625000000, -1.703125000000, 2.359375000000, 1490866378
0.088867187500, -0.982666015625, 0.327636718750, 3.679687500000, 1.171875000000, 8.445312500000, 1490866378
0.088867187500, -0.982666015625, 0.327636718750, 3.679687500000, 1.171875000000, 8.445312500000, 1490866378
0.088867187500, -0.982666015625, 0.327636718750, 3.679687500000, 1.171875000000, 8.445312500000, 1490866378
-0.094482421875, -0.923828125000, 0.180175781250, -9.921875000000, 11.367187500000, 3.000000000000, 1490866378
-0.094482421875, -0.923828125000, 0.180175781250, -9.921875000000, 11.367187500000, 3.000000000000, 1490866378
-0.094482421875, -0.923828125000, 0.180175781250, -9.921875000000, 11.367187500000, 3.000000000000, 1490866378
-0.093017578125, -1.006591796875, 0.279785156250, -1.570312500000, -3.226562500000, -7.867187500000, 1490866378
-0.093017578125, -1.006591796875, 0.279785156250, -1.570312500000, -3.226562500000, -7.867187500000, 1490866378
-0.093017578125, -1.006591796875, 0.279785156250, -1.570312500000, -3.226562500000, -7.867187500000, 1490866378
-0.093017578125, -1.006591796875, 0.279785156250, -1.570312500000, -3.226562500000, -7.867187500000, 1490866378
-0.001220703125, -1.021240234375, 0.221679687500, -1.421875000000, 2.468750000000, -6.867187500000, 1490866379
-0.001220703125, -1.021240234375, 0.221679687500, -1.421875000000, 2.468750000000, -6.867187500000, 1490866379
-0.001220703125, -1.021240234375, 0.221679687500, -1.421875000000, 2.468750000000, -6.867187500000, 1490866379
0.010986328125, -1.012207031250, 0.265136718750, -2.390625000000, 10.718750000000, -6.351562500000, 1490866379
0.010986328125, -1.012207031250, 0.265136718750, -2.390625000000, 10.718750000000, -6.351562500000, 1490866379
0.010986328125, -1.012207031250, 0.265136718750, -2.390625000000, 10.718750000000, -6.351562500000, 1490866379
0.026855468750, -1.022949218750, 0.184082031250, -6.460937500000, 17.218750000000, -4.960937500000, 1490866379
0.026855468750, -1.022949218750, 0.184082031250, -6.460937500000, 17.218750000000, -4.960937500000, 1490866379
0.026855468750, -1.022949218750, 0.184082031250, -6.460937500000, 17.218750000000, -4.960937500000, 1490866379
0.026123046875, -0.924560546875, 0.273681640625, -2.812500000000, 10.156250000000, -7.359375000000, 1490866379
0.026123046875, -0.924560546875, 0.273681640625, -2.812500000000, 10.156250000000, -7.359375000000, 1490866379
0.026123046875, -0.924560546875, 0.273681640625, -2.812500000000, 10.156250000000, -7.359375000000, 1490866379
0.026123046875, -0.924560546875, 0.273681640625, -2.812500000000, 10.156250000000, -7.359375000000, 1490866379
-0.038330078125, -0.940429687500, 0.214599609375, -1.273437500000, 3.609375000000, -5.117187500000, 1490866379
-0.038330078125, -0.940429687500, 0.214599609375, -1.273437500000, 3.609375000000, -5.117187500000, 1490866379
-0.038330078125, -0.940429687500, 0.214599609375, -1.273437500000, 3.609375000000, -5.117187500000, 1490866379
-0.127685546875, -1.006591796875, 0.255615234375, -1.125000000000, 4.890625000000, -3.468750000000, 1490866379
-0.127685546875, -1.006591796875, 0.255615234375, -1.125000000000, 4.890625000000, -3.468750000000, 1490866379
-0.127685546875, -1.006591796875, 0.255615234375, -1.125000000000, 4.890625000000, -3.468750000000, 1490866379
-0.033691406250, -0.965576171875, 0.217773437500, -4.562500000000, 8.109375000000, -0.093750000000, 1490866379
-0.033691406250, -0.965576171875, 0.217773437500, -4.562500000000, 8.109375000000, -0.093750000000, 1490866379
-0.033691406250, -0.965576171875, 0.217773437500, -4.562500000000, 8.109375000000, -0.093750000000, 1490866379
-0.034179687500, -0.993652343750, 0.180175781250, -4.851562500000, -5.421875000000, -6.054687500000, 1490866379
-0.034179687500, -0.993652343750, 0.180175781250, -4.851562500000, -5.421875000000, -6.054687500000, 1490866379
-0.034179687500, -0.993652343750, 0.180175781250, -4.851562500000, -5.421875000000, -6.054687500000, 1490866379
-0.034179687500, -0.993652343750, 0.180175781250, -4.851562500000, -5.421875000000, -6.054687500000, 1490866379
-0.063964843750, -1.071044921875, 0.243896484375, 2.906250000000, -1.671875000000, -0.039062500000, 1490866379
-0.063964843750, -1.071044921875, 0.243896484375, 2.906250000000, -1.671875000000, -0.039062500000, 1490866379
-0.063964843750, -1.071044921875, 0.243896484375, 2.906250000000, -1.671875000000, -0.039062500000, 1490866379
-0.085205078125, -1.009033203125, 0.173095703125, -3.320312500000, -4.468750000000, -1.078125000000, 1490866379
-0.085205078125, -1.009033203125, 0.173095703125, -3.320312500000, -4.468750000000, -1.078125000000, 1490866379
-0.085205078125, -1.009033203125, 0.173095703125, -3.320312500000, -4.468750000000, -1.078125000000, 1490866379
-0.047363281250, -1.009765625000, 0.383789062500, -6.632812500000, -1.296875000000, -6.570312500000, 1490866379
-0.047363281250, -1.009765625000, 0.383789062500, -6.632812500000, -1.296875000000, -6.570312500000, 1490866379
-0.047363281250, -1.009765625000, 0.383789062500, -6.632812500000, -1.296875000000, -6.570312500000, 1490866379
-0.020263671875, -0.923095703125, 0.255126953125, -2.812500000000, -4.859375000000, -10.054687500000, 1490866379
-0.020263671875, -0.923095703125, 0.255126953125, -2.812500000000, -4.859375000000, -10.054687500000, 1490866379
0.006591796875, -0.982910156250, 0.225097656250, 12.492187500000, -12.304687500000, 2.140625000000, 1490866379
0.006591796875, -0.982910156250, 0.225097656250, 12.492187500000, -12.304687500000, 2.140625000000, 1490866379
0.006591796875, -0.982910156250, 0.225097656250, 12.492187500000, -12.304687500000, 2.140625000000, 1490866379
0.006591796875, -0.982910156250, 0.225097656250, 12.492187500000, -12.304687500000, 2.140625000000, 1490866379
0.006591796875, -0.982910156250, 0.225097656250, 12.492187500000, -12.304687500000, 2.140625000000, 1490866379
0.070556640625, -1.031738281250, 0.317138671875, -10.382812500000, -4.015625000000, -4.750000000000, 1490866379
0.070556640625, -1.031738281250, 0.317138671875, -10.382812500000, -4.015625000000, -4.750000000000, 1490866379
0.070556640625, -1.031738281250, 0.317138671875, -10.382812500000, -4.015625000000, -4.750000000000, 1490866379
0.018066406250, -0.993652343750, 0.204833984375, -16.648437500000, 4.476562500000, -3.656250000000, 1490866379
0.018066406250, -0.993652343750, 0.204833984375, -16.648437500000, 4.476562500000, -3.656250000000, 1490866379
0.018066406250, -0.993652343750, 0.204833984375, -16.648437500000, 4.476562500000, -3.656250000000, 1490866379
0.024414062500, -0.966796875000, 0.182128906250, 0.015625000000, -1.437500000000, -3.648437500000, 1490866379
0.024414062500, -0.966796875000, 0.182128906250, 0.015625000000, -1.437500000000, -3.648437500000, 1490866379
0.024414062500, -0.966796875000, 0.182128906250, 0.015625000000, -1.437500000000, -3.648437500000, 1490866379
0.024414062500, -0.966796875000, 0.182128906250, 0.015625000000, -1.437500000000, -3.648437500000, 1490866379
-0.034179687500, -0.986328125000, 0.324951171875, -7.078125000000, 0.757812500000, -5.031250000000, 1490866379
-0.034179687500, -0.986328125000, 0.324951171875, -7.078125000000, 0.757812500000, -5.031250000000, 1490866379
-0.034179687500, -0.986328125000, 0.324951171875, -7.078125000000, 0.757812500000, -5.031250000000, 1490866379
-0.090820312500, -0.987060546875, 0.218750000000, -4.843750000000, -3.335937500000, -6.843750000000, 1490866379
-0.090820312500, -0.987060546875, 0.218750000000, -4.843750000000, -3.335937500000, -6.843750000000, 1490866379
-0.090820312500, -0.987060546875, 0.218750000000, -4.843750000000, -3.335937500000, -6.843750000000, 1490866379
-0.043212890625, -0.996093750000, 0.108154296875, -0.421875000000, 3.117187500000, -0.171875000000, 1490866379
-0.043212890625, -0.996093750000, 0.108154296875, -0.421875000000, 3.117187500000, -0.171875000000, 1490866379
-0.043212890625, -0.996093750000, 0.108154296875, -0.421875000000, 3.117187500000, -0.171875000000, 1490866379
-0.004150390625, -0.944824218750, 0.246826171875, -1.000000000000, -2.929687500000, -0.609375000000, 1490866379
-0.004150390625, -0.944824218750, 0.246826171875, -1.000000000000, -2.929687500000, -0.609375000000, 1490866379
-0.004150390625, -0.944824218750, 0.246826171875, -1.000000000000, -2.929687500000, -0.609375000000, 1490866379
-0.004150390625, -0.944824218750, 0.246826171875, -1.000000000000, -2.929687500000, -0.609375000000, 1490866379
-0.058105468750, -1.010009765625, 0.293701171875, -0.687500000000, 1.085937500000, 0.234375000000, 1490866379
-0.058105468750, -1.010009765625, 0.293701171875, -0.687500000000, 1.085937500000, 0.234375000000, 1490866379
-0.058105468750, -1.010009765625, 0.293701171875, -0.687500000000, 1.085937500000, 0.234375000000, 1490866379
0.067382812500, -1.020751953125, 0.211914062500, -3.953125000000, 0.710937500000, -3.851562500000, 1490866380
0.067382812500, -1.020751953125, 0.211914062500, -3.953125000000, 0.710937500000, -3.851562500000, 1490866380
0.067382812500, -1.020751953125, 0.211914062500, -3.953125000000, 0.710937500000, -3.851562500000, 1490866380
-0.049072265625, -0.930175781250, 0.260253906250, 0.945312500000, -4.265625000000, -3.273437500000, 1490866380
-0.049072265625, -0.930175781250, 0.260253906250, 0.945312500000, -4.265625000000, -3.273437500000, 1490866380
-0.049072265625, -0.930175781250, 0.260253906250, 0.945312500000, -4.265625000000, -3.273437500000, 1490866380
0.000488281250, -0.916015625000, 0.254150390625, 0.367187500000, -3.367187500000, 2.007812500000, 1490866380
0.000488281250, -0.916015625000, 0.254150390625, 0.367187500000, -3.367187500000, 2.007812500000, 1490866380
0.000488281250, -0.916015625000, 0.254150390625, 0.367187500000, -3.367187500000, 2.007812500000, 1490866380
0.000488281250, -0.916015625000, 0.254150390625, 0.367187500000, -3.367187500000, 2.007812500000, 1490866380
0.014160156250, -0.984375000000, 0.263183593750, 1.195312500000, -1.460937500000, 1.531250000000, 1490866380
0.014160156250, -0.984375000000, 0.263183593750, 1.195312500000, -1.460937500000, 1.531250000000, 1490866380
0.014160156250, -0.984375000000, 0.263183593750, 1.195312500000, -1.460937500000, 1.531250000000, 1490866380
-0.062988281250, -1.068603515625, 0.194824218750, -1.828125000000, 3.523437500000, 9.406250000000, 1490866380
-0.062988281250, -1.068603515625, 0.194824218750, -1.828125000000, 3.523437500000, 9.406250000000, 1490866380
-0.062988281250, -1.068603515625, 0.194824218750, -1.828125000000, 3.523437500000, 9.406250000000, 1490866380
0.025634765625, -1.002685546875, 0.191162109375, 0.179687500000, 16.156250000000, 9.742187500000, 1490866380
0.025634765625, -1.002685546875, 0.191162109375, 0.179687500000, 16.156250000000, 9.742187500000, 1490866380
0.025634765625, -1.002685546875, 0.191162109375, 0.179687500000, 16.156250000000, 9.742187500000, 1490866380
0.070800781250, -0.976562500000, 0.216552734375, -2.367187500000, 26.398437500000, 5.507812500000, 1490866380
0.070800781250, -0.976562500000, 0.216552734375, -2.367187500000, 26.398437500000, 5.507812500000, 1490866380
0.070800781250, -0.976562500000, 0.216552734375, -2.367187500000, 26.398437500000, 5.507812500000, 1490866380
0.070800781250, -0.976562500000, 0.216552734375, -2.367187500000, 26.398437500000, 5.507812500000, 1490866380
0.013916015625, -0.952148437500, 0.178222656250, 2.156250000000, 27.343750000000, 8.578125000000, 1490866380
0.013916015625, -0.952148437500, 0.178222656250, 2.156250000000, 27.343750000000, 8.578125000000, 1490866380
0.013916015625, -0.952148437500, 0.178222656250, 2.156250000000, 27.343750000000, 8.578125000000, 1490866380
-0.012207031250, -1.026123046875, 0.176269531250, -2.539062500000, 26.007812500000, -0.742187500000, 1490866380
-0.012207031250, -1.026123046875, 0.176269531250, -2.539062500000, 26.007812500000, -0.742187500000, 1490866380
-0.012207031250, -1.026123046875, 0.176269531250, -2.539062500000, 26.007812500000, -0.742187500000, 1490866380
0.020019531250, -0.977294921875, 0.188720703125, -4.335937500000, 43.546875000000, 6.304687500000, 1490866380
0.020019531250, -0.977294921875, 0.188720703125, -4.335937500000, 43.546875000000, 6.304687500000, 1490866380
0.020019531250, -0.977294921875, 0.188720703125, -4.335937500000, 43.546875000000, 6.304687500000, 1490866380
0.036376953125, -0.987792968750, 0.274658203125, 2.140625000000, 30.367187500000, 6.039062500000, 1490866380
0.036376953125, -0.987792968750, 0.274658203125, 2.140625000000, 30.367187500000, 6.039062500000, 1490866380
0.036376953125, -0.987792968750, 0.274658203125, 2.140625000000, 30.367187500000, 6.039062500000, 1490866380
0.036376953125, -0.987792968750, 0.274658203125, 2.140625000000, 30.367187500000, 6.039062500000, 1490866380
-0.092285156250, -0.936523437500, 0.216308593750, -1.406250000000, 34.500000000000, 6.718750000000, 1490866380
-0.021484375000, -1.007324218750, 0.253906250000, -2.687500000000, 27.789062500000, 3.929687500000, 1490866380
-0.021484375000, -1.007324218750, 0.253906250000, -2.687500000000, 27.789062500000, 3.929687500000, 1490866380
-0.153320312500, -1.027832031250, 0.180419921875, 4.882812500000, 3.125000000000, 1.859375000000, 1490866380
-0.153320312500, -1.027832031250, 0.180419921875, 4.882812500000, 3.125000000000, 1.859375000000, 1490866380
-0.153320312500, -1.027832031250, 0.180419921875, 4.882812500000, 3.125000000000, 1.859375000000, 1490866380
-0.010009765625, -0.985351562500, 0.182617187500, 3.882812500000, -1.898437500000, 4.625000000000, 1490866380
-0.010009765625, -0.985351562500, 0.182617187500, 3.882812500000, -1.898437500000, 4.625000000000, 1490866380
-0.010009765625, -0.985351562500, 0.182617187500, 3.882812500000, -1.898437500000, 4.625000000000, 1490866380
-0.067382812500, -1.021240234375, 0.205322265625, 3.437500000000, -20.289062500000, -4.210937500000, 1490866380
-0.067382812500, -1.021240234375, 0.205322265625, 3.437500000000, -20.289062500000, -4.210937500000, 1490866380
-0.067382812500, -1.021240234375, 0.205322265625, 3.437500000000, -20.289062500000, -4.210937500000, 1490866380
-0.067382812500, -1.021240234375, 0.205322265625, 3.437500000000, -20.289062500000, -4.210937500000, 1490866380
-0.000732421875, -1.012451171875, 0.195556640625, 9.500000000000, -13.031250000000, -1.992187500000, 1490866380
-0.000732421875, -1.012451171875, 0.195556640625, 9.500000000000, -13.031250000000, -1.992187500000, 1490866380
-0.000732421875, -1.012451171875, 0.195556640625, 9.500000000000, -13.031250000000, -1.992187500000, 1490866380
-0.012695312500, -0.959716796875, 0.182861328125, 22.109375000000, -13.148437500000, -0.867187500000, 1490866380
-0.012695312500, -0.959716796875, 0.182861328125, 22.109375000000, -13.148437500000, -0.867187500000, 1490866380
-0.012695312500, -0.959716796875, 0.182861328125, 22.109375000000, -13.148437500000, -0.867187500000, 1490866380
-0.026367187500, -1.006103515625, 0.049316406250, 26.273437500000, -8.742187500000, 0.796875000000, 1490866380
-0.026367187500, -1.006103515625, 0.049316406250, 26.273437500000, -8.742187500000, 0.796875000000, 1490866380
-0.026367187500, -1.006103515625, 0.049316406250, 26.273437500000, -8.742187500000, 0.796875000000, 1490866380
-0.072509765625, -0.904785156250, 0.137939453125, 32.171875000000, -9.132812500000, 2.226562500000, 1490866380
-0.072509765625, -0.904785156250, 0.137939453125, 32.171875000000, -9.132812500000, 2.226562500000, 1490866380
-0.072509765625, -0.904785156250, 0.137939453125, 32.171875000000, -9.132812500000, 2.226562500000, 1490866380
-0.072509765625, -0.904785156250, 0.137939453125, 32.171875000000, -9.132812500000, 2.226562500000, 1490866380
0.022216796875, -0.814453125000, 0.067138671875, 43.906250000000, 0.031250000000, 8.546875000000, 1490866380
0.022216796875, -0.814453125000, 0.067138671875, 43.906250000000, 0.031250000000, 8.546875000000, 1490866380
0.022216796875, -0.814453125000, 0.067138671875, 43.906250000000, 0.031250000000, 8.546875000000, 1490866380
0.032714843750, -0.562255859375, -0.024902343750, 51.406250000000, -9.492187500000, -13.421875000000, 1490866381
0.032714843750, -0.562255859375, -0.024902343750, 51.406250000000, -9.492187500000, -13.421875000000, 1490866381
0.032714843750, -0.562255859375, -0.024902343750, 51.406250000000, -9.492187500000, -13.421875000000, 1490866381
-0.072021484375, -0.694824218750, -0.004638671875, 30.132812500000, 8.609375000000, 1.562500000000, 1490866381
-0.072021484375, -0.694824218750, -0.004638671875, 30.132812500000, 8.609375000000, 1.562500000000, 1490866381
-0.072021484375, -0.694824218750, -0.004638671875, 30.132812500000, 8.609375000000, 1.562500000000, 1490866381
-0.076904296875, -0.756347656250, -0.002929687500, 41.867187500000, -1.562500000000, -3.945312500000, 1490866381
-0.076904296875, -0.756347656250, -0.002929687500, 41.867187500000, -1.562500000000, -3.945312500000, 1490866381
-0.076904296875, -0.756347656250, -0.002929687500, 41.867187500000, -1.562500000000, -3.945312500000, 1490866381
-0.076904296875, -0.756347656250, -0.002929687500, 41.867187500000, -1.562500000000, -3.945312500000, 1490866381
0.130371093750, -1.313476562500, -0.059814453125, -0.023437500000, -61.468750000000, 9.101562500000, 1490866381
0.130371093750, -1.313476562500, -0.059814453125, -0.023437500000, -61.468750000000, 9.101562500000, 1490866381
0.130371093750, -1.313476562500, -0.059814453125, -0.023437500000, -61.468750000000, 9.101562500000, 1490866381
0.297119140625, -1.490966796875, 0.054931640625, -72.867187500000, -133.007812500000, 44.625000000000, 1490866381
0.297119140625, -1.490966796875, 0.054931640625, -72.867187500000, -133.007812500000, 44.625000000000, 1490866381
0.297119140625, -1.490966796875, 0.054931640625, -72.867187500000, -133.007812500000, 44.625000000000, 1490866381
0.162597656250, -1.949462890625, 0.045654296875, -114.015625000000, -36.234375000000, -47.906250000000, 1490866381
0.162597656250, -1.949462890625, 0.045654296875, -114.015625000000, -36.234375000000, -47.906250000000, 1490866381
0.162597656250, -1.949462890625, 0.045654296875, -114.015625000000, -36.234375000000, -47.906250000000, 1490866381
-0.338623046875, -3.213623046875, 0.205810546875, -141.507812500000, 100.976562500000, -52.023437500000, 1490866381
-0.338623046875, -3.213623046875, 0.205810546875, -141.507812500000, 100.976562500000, -52.023437500000, 1490866381
-0.338623046875, -3.213623046875, 0.205810546875, -141.507812500000, 100.976562500000, -52.023437500000, 1490866381
-0.338623046875, -3.213623046875, 0.205810546875, -141.507812500000, 100.976562500000, -52.023437500000, 1490866381
-0.228759765625, -2.867919921875, 0.120361328125, -16.773437500000, 37.078125000000, 39.078125000000, 1490866381
-0.228759765625, -2.867919921875, 0.120361328125, -16.773437500000, 37.078125000000, 39.078125000000, 1490866381
-0.228759765625, -2.867919921875, 0.120361328125, -16.773437500000, 37.078125000000, 39.078125000000, 1490866381
0.159179687500, -1.542968750000, 0.128417968750, 26.210937500000, -25.804687500000, 45.804687500000, 1490866381
0.159179687500, -1.542968750000, 0.128417968750, 26.210937500000, -25.804687500000, 45.804687500000, 1490866381
0.159179687500, -1.542968750000, 0.128417968750, 26.210937500000, -25.804687500000, 45.804687500000, 1490866381
0.066406250000, -0.007568359375, 0.042236328125, 15.007812500000, 84.585937500000, -3.007812500000, 1490866381
0.066406250000, -0.007568359375, 0.042236328125, 15.007812500000, 84.585937500000, -3.007812500000, 1490866381
0.066406250000, -0.007568359375, 0.042236328125, 15.007812500000, 84.585937500000, -3.007812500000, 1490866381
0.070800781250, 0.129150390625, 0.140869140625, 107.078125000000, 169.648437500000, -37.078125000000, 1490866381
0.070800781250, 0.129150390625, 0.140869140625, 107.078125000000, 169.648437500000, -37.078125000000, 1490866381
0.070800781250, 0.129150390625, 0.140869140625, 107.078125000000, 169.648437500000, -37.078125000000, 1490866381
0.038818359375, -0.001708984375, 0.066650390625, -44.687500000000, 155.523437500000, -154.265625000000, 1490866381
0.038818359375, -0.001708984375, 0.066650390625, -44.687500000000, 155.523437500000, -154.265625000000, 1490866381
0.038818359375, -0.001708984375, 0.066650390625, -44.687500000000, 155.523437500000, -154.265625000000, 1490866381
0.038818359375, -0.001708984375, 0.066650390625, -44.687500000000, 155.523437500000, -154.265625000000, 1490866381
0.171630859375, 0.092285156250, 0.069091796875, -132.953125000000, 211.218750000000, -128.515625000000, 1490866381
0.171630859375, 0.092285156250, 0.069091796875, -132.953125000000, 211.218750000000, -128.515625000000, 1490866381
0.171630859375, 0.092285156250, 0.069091796875, -132.953125000000, 211.218750000000, -128.515625000000, 1490866381
0.072753906250, 0.134033203125, 0.052490234375, -42.539062500000, 76.687500000000, -24.140625000000, 1490866381
0.072753906250, 0.134033203125, 0.052490234375, -42.539062500000, 76.687500000000, -24.140625000000, 1490866381
0.072753906250, 0.134033203125, 0.052490234375, -42.539062500000, 76.687500000000, -24.140625000000, 1490866381
-0.028808593750, 0.070556640625, 0.125244140625, 23.031250000000, -26.937500000000, -3.328125000000, 1490866381
-0.028808593750, 0.070556640625, 0.125244140625, 23.031250000000, -26.937500000000, -3.328125000000, 1490866381
-0.028808593750, 0.070556640625, 0.125244140625, 23.031250000000, -26.937500000000, -3.328125000000, 1490866381
-0.028808593750, 0.070556640625, 0.125244140625, 23.031250000000, -26.937500000000, -3.328125000000, 1490866381
-0.005371093750, 0.102294921875, 0.037109375000, 10.617187500000, -82.062500000000, -52.398437500000, 1490866381
-0.005371093750, 0.102294921875, 0.037109375000, 10.617187500000, -82.062500000000, -52.398437500000, 1490866381
-0.005371093750, 0.102294921875, 0.037109375000, 10.617187500000, -82.062500000000, -52.398437500000, 1490866381
-0.017089843750, 0.054443359375, 0.053466796875, 6.757812500000, 8.289062500000, -100.148437500000, 1490866381
-0.017089843750, 0.054443359375, 0.053466796875, 6.757812500000, 8.289062500000, -100.148437500000, 1490866381
-0.017089843750, 0.054443359375, 0.053466796875, 6.757812500000, 8.289062500000, -100.148437500000, 1490866381
-0.140625000000, -0.114990234375, 0.085449218750, -29.062500000000, -11.617187500000, 29.812500000000, 1490866381
-0.140625000000, -0.114990234375, 0.085449218750, -29.062500000000, -11.617187500000, 29.812500000000, 1490866381
-0.140625000000, -0.114990234375, 0.085449218750, -29.062500000000, -11.617187500000, 29.812500000000, 1490866381
-0.070068359375, -1.126708984375, 0.191894531250, -18.507812500000, -28.562500000000, 12.835937500000, 1490866381
-0.507324218750, -1.347656250000, 0.364013671875, 253.992187500000, 253.992187500000, -163.179687500000, 1490866381
-0.367675781250, -2.075683593750, 0.575195312500, 66.507812500000, 253.992187500000, -138.328125000000, 1490866382
-0.367675781250, -2.075683593750, 0.575195312500, 66.507812500000, 253.992187500000, -138.328125000000, 1490866382
-0.367675781250, -2.075683593750, 0.575195312500, 66.507812500000, 253.992187500000, -138.328125000000, 1490866382
-0.227539062500, -0.736572265625, -0.149414062500, -91.796875000000, -108.273437500000, 203.250000000000, 1490866382
-0.227539062500, -0.736572265625, -0.149414062500, -91.796875000000, -108.273437500000, 203.250000000000, 1490866382
-0.227539062500, -0.736572265625, -0.149414062500, -91.796875000000, -108.273437500000, 203.250000000000, 1490866382
-0.227539062500, -0.736572265625, -0.149414062500, -91.796875000000, -108.273437500000, 203.250000000000, 1490866382
-0.227539062500, -0.736572265625, -0.149414062500, -91.796875000000, -108.273437500000, 203.250000000000, 1490866382
-0.154296875000, -0.332763671875, -0.072265625000, -256.000000000000, -157.500000000000, -60.039062500000, 1490866382
-0.156738281250, -0.314208984375, 0.135986328125, -234.234375000000, -109.125000000000, -69.476562500000, 1490866382
-0.156738281250, -0.314208984375, 0.135986328125, -234.234375000000, -109.125000000000, -69.476562500000, 1490866382
-0.156738281250, -0.314208984375, 0.135986328125, -234.234375000000, -109.125000000000, -69.476562500000, 1490866382
-0.156738281250, -0.314208984375, 0.135986328125, -234.234375000000, -109.125000000000, -69.476562500000, 1490866382
-0.156738281250, -0.314208984375, 0.135986328125, -234.234375000000, -109.125000000000, -69.476562500000, 1490866382
-0.156738281250, -0.314208984375, 0.135986328125, -234.234375000000, -109.125000000000, -69.476562500000, 1490866382
-0.140380859375, -0.407714843750, 0.044189453125, -159.804687500000, 96.546875000000, -32.898437500000, 1490866382
-0.140380859375, -0.407714843750, 0.044189453125, -159.804687500000, 96.546875000000, -32.898437500000, 1490866382
-0.140380859375, -0.407714843750, 0.044189453125, -159.804687500000, 96.546875000000, -32.898437500000, 1490866382
-0.094482421875, -1.376220703125, -0.000732421875, -206.835937500000, 112.742187500000, -67.203125000000, 1490866382
-0.094482421875, -1.376220703125, -0.000732421875, -206.835937500000, 112.742187500000, -67.203125000000, 1490866382
-0.094482421875, -1.376220703125, -0.000732421875, -206.835937500000, 112.742187500000, -67.203125000000, 1490866382
-0.118896484375, -1.094726562500, 0.168212890625, -1.140625000000, 200.335937500000, -79.140625000000, 1490866382
-0.118896484375, -1.094726562500, 0.168212890625, -1.140625000000, 200.335937500000, -79.140625000000, 1490866382
-0.118896484375, -1.094726562500, 0.168212890625, -1.140625000000, 200.335937500000, -79.140625000000, 1490866382
-0.012207031250, -0.897705078125, 0.067138671875, 67.718750000000, 19.414062500000, 80.554687500000, 1490866382
-0.012207031250, -0.897705078125, 0.067138671875, 67.718750000000, 19.414062500000, 80.554687500000, 1490866382
-0.012207031250, -0.897705078125, 0.067138671875, 67.718750000000, 19.414062500000, 80.554687500000, 1490866382
-0.012207031250, -0.897705078125, 0.067138671875, 67.718750000000, 19.414062500000, 80.554687500000, 1490866382
-0.632080078125, -0.769042968750, 1.337646484375, 227.007812500000, 120.554687500000, 71.710937500000, 1490866382
-0.632080078125, -0.769042968750, 1.337646484375, 227.007812500000, 120.554687500000, 71.710937500000, 1490866382
-0.632080078125, -0.769042968750, 1.337646484375, 227.007812500000, 120.554687500000, 71.710937500000, 1490866382
-0.393310546875, -0.907958984375, 0.348632812500, -134.312500000000, 80.828125000000, -25.007812500000, 1490866382
-0.393310546875, -0.907958984375, 0.348632812500, -134.312500000000, 80.828125000000, -25.007812500000, 1490866382
-0.393310546875, -0.907958984375, 0.348632812500, -134.312500000000, 80.828125000000, -25.007812500000, 1490866382
-0.211669921875, -1.211914062500, 0.108154296875, -40.664062500000, -186.445312500000, -56.554687500000, 1490866382
-0.211669921875, -1.211914062500, 0.108154296875, -40.664062500000, -186.445312500000, -56.554687500000, 1490866382
-0.211669921875, -1.211914062500, 0.108154296875, -40.664062500000, -186.445312500000, -56.554687500000, 1490866382
-0.204345703125, -0.983886718750, 0.159912109375, 10.375000000000, -50.320312500000, -34.703125000000, 1490866382
-0.204345703125, -0.983886718750, 0.159912109375, 10.375000000000, -50.320312500000, -34.703125000000, 1490866382
-0.204345703125, -0.983886718750, 0.159912109375, 10.375000000000, -50.320312500000, -34.703125000000, 1490866382
-0.204345703125, -0.983886718750, 0.159912109375, 10.375000000000, -50.320312500000, -34.703125000000, 1490866382
-0.203125000000, -0.875000000000, 0.105712890625, -28.976562500000, 17.859375000000, -19.781250000000, 1490866382
-0.203125000000, -0.875000000000, 0.105712890625, -28.976562500000, 17.859375000000, -19.781250000000, 1490866382
-0.203125000000, -0.875000000000, 0.105712890625, -28.976562500000, 17.859375000000, -19.781250000000, 1490866382
-0.062255859375, -0.863525390625, 0.330078125000, 18.367187500000, -28.351562500000, -11.960937500000, 1490866382
-0.062255859375, -0.863525390625, 0.330078125000, 18.367187500000, -28.351562500000, -11.960937500000, 1490866382
-0.062255859375, -0.863525390625, 0.330078125000, 18.367187500000, -28.351562500000, -11.960937500000, 1490866382
-0.122802734375, -0.822509765625, 0.412597656250, -8.031250000000, -30.484375000000, -3.007812500000, 1490866382
-0.122802734375, -0.822509765625, 0.412597656250, -8.031250000000, -30.484375000000, -3.007812500000, 1490866382
-0.122802734375, -0.822509765625, 0.412597656250, -8.031250000000, -30.484375000000, -3.007812500000, 1490866382
-0.112060546875, -1.064697265625, 0.356689453125, 1.335937500000, 44.554687500000, 8.343750000000, 1490866382
-0.112060546875, -1.064697265625, 0.356689453125, 1.335937500000, 44.554687500000, 8.343750000000, 1490866382
-0.112060546875, -1.064697265625, 0.356689453125, 1.335937500000, 44.554687500000, 8.343750000000, 1490866382
-0.112060546875, -1.064697265625, 0.356689453125, 1.335937500000, 44.554687500000, 8.343750000000, 1490866382
-0.226074218750, -0.746826171875, 0.276855468750, 20.820312500000, 58.906250000000, 36.007812500000, 1490866382
-0.226074218750, -0.746826171875, 0.276855468750, 20.820312500000, 58.906250000000, 36.007812500000, 1490866382
