ACC_X,ACC_Y,ACC_Z,G_X,G_Y,G_Z,Unix Time
-0.080322265625, -0.970214843750, 0.124511718750, -6.992187500000, -25.101562500000, -15.835937500000, 1490866197
-0.080322265625, -0.970214843750, 0.124511718750, -6.992187500000, -25.101562500000, -15.835937500000, 1490866197
-0.080322265625, -0.970214843750, 0.124511718750, -6.992187500000, -25.101562500000, -15.835937500000, 1490866197
-0.080322265625, -0.970214843750, 0.124511718750, -6.992187500000, -25.101562500000, -15.835937500000, 1490866197
0.207763671875, -1.198486328125, 0.424316406250, 23.281250000000, -30.820312500000, -20.031250000000, 1490866197
0.207763671875, -1.198486328125, 0.424316406250, 23.281250000000, -30.820312500000, -20.031250000000, 1490866197
0.106933593750, -1.084716796875, 0.571044921875, -30.375000000000, -8.617187500000, -8.343750000000, 1490866197
0.106933593750, -1.084716796875, 0.571044921875, -30.375000000000, -8.617187500000, -8.343750000000, 1490866197
0.106933593750, -1.084716796875, 0.571044921875, -30.375000000000, -8.617187500000, -8.343750000000, 1490866197
0.106933593750, -1.084716796875, 0.571044921875, -30.375000000000, -8.617187500000, -8.343750000000, 1490866197
0.250732421875, -1.072998046875, 0.385986328125, -73.656250000000, 1.601562500000, -14.937500000000, 1490866197
0.250732421875, -1.072998046875, 0.385986328125, -73.656250000000, 1.601562500000, -14.937500000000, 1490866197
0.250732421875, -1.072998046875, 0.385986328125, -73.656250000000, 1.601562500000, -14.937500000000, 1490866197
0.189208984375, -0.914306640625, 0.116699218750, -18.687500000000, -28.007812500000, 20.875000000000, 1490866197
0.189208984375, -0.914306640625, 0.116699218750, -18.687500000000, -28.007812500000, 20.875000000000, 1490866197
0.189208984375, -0.914306640625, 0.116699218750, -18.687500000000, -28.007812500000, 20.875000000000, 1490866197
0.149169921875, -0.788574218750, 0.219238281250, -7.367187500000, -75.359375000000, 11.640625000000, 1490866197
0.149169921875, -0.788574218750, 0.219238281250, -7.367187500000, -75.359375000000, 11.640625000000, 1490866197
0.149169921875, -0.788574218750, 0.219238281250, -7.367187500000, -75.359375000000, 11.640625000000, 1490866197
0.142089843750, -0.693847656250, 0.055908203125, -21.984375000000, 7.507812500000, 12.523437500000, 1490866197
0.142089843750, -0.693847656250, 0.055908203125, -21.984375000000, 7.507812500000, 12.523437500000, 1490866197
0.142089843750, -0.693847656250, 0.055908203125, -21.984375000000, 7.507812500000, 12.523437500000, 1490866197
0.142089843750, -0.693847656250, 0.055908203125, -21.984375000000, 7.507812500000, 12.523437500000, 1490866197
0.330078125000, -0.952148437500, 0.081542968750, -30.640625000000, 8.164062500000, 19.515625000000, 1490866197
0.330078125000, -0.952148437500, 0.081542968750, -30.640625000000, 8.164062500000, 19.515625000000, 1490866197
0.330078125000, -0.952148437500, 0.081542968750, -30.640625000000, 8.164062500000, 19.515625000000, 1490866197
0.302734375000, -1.247802734375, 0.075439453125, 57.281250000000, 9.007812500000, 33.828125000000, 1490866197
0.302734375000, -1.247802734375, 0.075439453125, 57.281250000000, 9.007812500000, 33.828125000000, 1490866197
0.302734375000, -1.247802734375, 0.075439453125, 57.281250000000, 9.007812500000, 33.828125000000, 1490866197
0.302734375000, -1.247802734375, 0.075439453125, 57.281250000000, 9.007812500000, 33.828125000000, 1490866197
-0.121582031250, -1.365966796875, 0.501464843750, 83.796875000000, 0.945312500000, 51.218750000000, 1490866197
-0.121582031250, -1.365966796875, 0.501464843750, 83.796875000000, 0.945312500000, 51.218750000000, 1490866197
-0.121582031250, -1.365966796875, 0.501464843750, 83.796875000000, 0.945312500000, 51.218750000000, 1490866197
0.093505859375, -1.143066406250, 0.296630859375, 18.093750000000, 63.687500000000, -6.726562500000, 1490866197
0.093505859375, -1.143066406250, 0.296630859375, 18.093750000000, 63.687500000000, -6.726562500000, 1490866197
0.093505859375, -1.143066406250, 0.296630859375, 18.093750000000, 63.687500000000, -6.726562500000, 1490866197
0.083984375000, -0.735107421875, 0.145751953125, 5.078125000000, 61.156250000000, -6.312500000000, 1490866198
0.083984375000, -0.735107421875, 0.145751953125, 5.078125000000, 61.156250000000, -6.312500000000, 1490866198
0.083984375000, -0.735107421875, 0.145751953125, 5.078125000000, 61.156250000000, -6.312500000000, 1490866198
0.059814453125, -0.608642578125, 0.033935546875, 32.437500000000, 43.078125000000, -2.703125000000, 1490866198
0.059814453125, -0.608642578125, 0.033935546875, 32.437500000000, 43.078125000000, -2.703125000000, 1490866198
0.059814453125, -0.608642578125, 0.033935546875, 32.437500000000, 43.078125000000, -2.703125000000, 1490866198
0.059814453125, -0.608642578125, 0.033935546875, 32.437500000000, 43.078125000000, -2.703125000000, 1490866198
0.058105468750, -0.741699218750, 0.107177734375, 11.656250000000, 0.773437500000, -8.023437500000, 1490866198
0.058105468750, -0.741699218750, 0.107177734375, 11.656250000000, 0.773437500000, -8.023437500000, 1490866198
0.058105468750, -0.741699218750, 0.107177734375, 11.656250000000, 0.773437500000, -8.023437500000, 1490866198
0.148681640625, -0.918945312500, 0.214355468750, 24.656250000000, -67.531250000000, -0.281250000000, 1490866198
0.148681640625, -0.918945312500, 0.214355468750, 24.656250000000, -67.531250000000, -0.281250000000, 1490866198
0.148681640625, -0.918945312500, 0.214355468750, 24.656250000000, -67.531250000000, -0.281250000000, 1490866198
0.235595703125, -1.205322265625, 0.446533203125, 17.867187500000, -158.023437500000, -8.828125000000, 1490866198
0.235595703125, -1.205322265625, 0.446533203125, 17.867187500000, -158.023437500000, -8.828125000000, 1490866198
0.235595703125, -1.205322265625, 0.446533203125, 17.867187500000, -158.023437500000, -8.828125000000, 1490866198
0.243408203125, -1.162353515625, 0.390136718750, -22.218750000000, 31.507812500000, -0.023437500000, 1490866198
0.243408203125, -1.162353515625, 0.390136718750, -22.218750000000, 31.507812500000, -0.023437500000, 1490866198
0.243408203125, -1.162353515625, 0.390136718750, -22.218750000000, 31.507812500000, -0.023437500000, 1490866198
0.243408203125, -1.162353515625, 0.390136718750, -22.218750000000, 31.507812500000, -0.023437500000, 1490866198
0.261718750000, -1.339355468750, 0.320312500000, -40.117187500000, 18.890625000000, 2.671875000000, 1490866198
0.261718750000, -1.339355468750, 0.320312500000, -40.117187500000, 18.890625000000, 2.671875000000, 1490866198
0.261718750000, -1.339355468750, 0.320312500000, -40.117187500000, 18.890625000000, 2.671875000000, 1490866198
0.012207031250, -1.107666015625, 0.316894531250, -58.148437500000, -7.632812500000, -10.312500000000, 1490866198
0.012207031250, -1.107666015625, 0.316894531250, -58.148437500000, -7.632812500000, -10.312500000000, 1490866198
0.012207031250, -1.107666015625, 0.316894531250, -58.148437500000, -7.632812500000, -10.312500000000, 1490866198
0.154296875000, -0.861328125000, 0.294433593750, -51.281250000000, -40.320312500000, -17.312500000000, 1490866198
0.154296875000, -0.861328125000, 0.294433593750, -51.281250000000, -40.320312500000, -17.312500000000, 1490866198
0.154296875000, -0.861328125000, 0.294433593750, -51.281250000000, -40.320312500000, -17.312500000000, 1490866198
0.160888671875, -0.563232421875, 0.046630859375, -88.578125000000, 2.828125000000, -48.140625000000, 1490866198
0.160888671875, -0.563232421875, 0.046630859375, -88.578125000000, 2.828125000000, -48.140625000000, 1490866198
0.160888671875, -0.563232421875, 0.046630859375, -88.578125000000, 2.828125000000, -48.140625000000, 1490866198
0.160888671875, -0.563232421875, 0.046630859375, -88.578125000000, 2.828125000000, -48.140625000000, 1490866198
0.208740234375, -0.802246093750, -0.004394531250, -48.046875000000, 55.085937500000, -60.015625000000, 1490866198
0.208740234375, -0.802246093750, -0.004394531250, -48.046875000000, 55.085937500000, -60.015625000000, 1490866198
0.208740234375, -0.802246093750, -0.004394531250, -48.046875000000, 55.085937500000, -60.015625000000, 1490866198
-0.025634765625, -0.978759765625, 0.137207031250, -110.328125000000, 25.734375000000, -78.492187500000, 1490866198
-0.025634765625, -0.978759765625, 0.137207031250, -110.328125000000, 25.734375000000, -78.492187500000, 1490866198
-0.025634765625, -0.978759765625, 0.137207031250, -110.328125000000, 25.734375000000, -78.492187500000, 1490866198
-0.154541015625, -1.335937500000, 0.052246093750, 30.890625000000, -25.242187500000, -55.148437500000, 1490866198
-0.154541015625, -1.335937500000, 0.052246093750, 30.890625000000, -25.242187500000, -55.148437500000, 1490866198
-0.154541015625, -1.335937500000, 0.052246093750, 30.890625000000, -25.242187500000, -55.148437500000, 1490866198
0.342285156250, -0.993408203125, 0.555419921875, 161.156250000000, 192.062500000000, 9.171875000000, 1490866198
0.342285156250, -0.993408203125, 0.555419921875, 161.156250000000, 192.062500000000, 9.171875000000, 1490866198
0.342285156250, -0.993408203125, 0.555419921875, 161.156250000000, 192.062500000000, 9.171875000000, 1490866198
0.342285156250, -0.993408203125, 0.555419921875, 161.156250000000, 192.062500000000, 9.171875000000, 1490866198
0.342285156250, -0.993408203125, 0.555419921875, 161.156250000000, 192.062500000000, 9.171875000000, 1490866198
-0.060058593750, -0.958496093750, 0.439453125000, -43.109375000000, 54.703125000000, -0.906250000000, 1490866198
-0.060058593750, -0.958496093750, 0.439453125000, -43.109375000000, 54.703125000000, -0.906250000000, 1490866198
-0.060058593750, -0.958496093750, 0.439453125000, -43.109375000000, 54.703125000000, -0.906250000000, 1490866198
-0.060058593750, -0.958496093750, 0.439453125000, -43.109375000000, 54.703125000000, -0.906250000000, 1490866198
-0.060058593750, -0.958496093750, 0.439453125000, -43.109375000000, 54.703125000000, -0.906250000000, 1490866198
-0.081298828125, -0.876708984375, 0.033447265625, -95.656250000000, 84.476562500000, -11.648437500000, 1490866198
-0.081298828125, -0.876708984375, 0.033447265625, -95.656250000000, 84.476562500000, -11.648437500000, 1490866198
-0.210449218750, -0.851318359375, 0.076416015625, -8.093750000000, 58.218750000000, 14.562500000000, 1490866198
-0.210449218750, -0.851318359375, 0.076416015625, -8.093750000000, 58.218750000000, 14.562500000000, 1490866198
-0.210449218750, -0.851318359375, 0.076416015625, -8.093750000000, 58.218750000000, 14.562500000000, 1490866198
-0.197753906250, -0.942871093750, 0.192382812500, 46.460937500000, -30.468750000000, 29.132812500000, 1490866198
-0.328125000000, -0.739746093750, 0.228759765625, 69.867187500000, -45.992187500000, 21.875000000000, 1490866198
-0.328125000000, -0.739746093750, 0.228759765625, 69.867187500000, -45.992187500000, 21.875000000000, 1490866198
-0.328125000000, -0.739746093750, 0.228759765625, 69.867187500000, -45.992187500000, 21.875000000000, 1490866198
-0.328125000000, -0.739746093750, 0.228759765625, 69.867187500000, -45.992187500000, 21.875000000000, 1490866198
0.020507812500, -0.917968750000, 0.350341796875, 18.757812500000, 17.921875000000, -1.570312500000, 1490866198
0.020507812500, -0.917968750000, 0.350341796875, 18.757812500000, 17.921875000000, -1.570312500000, 1490866198
0.020507812500, -0.917968750000, 0.350341796875, 18.757812500000, 17.921875000000, -1.570312500000, 1490866198
-0.250976562500, -1.096435546875, 0.183837890625, -34.609375000000, 21.210937500000, -11.695312500000, 1490866198
-0.250976562500, -1.096435546875, 0.183837890625, -34.609375000000, 21.210937500000, -11.695312500000, 1490866198
-0.250976562500, -1.096435546875, 0.183837890625, -34.609375000000, 21.210937500000, -11.695312500000, 1490866198
-0.208007812500, -1.467529296875, 0.337402343750, -51.648437500000, -71.367187500000, -47.031250000000, 1490866199
-0.208007812500, -1.467529296875, 0.337402343750, -51.648437500000, -71.367187500000, -47.031250000000, 1490866199
-0.208007812500, -1.467529296875, 0.337402343750, -51.648437500000, -71.367187500000, -47.031250000000, 1490866199
-0.208007812500, -1.467529296875, 0.337402343750, -51.648437500000, -71.367187500000, -47.031250000000, 1490866199
0.104492187500, -1.122558593750, 0.043945312500, -32.289062500000, -18.007812500000, -10.546875000000, 1490866199
0.104492187500, -1.122558593750, 0.043945312500, -32.289062500000, -18.007812500000, -10.546875000000, 1490866199
0.104492187500, -1.122558593750, 0.043945312500, -32.289062500000, -18.007812500000, -10.546875000000, 1490866199
0.079589843750, -0.654785156250, 0.131591796875, 9.414062500000, -22.929687500000, 8.664062500000, 1490866199
0.079589843750, -0.654785156250, 0.131591796875, 9.414062500000, -22.929687500000, 8.664062500000, 1490866199
0.079589843750, -0.654785156250, 0.131591796875, 9.414062500000, -22.929687500000, 8.664062500000, 1490866199
0.132324218750, -0.613769531250, -0.069335937500, 11.679687500000, -25.546875000000, 21.523437500000, 1490866199
0.132324218750, -0.613769531250, -0.069335937500, 11.679687500000, -25.546875000000, 21.523437500000, 1490866199
0.132324218750, -0.613769531250, -0.069335937500, 11.679687500000, -25.546875000000, 21.523437500000, 1490866199
0.105224609375, -1.268066406250, 0.129394531250, 12.039062500000, 15.460937500000, 1.421875000000, 1490866199
0.105224609375, -1.268066406250, 0.129394531250, 12.039062500000, 15.460937500000, 1.421875000000, 1490866199
0.105224609375, -1.268066406250, 0.129394531250, 12.039062500000, 15.460937500000, 1.421875000000, 1490866199
0.105224609375, -1.268066406250, 0.129394531250, 12.039062500000, 15.460937500000, 1.421875000000, 1490866199
0.148193359375, -1.533691406250, 0.149414062500, 55.343750000000, 45.976562500000, 27.039062500000, 1490866199
0.148193359375, -1.533691406250, 0.149414062500, 55.343750000000, 45.976562500000, 27.039062500000, 1490866199
0.148193359375, -1.533691406250, 0.149414062500, 55.343750000000, 45.976562500000, 27.039062500000, 1490866199
0.038574218750, -1.142089843750, 0.327392578125, 76.312500000000, 46.335937500000, 22.671875000000, 1490866199
0.038574218750, -1.142089843750, 0.327392578125, 76.312500000000, 46.335937500000, 22.671875000000, 1490866199
0.038574218750, -1.142089843750, 0.327392578125, 76.312500000000, 46.335937500000, 22.671875000000, 1490866199
-0.034423828125, -0.743164062500, -0.007080078125, -17.968750000000, 79.671875000000, 9.835937500000, 1490866199
-0.034423828125, -0.743164062500, -0.007080078125, -17.968750000000, 79.671875000000, 9.835937500000, 1490866199
-0.034423828125, -0.743164062500, -0.007080078125, -17.968750000000, 79.671875000000, 9.835937500000, 1490866199
0.023925781250, -0.661376953125, -0.006103515625, -5.820312500000, 52.460937500000, -43.000000000000, 1490866199
0.023925781250, -0.661376953125, -0.006103515625, -5.820312500000, 52.460937500000, -43.000000000000, 1490866199
0.023925781250, -0.661376953125, -0.006103515625, -5.820312500000, 52.460937500000, -43.000000000000, 1490866199
0.023925781250, -0.661376953125, -0.006103515625, -5.820312500000, 52.460937500000, -43.000000000000, 1490866199
0.195556640625, -0.791748046875, 0.043945312500, 25.125000000000, 14.195312500000, -32.859375000000, 1490866199
0.195556640625, -0.791748046875, 0.043945312500, 25.125000000000, 14.195312500000, -32.859375000000, 1490866199
0.195556640625, -0.791748046875, 0.043945312500, 25.125000000000, 14.195312500000, -32.859375000000, 1490866199
0.288574218750, -0.926025390625, 0.295166015625, 35.554687500000, 53.750000000000, 5.757812500000, 1490866199
0.288574218750, -0.926025390625, 0.295166015625, 35.554687500000, 53.750000000000, 5.757812500000, 1490866199
0.288574218750, -0.926025390625, 0.295166015625, 35.554687500000, 53.750000000000, 5.757812500000, 1490866199
0.080810546875, -1.313964843750, 0.097167968750, -33.148437500000, 109.070312500000, 27.085937500000, 1490866199
0.080810546875, -1.313964843750, 0.097167968750, -33.148437500000, 109.070312500000, 27.085937500000, 1490866199
0.080810546875, -1.313964843750, 0.097167968750, -33.148437500000, 109.070312500000, 27.085937500000, 1490866199
-0.416503906250, -1.302490234375, 0.158691406250, -20.109375000000, 66.562500000000, 12.281250000000, 1490866199
-0.416503906250, -1.302490234375, 0.158691406250, -20.109375000000, 66.562500000000, 12.281250000000, 1490866199
-0.416503906250, -1.302490234375, 0.158691406250, -20.109375000000, 66.562500000000, 12.281250000000, 1490866199
-0.416503906250, -1.302490234375, 0.158691406250, -20.109375000000, 66.562500000000, 12.281250000000, 1490866199
-0.141601562500, -0.972900390625, 0.379394531250, -29.062500000000, -59.375000000000, -31.562500000000, 1490866199
-0.141601562500, -0.972900390625, 0.379394531250, -29.062500000000, -59.375000000000, -31.562500000000, 1490866199
-0.141601562500, -0.972900390625, 0.379394531250, -29.062500000000, -59.375000000000, -31.562500000000, 1490866199
-0.141601562500, -0.972900390625, 0.379394531250, -29.062500000000, -59.375000000000, -31.562500000000, 1490866199
-0.141601562500, -0.972900390625, 0.379394531250, -29.062500000000, -59.375000000000, -31.562500000000, 1490866199
-0.141601562500, -0.972900390625, 0.379394531250, -29.062500000000, -59.375000000000, -31.562500000000, 1490866199
0.196289062500, -0.767822265625, 0.070068359375, -15.929687500000, 49.273437500000, -60.203125000000, 1490866199
0.196289062500, -0.767822265625, 0.070068359375, -15.929687500000, 49.273437500000, -60.203125000000, 1490866199
0.196289062500, -0.767822265625, 0.070068359375, -15.929687500000, 49.273437500000, -60.203125000000, 1490866199
0.052734375000, -0.875244140625, -0.035400390625, -58.046875000000, -18.687500000000, -33.570312500000, 1490866199
0.052734375000, -0.875244140625, -0.035400390625, -58.046875000000, -18.687500000000, -33.570312500000, 1490866199
0.052734375000, -0.875244140625, -0.035400390625, -58.046875000000, -18.687500000000, -33.570312500000, 1490866199
0.052734375000, -0.875244140625, -0.035400390625, -58.046875000000, -18.687500000000, -33.570312500000, 1490866199
-0.026123046875, -1.080322265625, -0.001220703125, -29.992187500000, -124.046875000000, -4.601562500000, 1490866199
-0.026123046875, -1.080322265625, -0.001220703125, -29.992187500000, -124.046875000000, -4.601562500000, 1490866199
-0.026123046875, -1.080322265625, -0.001220703125, -29.992187500000, -124.046875000000, -4.601562500000, 1490866199
-0.026123046875, -1.080322265625, -0.001220703125, -29.992187500000, -124.046875000000, -4.601562500000, 1490866199
-0.026123046875, -1.080322265625, -0.001220703125, -29.992187500000, -124.046875000000, -4.601562500000, 1490866199
-0.026123046875, -1.080322265625, -0.001220703125, -29.992187500000, -124.046875000000, -4.601562500000, 1490866199
-0.014648437500, -1.252197265625, 0.012451171875, 11.554687500000, -98.882812500000, 29.492187500000, 1490866199
-0.014648437500, -1.252197265625, 0.012451171875, 11.554687500000, -98.882812500000, 29.492187500000, 1490866199
-0.014648437500, -1.252197265625, 0.012451171875, 11.554687500000, -98.882812500000, 29.492187500000, 1490866199
0.131591796875, -1.198730468750, 0.400878906250, 160.250000000000, -136.335937500000, 4.484375000000, 1490866199
0.131591796875, -1.198730468750, 0.400878906250, 160.250000000000, -136.335937500000, 4.484375000000, 1490866200
0.131591796875, -1.198730468750, 0.400878906250, 160.250000000000, -136.335937500000, 4.484375000000, 1490866200
0.131591796875, -1.198730468750, 0.400878906250, 160.250000000000, -136.335937500000, 4.484375000000, 1490866200
0.168212890625, -0.969238281250, 0.363281250000, 47.164062500000, 83.710937500000, -1.523437500000, 1490866200
0.168212890625, -0.969238281250, 0.363281250000, 47.164062500000, 83.710937500000, -1.523437500000, 1490866200
0.168212890625, -0.969238281250, 0.363281250000, 47.164062500000, 83.710937500000, -1.523437500000, 1490866200
-0.007812500000, -1.002929687500, 0.107177734375, -41.234375000000, 66.921875000000, 10.218750000000, 1490866200
-0.007812500000, -1.002929687500, 0.107177734375, -41.234375000000, 66.921875000000, 10.218750000000, 1490866200
-0.007812500000, -1.002929687500, 0.107177734375, -41.234375000000, 66.921875000000, 10.218750000000, 1490866200
0.078125000000, -0.835937500000, 0.091552734375, -12.648437500000, 71.429687500000, 17.101562500000, 1490866200
0.078125000000, -0.835937500000, 0.091552734375, -12.648437500000, 71.429687500000, 17.101562500000, 1490866200
0.078125000000, -0.835937500000, 0.091552734375, -12.648437500000, 71.429687500000, 17.101562500000, 1490866200
0.042968750000, -0.847167968750, 0.067626953125, 13.585937500000, 87.109375000000, 27.531250000000, 1490866200
0.042968750000, -0.847167968750, 0.067626953125, 13.585937500000, 87.109375000000, 27.531250000000, 1490866200
0.042968750000, -0.847167968750, 0.067626953125, 13.585937500000, 87.109375000000, 27.531250000000, 1490866200
0.042968750000, -0.847167968750, 0.067626953125, 13.585937500000, 87.109375000000, 27.531250000000, 1490866200
-0.136474609375, -0.891113281250, 0.165283203125, 18.343750000000, 50.304687500000, 21.640625000000, 1490866200
-0.136474609375, -0.891113281250, 0.165283203125, 18.343750000000, 50.304687500000, 21.640625000000, 1490866200
-0.136474609375, -0.891113281250, 0.165283203125, 18.343750000000, 50.304687500000, 21.640625000000, 1490866200
-0.070312500000, -0.925292968750, 0.106445312500, 8.953125000000, 35.265625000000, 0.835937500000, 1490866200
-0.070312500000, -0.925292968750, 0.106445312500, 8.953125000000, 35.265625000000, 0.835937500000, 1490866200
-0.070312500000, -0.925292968750, 0.106445312500, 8.953125000000, 35.265625000000, 0.835937500000, 1490866200
-0.136962890625, -1.032470703125, 0.157470703125, -17.921875000000, 31.875000000000, 1.835937500000, 1490866200
-0.136962890625, -1.032470703125, 0.157470703125, -17.921875000000, 31.875000000000, 1.835937500000, 1490866200
-0.136962890625, -1.032470703125, 0.157470703125, -17.921875000000, 31.875000000000, 1.835937500000, 1490866200
-0.034179687500, -1.050781250000, 0.240478515625, -0.554687500000, -15.414062500000, 6.179687500000, 1490866200
-0.034179687500, -1.050781250000, 0.240478515625, -0.554687500000, -15.414062500000, 6.179687500000, 1490866200
-0.034179687500, -1.050781250000, 0.240478515625, -0.554687500000, -15.414062500000, 6.179687500000, 1490866200
-0.034179687500, -1.050781250000, 0.240478515625, -0.554687500000, -15.414062500000, 6.179687500000, 1490866200
0.053955078125, -1.216552734375, 0.291015625000, -35.984375000000, -33.164062500000, -20.671875000000, 1490866200
0.053955078125, -1.216552734375, 0.291015625000, -35.984375000000, -33.164062500000, -20.671875000000, 1490866200
0.053955078125, -1.216552734375, 0.291015625000, -35.984375000000, -33.164062500000, -20.671875000000, 1490866200
0.003417968750, -1.071533203125, 0.289306640625, -32.257812500000, -6.484375000000, -14.617187500000, 1490866200
0.166503906250, -0.939697265625, 0.053466796875, -25.882812500000, -70.335937500000, -14.820312500000, 1490866200
0.166503906250, -0.939697265625, 0.053466796875, -25.882812500000, -70.335937500000, -14.820312500000, 1490866200
0.166503906250, -0.939697265625, 0.053466796875, -25.882812500000, -70.335937500000, -14.820312500000, 1490866200
0.166503906250, -0.939697265625, 0.053466796875, -25.882812500000, -70.335937500000, -14.820312500000, 1490866200
0.166503906250, -0.939697265625, 0.053466796875, -25.882812500000, -70.335937500000, -14.820312500000, 1490866200
0.235351562500, -0.890380859375, 0.045410156250, -6.093750000000, 35.546875000000, -2.531250000000, 1490866200
0.235351562500, -0.890380859375, 0.045410156250, -6.093750000000, 35.546875000000, -2.531250000000, 1490866200
0.235351562500, -0.890380859375, 0.045410156250, -6.093750000000, 35.546875000000, -2.531250000000, 1490866200
0.235351562500, -0.890380859375, 0.045410156250, -6.093750000000, 35.546875000000, -2.531250000000, 1490866200
0.351806640625, -0.859619140625, 0.138671875000, 5.875000000000, 73.593750000000, 22.109375000000, 1490866200
0.351806640625, -0.859619140625, 0.138671875000, 5.875000000000, 73.593750000000, 22.109375000000, 1490866200
0.351806640625, -0.859619140625, 0.138671875000, 5.875000000000, 73.593750000000, 22.109375000000, 1490866200
0.364746093750, -1.007080078125, 0.005615234375, 12.687500000000, 133.390625000000, -1.132812500000, 1490866200
0.364746093750, -1.007080078125, 0.005615234375, 12.687500000000, 133.390625000000, -1.132812500000, 1490866200
0.364746093750, -1.007080078125, 0.005615234375, 12.687500000000, 133.390625000000, -1.132812500000, 1490866200
0.312988281250, -1.016113281250, 0.085693359375, 12.632812500000, 136.601562500000, 17.789062500000, 1490866200
0.312988281250, -1.016113281250, 0.085693359375, 12.632812500000, 136.601562500000, 17.789062500000, 1490866200
0.312988281250, -1.016113281250, 0.085693359375, 12.632812500000, 136.601562500000, 17.789062500000, 1490866200
0.218505859375, -1.019287109375, 0.080322265625, -23.687500000000, 149.000000000000, 24.164062500000, 1490866200
0.218505859375, -1.019287109375, 0.080322265625, -23.687500000000, 149.000000000000, 24.164062500000, 1490866200
0.218505859375, -1.019287109375, 0.080322265625, -23.687500000000, 149.000000000000, 24.164062500000, 1490866200
0.218505859375, -1.019287109375, 0.080322265625, -23.687500000000, 149.000000000000, 24.164062500000, 1490866200
0.298828125000, -1.033203125000, 0.082763671875, -4.328125000000, 218.570312500000, 27.750000000000, 1490866200
0.298828125000, -1.033203125000, 0.082763671875, -4.328125000000, 218.570312500000, 27.750000000000, 1490866200
0.298828125000, -1.033203125000, 0.082763671875, -4.328125000000, 218.570312500000, 27.750000000000, 1490866200
0.428955078125, -1.250976562500, 0.086425781250, 15.210937500000, 253.992187500000, 44.242187500000, 1490866200
0.428955078125, -1.250976562500, 0.086425781250, 15.210937500000, 253.992187500000, 44.242187500000, 1490866200
0.428955078125, -1.250976562500, 0.086425781250, 15.210937500000, 253.992187500000, 44.242187500000, 1490866200
0.435546875000, -1.147705078125, -0.025390625000, 24.742187500000, 253.992187500000, 39.945312500000, 1490866200
0.435546875000, -1.147705078125, -0.025390625000, 24.742187500000, 253.992187500000, 39.945312500000, 1490866200
0.435546875000, -1.147705078125, -0.025390625000, 24.742187500000, 253.992187500000, 39.945312500000, 1490866200
0.035156250000, -0.714355468750, -0.075927734375, -41.945312500000, 233.265625000000, 13.921875000000, 1490866201
0.035156250000, -0.714355468750, -0.075927734375, -41.945312500000, 233.265625000000, 13.921875000000, 1490866201
0.035156250000, -0.714355468750, -0.075927734375, -41.945312500000, 233.265625000000, 13.921875000000, 1490866201
0.035156250000, -0.714355468750, -0.075927734375, -41.945312500000, 233.265625000000, 13.921875000000, 1490866201
0.035156250000, -0.714355468750, -0.075927734375, -41.945312500000, 233.265625000000, 13.921875000000, 1490866201
-0.164306640625, -0.513183593750, -0.022949218750, -63.609375000000, 253.992187500000, 50.476562500000, 1490866201
-0.164306640625, -0.513183593750, -0.022949218750, -63.609375000000, 253.992187500000, 50.476562500000, 1490866201
-0.164306640625, -0.513183593750, -0.022949218750, -63.609375000000, 253.992187500000, 50.476562500000, 1490866201
-0.164306640625, -0.513183593750, -0.022949218750, -63.609375000000, 253.992187500000, 50.476562500000, 1490866201
-0.164306640625, -0.513183593750, -0.022949218750, -63.609375000000, 253.992187500000, 50.476562500000, 1490866201
-0.222656250000, -0.420166015625, -0.056640625000, -23.671875000000, 162.812500000000, 20.914062500000, 1490866201
-0.222656250000, -0.420166015625, -0.056640625000, -23.671875000000, 162.812500000000, 20.914062500000, 1490866201
-0.222656250000, -0.420166015625, -0.056640625000, -23.671875000000, 162.812500000000, 20.914062500000, 1490866201
-0.166992187500, -1.662841796875, 0.084228515625, -82.148437500000, -216.835937500000, -133.296875000000, 1490866201
-0.166992187500, -1.662841796875, 0.084228515625, -82.148437500000, -216.835937500000, -133.296875000000, 1490866201
-0.166992187500, -1.662841796875, 0.084228515625, -82.148437500000, -216.835937500000, -133.296875000000, 1490866201
-0.166992187500, -1.662841796875, 0.084228515625, -82.148437500000, -216.835937500000, -133.296875000000, 1490866201
-0.147216796875, -1.894287109375, 0.061523437500, 158.320312500000, -213.546875000000, 20.179687500000, 1490866201
-0.147216796875, -1.894287109375, 0.061523437500, 158.320312500000, -213.546875000000, 20.179687500000, 1490866201
-0.147216796875, -1.894287109375, 0.061523437500, 158.320312500000, -213.546875000000, 20.179687500000, 1490866201
0.121826171875, -1.226562500000, 0.717773437500, 233.476562500000, 230.843750000000, -7.203125000000, 1490866201
0.121826171875, -1.226562500000, 0.717773437500, 233.476562500000, 230.843750000000, -7.203125000000, 1490866201
0.121826171875, -1.226562500000, 0.717773437500, 233.476562500000, 230.843750000000, -7.203125000000, 1490866201
0.100097656250, -0.771484375000, 0.402587890625, 48.539062500000, 96.609375000000, 20.242187500000, 1490866201
0.100097656250, -0.771484375000, 0.402587890625, 48.539062500000, 96.609375000000, 20.242187500000, 1490866201
0.100097656250, -0.771484375000, 0.402587890625, 48.539062500000, 96.609375000000, 20.242187500000, 1490866201
0.019531250000, -0.536621093750, -0.006347656250, -76.984375000000, 169.890625000000, -8.546875000000, 1490866201
0.019531250000, -0.536621093750, -0.006347656250, -76.984375000000, 169.890625000000, -8.546875000000, 1490866201
0.024169921875, -0.401855468750, 0.028564453125, -81.304687500000, 245.609375000000, -78.328125000000, 1490866201
0.024169921875, -0.401855468750, 0.028564453125, -81.304687500000, 245.609375000000, -78.328125000000, 1490866201
0.024169921875, -0.401855468750, 0.028564453125, -81.304687500000, 245.609375000000, -78.328125000000, 1490866201
0.024169921875, -0.401855468750, 0.028564453125, -81.304687500000, 245.609375000000, -78.328125000000, 1490866201
0.037109375000, -0.981445312500, -0.072998046875, -63.726562500000, 238.718750000000, -55.414062500000, 1490866201
0.037109375000, -0.981445312500, -0.072998046875, -63.726562500000, 238.718750000000, -55.414062500000, 1490866201
0.037109375000, -0.981445312500, -0.072998046875, -63.726562500000, 238.718750000000, -55.414062500000, 1490866201
0.037109375000, -0.981445312500, -0.072998046875, -63.726562500000, 238.718750000000, -55.414062500000, 1490866201
0.152587890625, -1.278076171875, 0.161865234375, 25.875000000000, 89.875000000000, 64.750000000000, 1490866201
0.152587890625, -1.278076171875, 0.161865234375, 25.875000000000, 89.875000000000, 64.750000000000, 1490866201
0.152587890625, -1.278076171875, 0.161865234375, 25.875000000000, 89.875000000000, 64.750000000000, 1490866201
-0.172851562500, -1.740966796875, 0.310058593750, 93.687500000000, 13.257812500000, 58.781250000000, 1490866201
-0.172851562500, -1.740966796875, 0.310058593750, 93.687500000000, 13.257812500000, 58.781250000000, 1490866201
-0.172851562500, -1.740966796875, 0.310058593750, 93.687500000000, 13.257812500000, 58.781250000000, 1490866201
-0.172851562500, -1.740966796875, 0.310058593750, 93.687500000000, 13.257812500000, 58.781250000000, 1490866201
0.034912109375, -1.118164062500, 0.224365234375, 68.882812500000, -11.585937500000, 17.585937500000, 1490866201
0.034912109375, -1.118164062500, 0.224365234375, 68.882812500000, -11.585937500000, 17.585937500000, 1490866201
0.034912109375, -1.118164062500, 0.224365234375, 68.882812500000, -11.585937500000, 17.585937500000, 1490866201
-0.104736328125, -0.537109375000, 0.146484375000, -33.125000000000, 11.218750000000, -0.281250000000, 1490866201
-0.104736328125, -0.537109375000, 0.146484375000, -33.125000000000, 11.218750000000, -0.281250000000, 1490866201
-0.104736328125, -0.537109375000, 0.146484375000, -33.125000000000, 11.218750000000, -0.281250000000, 1490866201
0.076660156250, -0.306884765625, 0.066162109375, -73.117187500000, 52.906250000000, -37.398437500000, 1490866201
0.076660156250, -0.306884765625, 0.066162109375, -73.117187500000, 52.906250000000, -37.398437500000, 1490866201
0.076660156250, -0.306884765625, 0.066162109375, -73.117187500000, 52.906250000000, -37.398437500000, 1490866201
-0.010986328125, -0.289550781250, 0.028564453125, -121.812500000000, -47.828125000000, -37.539062500000, 1490866201
-0.010986328125, -0.289550781250, 0.028564453125, -121.812500000000, -47.828125000000, -37.539062500000, 1490866201
-0.010986328125, -0.289550781250, 0.028564453125, -121.812500000000, -47.828125000000, -37.539062500000, 1490866201
-0.010986328125, -0.289550781250, 0.028564453125, -121.812500000000, -47.828125000000, -37.539062500000, 1490866201
0.063476562500, -0.862060546875, -0.082763671875, -102.421875000000, -218.601562500000, -55.148437500000, 1490866201
0.063476562500, -0.862060546875, -0.082763671875, -102.421875000000, -218.601562500000, -55.148437500000, 1490866201
0.063476562500, -0.862060546875, -0.082763671875, -102.421875000000, -218.601562500000, -55.148437500000, 1490866201
0.066406250000, -1.922363281250, 0.042236328125, 41.937500000000, -256.000000000000, -50.000000000000, 1490866201
0.066406250000, -1.922363281250, 0.042236328125, 41.937500000000, -256.000000000000, -50.000000000000, 1490866201
0.066406250000, -1.922363281250, 0.042236328125, 41.937500000000, -256.000000000000, -50.000000000000, 1490866201
0.686767578125, -2.132080078125, 0.011962890625, -7.195312500000, -169.539062500000, 176.828125000000, 1490866201
0.686767578125, -2.132080078125, 0.011962890625, -7.195312500000, -169.539062500000, 176.828125000000, 1490866201
0.686767578125, -2.132080078125, 0.011962890625, -7.195312500000, -169.539062500000, 176.828125000000, 1490866201
-0.190673828125, -1.088867187500, 0.300537109375, -21.812500000000, 253.992187500000, -127.898437500000, 1490866201
-0.190673828125, -1.088867187500, 0.300537109375, -21.812500000000, 253.992187500000, -127.898437500000, 1490866201
-0.190673828125, -1.088867187500, 0.300537109375, -21.812500000000, 253.992187500000, -127.898437500000, 1490866201
-0.190673828125, -1.088867187500, 0.300537109375, 19.781250000000, 239.125000000000, 28.968750000000, 1490866201
-0.060302734375, -0.705078125000, 0.173828125000, -64.453125000000, -86.710937500000, 32.195312500000, 1490866202
-0.060302734375, -0.705078125000, 0.173828125000, -64.453125000000, -86.710937500000, 32.195312500000, 1490866202
-0.060302734375, -0.705078125000, 0.173828125000, -64.453125000000, -86.710937500000, 32.195312500000, 1490866202
0.141357421875, -0.099853515625, -0.030761718750, -134.109375000000, 112.773437500000, -105.296875000000, 1490866202
0.141357421875, -0.099853515625, -0.030761718750, -134.109375000000, 112.773437500000, -105.296875000000, 1490866202
0.141357421875, -0.099853515625, -0.030761718750, -134.109375000000, 112.773437500000, -105.296875000000, 1490866202
0.074707031250, -0.127197265625, 0.045166015625, -76.117187500000, 191.320312500000, -35.718750000000, 1490866202
0.074707031250, -0.127197265625, 0.045166015625, -76.117187500000, 191.320312500000, -35.718750000000, 1490866202
0.074707031250, -0.127197265625, 0.045166015625, -76.117187500000, 191.320312500000, -35.718750000000, 1490866202
0.044677734375, -0.915527343750, -0.073974609375, -85.750000000000, 194.351562500000, -24.437500000000, 1490866202
0.044677734375, -0.915527343750, -0.073974609375, -85.750000000000, 194.351562500000, -24.437500000000, 1490866202
0.044677734375, -0.915527343750, -0.073974609375, -85.750000000000, 194.351562500000, -24.437500000000, 1490866202
0.044677734375, -0.915527343750, -0.073974609375, -85.750000000000, 194.351562500000, -24.437500000000, 1490866202
0.312500000000, -1.517333984375, 0.000488281250, -10.453125000000, -70.554687500000, 202.125000000000, 1490866202
0.312500000000, -1.517333984375, 0.000488281250, -10.453125000000, -70.554687500000, 202.125000000000, 1490866202
0.312500000000, -1.517333984375, 0.000488281250, -10.453125000000, -70.554687500000, 202.125000000000, 1490866202
-0.030761718750, -1.892578125000, -0.123779296875, -48.726562500000, -207.804687500000, -153.625000000000, 1490866202
-0.030761718750, -1.892578125000, -0.123779296875, -48.726562500000, -207.804687500000, -153.625000000000, 1490866202
-0.030761718750, -1.892578125000, -0.123779296875, -48.726562500000, -207.804687500000, -153.625000000000, 1490866202
-0.744384765625, -1.520751953125, 0.892822265625, 253.992187500000, -139.968750000000, 175.218750000000, 1490866202
-0.744384765625, -1.520751953125, 0.892822265625, 253.992187500000, -139.968750000000, 175.218750000000, 1490866202
-0.744384765625, -1.520751953125, 0.892822265625, 253.992187500000, -139.968750000000, 175.218750000000, 1490866202
0.077636718750, -0.649902343750, 0.337646484375, -62.562500000000, -101.734375000000, -5.062500000000, 1490866202
0.077636718750, -0.649902343750, 0.337646484375, -62.562500000000, -101.734375000000, -5.062500000000, 1490866202
0.077636718750, -0.649902343750, 0.337646484375, -62.562500000000, -101.734375000000, -5.062500000000, 1490866202
0.077636718750, -0.649902343750, 0.337646484375, -62.562500000000, -101.734375000000, -5.062500000000, 1490866202
-0.143798828125, -0.526367187500, 0.031250000000, -149.453125000000, -48.859375000000, -10.304687500000, 1490866202
-0.143798828125, -0.526367187500, 0.031250000000, -149.453125000000, -48.859375000000, -10.304687500000, 1490866202
-0.143798828125, -0.526367187500, 0.031250000000, -149.453125000000, -48.859375000000, -10.304687500000, 1490866202
-0.046142578125, -0.869384765625, 0.001708984375, -120.421875000000, -50.726562500000, -16.093750000000, 1490866202
-0.046142578125, -0.869384765625, 0.001708984375, -120.421875000000, -50.726562500000, -16.093750000000, 1490866202
-0.046142578125, -0.869384765625, 0.001708984375, -120.421875000000, -50.726562500000, -16.093750000000, 1490866202
-0.032226562500, -0.761718750000, 0.007080078125, 8.882812500000, -111.117187500000, -84.593750000000, 1490866202
-0.032226562500, -0.761718750000, 0.007080078125, 8.882812500000, -111.117187500000, -84.593750000000, 1490866202
-0.032226562500, -0.761718750000, 0.007080078125, 8.882812500000, -111.117187500000, -84.593750000000, 1490866202
-0.257324218750, -0.763427734375, -0.013183593750, 23.421875000000, -209.921875000000, -110.257812500000, 1490866202
-0.257324218750, -0.763427734375, -0.013183593750, 23.421875000000, -209.921875000000, -110.257812500000, 1490866202
-0.257324218750, -0.763427734375, -0.013183593750, 23.421875000000, -209.921875000000, -110.257812500000, 1490866202
-0.257324218750, -0.763427734375, -0.013183593750, 23.421875000000, -209.921875000000, -110.257812500000, 1490866202
0.446533203125, -1.716552734375, -0.106933593750, 165.000000000000, -227.195312500000, 202.007812500000, 1490866202
0.446533203125, -1.716552734375, -0.106933593750, 165.000000000000, -227.195312500000, 202.007812500000, 1490866202
0.446533203125, -1.716552734375, -0.106933593750, 165.000000000000, -227.195312500000, 202.007812500000, 1490866202
0.446533203125, -1.716552734375, -0.106933593750, 165.000000000000, -227.195312500000, 202.007812500000, 1490866202
0.598388671875, -1.204833984375, 0.119384765625, -8.125000000000, 123.117187500000, -62.070312500000, 1490866202
0.598388671875, -1.204833984375, 0.119384765625, -8.125000000000, 123.117187500000, -62.070312500000, 1490866202
0.598388671875, -1.204833984375, 0.119384765625, -8.125000000000, 123.117187500000, -62.070312500000, 1490866202
0.598388671875, -1.204833984375, 0.119384765625, -8.125000000000, 123.117187500000, -62.070312500000, 1490866202
0.108398437500, -0.614013671875, 0.208007812500, 49.210937500000, 253.992187500000, -60.179687500000, 1490866202
0.108398437500, -0.614013671875, 0.208007812500, 49.210937500000, 253.992187500000, -60.179687500000, 1490866202
0.108398437500, -0.614013671875, 0.208007812500, 49.210937500000, 253.992187500000, -60.179687500000, 1490866202
0.108398437500, -0.614013671875, 0.208007812500, 49.210937500000, 253.992187500000, -60.179687500000, 1490866202
-0.057861328125, -0.391845703125, 0.207519531250, -16.890625000000, 222.242187500000, -25.921875000000, 1490866202
-0.057861328125, -0.391845703125, 0.207519531250, -16.890625000000, 222.242187500000, -25.921875000000, 1490866202
-0.057861328125, -0.391845703125, 0.207519531250, -16.890625000000, 222.242187500000, -25.921875000000, 1490866202
-0.057861328125, -0.391845703125, 0.207519531250, -16.890625000000, 222.242187500000, -25.921875000000, 1490866202
0.116210937500, -0.276123046875, 0.116699218750, -68.421875000000, 55.429687500000, -10.382812500000, 1490866202
0.116210937500, -0.276123046875, 0.116699218750, -68.421875000000, 55.429687500000, -10.382812500000, 1490866202
0.116210937500, -0.276123046875, 0.116699218750, -68.421875000000, 55.429687500000, -10.382812500000, 1490866202
0.447998046875, -1.172119140625, -0.013671875000, -30.804687500000, 39.585937500000, 52.250000000000, 1490866202
0.447998046875, -1.172119140625, -0.013671875000, -30.804687500000, 39.585937500000, 52.250000000000, 1490866202
0.447998046875, -1.172119140625, -0.013671875000, -30.804687500000, 39.585937500000, 52.250000000000, 1490866202
0.511962890625, -1.608642578125, -0.075195312500, -92.500000000000, 69.562500000000, -3.320312500000, 1490866202
0.511962890625, -1.608642578125, -0.075195312500, -92.500000000000, 69.562500000000, -3.320312500000, 1490866202
0.511962890625, -1.608642578125, -0.075195312500, -92.500000000000, 69.562500000000, -3.320312500000, 1490866202
0.511962890625, -1.608642578125, -0.075195312500, -92.500000000000, 69.562500000000, -3.320312500000, 1490866202
-0.211914062500, -1.622802734375, -0.019531250000, -73.359375000000, 125.187500000000, -95.593750000000, 1490866202
-0.211914062500, -1.622802734375, -0.019531250000, -73.359375000000, 125.187500000000, -95.593750000000, 1490866202
-0.211914062500, -1.622802734375, -0.019531250000, -73.359375000000, 125.187500000000, -95.593750000000, 1490866203
-0.411865234375, -1.051513671875, 0.032226562500, -105.921875000000, -66.914062500000, 58.398437500000, 1490866203
-0.411865234375, -1.051513671875, 0.032226562500, -105.921875000000, -66.914062500000, 58.398437500000, 1490866203
-0.411865234375, -1.051513671875, 0.032226562500, -105.921875000000, -66.914062500000, 58.398437500000, 1490866203
-0.115966796875, -0.714111328125, 0.049072265625, 35.765625000000, -80.039062500000, -50.328125000000, 1490866203
-0.115966796875, -0.714111328125, 0.049072265625, 35.765625000000, -80.039062500000, -50.328125000000, 1490866203
-0.115966796875, -0.714111328125, 0.049072265625, 35.765625000000, -80.039062500000, -50.328125000000, 1490866203
-0.093994140625, -0.530517578125, 0.016601562500, 0.414062500000, -95.343750000000, -48.859375000000, 1490866203
-0.093994140625, -0.530517578125, 0.016601562500, 0.414062500000, -95.343750000000, -48.859375000000, 1490866203
-0.093994140625, -0.530517578125, 0.016601562500, 0.414062500000, -95.343750000000, -48.859375000000, 1490866203
-0.093994140625, -0.530517578125, 0.016601562500, 0.414062500000, -95.343750000000, -48.859375000000, 1490866203
0.000976562500, -0.581542968750, -0.059326171875, -23.656250000000, -119.085937500000, -92.218750000000, 1490866203
0.000976562500, -0.581542968750, -0.059326171875, -23.656250000000, -119.085937500000, -92.218750000000, 1490866203
0.000976562500, -0.581542968750, -0.059326171875, -23.656250000000, -119.085937500000, -92.218750000000, 1490866203
-0.133789062500, -0.890869140625, 0.089111328125, 32.171875000000, -166.070312500000, -60.773437500000, 1490866203
-0.133789062500, -0.890869140625, 0.089111328125, 32.171875000000, -166.070312500000, -60.773437500000, 1490866203
-0.133789062500, -0.890869140625, 0.089111328125, 32.171875000000, -166.070312500000, -60.773437500000, 1490866203
0.048339843750, -1.487548828125, -0.013183593750, 98.343750000000, -256.000000000000, -14.500000000000, 1490866203
0.048339843750, -1.487548828125, -0.013183593750, 98.343750000000, -256.000000000000, -14.500000000000, 1490866203
0.048339843750, -1.487548828125, -0.013183593750, 98.343750000000, -256.000000000000, -14.500000000000, 1490866203
0.556396484375, -1.475585937500, 0.407226562500, 170.882812500000, -47.890625000000, 136.578125000000, 1490866203
0.556396484375, -1.475585937500, 0.407226562500, 170.882812500000, -47.890625000000, 136.578125000000, 1490866203
0.556396484375, -1.475585937500, 0.407226562500, 170.882812500000, -47.890625000000, 136.578125000000, 1490866203
0.556396484375, -1.475585937500, 0.407226562500, 170.882812500000, -47.890625000000, 136.578125000000, 1490866203
0.194335937500, -0.800781250000, 0.002929687500, 30.789062500000, 253.992187500000, -27.656250000000, 1490866203
0.194335937500, -0.800781250000, 0.002929687500, 30.789062500000, 253.992187500000, -27.656250000000, 1490866203
0.194335937500, -0.800781250000, 0.002929687500, 30.789062500000, 253.992187500000, -27.656250000000, 1490866203
0.030517578125, -0.581298828125, 0.082763671875, -80.046875000000, 253.992187500000, -70.164062500000, 1490866203
0.030517578125, -0.581298828125, 0.082763671875, -80.046875000000, 253.992187500000, -70.164062500000, 1490866203
0.030517578125, -0.581298828125, 0.082763671875, -80.046875000000, 253.992187500000, -70.164062500000, 1490866203
-0.092529296875, -0.607910156250, 0.072021484375, -78.554687500000, 54.679687500000, 33.148437500000, 1490866203
-0.092529296875, -0.607910156250, 0.072021484375, -78.554687500000, 54.679687500000, 33.148437500000, 1490866203
-0.092529296875, -0.607910156250, 0.072021484375, -78.554687500000, 54.679687500000, 33.148437500000, 1490866203
0.103759765625, -0.802734375000, 0.087402343750, 66.398437500000, 78.921875000000, 1.367187500000, 1490866203
0.103759765625, -0.802734375000, 0.087402343750, 66.398437500000, 78.921875000000, 1.367187500000, 1490866203
0.103759765625, -0.802734375000, 0.087402343750, 66.398437500000, 78.921875000000, 1.367187500000, 1490866203
0.268066406250, -0.961425781250, -0.088623046875, 51.101562500000, -5.414062500000, 125.296875000000, 1490866203
0.268066406250, -0.961425781250, -0.088623046875, 51.101562500000, -5.414062500000, 125.296875000000, 1490866203
0.268066406250, -0.961425781250, -0.088623046875, 51.101562500000, -5.414062500000, 125.296875000000, 1490866203
0.268066406250, -0.961425781250, -0.088623046875, 51.101562500000, -5.414062500000, 125.296875000000, 1490866203
0.363525390625, -1.583496093750, 0.013427734375, -72.046875000000, -65.195312500000, -54.562500000000, 1490866203
0.363525390625, -1.583496093750, 0.013427734375, -72.046875000000, -65.195312500000, -54.562500000000, 1490866203
0.363525390625, -1.583496093750, 0.013427734375, -72.046875000000, -65.195312500000, -54.562500000000, 1490866203
0.005859375000, -1.479248046875, 0.199462890625, -208.914062500000, -94.890625000000, -174.304687500000, 1490866203
0.005859375000, -1.479248046875, 0.199462890625, -208.914062500000, -94.890625000000, -174.304687500000, 1490866203
0.005859375000, -1.479248046875, 0.199462890625, -208.914062500000, -94.890625000000, -174.304687500000, 1490866203
-0.223876953125, -1.156982421875, 0.006103515625, 78.828125000000, 106.890625000000, -5.429687500000, 1490866203
-0.223876953125, -1.156982421875, 0.006103515625, 78.828125000000, 106.890625000000, -5.429687500000, 1490866203
-0.223876953125, -1.156982421875, 0.006103515625, 78.828125000000, 106.890625000000, -5.429687500000, 1490866203
-0.223876953125, -1.156982421875, 0.006103515625, 78.828125000000, 106.890625000000, -5.429687500000, 1490866203
-0.156982421875, -0.644531250000, -0.040527343750, -51.171875000000, 116.609375000000, -9.578125000000, 1490866203
-0.156982421875, -0.644531250000, -0.040527343750, -51.171875000000, 116.609375000000, -9.578125000000, 1490866203
-0.156982421875, -0.644531250000, -0.040527343750, -51.171875000000, 116.609375000000, -9.578125000000, 1490866203
-0.078613281250, -0.543701171875, 0.003906250000, -8.953125000000, -133.093750000000, -13.531250000000, 1490866203
-0.078613281250, -0.543701171875, 0.003906250000, -8.953125000000, -133.093750000000, -13.531250000000, 1490866203
-0.078613281250, -0.543701171875, 0.003906250000, -8.953125000000, -133.093750000000, -13.531250000000, 1490866203
-0.109619140625, -0.663085937500, 0.064941406250, -25.351562500000, -164.546875000000, -39.500000000000, 1490866203
-0.137939453125, -1.185791015625, 0.104492187500, 12.578125000000, -242.789062500000, -54.820312500000, 1490866203
-0.093505859375, -1.218017578125, 0.104003906250, 35.445312500000, -148.093750000000, -34.679687500000, 1490866203
-0.093505859375, -1.218017578125, 0.104003906250, 35.445312500000, -148.093750000000, -34.679687500000, 1490866203
-0.093505859375, -1.218017578125, 0.104003906250, 35.445312500000, -148.093750000000, -34.679687500000, 1490866203
0.231201171875, -1.009521484375, 0.224609375000, 23.843750000000, 58.742187500000, -11.789062500000, 1490866203
0.231201171875, -1.009521484375, 0.224609375000, 23.843750000000, 58.742187500000, -11.789062500000, 1490866203
0.231201171875, -1.009521484375, 0.224609375000, 23.843750000000, 58.742187500000, -11.789062500000, 1490866203
0.231201171875, -1.009521484375, 0.224609375000, 23.843750000000, 58.742187500000, -11.789062500000, 1490866203
0.231201171875, -1.009521484375, 0.224609375000, 23.843750000000, 58.742187500000, -11.789062500000, 1490866203
