ACC_X,ACC_Y,ACC_Z,G_X,G_Y,G_Z,Unix Time
-0.044677734375, -1.077392578125, 0.355468750000, 0.367187500000, -45.812500000000, 10.781250000000, 1490870346
-0.044677734375, -1.077392578125, 0.355468750000, 0.367187500000, -45.812500000000, 10.781250000000, 1490870346
-0.044677734375, -1.077392578125, 0.355468750000, 0.367187500000, -45.812500000000, 10.781250000000, 1490870346
0.300048828125, -0.777587890625, 0.344970703125, -16.953125000000, -1.015625000000, 41.195312500000, 1490870346
0.300048828125, -0.777587890625, 0.344970703125, -16.953125000000, -1.015625000000, 41.195312500000, 1490870346
0.300048828125, -0.777587890625, 0.344970703125, -16.953125000000, -1.015625000000, 41.195312500000, 1490870346
0.300048828125, -0.777587890625, 0.344970703125, -16.953125000000, -1.015625000000, 41.195312500000, 1490870346
0.184814453125, -0.951416015625, 0.380615234375, -28.882812500000, 16.882812500000, 22.812500000000, 1490870346
0.184814453125, -0.951416015625, 0.380615234375, -28.882812500000, 16.882812500000, 22.812500000000, 1490870346
0.184814453125, -0.951416015625, 0.380615234375, -28.882812500000, 16.882812500000, 22.812500000000, 1490870346
0.184814453125, -0.951416015625, 0.380615234375, -28.882812500000, 16.882812500000, 22.812500000000, 1490870346
0.184814453125, -0.951416015625, 0.380615234375, -28.882812500000, 16.882812500000, 22.812500000000, 1490870346
0.184814453125, -0.951416015625, 0.380615234375, -28.882812500000, 16.882812500000, 22.812500000000, 1490870346
0.114990234375, -0.830810546875, 0.364746093750, 60.875000000000, 20.054687500000, 2.148437500000, 1490870346
0.114990234375, -0.830810546875, 0.364746093750, 60.875000000000, 20.054687500000, 2.148437500000, 1490870346
0.114990234375, -0.830810546875, 0.364746093750, 60.875000000000, 20.054687500000, 2.148437500000, 1490870346
0.114990234375, -0.830810546875, 0.364746093750, 60.875000000000, 20.054687500000, 2.148437500000, 1490870346
0.114990234375, -0.830810546875, 0.364746093750, 60.875000000000, 20.054687500000, 2.148437500000, 1490870346
0.109375000000, -0.708007812500, 0.347656250000, 46.367187500000, 7.500000000000, -8.117187500000, 1490870346
0.109375000000, -0.708007812500, 0.347656250000, 46.367187500000, 7.500000000000, -8.117187500000, 1490870346
0.109375000000, -0.708007812500, 0.347656250000, 46.367187500000, 7.500000000000, -8.117187500000, 1490870346
0.109375000000, -0.708007812500, 0.347656250000, 46.367187500000, 7.500000000000, -8.117187500000, 1490870346
0.109375000000, -0.708007812500, 0.347656250000, 46.367187500000, 7.500000000000, -8.117187500000, 1490870346
0.112792968750, -0.768554687500, 0.295898437500, 33.296875000000, 30.914062500000, -1.937500000000, 1490870346
0.112792968750, -0.768554687500, 0.295898437500, 33.296875000000, 30.914062500000, -1.937500000000, 1490870346
0.112792968750, -0.768554687500, 0.295898437500, 33.296875000000, 30.914062500000, -1.937500000000, 1490870346
0.205810546875, -0.801513671875, 0.270751953125, 42.078125000000, 44.757812500000, -2.484375000000, 1490870346
0.205810546875, -0.801513671875, 0.270751953125, 42.078125000000, 44.757812500000, -2.484375000000, 1490870346
0.205810546875, -0.801513671875, 0.270751953125, 42.078125000000, 44.757812500000, -2.484375000000, 1490870346
0.128662109375, -1.186279296875, 0.284423828125, 25.968750000000, 34.390625000000, -7.617187500000, 1490870346
0.128662109375, -1.186279296875, 0.284423828125, 25.968750000000, 34.390625000000, -7.617187500000, 1490870346
0.128662109375, -1.186279296875, 0.284423828125, 25.968750000000, 34.390625000000, -7.617187500000, 1490870346
0.128662109375, -1.186279296875, 0.284423828125, 25.968750000000, 34.390625000000, -7.617187500000, 1490870346
0.039794921875, -1.378417968750, 0.400878906250, 16.648437500000, 21.523437500000, -27.851562500000, 1490870346
0.039794921875, -1.378417968750, 0.400878906250, 16.648437500000, 21.523437500000, -27.851562500000, 1490870346
0.039794921875, -1.378417968750, 0.400878906250, 16.648437500000, 21.523437500000, -27.851562500000, 1490870346
-0.006591796875, -1.390625000000, 0.370605468750, 23.023437500000, 36.062500000000, -50.187500000000, 1490870346
-0.006591796875, -1.390625000000, 0.370605468750, 23.023437500000, 36.062500000000, -50.187500000000, 1490870346
-0.006591796875, -1.390625000000, 0.370605468750, 23.023437500000, 36.062500000000, -50.187500000000, 1490870346
0.199707031250, -1.336425781250, 0.449462890625, 17.914062500000, 42.007812500000, -51.421875000000, 1490870346
0.199707031250, -1.336425781250, 0.449462890625, 17.914062500000, 42.007812500000, -51.421875000000, 1490870346
0.199707031250, -1.336425781250, 0.449462890625, 17.914062500000, 42.007812500000, -51.421875000000, 1490870346
-0.001220703125, -1.337646484375, 0.100097656250, -81.437500000000, -24.398437500000, -12.187500000000, 1490870347
-0.001220703125, -1.337646484375, 0.100097656250, -81.437500000000, -24.398437500000, -12.187500000000, 1490870347
-0.001220703125, -1.337646484375, 0.100097656250, -81.437500000000, -24.398437500000, -12.187500000000, 1490870347
-0.001220703125, -1.337646484375, 0.100097656250, -81.437500000000, -24.398437500000, -12.187500000000, 1490870347
-0.209472656250, -0.891113281250, 0.091064453125, -63.312500000000, 25.328125000000, -75.992187500000, 1490870347
-0.209472656250, -0.891113281250, 0.091064453125, -63.312500000000, 25.328125000000, -75.992187500000, 1490870347
-0.209472656250, -0.891113281250, 0.091064453125, -63.312500000000, 25.328125000000, -75.992187500000, 1490870347
-0.232177734375, -1.022705078125, -0.076660156250, -187.109375000000, 17.015625000000, -83.804687500000, 1490870347
-0.232177734375, -1.022705078125, -0.076660156250, -187.109375000000, 17.015625000000, -83.804687500000, 1490870347
-0.232177734375, -1.022705078125, -0.076660156250, -187.109375000000, 17.015625000000, -83.804687500000, 1490870347
-0.221435546875, -1.164550781250, 0.109619140625, -170.203125000000, 16.945312500000, -47.273437500000, 1490870347
-0.221435546875, -1.164550781250, 0.109619140625, -170.203125000000, 16.945312500000, -47.273437500000, 1490870347
-0.221435546875, -1.164550781250, 0.109619140625, -170.203125000000, 16.945312500000, -47.273437500000, 1490870347
-0.052001953125, -1.159667968750, 0.124511718750, -124.632812500000, -64.187500000000, -77.367187500000, 1490870347
-0.052001953125, -1.159667968750, 0.124511718750, -124.632812500000, -64.187500000000, -77.367187500000, 1490870347
-0.052001953125, -1.159667968750, 0.124511718750, -124.632812500000, -64.187500000000, -77.367187500000, 1490870347
-0.052001953125, -1.159667968750, 0.124511718750, -124.632812500000, -64.187500000000, -77.367187500000, 1490870347
-0.101074218750, -1.235839843750, 0.170654296875, -107.687500000000, -77.382812500000, -94.617187500000, 1490870347
-0.126464843750, -0.655761718750, -0.008789062500, 9.234375000000, 27.765625000000, 25.570312500000, 1490870347
-0.126464843750, -0.655761718750, -0.008789062500, 9.234375000000, 27.765625000000, 25.570312500000, 1490870347
-0.126464843750, -0.655761718750, -0.008789062500, 9.234375000000, 27.765625000000, 25.570312500000, 1490870347
-0.126464843750, -0.655761718750, -0.008789062500, 9.234375000000, 27.765625000000, 25.570312500000, 1490870347
-0.126464843750, -0.655761718750, -0.008789062500, 9.234375000000, 27.765625000000, 25.570312500000, 1490870347
-0.086181640625, -0.487792968750, 0.057617187500, 53.960937500000, 37.101562500000, 17.656250000000, 1490870347
-0.086181640625, -0.487792968750, 0.057617187500, 53.960937500000, 37.101562500000, 17.656250000000, 1490870347
-0.086181640625, -0.487792968750, 0.057617187500, 53.960937500000, 37.101562500000, 17.656250000000, 1490870347
0.014160156250, -0.478759765625, -0.005615234375, 61.992187500000, -8.062500000000, 16.718750000000, 1490870347
0.014160156250, -0.478759765625, -0.005615234375, 61.992187500000, -8.062500000000, 16.718750000000, 1490870347
0.014160156250, -0.478759765625, -0.005615234375, 61.992187500000, -8.062500000000, 16.718750000000, 1490870347
-0.009277343750, -1.081298828125, 0.198486328125, 112.804687500000, -65.609375000000, 80.382812500000, 1490870347
-0.009277343750, -1.081298828125, 0.198486328125, 112.804687500000, -65.609375000000, 80.382812500000, 1490870347
-0.009277343750, -1.081298828125, 0.198486328125, 112.804687500000, -65.609375000000, 80.382812500000, 1490870347
-0.009277343750, -1.081298828125, 0.198486328125, 112.804687500000, -65.609375000000, 80.382812500000, 1490870347
-0.086669921875, -1.601806640625, 0.312500000000, 164.375000000000, -139.304687500000, 42.421875000000, 1490870347
-0.086669921875, -1.601806640625, 0.312500000000, 164.375000000000, -139.304687500000, 42.421875000000, 1490870347
-0.086669921875, -1.601806640625, 0.312500000000, 164.375000000000, -139.304687500000, 42.421875000000, 1490870347
-0.121826171875, -1.583496093750, 0.342773437500, 199.984375000000, -101.320312500000, 38.945312500000, 1490870347
-0.121826171875, -1.583496093750, 0.342773437500, 199.984375000000, -101.320312500000, 38.945312500000, 1490870347
-0.121826171875, -1.583496093750, 0.342773437500, 199.984375000000, -101.320312500000, 38.945312500000, 1490870347
-0.328125000000, -1.023925781250, 0.917480468750, -5.195312500000, -204.343750000000, 40.085937500000, 1490870347
-0.328125000000, -1.023925781250, 0.917480468750, -5.195312500000, -204.343750000000, 40.085937500000, 1490870347
-0.328125000000, -1.023925781250, 0.917480468750, -5.195312500000, -204.343750000000, 40.085937500000, 1490870347
-0.328125000000, -1.023925781250, 0.917480468750, -5.195312500000, -204.343750000000, 40.085937500000, 1490870347
0.069580078125, -1.281738281250, 0.299804687500, -179.671875000000, 16.726562500000, 40.929687500000, 1490870347
0.069580078125, -1.281738281250, 0.299804687500, -179.671875000000, 16.726562500000, 40.929687500000, 1490870347
0.069580078125, -1.281738281250, 0.299804687500, -179.671875000000, 16.726562500000, 40.929687500000, 1490870347
0.038085937500, -0.941894531250, 0.114990234375, -179.648437500000, 116.031250000000, 27.867187500000, 1490870347
0.038085937500, -0.941894531250, 0.114990234375, -179.648437500000, 116.031250000000, 27.867187500000, 1490870347
0.038085937500, -0.941894531250, 0.114990234375, -179.648437500000, 116.031250000000, 27.867187500000, 1490870347
0.399414062500, -0.952392578125, 0.183593750000, -121.617187500000, 31.585937500000, -43.851562500000, 1490870347
0.399414062500, -0.952392578125, 0.183593750000, -121.617187500000, 31.585937500000, -43.851562500000, 1490870347
0.399414062500, -0.952392578125, 0.183593750000, -121.617187500000, 31.585937500000, -43.851562500000, 1490870347
0.399414062500, -0.952392578125, 0.183593750000, -121.617187500000, 31.585937500000, -43.851562500000, 1490870347
0.399414062500, -0.952392578125, 0.183593750000, -121.617187500000, 31.585937500000, -43.851562500000, 1490870347
0.391113281250, -0.875732421875, 0.264160156250, -79.406250000000, -46.242187500000, -36.585937500000, 1490870347
0.391113281250, -0.875732421875, 0.264160156250, -79.406250000000, -46.242187500000, -36.585937500000, 1490870347
0.391113281250, -0.875732421875, 0.264160156250, -79.406250000000, -46.242187500000, -36.585937500000, 1490870347
0.329101562500, -0.658935546875, 0.184570312500, -31.843750000000, -24.218750000000, -18.828125000000, 1490870347
0.278076171875, -0.665527343750, 0.172119140625, -16.054687500000, -9.562500000000, 4.710937500000, 1490870347
0.278076171875, -0.665527343750, 0.172119140625, -16.054687500000, -9.562500000000, 4.710937500000, 1490870347
0.278076171875, -0.665527343750, 0.172119140625, -16.054687500000, -9.562500000000, 4.710937500000, 1490870347
0.269775390625, -0.836425781250, 0.272216796875, 21.484375000000, 34.375000000000, 20.296875000000, 1490870347
0.274414062500, -0.612304687500, 0.161132812500, 43.968750000000, 47.125000000000, 23.210937500000, 1490870347
0.274414062500, -0.612304687500, 0.161132812500, 43.968750000000, 47.125000000000, 23.210937500000, 1490870347
0.274414062500, -0.612304687500, 0.161132812500, 43.968750000000, 47.125000000000, 23.210937500000, 1490870347
0.105957031250, -0.556884765625, 0.197021484375, 113.390625000000, 67.398437500000, 38.054687500000, 1490870347
0.105957031250, -0.556884765625, 0.197021484375, 113.390625000000, 67.398437500000, 38.054687500000, 1490870348
0.105957031250, -0.556884765625, 0.197021484375, 113.390625000000, 67.398437500000, 38.054687500000, 1490870348
0.105957031250, -0.556884765625, 0.197021484375, 113.390625000000, 67.398437500000, 38.054687500000, 1490870348
0.198242187500, -0.848876953125, 0.123291015625, 146.710937500000, 9.257812500000, 20.898437500000, 1490870348
0.198242187500, -0.848876953125, 0.123291015625, 146.710937500000, 9.257812500000, 20.898437500000, 1490870348
0.198242187500, -0.848876953125, 0.123291015625, 146.710937500000, 9.257812500000, 20.898437500000, 1490870348
-0.077148437500, -1.095703125000, 1.094970703125, 253.992187500000, -28.281250000000, 38.359375000000, 1490870348
-0.077148437500, -1.095703125000, 1.094970703125, 253.992187500000, -28.281250000000, 38.359375000000, 1490870348
-0.077148437500, -1.095703125000, 1.094970703125, 253.992187500000, -28.281250000000, 38.359375000000, 1490870348
-0.152099609375, -1.044921875000, 0.801025390625, 69.023437500000, -7.875000000000, -4.750000000000, 1490870348
-0.152099609375, -1.044921875000, 0.801025390625, 69.023437500000, -7.875000000000, -4.750000000000, 1490870348
-0.152099609375, -1.044921875000, 0.801025390625, 69.023437500000, -7.875000000000, -4.750000000000, 1490870348
0.198730468750, -1.413085937500, 0.342285156250, -75.140625000000, 44.562500000000, -50.968750000000, 1490870348
0.198730468750, -1.413085937500, 0.342285156250, -75.140625000000, 44.562500000000, -50.968750000000, 1490870348
0.198730468750, -1.413085937500, 0.342285156250, -75.140625000000, 44.562500000000, -50.968750000000, 1490870348
0.198730468750, -1.413085937500, 0.342285156250, -75.140625000000, 44.562500000000, -50.968750000000, 1490870348
0.053955078125, -1.384033203125, 0.319580078125, -88.007812500000, 65.867187500000, -52.343750000000, 1490870348
0.053955078125, -1.384033203125, 0.319580078125, -88.007812500000, 65.867187500000, -52.343750000000, 1490870348
0.053955078125, -1.384033203125, 0.319580078125, -88.007812500000, 65.867187500000, -52.343750000000, 1490870348
-0.021972656250, -1.083496093750, 0.176757812500, -88.148437500000, 52.531250000000, -35.367187500000, 1490870348
-0.021972656250, -1.083496093750, 0.176757812500, -88.148437500000, 52.531250000000, -35.367187500000, 1490870348
-0.021972656250, -1.083496093750, 0.176757812500, -88.148437500000, 52.531250000000, -35.367187500000, 1490870348
0.066406250000, -1.019775390625, 0.134765625000, -87.234375000000, 5.960937500000, -28.210937500000, 1490870348
0.066406250000, -1.019775390625, 0.134765625000, -87.234375000000, 5.960937500000, -28.210937500000, 1490870348
0.066406250000, -1.019775390625, 0.134765625000, -87.234375000000, 5.960937500000, -28.210937500000, 1490870348
-0.277099609375, -1.072509765625, 0.093261718750, -52.281250000000, -17.015625000000, -40.179687500000, 1490870348
-0.277099609375, -1.072509765625, 0.093261718750, -52.281250000000, -17.015625000000, -40.179687500000, 1490870348
-0.277099609375, -1.072509765625, 0.093261718750, -52.281250000000, -17.015625000000, -40.179687500000, 1490870348
-0.277099609375, -1.072509765625, 0.093261718750, -52.281250000000, -17.015625000000, -40.179687500000, 1490870348
-0.224609375000, -0.989013671875, 0.053955078125, -11.359375000000, -11.796875000000, -51.492187500000, 1490870348
-0.224609375000, -0.989013671875, 0.053955078125, -11.359375000000, -11.796875000000, -51.492187500000, 1490870348
-0.224609375000, -0.989013671875, 0.053955078125, -11.359375000000, -11.796875000000, -51.492187500000, 1490870348
-0.324951171875, -0.906982421875, 0.188476562500, 53.500000000000, -47.984375000000, -7.625000000000, 1490870348
-0.324951171875, -0.906982421875, 0.188476562500, 53.500000000000, -47.984375000000, -7.625000000000, 1490870348
-0.324951171875, -0.906982421875, 0.188476562500, 53.500000000000, -47.984375000000, -7.625000000000, 1490870348
-0.214843750000, -0.630371093750, 0.132568359375, 93.078125000000, -47.320312500000, 17.179687500000, 1490870348
-0.214843750000, -0.630371093750, 0.132568359375, 93.078125000000, -47.320312500000, 17.179687500000, 1490870348
-0.214843750000, -0.630371093750, 0.132568359375, 93.078125000000, -47.320312500000, 17.179687500000, 1490870348
0.066894531250, -0.429443359375, 0.417236328125, 134.648437500000, -155.000000000000, 16.820312500000, 1490870348
0.066894531250, -0.429443359375, 0.417236328125, 134.648437500000, -155.000000000000, 16.820312500000, 1490870348
0.066894531250, -0.429443359375, 0.417236328125, 134.648437500000, -155.000000000000, 16.820312500000, 1490870348
0.066894531250, -0.429443359375, 0.417236328125, 134.648437500000, -155.000000000000, 16.820312500000, 1490870348
-0.010498046875, -0.583496093750, 0.388916015625, 28.898437500000, -35.390625000000, 9.859375000000, 1490870348
-0.010498046875, -0.583496093750, 0.388916015625, 28.898437500000, -35.390625000000, 9.859375000000, 1490870348
-0.010498046875, -0.583496093750, 0.388916015625, 28.898437500000, -35.390625000000, 9.859375000000, 1490870348
-0.109863281250, -0.914550781250, 0.230712890625, -39.296875000000, -80.039062500000, -1.515625000000, 1490870348
-0.109863281250, -0.914550781250, 0.230712890625, -39.296875000000, -80.039062500000, -1.515625000000, 1490870348
-0.109863281250, -0.914550781250, 0.230712890625, -39.296875000000, -80.039062500000, -1.515625000000, 1490870348
-0.097900390625, -1.218261718750, 0.254150390625, -34.484375000000, -29.656250000000, 0.054687500000, 1490870348
-0.097900390625, -1.218261718750, 0.254150390625, -34.484375000000, -29.656250000000, 0.054687500000, 1490870348
-0.097900390625, -1.218261718750, 0.254150390625, -34.484375000000, -29.656250000000, 0.054687500000, 1490870348
0.000976562500, -1.311767578125, 0.301269531250, 4.085937500000, -13.640625000000, 11.585937500000, 1490870348
0.000976562500, -1.311767578125, 0.301269531250, 4.085937500000, -13.640625000000, 11.585937500000, 1490870348
0.000976562500, -1.311767578125, 0.301269531250, 4.085937500000, -13.640625000000, 11.585937500000, 1490870348
0.000976562500, -1.311767578125, 0.301269531250, 4.085937500000, -13.640625000000, 11.585937500000, 1490870348
0.205078125000, -1.306640625000, 0.389892578125, 19.367187500000, -12.460937500000, 46.671875000000, 1490870348
0.205078125000, -1.306640625000, 0.389892578125, 19.367187500000, -12.460937500000, 46.671875000000, 1490870348
0.205078125000, -1.306640625000, 0.389892578125, 19.367187500000, -12.460937500000, 46.671875000000, 1490870348
0.064697265625, -1.264160156250, 0.226562500000, -46.351562500000, -44.742187500000, 41.125000000000, 1490870348
0.064697265625, -1.264160156250, 0.226562500000, -46.351562500000, -44.742187500000, 41.125000000000, 1490870348
0.064697265625, -1.264160156250, 0.226562500000, -46.351562500000, -44.742187500000, 41.125000000000, 1490870348
0.030761718750, -0.912597656250, 0.201904296875, -84.875000000000, 18.617187500000, 22.906250000000, 1490870348
0.030761718750, -0.912597656250, 0.201904296875, -84.875000000000, 18.617187500000, 22.906250000000, 1490870348
0.030761718750, -0.912597656250, 0.201904296875, -84.875000000000, 18.617187500000, 22.906250000000, 1490870348
0.205322265625, -0.874267578125, 0.179443359375, -75.859375000000, 72.539062500000, 15.226562500000, 1490870349
0.269042968750, -0.922119140625, 0.204345703125, -13.742187500000, 125.242187500000, -11.328125000000, 1490870349
0.269042968750, -0.922119140625, 0.204345703125, -13.742187500000, 125.242187500000, -11.328125000000, 1490870349
0.326171875000, -0.913818359375, 0.182373046875, -15.960937500000, 24.148437500000, 5.132812500000, 1490870349
0.326171875000, -0.913818359375, 0.182373046875, -15.960937500000, 24.148437500000, 5.132812500000, 1490870349
0.326171875000, -0.913818359375, 0.182373046875, -15.960937500000, 24.148437500000, 5.132812500000, 1490870349
0.326171875000, -0.913818359375, 0.182373046875, -15.960937500000, 24.148437500000, 5.132812500000, 1490870349
0.326171875000, -0.913818359375, 0.182373046875, -15.960937500000, 24.148437500000, 5.132812500000, 1490870349
0.326171875000, -0.913818359375, 0.182373046875, -15.960937500000, 24.148437500000, 5.132812500000, 1490870349
0.326171875000, -0.913818359375, 0.182373046875, -15.960937500000, 24.148437500000, 5.132812500000, 1490870349
0.162353515625, -0.664306640625, 0.151611328125, 33.632812500000, 20.601562500000, 1.757812500000, 1490870349
0.162353515625, -0.664306640625, 0.151611328125, 33.632812500000, 20.601562500000, 1.757812500000, 1490870349
0.162353515625, -0.664306640625, 0.151611328125, 33.632812500000, 20.601562500000, 1.757812500000, 1490870349
0.032470703125, -0.641113281250, 0.381591796875, 93.648437500000, -12.859375000000, 6.804687500000, 1490870349
0.032470703125, -0.641113281250, 0.381591796875, 93.648437500000, -12.859375000000, 6.804687500000, 1490870349
0.032470703125, -0.641113281250, 0.381591796875, 93.648437500000, -12.859375000000, 6.804687500000, 1490870349
0.032470703125, -0.641113281250, 0.381591796875, 93.648437500000, -12.859375000000, 6.804687500000, 1490870349
0.032470703125, -0.641113281250, 0.381591796875, 93.648437500000, -12.859375000000, 6.804687500000, 1490870349
0.032470703125, -0.641113281250, 0.381591796875, 93.648437500000, -12.859375000000, 6.804687500000, 1490870349
0.032470703125, -0.641113281250, 0.381591796875, 93.648437500000, -12.859375000000, 6.804687500000, 1490870349
0.100585937500, -1.031738281250, 0.477050781250, 5.820312500000, 74.687500000000, 6.679687500000, 1490870349
0.100585937500, -1.031738281250, 0.477050781250, 5.820312500000, 74.687500000000, 6.679687500000, 1490870349
0.100585937500, -1.031738281250, 0.477050781250, 5.820312500000, 74.687500000000, 6.679687500000, 1490870349
0.100585937500, -1.031738281250, 0.477050781250, 5.820312500000, 74.687500000000, 6.679687500000, 1490870349
0.153808593750, -1.228759765625, 0.264648437500, -22.312500000000, 1.492187500000, -8.453125000000, 1490870349
0.153808593750, -1.228759765625, 0.264648437500, -22.312500000000, 1.492187500000, -8.453125000000, 1490870349
0.153808593750, -1.228759765625, 0.264648437500, -22.312500000000, 1.492187500000, -8.453125000000, 1490870349
0.153808593750, -1.228759765625, 0.264648437500, -22.312500000000, 1.492187500000, -8.453125000000, 1490870349
0.153808593750, -1.228759765625, 0.264648437500, -13.664062500000, -1.906250000000, -9.156250000000, 1490870349
-0.060302734375, -1.245117187500, 0.261962890625, -6.835937500000, 1.640625000000, -21.640625000000, 1490870349
-0.060302734375, -1.245117187500, 0.261962890625, -6.835937500000, 1.640625000000, -21.640625000000, 1490870349
-0.060302734375, -1.245117187500, 0.261962890625, -6.835937500000, 1.640625000000, -21.640625000000, 1490870349
-0.060302734375, -1.245117187500, 0.261962890625, -6.835937500000, 1.640625000000, -21.640625000000, 1490870349
-0.062744140625, -1.419433593750, 0.259033203125, -6.945312500000, 22.328125000000, -50.007812500000, 1490870349
-0.062744140625, -1.419433593750, 0.259033203125, -6.945312500000, 22.328125000000, -50.007812500000, 1490870349
-0.062744140625, -1.419433593750, 0.259033203125, -6.945312500000, 22.328125000000, -50.007812500000, 1490870349
-0.058837890625, -0.844238281250, 0.152343750000, -73.023437500000, 21.828125000000, -63.562500000000, 1490870349
-0.161132812500, -0.958740234375, 0.190917968750, -90.578125000000, 18.265625000000, -78.742187500000, 1490870349
-0.161132812500, -0.958740234375, 0.190917968750, -90.578125000000, 18.265625000000, -78.742187500000, 1490870349
-0.211669921875, -0.976562500000, 0.087158203125, -95.890625000000, -0.585937500000, -70.937500000000, 1490870349
-0.161376953125, -0.918701171875, 0.099609375000, -57.429687500000, -18.453125000000, -38.664062500000, 1490870349
-0.161376953125, -0.918701171875, 0.099609375000, -57.429687500000, -18.453125000000, -38.664062500000, 1490870349
-0.161376953125, -0.918701171875, 0.099609375000, -57.429687500000, -18.453125000000, -38.664062500000, 1490870349
-0.161376953125, -0.918701171875, 0.099609375000, -57.429687500000, -18.453125000000, -38.664062500000, 1490870349
-0.161376953125, -0.918701171875, 0.099609375000, -57.429687500000, -18.453125000000, -38.664062500000, 1490870349
-0.269531250000, -0.911132812500, 0.132812500000, -36.359375000000, -25.734375000000, -28.421875000000, 1490870349
-0.331542968750, -1.081542968750, 0.067871093750, -23.914062500000, -55.851562500000, -30.093750000000, 1490870349
-0.331542968750, -1.081542968750, 0.067871093750, -23.914062500000, -55.851562500000, -30.093750000000, 1490870349
-0.331542968750, -1.081542968750, 0.067871093750, -23.914062500000, -55.851562500000, -30.093750000000, 1490870349
-0.163330078125, -0.608398437500, 0.077392578125, 29.820312500000, -23.476562500000, -13.500000000000, 1490870349
-0.163330078125, -0.608398437500, 0.077392578125, 29.820312500000, -23.476562500000, -13.500000000000, 1490870349
-0.163330078125, -0.608398437500, 0.077392578125, 29.820312500000, -23.476562500000, -13.500000000000, 1490870349
-0.163330078125, -0.608398437500, 0.077392578125, 29.820312500000, -23.476562500000, -13.500000000000, 1490870349
-0.163330078125, -0.608398437500, 0.077392578125, 29.820312500000, -23.476562500000, -13.500000000000, 1490870349
0.054931640625, -0.692138671875, 0.095214843750, 62.718750000000, -53.445312500000, 42.210937500000, 1490870349
0.076171875000, -0.778564453125, 0.113525390625, 112.500000000000, -225.296875000000, 19.351562500000, 1490870349
0.076171875000, -0.778564453125, 0.113525390625, 112.500000000000, -225.296875000000, 19.351562500000, 1490870349
0.076171875000, -0.778564453125, 0.113525390625, 112.500000000000, -225.296875000000, 19.351562500000, 1490870349
0.076171875000, -0.778564453125, 0.113525390625, 112.500000000000, -225.296875000000, 19.351562500000, 1490870349
0.076171875000, -0.778564453125, 0.113525390625, 112.500000000000, -225.296875000000, 19.351562500000, 1490870349
0.076171875000, -0.778564453125, 0.113525390625, 112.500000000000, -225.296875000000, 19.351562500000, 1490870349
0.076171875000, -0.778564453125, 0.113525390625, 112.500000000000, -225.296875000000, 19.351562500000, 1490870349
-0.147949218750, -1.196044921875, 0.344482421875, 16.015625000000, -58.515625000000, 20.023437500000, 1490870349
-0.170898437500, -1.110351562500, 0.368896484375, -0.835937500000, -34.101562500000, 9.546875000000, 1490870349
-0.170898437500, -1.110351562500, 0.368896484375, -0.835937500000, -34.101562500000, 9.546875000000, 1490870349
0.082275390625, -1.048828125000, 0.368164062500, -25.851562500000, -32.507812500000, 6.453125000000, 1490870349
0.082275390625, -1.048828125000, 0.368164062500, -25.851562500000, -32.507812500000, 6.453125000000, 1490870349
0.082275390625, -1.048828125000, 0.368164062500, -25.851562500000, -32.507812500000, 6.453125000000, 1490870350
0.082275390625, -1.048828125000, 0.368164062500, -25.851562500000, -32.507812500000, 6.453125000000, 1490870350
0.082275390625, -1.048828125000, 0.368164062500, -25.851562500000, -32.507812500000, 6.453125000000, 1490870350
0.082275390625, -1.048828125000, 0.368164062500, -25.851562500000, -32.507812500000, 6.453125000000, 1490870350
-0.006347656250, -1.124267578125, 0.299316406250, -47.203125000000, -20.148437500000, 14.429687500000, 1490870350
-0.013427734375, -1.274658203125, 0.263916015625, -51.648437500000, -22.968750000000, 20.195312500000, 1490870350
-0.013427734375, -1.274658203125, 0.263916015625, -51.648437500000, -22.968750000000, 20.195312500000, 1490870350
-0.013427734375, -1.274658203125, 0.263916015625, -51.648437500000, -22.968750000000, 20.195312500000, 1490870350
0.016113281250, -1.451660156250, 0.380615234375, -74.703125000000, -40.656250000000, 26.523437500000, 1490870350
0.016113281250, -1.451660156250, 0.380615234375, -74.703125000000, -40.656250000000, 26.523437500000, 1490870350
0.016113281250, -1.451660156250, 0.380615234375, -74.703125000000, -40.656250000000, 26.523437500000, 1490870350
0.189208984375, -1.056884765625, 0.317382812500, -81.898437500000, 17.234375000000, 15.679687500000, 1490870350
0.189208984375, -1.056884765625, 0.317382812500, -81.898437500000, 17.234375000000, 15.679687500000, 1490870350
0.189208984375, -1.056884765625, 0.317382812500, -81.898437500000, 17.234375000000, 15.679687500000, 1490870350
0.189208984375, -1.056884765625, 0.317382812500, -81.898437500000, 17.234375000000, 15.679687500000, 1490870350
