ACC_X,ACC_Y,ACC_Z,G_X,G_Y,G_Z,Unix Time
0.053466796875, -1.006591796875, 0.281005859375, -1.007812500000, 0.226562500000, -3.570312500000, 1490871063
0.053466796875, -1.006591796875, 0.281005859375, -1.007812500000, 0.226562500000, -3.570312500000, 1490871063
0.053466796875, -1.006591796875, 0.281005859375, -1.007812500000, 0.226562500000, -3.570312500000, 1490871063
0.135986328125, -0.918701171875, 0.181396484375, -3.445312500000, 4.726562500000, -4.617187500000, 1490871063
0.135986328125, -0.918701171875, 0.181396484375, -3.445312500000, 4.726562500000, -4.617187500000, 1490871063
0.135986328125, -0.918701171875, 0.181396484375, -3.445312500000, 4.726562500000, -4.617187500000, 1490871063
0.042236328125, -1.072509765625, 0.258056640625, -4.585937500000, -8.085937500000, -3.578125000000, 1490871063
0.042236328125, -1.072509765625, 0.258056640625, -4.585937500000, -8.085937500000, -3.578125000000, 1490871063
0.042236328125, -1.072509765625, 0.258056640625, -4.585937500000, -8.085937500000, -3.578125000000, 1490871063
0.042236328125, -1.072509765625, 0.258056640625, -4.585937500000, -8.085937500000, -3.578125000000, 1490871063
0.120361328125, -0.937255859375, 0.224609375000, -6.781250000000, 4.351562500000, -4.953125000000, 1490871063
0.120361328125, -0.937255859375, 0.224609375000, -6.781250000000, 4.351562500000, -4.953125000000, 1490871063
0.120361328125, -0.937255859375, 0.224609375000, -6.781250000000, 4.351562500000, -4.953125000000, 1490871063
0.043701171875, -0.989990234375, 0.174804687500, -1.351562500000, 0.476562500000, -1.984375000000, 1490871063
0.043701171875, -0.989990234375, 0.174804687500, -1.351562500000, 0.476562500000, -1.984375000000, 1490871063
0.043701171875, -0.989990234375, 0.174804687500, -1.351562500000, 0.476562500000, -1.984375000000, 1490871063
0.093017578125, -0.958984375000, 0.237060546875, -4.539062500000, -1.742187500000, -1.945312500000, 1490871063
0.093017578125, -0.958984375000, 0.237060546875, -4.539062500000, -1.742187500000, -1.945312500000, 1490871063
0.093017578125, -0.958984375000, 0.237060546875, -4.539062500000, -1.742187500000, -1.945312500000, 1490871063
-0.015625000000, -0.913330078125, 0.164306640625, -3.984375000000, 2.906250000000, -4.484375000000, 1490871063
-0.015625000000, -0.913330078125, 0.164306640625, -3.984375000000, 2.906250000000, -4.484375000000, 1490871063
-0.015625000000, -0.913330078125, 0.164306640625, -3.984375000000, 2.906250000000, -4.484375000000, 1490871063
-0.015625000000, -0.913330078125, 0.164306640625, -3.984375000000, 2.906250000000, -4.484375000000, 1490871063
-0.022216796875, -1.005859375000, 0.326904296875, -6.335937500000, -0.835937500000, -4.000000000000, 1490871063
-0.022216796875, -1.005859375000, 0.326904296875, -6.335937500000, -0.835937500000, -4.000000000000, 1490871063
-0.022216796875, -1.005859375000, 0.326904296875, -6.335937500000, -0.835937500000, -4.000000000000, 1490871063
0.080078125000, -0.965087890625, 0.275878906250, -3.867187500000, -0.976562500000, -1.679687500000, 1490871063
0.080078125000, -0.965087890625, 0.275878906250, -3.867187500000, -0.976562500000, -1.679687500000, 1490871063
0.080078125000, -0.965087890625, 0.275878906250, -3.867187500000, -0.976562500000, -1.679687500000, 1490871063
0.056884765625, -0.955078125000, 0.241699218750, -4.093750000000, -1.156250000000, -2.945312500000, 1490871063
0.056884765625, -0.955078125000, 0.241699218750, -4.093750000000, -1.156250000000, -2.945312500000, 1490871063
0.056884765625, -0.955078125000, 0.241699218750, -4.093750000000, -1.156250000000, -2.945312500000, 1490871063
0.091552734375, -1.005126953125, 0.186035156250, -3.554687500000, -0.625000000000, -3.750000000000, 1490871063
0.091552734375, -1.005126953125, 0.186035156250, -3.554687500000, -0.625000000000, -3.750000000000, 1490871063
0.091552734375, -1.005126953125, 0.186035156250, -3.554687500000, -0.625000000000, -3.750000000000, 1490871063
0.091552734375, -1.005126953125, 0.186035156250, -3.554687500000, -0.625000000000, -3.750000000000, 1490871063
-0.002929687500, -0.934082031250, 0.185546875000, -1.218750000000, -2.492187500000, -4.554687500000, 1490871063
-0.002929687500, -0.934082031250, 0.185546875000, -1.218750000000, -2.492187500000, -4.554687500000, 1490871063
-0.002929687500, -0.934082031250, 0.185546875000, -1.218750000000, -2.492187500000, -4.554687500000, 1490871063
0.031982421875, -0.934326171875, 0.245117187500, -1.585937500000, -4.570312500000, -1.171875000000, 1490871063
0.031982421875, -0.934326171875, 0.245117187500, -1.585937500000, -4.570312500000, -1.171875000000, 1490871063
0.031982421875, -0.934326171875, 0.245117187500, -1.585937500000, -4.570312500000, -1.171875000000, 1490871063
0.111572265625, -0.856933593750, 0.181884765625, -2.468750000000, -0.546875000000, -2.820312500000, 1490871063
0.111572265625, -0.856933593750, 0.181884765625, -2.468750000000, -0.546875000000, -2.820312500000, 1490871063
0.111572265625, -0.856933593750, 0.181884765625, -2.468750000000, -0.546875000000, -2.820312500000, 1490871063
0.056640625000, -0.703125000000, 0.280517578125, 33.187500000000, -1.125000000000, 1.281250000000, 1490871063
0.056640625000, -0.703125000000, 0.280517578125, 33.187500000000, -1.125000000000, 1.281250000000, 1490871063
0.056640625000, -0.703125000000, 0.280517578125, 33.187500000000, -1.125000000000, 1.281250000000, 1490871063
0.056640625000, -0.703125000000, 0.280517578125, 33.187500000000, -1.125000000000, 1.281250000000, 1490871063
0.020263671875, -0.328857421875, 0.182617187500, 42.789062500000, 5.976562500000, -6.781250000000, 1490871063
0.020263671875, -0.328857421875, 0.182617187500, 42.789062500000, 5.976562500000, -6.781250000000, 1490871063
0.020263671875, -0.328857421875, 0.182617187500, 42.789062500000, 5.976562500000, -6.781250000000, 1490871063
-0.063720703125, -0.131103515625, 0.094726562500, 33.179687500000, 69.835937500000, 0.515625000000, 1490871063
-0.063720703125, -0.131103515625, 0.094726562500, 33.179687500000, 69.835937500000, 0.515625000000, 1490871063
-0.063720703125, -0.131103515625, 0.094726562500, 33.179687500000, 69.835937500000, 0.515625000000, 1490871063
-0.079101562500, -0.680908203125, -0.082275390625, 2.593750000000, 98.117187500000, -9.093750000000, 1490871063
-0.079101562500, -0.680908203125, -0.082275390625, 2.593750000000, 98.117187500000, -9.093750000000, 1490871063
-0.079101562500, -0.680908203125, -0.082275390625, 2.593750000000, 98.117187500000, -9.093750000000, 1490871063
0.390136718750, -1.761962890625, 0.060791015625, 80.789062500000, -74.804687500000, 42.054687500000, 1490871063
0.390136718750, -1.761962890625, 0.060791015625, 80.789062500000, -74.804687500000, 42.054687500000, 1490871063
0.390136718750, -1.761962890625, 0.060791015625, 80.789062500000, -74.804687500000, 42.054687500000, 1490871064
0.390136718750, -1.761962890625, 0.060791015625, 80.789062500000, -74.804687500000, 42.054687500000, 1490871064
0.438476562500, -1.946289062500, 0.379150390625, 14.375000000000, 9.265625000000, 40.593750000000, 1490871064
0.438476562500, -1.946289062500, 0.379150390625, 14.375000000000, 9.265625000000, 40.593750000000, 1490871064
0.438476562500, -1.946289062500, 0.379150390625, 14.375000000000, 9.265625000000, 40.593750000000, 1490871064
0.262695312500, -2.898925781250, 0.281738281250, -47.210937500000, -40.500000000000, 14.476562500000, 1490871064
0.262695312500, -2.898925781250, 0.281738281250, -47.210937500000, -40.500000000000, 14.476562500000, 1490871064
0.262695312500, -2.898925781250, 0.281738281250, -47.210937500000, -40.500000000000, 14.476562500000, 1490871064
0.334716796875, -3.095458984375, 0.252441406250, -66.156250000000, 16.414062500000, 1.648437500000, 1490871064
0.334716796875, -3.095458984375, 0.252441406250, -66.156250000000, 16.414062500000, 1.648437500000, 1490871064
0.468750000000, -2.234619140625, 0.144775390625, -144.789062500000, 7.296875000000, 39.382812500000, 1490871064
0.468750000000, -2.234619140625, 0.144775390625, -144.789062500000, 7.296875000000, 39.382812500000, 1490871064
0.468750000000, -2.234619140625, 0.144775390625, -144.789062500000, 7.296875000000, 39.382812500000, 1490871064
0.468750000000, -2.234619140625, 0.144775390625, -144.789062500000, 7.296875000000, 39.382812500000, 1490871064
0.198974609375, -0.974853515625, 0.052978515625, 6.914062500000, 63.640625000000, 30.070312500000, 1490871064
0.103515625000, -0.439453125000, 0.031982421875, 6.914062500000, 63.640625000000, 30.070312500000, 1490871064
0.103515625000, -0.439453125000, 0.031982421875, 6.914062500000, 63.640625000000, 30.070312500000, 1490871064
0.103515625000, -0.439453125000, 0.031982421875, 6.914062500000, 63.640625000000, 30.070312500000, 1490871064
0.019775390625, -0.026123046875, 0.092529296875, 5.000000000000, 121.906250000000, 43.218750000000, 1490871064
0.019775390625, -0.026123046875, 0.092529296875, 5.000000000000, 121.906250000000, 43.218750000000, 1490871064
0.019775390625, -0.026123046875, 0.092529296875, 5.000000000000, 121.906250000000, 43.218750000000, 1490871064
-0.024414062500, -0.150634765625, -0.003906250000, -95.656250000000, 15.984375000000, -55.226562500000, 1490871064
-0.024414062500, -0.150634765625, -0.003906250000, -95.656250000000, 15.984375000000, -55.226562500000, 1490871064
-0.024414062500, -0.150634765625, -0.003906250000, -95.656250000000, 15.984375000000, -55.226562500000, 1490871064
0.063964843750, -0.068847656250, 0.057617187500, -114.757812500000, -38.125000000000, -139.140625000000, 1490871064
0.063964843750, -0.068847656250, 0.057617187500, -114.757812500000, -38.125000000000, -139.140625000000, 1490871064
0.063964843750, -0.068847656250, 0.057617187500, -114.757812500000, -38.125000000000, -139.140625000000, 1490871064
0.063964843750, -0.068847656250, 0.057617187500, -114.757812500000, -38.125000000000, -139.140625000000, 1490871064
-0.009765625000, 0.135253906250, -0.078125000000, -5.867187500000, 141.882812500000, 11.765625000000, 1490871064
-0.009765625000, 0.135253906250, -0.078125000000, -5.867187500000, 141.882812500000, 11.765625000000, 1490871064
-0.009765625000, 0.135253906250, -0.078125000000, -5.867187500000, 141.882812500000, 11.765625000000, 1490871064
-0.017578125000, 0.088867187500, -0.021728515625, 13.109375000000, 81.804687500000, -28.000000000000, 1490871064
-0.017578125000, 0.088867187500, -0.021728515625, 13.109375000000, 81.804687500000, -28.000000000000, 1490871064
-0.017578125000, 0.088867187500, -0.021728515625, 13.109375000000, 81.804687500000, -28.000000000000, 1490871064
0.084960937500, 0.092041015625, 0.031250000000, 30.312500000000, 94.929687500000, -40.320312500000, 1490871064
0.084960937500, 0.092041015625, 0.031250000000, 30.312500000000, 94.929687500000, -40.320312500000, 1490871064
-0.016601562500, -0.075439453125, 0.012207031250, -55.601562500000, 118.734375000000, -45.593750000000, 1490871064
-0.016601562500, -0.075439453125, 0.012207031250, -55.601562500000, 118.734375000000, -45.593750000000, 1490871064
-0.016601562500, -0.075439453125, 0.012207031250, -55.601562500000, 118.734375000000, -45.593750000000, 1490871064
-0.016601562500, -0.075439453125, 0.012207031250, -55.601562500000, 118.734375000000, -45.593750000000, 1490871064
-0.016601562500, -0.075439453125, 0.012207031250, -55.601562500000, 118.734375000000, -45.593750000000, 1490871064
0.134033203125, -0.070312500000, -0.066406250000, -37.007812500000, 38.148437500000, -30.750000000000, 1490871064
0.134033203125, -0.070312500000, -0.066406250000, -37.007812500000, 38.148437500000, -30.750000000000, 1490871064
0.134033203125, -0.070312500000, -0.066406250000, -37.007812500000, 38.148437500000, -30.750000000000, 1490871064
0.074218750000, -0.033203125000, -0.023193359375, -50.992187500000, -18.125000000000, -33.828125000000, 1490871064
0.074218750000, -0.033203125000, -0.023193359375, -50.992187500000, -18.125000000000, -33.828125000000, 1490871064
0.074218750000, -0.033203125000, -0.023193359375, -50.992187500000, -18.125000000000, -33.828125000000, 1490871064
0.039062500000, 0.000732421875, -0.008056640625, -40.773437500000, -9.937500000000, -59.882812500000, 1490871064
0.039062500000, 0.000732421875, -0.008056640625, -40.773437500000, -9.937500000000, -59.882812500000, 1490871064
0.039062500000, 0.000732421875, -0.008056640625, -40.773437500000, -9.937500000000, -59.882812500000, 1490871064
2.323730468750, -5.681884765625, 2.733642578125, -256.000000000000, -256.000000000000, 68.382812500000, 1490871064
2.323730468750, -5.681884765625, 2.733642578125, -256.000000000000, -256.000000000000, 68.382812500000, 1490871064
2.323730468750, -5.681884765625, 2.733642578125, -256.000000000000, -256.000000000000, 68.382812500000, 1490871064
0.630371093750, -3.943603515625, 0.687255859375, 175.273437500000, -256.000000000000, -114.312500000000, 1490871064
0.124755859375, -4.145263671875, 0.357177734375, 253.992187500000, -256.000000000000, -169.554687500000, 1490871064
1.777343750000, -4.279785156250, 5.974853515625, 253.992187500000, 253.992187500000, -161.992187500000, 1490871064
-0.040771484375, -1.418212890625, 0.752441406250, -162.945312500000, 214.578125000000, 25.453125000000, 1490871064
-0.040771484375, -1.418212890625, 0.752441406250, -162.945312500000, 214.578125000000, 25.453125000000, 1490871064
0.638671875000, -1.630615234375, -0.043701171875, -256.000000000000, 253.992187500000, 161.140625000000, 1490871064
0.882324218750, -2.229248046875, 0.022460937500, -256.000000000000, 222.351562500000, -102.343750000000, 1490871064
0.882324218750, -2.229248046875, 0.022460937500, -256.000000000000, 222.351562500000, -102.343750000000, 1490871064
0.882324218750, -2.229248046875, 0.022460937500, -256.000000000000, 222.351562500000, -102.343750000000, 1490871064
0.882324218750, -2.229248046875, 0.022460937500, -256.000000000000, 222.351562500000, -102.343750000000, 1490871064
0.135253906250, -0.744873046875, 0.129638671875, -19.054687500000, -56.812500000000, 22.890625000000, 1490871064
0.135253906250, -0.744873046875, 0.129638671875, -19.054687500000, -56.812500000000, 22.890625000000, 1490871064
0.135253906250, -0.744873046875, 0.129638671875, -19.054687500000, -56.812500000000, 22.890625000000, 1490871064
0.135253906250, -0.744873046875, 0.129638671875, -19.054687500000, -56.812500000000, 22.890625000000, 1490871064
0.244140625000, -0.696289062500, 0.041259765625, -123.257812500000, 134.828125000000, -49.140625000000, 1490871065
0.244140625000, -0.696289062500, 0.041259765625, -123.257812500000, 134.828125000000, -49.140625000000, 1490871065
0.244140625000, -0.696289062500, 0.041259765625, -123.257812500000, 134.828125000000, -49.140625000000, 1490871065
0.244140625000, -0.696289062500, 0.041259765625, -123.257812500000, 134.828125000000, -49.140625000000, 1490871065
0.244140625000, -0.696289062500, 0.041259765625, -123.257812500000, 134.828125000000, -49.140625000000, 1490871065
0.211914062500, -0.623779296875, 0.030029296875, -37.953125000000, 72.882812500000, -35.273437500000, 1490871065
0.114746093750, -0.655517578125, 0.089599609375, -13.531250000000, 38.843750000000, -31.398437500000, 1490871065
0.114746093750, -0.655517578125, 0.089599609375, -13.531250000000, 38.843750000000, -31.398437500000, 1490871065
0.114746093750, -0.655517578125, 0.089599609375, -13.531250000000, 38.843750000000, -31.398437500000, 1490871065
0.095214843750, -0.801513671875, 0.046386718750, -4.007812500000, -92.054687500000, -12.656250000000, 1490871065
0.095214843750, -0.801513671875, 0.046386718750, -4.007812500000, -92.054687500000, -12.656250000000, 1490871065
0.095214843750, -0.801513671875, 0.046386718750, -4.007812500000, -92.054687500000, -12.656250000000, 1490871065
0.095214843750, -0.801513671875, 0.046386718750, -4.007812500000, -92.054687500000, -12.656250000000, 1490871065
0.048583984375, -1.022460937500, 0.122314453125, 127.398437500000, -102.843750000000, 3.023437500000, 1490871065
0.048583984375, -1.022460937500, 0.122314453125, 127.398437500000, -102.843750000000, 3.023437500000, 1490871065
0.048583984375, -1.022460937500, 0.122314453125, 127.398437500000, -102.843750000000, 3.023437500000, 1490871065
0.144287109375, -1.129882812500, 0.099365234375, 183.429687500000, -33.718750000000, 23.750000000000, 1490871065
0.144287109375, -1.129882812500, 0.099365234375, 183.429687500000, -33.718750000000, 23.750000000000, 1490871065
0.144287109375, -1.129882812500, 0.099365234375, 183.429687500000, -33.718750000000, 23.750000000000, 1490871065
0.053466796875, -0.782470703125, 1.562988281250, 178.007812500000, -100.648437500000, -21.195312500000, 1490871065
0.053466796875, -0.782470703125, 1.562988281250, 178.007812500000, -100.648437500000, -21.195312500000, 1490871065
0.053466796875, -0.782470703125, 1.562988281250, 178.007812500000, -100.648437500000, -21.195312500000, 1490871065
0.090820312500, -1.010986328125, 0.196044921875, -84.718750000000, 77.031250000000, -7.226562500000, 1490871065
0.090820312500, -1.010986328125, 0.196044921875, -84.718750000000, 77.031250000000, -7.226562500000, 1490871065
0.090820312500, -1.010986328125, 0.196044921875, -84.718750000000, 77.031250000000, -7.226562500000, 1490871065
0.090820312500, -1.010986328125, 0.196044921875, -84.718750000000, 77.031250000000, -7.226562500000, 1490871065
0.111328125000, -1.059082031250, 0.101074218750, -57.632812500000, 19.296875000000, -0.226562500000, 1490871065
0.111328125000, -1.059082031250, 0.101074218750, -57.632812500000, 19.296875000000, -0.226562500000, 1490871065
0.111328125000, -1.059082031250, 0.101074218750, -57.632812500000, 19.296875000000, -0.226562500000, 1490871065
0.183105468750, -0.973388671875, 0.103027343750, -13.406250000000, -10.835937500000, 2.125000000000, 1490871065
0.183105468750, -0.973388671875, 0.103027343750, -13.406250000000, -10.835937500000, 2.125000000000, 1490871065
0.183105468750, -0.973388671875, 0.103027343750, -13.406250000000, -10.835937500000, 2.125000000000, 1490871065
0.135253906250, -1.009033203125, 0.260253906250, 27.453125000000, -8.734375000000, -3.992187500000, 1490871065
0.135253906250, -1.009033203125, 0.260253906250, 27.453125000000, -8.734375000000, -3.992187500000, 1490871065
0.135253906250, -1.009033203125, 0.260253906250, 27.453125000000, -8.734375000000, -3.992187500000, 1490871065
0.106689453125, -0.944580078125, 0.330078125000, 4.484375000000, -25.093750000000, -4.203125000000, 1490871065
0.106689453125, -0.944580078125, 0.330078125000, 4.484375000000, -25.093750000000, -4.203125000000, 1490871065
0.106689453125, -0.944580078125, 0.330078125000, 4.484375000000, -25.093750000000, -4.203125000000, 1490871065
0.106689453125, -0.944580078125, 0.330078125000, 4.484375000000, -25.093750000000, -4.203125000000, 1490871065
0.099365234375, -1.014404296875, 0.244873046875, -18.117187500000, 0.570312500000, -2.570312500000, 1490871065
0.099365234375, -1.014404296875, 0.244873046875, -18.117187500000, 0.570312500000, -2.570312500000, 1490871065
0.099365234375, -1.014404296875, 0.244873046875, -18.117187500000, 0.570312500000, -2.570312500000, 1490871065
0.085937500000, -0.978759765625, 0.276855468750, -6.906250000000, -2.078125000000, -2.289062500000, 1490871065
0.085937500000, -0.978759765625, 0.276855468750, -6.906250000000, -2.078125000000, -2.289062500000, 1490871065
0.085937500000, -0.978759765625, 0.276855468750, -6.906250000000, -2.078125000000, -2.289062500000, 1490871065
0.155517578125, -0.918212890625, 0.229980468750, 8.445312500000, -5.335937500000, -3.460937500000, 1490871065
0.155517578125, -0.918212890625, 0.229980468750, 8.445312500000, -5.335937500000, -3.460937500000, 1490871065
0.155517578125, -0.918212890625, 0.229980468750, 8.445312500000, -5.335937500000, -3.460937500000, 1490871065
0.137695312500, -0.950683593750, 0.327636718750, -4.257812500000, -2.648437500000, -1.843750000000, 1490871065
0.137695312500, -0.950683593750, 0.327636718750, -4.257812500000, -2.648437500000, -1.843750000000, 1490871065
0.137695312500, -0.950683593750, 0.327636718750, -4.257812500000, -2.648437500000, -1.843750000000, 1490871065
0.137695312500, -0.950683593750, 0.327636718750, -4.257812500000, -2.648437500000, -1.843750000000, 1490871065
0.143066406250, -1.080322265625, 0.218750000000, 0.296875000000, -1.726562500000, -1.328125000000, 1490871065
0.143066406250, -1.080322265625, 0.218750000000, 0.296875000000, -1.726562500000, -1.328125000000, 1490871065
0.143066406250, -1.080322265625, 0.218750000000, 0.296875000000, -1.726562500000, -1.328125000000, 1490871065
0.229492187500, -0.943603515625, 0.171142578125, 11.359375000000, -4.250000000000, -1.531250000000, 1490871065
0.229492187500, -0.943603515625, 0.171142578125, 11.359375000000, -4.250000000000, -1.531250000000, 1490871065
0.229492187500, -0.943603515625, 0.171142578125, 11.359375000000, -4.250000000000, -1.531250000000, 1490871065
0.116699218750, -0.956542968750, 0.169433593750, 16.984375000000, -6.046875000000, 0.210937500000, 1490871065
0.116699218750, -0.956542968750, 0.169433593750, 16.984375000000, -6.046875000000, 0.210937500000, 1490871065
0.133544921875, -0.473144531250, 0.034179687500, 58.554687500000, 13.195312500000, 14.085937500000, 1490871065
0.133544921875, -0.473144531250, 0.034179687500, 58.554687500000, 13.195312500000, 14.085937500000, 1490871065
0.133544921875, -0.473144531250, 0.034179687500, 58.554687500000, 13.195312500000, 14.085937500000, 1490871065
0.133544921875, -0.473144531250, 0.034179687500, 58.554687500000, 13.195312500000, 14.085937500000, 1490871065
0.070068359375, -0.536376953125, -0.001953125000, 43.445312500000, 14.765625000000, -0.695312500000, 1490871065
0.070068359375, -0.536376953125, -0.001953125000, 43.445312500000, 14.765625000000, -0.695312500000, 1490871065
0.070068359375, -0.536376953125, -0.001953125000, 43.445312500000, 14.765625000000, -0.695312500000, 1490871066
0.070068359375, -0.536376953125, -0.001953125000, 43.445312500000, 14.765625000000, -0.695312500000, 1490871066
0.133056640625, -1.384277343750, 0.154296875000, -16.859375000000, -34.164062500000, -38.468750000000, 1490871066
0.133056640625, -1.384277343750, 0.154296875000, -16.859375000000, -34.164062500000, -38.468750000000, 1490871066
0.133056640625, -1.384277343750, 0.154296875000, -16.859375000000, -34.164062500000, -38.468750000000, 1490871066
0.220214843750, -1.334960937500, 0.187255859375, 4.585937500000, 0.289062500000, 5.835937500000, 1490871066
0.220214843750, -1.334960937500, 0.187255859375, 4.585937500000, 0.289062500000, 5.835937500000, 1490871066
0.190429687500, -1.381591796875, 0.068115234375, -10.695312500000, 28.164062500000, 2.968750000000, 1490871066
0.190429687500, -1.381591796875, 0.068115234375, -10.695312500000, 28.164062500000, 2.968750000000, 1490871066
0.190429687500, -1.381591796875, 0.068115234375, -10.695312500000, 28.164062500000, 2.968750000000, 1490871066
0.190429687500, -1.381591796875, 0.068115234375, -10.695312500000, 28.164062500000, 2.968750000000, 1490871066
0.190429687500, -1.381591796875, 0.068115234375, -10.695312500000, 28.164062500000, 2.968750000000, 1490871066
0.034423828125, -1.335937500000, 0.126220703125, -9.882812500000, -4.726562500000, -0.453125000000, 1490871066
0.034423828125, -1.335937500000, 0.126220703125, -9.882812500000, -4.726562500000, -0.453125000000, 1490871066
0.034423828125, -1.335937500000, 0.126220703125, -9.882812500000, -4.726562500000, -0.453125000000, 1490871066
0.093261718750, -1.147705078125, 0.215087890625, -11.992187500000, -9.929687500000, 0.937500000000, 1490871066
0.093261718750, -1.147705078125, 0.215087890625, -11.992187500000, -9.929687500000, 0.937500000000, 1490871066
0.093261718750, -1.147705078125, 0.215087890625, -11.992187500000, -9.929687500000, 0.937500000000, 1490871066
0.105224609375, -1.092285156250, 0.189453125000, -17.250000000000, 18.109375000000, 2.304687500000, 1490871066
0.105224609375, -1.092285156250, 0.189453125000, -17.250000000000, 18.109375000000, 2.304687500000, 1490871066
0.146728515625, -0.963134765625, 0.063476562500, -10.015625000000, 5.085937500000, -3.562500000000, 1490871066
0.146728515625, -0.963134765625, 0.063476562500, -10.015625000000, 5.085937500000, -3.562500000000, 1490871066
0.146728515625, -0.963134765625, 0.063476562500, -10.015625000000, 5.085937500000, -3.562500000000, 1490871066
0.146728515625, -0.963134765625, 0.063476562500, -10.015625000000, 5.085937500000, -3.562500000000, 1490871066
0.203857421875, -0.943115234375, 0.038330078125, -8.906250000000, -18.164062500000, -3.281250000000, 1490871066
0.203857421875, -0.943115234375, 0.038330078125, -8.906250000000, -18.164062500000, -3.281250000000, 1490871066
0.203857421875, -0.943115234375, 0.038330078125, -8.906250000000, -18.164062500000, -3.281250000000, 1490871066
0.203857421875, -0.943115234375, 0.038330078125, -8.906250000000, -18.164062500000, -3.281250000000, 1490871066
0.116699218750, -0.848388671875, 0.099853515625, -2.414062500000, -14.992187500000, -5.226562500000, 1490871066
0.116699218750, -0.848388671875, 0.099853515625, -2.414062500000, -14.992187500000, -5.226562500000, 1490871066
0.116699218750, -0.848388671875, 0.099853515625, -2.414062500000, -14.992187500000, -5.226562500000, 1490871066
0.153076171875, -0.960693359375, 0.097412109375, -1.078125000000, -3.093750000000, -5.578125000000, 1490871066
0.153076171875, -0.960693359375, 0.097412109375, -1.078125000000, -3.093750000000, -5.578125000000, 1490871066
0.153076171875, -0.960693359375, 0.097412109375, -1.078125000000, -3.093750000000, -5.578125000000, 1490871066
0.083251953125, -1.031738281250, 0.132324218750, -5.304687500000, -5.906250000000, -8.593750000000, 1490871066
0.083251953125, -1.031738281250, 0.132324218750, -5.304687500000, -5.906250000000, -8.593750000000, 1490871066
0.083251953125, -1.031738281250, 0.132324218750, -5.304687500000, -5.906250000000, -8.593750000000, 1490871066
0.083251953125, -1.031738281250, 0.132324218750, -5.304687500000, -5.906250000000, -8.593750000000, 1490871066
0.140869140625, -0.968750000000, 0.042968750000, -7.421875000000, -1.210937500000, -5.578125000000, 1490871066
0.140869140625, -0.968750000000, 0.042968750000, -7.421875000000, -1.210937500000, -5.578125000000, 1490871066
0.140869140625, -0.968750000000, 0.042968750000, -7.421875000000, -1.210937500000, -5.578125000000, 1490871066
0.214111328125, -1.024169921875, 0.155761718750, -8.132812500000, 0.906250000000, -8.007812500000, 1490871066
0.214111328125, -1.024169921875, 0.155761718750, -8.132812500000, 0.906250000000, -8.007812500000, 1490871066
0.214111328125, -1.024169921875, 0.155761718750, -8.132812500000, 0.906250000000, -8.007812500000, 1490871066
0.051513671875, -1.007080078125, 0.104736328125, -3.476562500000, -2.250000000000, -4.843750000000, 1490871066
0.051513671875, -1.007080078125, 0.104736328125, -3.476562500000, -2.250000000000, -4.843750000000, 1490871066
0.051513671875, -1.007080078125, 0.104736328125, -3.476562500000, -2.250000000000, -4.843750000000, 1490871066
0.057373046875, -0.939697265625, 0.216308593750, -10.585937500000, 1.609375000000, -3.804687500000, 1490871066
0.057373046875, -0.939697265625, 0.216308593750, -10.585937500000, 1.609375000000, -3.804687500000, 1490871066
0.057373046875, -0.939697265625, 0.216308593750, -10.585937500000, 1.609375000000, -3.804687500000, 1490871066
0.057373046875, -0.939697265625, 0.216308593750, -10.585937500000, 1.609375000000, -3.804687500000, 1490871066
0.097656250000, -1.015869140625, 0.193847656250, -10.804687500000, 5.187500000000, -3.257812500000, 1490871066
0.097656250000, -1.015869140625, 0.193847656250, -10.804687500000, 5.187500000000, -3.257812500000, 1490871066
0.097656250000, -1.015869140625, 0.193847656250, -10.804687500000, 5.187500000000, -3.257812500000, 1490871066
0.114501953125, -1.014404296875, 0.152343750000, -7.117187500000, 4.500000000000, -5.226562500000, 1490871066
0.114501953125, -1.014404296875, 0.152343750000, -7.117187500000, 4.500000000000, -5.226562500000, 1490871066
0.114501953125, -1.014404296875, 0.152343750000, -7.117187500000, 4.500000000000, -5.226562500000, 1490871066
0.058593750000, -0.940673828125, 0.187255859375, -6.117187500000, 5.250000000000, -6.218750000000, 1490871066
0.058593750000, -0.940673828125, 0.187255859375, -6.117187500000, 5.250000000000, -6.218750000000, 1490871066
0.058593750000, -0.940673828125, 0.187255859375, -6.117187500000, 5.250000000000, -6.218750000000, 1490871066
0.119384765625, -0.920410156250, 0.229980468750, -4.023437500000, 1.843750000000, -3.296875000000, 1490871066
0.119384765625, -0.920410156250, 0.229980468750, -4.023437500000, 1.843750000000, -3.296875000000, 1490871066
0.119384765625, -0.920410156250, 0.229980468750, -4.023437500000, 1.843750000000, -3.296875000000, 1490871066
0.119384765625, -0.920410156250, 0.229980468750, -4.023437500000, 1.843750000000, -3.296875000000, 1490871066
0.115234375000, -0.970703125000, 0.212890625000, -6.273437500000, 1.250000000000, -5.968750000000, 1490871066
0.115234375000, -0.970703125000, 0.212890625000, -6.273437500000, 1.250000000000, -5.968750000000, 1490871066
0.115234375000, -0.970703125000, 0.212890625000, -6.273437500000, 1.250000000000, -5.968750000000, 1490871066
0.100585937500, -0.943847656250, 0.117919921875, -8.281250000000, 3.171875000000, -6.867187500000, 1490871067
0.100585937500, -0.943847656250, 0.117919921875, -8.281250000000, 3.171875000000, -6.867187500000, 1490871067
0.100585937500, -0.943847656250, 0.117919921875, -8.281250000000, 3.171875000000, -6.867187500000, 1490871067
0.083251953125, -0.926025390625, 0.115966796875, -9.000000000000, -1.367187500000, -9.554687500000, 1490871067
0.083251953125, -0.926025390625, 0.115966796875, -9.000000000000, -1.367187500000, -9.554687500000, 1490871067
0.083251953125, -0.926025390625, 0.115966796875, -9.000000000000, -1.367187500000, -9.554687500000, 1490871067
0.068115234375, -0.919189453125, 0.109863281250, -7.078125000000, -2.554687500000, -5.476562500000, 1490871067
0.068115234375, -0.919189453125, 0.109863281250, -7.078125000000, -2.554687500000, -5.476562500000, 1490871067
0.068115234375, -0.919189453125, 0.109863281250, -7.078125000000, -2.554687500000, -5.476562500000, 1490871067
0.068115234375, -0.919189453125, 0.109863281250, -7.078125000000, -2.554687500000, -5.476562500000, 1490871067
0.089355468750, -0.915039062500, 0.209960937500, -9.859375000000, 2.351562500000, -1.929687500000, 1490871067
0.089355468750, -0.915039062500, 0.209960937500, -9.859375000000, 2.351562500000, -1.929687500000, 1490871067
0.089355468750, -0.915039062500, 0.209960937500, -9.859375000000, 2.351562500000, -1.929687500000, 1490871067
0.155517578125, -0.984130859375, 0.174072265625, -8.890625000000, 0.718750000000, -4.343750000000, 1490871067
0.155517578125, -0.984130859375, 0.174072265625, -8.890625000000, 0.718750000000, -4.343750000000, 1490871067
0.155517578125, -0.984130859375, 0.174072265625, -8.890625000000, 0.718750000000, -4.343750000000, 1490871067
0.107666015625, -1.021240234375, 0.174560546875, -8.000000000000, -1.515625000000, -2.273437500000, 1490871067
0.107666015625, -1.021240234375, 0.174560546875, -8.000000000000, -1.515625000000, -2.273437500000, 1490871067
0.107666015625, -1.021240234375, 0.174560546875, -8.000000000000, -1.515625000000, -2.273437500000, 1490871067
0.050781250000, -0.987548828125, 0.191650390625, -9.773437500000, -4.007812500000, -4.320312500000, 1490871067
0.050781250000, -0.987548828125, 0.191650390625, -9.773437500000, -4.007812500000, -4.320312500000, 1490871067
0.050781250000, -0.987548828125, 0.191650390625, -9.773437500000, -4.007812500000, -4.320312500000, 1490871067
0.050781250000, -0.987548828125, 0.191650390625, -9.773437500000, -4.007812500000, -4.320312500000, 1490871067
0.100097656250, -1.054443359375, 0.214843750000, -10.695312500000, -3.156250000000, -3.625000000000, 1490871067
0.100097656250, -1.054443359375, 0.214843750000, -10.695312500000, -3.156250000000, -3.625000000000, 1490871067
0.100097656250, -1.054443359375, 0.214843750000, -10.695312500000, -3.156250000000, -3.625000000000, 1490871067
0.097412109375, -0.939453125000, 0.106933593750, -8.914062500000, -1.078125000000, -1.148437500000, 1490871067
0.097412109375, -0.939453125000, 0.106933593750, -8.914062500000, -1.078125000000, -1.148437500000, 1490871067
0.097412109375, -0.939453125000, 0.106933593750, -8.914062500000, -1.078125000000, -1.148437500000, 1490871067
0.083007812500, -1.077636718750, 0.260253906250, -6.585937500000, -3.890625000000, -4.718750000000, 1490871067
0.083007812500, -1.077636718750, 0.260253906250, -6.585937500000, -3.890625000000, -4.718750000000, 1490871067
0.083007812500, -1.077636718750, 0.260253906250, -6.585937500000, -3.890625000000, -4.718750000000, 1490871067
0.115234375000, -0.901367187500, 0.259521484375, -3.585937500000, -4.257812500000, -3.804687500000, 1490871067
0.115234375000, -0.901367187500, 0.259521484375, -3.585937500000, -4.257812500000, -3.804687500000, 1490871067
0.115234375000, -0.901367187500, 0.259521484375, -3.585937500000, -4.257812500000, -3.804687500000, 1490871067
0.115234375000, -0.901367187500, 0.259521484375, -3.585937500000, -4.257812500000, -3.804687500000, 1490871067
0.131347656250, -0.989990234375, 0.257812500000, -6.468750000000, -2.398437500000, -6.742187500000, 1490871067
0.131347656250, -0.989990234375, 0.257812500000, -6.468750000000, -2.398437500000, -6.742187500000, 1490871067
0.107910156250, -0.867431640625, 0.100585937500, -4.750000000000, -2.460937500000, -3.898437500000, 1490871067
0.107910156250, -0.867431640625, 0.100585937500, -4.750000000000, -2.460937500000, -3.898437500000, 1490871067
0.107910156250, -0.867431640625, 0.100585937500, -4.750000000000, -2.460937500000, -3.898437500000, 1490871067
0.107910156250, -0.867431640625, 0.100585937500, -4.750000000000, -2.460937500000, -3.898437500000, 1490871067
0.039794921875, -1.037841796875, 0.250488281250, 0.523437500000, -1.312500000000, -6.710937500000, 1490871067
0.039794921875, -1.037841796875, 0.250488281250, 0.523437500000, -1.312500000000, -6.710937500000, 1490871067
0.039794921875, -1.037841796875, 0.250488281250, 0.523437500000, -1.312500000000, -6.710937500000, 1490871067
