ACC_X,ACC_Y,ACC_Z,G_X,G_Y,G_Z,Unix Time
0.190673828125, 0.542724609375, 0.906005859375, -5.226562500000, -2.304687500000, -1.257812500000, 1490870081
0.190673828125, 0.542724609375, 0.906005859375, -5.226562500000, -2.304687500000, -1.257812500000, 1490870081
0.190673828125, 0.542724609375, 0.906005859375, -5.226562500000, -2.304687500000, -1.257812500000, 1490870081
0.140625000000, 0.472900390625, 0.858642578125, -4.062500000000, -2.343750000000, -3.179687500000, 1490870081
0.140625000000, 0.472900390625, 0.858642578125, -4.062500000000, -2.343750000000, -3.179687500000, 1490870081
0.140625000000, 0.472900390625, 0.858642578125, -4.062500000000, -2.343750000000, -3.179687500000, 1490870081
0.140625000000, 0.472900390625, 0.858642578125, -4.062500000000, -2.343750000000, -3.179687500000, 1490870081
0.135498046875, 0.472412109375, 0.783935546875, -2.507812500000, 1.953125000000, -4.312500000000, 1490870081
0.135498046875, 0.472412109375, 0.783935546875, -2.507812500000, 1.953125000000, -4.312500000000, 1490870081
0.051269531250, 0.640869140625, 0.851318359375, -6.523437500000, -2.820312500000, -6.203125000000, 1490870082
0.051269531250, 0.640869140625, 0.851318359375, -6.523437500000, -2.820312500000, -6.203125000000, 1490870082
0.051269531250, 0.640869140625, 0.851318359375, -6.523437500000, -2.820312500000, -6.203125000000, 1490870082
0.051269531250, 0.640869140625, 0.851318359375, -6.523437500000, -2.820312500000, -6.203125000000, 1490870082
0.059326171875, 0.551025390625, 0.905029296875, -5.515625000000, -2.195312500000, -3.734375000000, 1490870082
0.059326171875, 0.551025390625, 0.905029296875, -5.515625000000, -2.195312500000, -3.734375000000, 1490870082
0.059326171875, 0.551025390625, 0.905029296875, -5.515625000000, -2.195312500000, -3.734375000000, 1490870082
0.088867187500, 0.488525390625, 0.863037109375, -6.578125000000, -2.039062500000, -6.125000000000, 1490870082
0.088867187500, 0.488525390625, 0.863037109375, -6.578125000000, -2.039062500000, -6.125000000000, 1490870082
0.088867187500, 0.488525390625, 0.863037109375, -6.578125000000, -2.039062500000, -6.125000000000, 1490870082
0.088867187500, 0.488525390625, 0.863037109375, -6.578125000000, -2.039062500000, -6.125000000000, 1490870082
0.135009765625, 0.469238281250, 0.943603515625, -3.664062500000, -2.351562500000, -5.992187500000, 1490870082
0.135009765625, 0.469238281250, 0.943603515625, -3.664062500000, -2.351562500000, -5.992187500000, 1490870082
0.135009765625, 0.469238281250, 0.943603515625, -3.664062500000, -2.351562500000, -5.992187500000, 1490870082
-0.014160156250, 0.544677734375, 0.849853515625, -3.156250000000, -0.351562500000, -3.828125000000, 1490870082
0.118652343750, 0.642333984375, 0.888427734375, -6.039062500000, -2.398437500000, -4.773437500000, 1490870082
0.118652343750, 0.642333984375, 0.888427734375, -6.039062500000, -2.398437500000, -4.773437500000, 1490870082
0.118652343750, 0.642333984375, 0.888427734375, -3.382812500000, 0.867187500000, -3.304687500000, 1490870082
0.078613281250, 0.635986328125, 0.901855468750, -3.476562500000, 0.531250000000, -4.492187500000, 1490870082
0.078613281250, 0.635986328125, 0.901855468750, -3.476562500000, 0.531250000000, -4.492187500000, 1490870082
0.078613281250, 0.635986328125, 0.901855468750, -3.476562500000, 0.531250000000, -4.492187500000, 1490870082
0.078613281250, 0.635986328125, 0.901855468750, -3.476562500000, 0.531250000000, -4.492187500000, 1490870082
0.078613281250, 0.635986328125, 0.901855468750, -3.476562500000, 0.531250000000, -4.492187500000, 1490870082
0.076416015625, 0.486816406250, 0.949218750000, -3.117187500000, -0.640625000000, -3.203125000000, 1490870082
0.149414062500, 0.583007812500, 0.791015625000, -3.320312500000, 0.328125000000, -1.968750000000, 1490870082
0.149414062500, 0.583007812500, 0.791015625000, -3.320312500000, 0.328125000000, -1.968750000000, 1490870082
0.149414062500, 0.583007812500, 0.791015625000, -3.320312500000, 0.328125000000, -1.968750000000, 1490870082
0.111083984375, 0.550537109375, 0.846435546875, -3.507812500000, 0.546875000000, -3.460937500000, 1490870082
0.111083984375, 0.550537109375, 0.846435546875, -3.507812500000, 0.546875000000, -3.460937500000, 1490870082
0.111083984375, 0.550537109375, 0.846435546875, -3.507812500000, 0.546875000000, -3.460937500000, 1490870082
0.075439453125, 0.547119140625, 0.803222656250, -3.906250000000, -2.578125000000, -3.359375000000, 1490870082
0.075439453125, 0.547119140625, 0.803222656250, -3.906250000000, -2.578125000000, -3.359375000000, 1490870082
0.075439453125, 0.547119140625, 0.803222656250, -3.906250000000, -2.578125000000, -3.359375000000, 1490870082
0.132812500000, 0.433593750000, 0.847412109375, -4.898437500000, -0.750000000000, -4.460937500000, 1490870082
0.132812500000, 0.433593750000, 0.847412109375, -4.898437500000, -0.750000000000, -4.460937500000, 1490870082
0.132812500000, 0.433593750000, 0.847412109375, -4.898437500000, -0.750000000000, -4.460937500000, 1490870082
0.132812500000, 0.433593750000, 0.847412109375, -4.898437500000, -0.750000000000, -4.460937500000, 1490870082
0.125244140625, 0.485351562500, 0.879394531250, -3.179687500000, -2.304687500000, -6.695312500000, 1490870082
0.125244140625, 0.485351562500, 0.879394531250, -3.179687500000, -2.304687500000, -6.695312500000, 1490870082
0.125244140625, 0.485351562500, 0.879394531250, -3.179687500000, -2.304687500000, -6.695312500000, 1490870082
0.088623046875, 0.583984375000, 0.902343750000, -4.320312500000, -1.078125000000, -1.968750000000, 1490870082
0.088623046875, 0.583984375000, 0.902343750000, -4.320312500000, -1.078125000000, -1.968750000000, 1490870082
0.088623046875, 0.583984375000, 0.902343750000, -4.320312500000, -1.078125000000, -1.968750000000, 1490870082
0.193603515625, 0.640380859375, 0.802734375000, -2.593750000000, 3.703125000000, -6.296875000000, 1490870082
0.193603515625, 0.640380859375, 0.802734375000, -2.593750000000, 3.703125000000, -6.296875000000, 1490870082
0.193603515625, 0.640380859375, 0.802734375000, -2.593750000000, 3.703125000000, -6.296875000000, 1490870082
0.273437500000, 0.695556640625, 0.939208984375, -5.296875000000, -0.742187500000, -3.015625000000, 1490870082
0.273437500000, 0.695556640625, 0.939208984375, -5.296875000000, -0.742187500000, -3.015625000000, 1490870082
0.273437500000, 0.695556640625, 0.939208984375, -5.296875000000, -0.742187500000, -3.015625000000, 1490870082
0.273437500000, 0.695556640625, 0.939208984375, -5.296875000000, -0.742187500000, -3.015625000000, 1490870082
0.081787109375, 0.530029296875, 0.806640625000, -4.726562500000, -2.281250000000, -5.039062500000, 1490870082
0.081787109375, 0.530029296875, 0.806640625000, -4.726562500000, -2.281250000000, -5.039062500000, 1490870082
0.081787109375, 0.530029296875, 0.806640625000, -4.726562500000, -2.281250000000, -5.039062500000, 1490870082
0.050537109375, 0.483154296875, 0.895507812500, -3.367187500000, -2.609375000000, -6.273437500000, 1490870082
0.050537109375, 0.483154296875, 0.895507812500, -3.367187500000, -2.609375000000, -6.273437500000, 1490870082
0.050537109375, 0.483154296875, 0.895507812500, -3.367187500000, -2.609375000000, -6.273437500000, 1490870082
-0.015380859375, 0.534667968750, 0.942871093750, -1.445312500000, -0.492187500000, -1.015625000000, 1490870082
-0.015380859375, 0.534667968750, 0.942871093750, -1.445312500000, -0.492187500000, -1.015625000000, 1490870082
-0.015380859375, 0.534667968750, 0.942871093750, -1.445312500000, -0.492187500000, -1.015625000000, 1490870082
0.130126953125, 0.496337890625, 0.880126953125, -1.382812500000, 4.195312500000, -3.804687500000, 1490870082
0.130126953125, 0.496337890625, 0.880126953125, -1.382812500000, 4.195312500000, -3.804687500000, 1490870082
0.130126953125, 0.496337890625, 0.880126953125, -1.382812500000, 4.195312500000, -3.804687500000, 1490870082
0.130126953125, 0.496337890625, 0.880126953125, -1.382812500000, 4.195312500000, -3.804687500000, 1490870082
0.193115234375, 0.631103515625, 0.908447265625, -3.351562500000, 0.445312500000, -3.296875000000, 1490870082
0.193115234375, 0.631103515625, 0.908447265625, -3.351562500000, 0.445312500000, -3.296875000000, 1490870082
0.193115234375, 0.631103515625, 0.908447265625, -3.351562500000, 0.445312500000, -3.296875000000, 1490870082
0.200683593750, 0.603271484375, 0.885253906250, -3.484375000000, 2.007812500000, -3.414062500000, 1490870082
0.200683593750, 0.603271484375, 0.885253906250, -3.484375000000, 2.007812500000, -3.414062500000, 1490870082
0.200683593750, 0.603271484375, 0.885253906250, -3.484375000000, 2.007812500000, -3.414062500000, 1490870082
0.124023437500, 0.489257812500, 0.809082031250, -4.242187500000, -0.867187500000, -1.015625000000, 1490870083
0.124023437500, 0.489257812500, 0.809082031250, -4.242187500000, -0.867187500000, -1.015625000000, 1490870083
0.124023437500, 0.489257812500, 0.809082031250, -4.242187500000, -0.867187500000, -1.015625000000, 1490870083
0.190185546875, 0.482421875000, 0.797119140625, -1.882812500000, -0.460937500000, -4.539062500000, 1490870083
0.190185546875, 0.482421875000, 0.797119140625, -1.882812500000, -0.460937500000, -4.539062500000, 1490870083
0.190185546875, 0.482421875000, 0.797119140625, -1.882812500000, -0.460937500000, -4.539062500000, 1490870083
0.190185546875, 0.482421875000, 0.797119140625, -1.882812500000, -0.460937500000, -4.539062500000, 1490870083
0.061035156250, 0.486816406250, 0.877929687500, -1.984375000000, 0.351562500000, -4.546875000000, 1490870083
0.061035156250, 0.486816406250, 0.877929687500, -1.984375000000, 0.351562500000, -4.546875000000, 1490870083
0.061035156250, 0.486816406250, 0.877929687500, -1.984375000000, 0.351562500000, -4.546875000000, 1490870083
0.089111328125, 0.537109375000, 0.953369140625, -1.796875000000, -1.000000000000, -3.968750000000, 1490870083
0.089111328125, 0.537109375000, 0.953369140625, -1.796875000000, -1.000000000000, -3.968750000000, 1490870083
0.089111328125, 0.537109375000, 0.953369140625, -1.796875000000, -1.000000000000, -3.968750000000, 1490870083
0.055419921875, 0.586669921875, 0.899902343750, -3.382812500000, -0.296875000000, -6.140625000000, 1490870083
0.055419921875, 0.586669921875, 0.899902343750, -3.382812500000, -0.296875000000, -6.140625000000, 1490870083
0.055419921875, 0.586669921875, 0.899902343750, -3.382812500000, -0.296875000000, -6.140625000000, 1490870083
0.055664062500, 0.627197265625, 0.847167968750, -2.000000000000, 0.984375000000, -4.031250000000, 1490870083
0.055664062500, 0.627197265625, 0.847167968750, -2.000000000000, 0.984375000000, -4.031250000000, 1490870083
0.055664062500, 0.627197265625, 0.847167968750, -2.000000000000, 0.984375000000, -4.031250000000, 1490870083
0.055664062500, 0.627197265625, 0.847167968750, -2.000000000000, 0.984375000000, -4.031250000000, 1490870083
0.141601562500, 0.580322265625, 0.798095703125, -4.695312500000, -0.796875000000, -1.679687500000, 1490870083
0.141601562500, 0.580322265625, 0.798095703125, -4.695312500000, -0.796875000000, -1.679687500000, 1490870083
0.141601562500, 0.580322265625, 0.798095703125, -4.695312500000, -0.796875000000, -1.679687500000, 1490870083
0.051269531250, 0.541748046875, 0.894042968750, -4.117187500000, -2.304687500000, -3.171875000000, 1490870083
0.051269531250, 0.541748046875, 0.894042968750, -4.117187500000, -2.304687500000, -3.171875000000, 1490870083
0.051269531250, 0.541748046875, 0.894042968750, -4.117187500000, -2.304687500000, -3.171875000000, 1490870083
0.057861328125, 0.623535156250, 0.847167968750, -1.132812500000, 4.960937500000, -2.742187500000, 1490870083
0.057861328125, 0.623535156250, 0.847167968750, -1.132812500000, 4.960937500000, -2.742187500000, 1490870083
0.057861328125, 0.623535156250, 0.847167968750, -1.132812500000, 4.960937500000, -2.742187500000, 1490870083
0.052490234375, 0.648925781250, 0.851562500000, -3.687500000000, 2.507812500000, 0.460937500000, 1490870083
0.052490234375, 0.648925781250, 0.851562500000, -3.687500000000, 2.507812500000, 0.460937500000, 1490870083
0.052490234375, 0.648925781250, 0.851562500000, -3.687500000000, 2.507812500000, 0.460937500000, 1490870083
0.052490234375, 0.648925781250, 0.851562500000, -3.687500000000, 2.507812500000, 0.460937500000, 1490870083
0.128906250000, 0.533691406250, 0.899902343750, -4.117187500000, 0.500000000000, -3.367187500000, 1490870083
0.128906250000, 0.533691406250, 0.899902343750, -4.117187500000, 0.500000000000, -3.367187500000, 1490870083
0.128906250000, 0.533691406250, 0.899902343750, -4.117187500000, 0.500000000000, -3.367187500000, 1490870083
0.087402343750, 0.581787109375, 0.859130859375, -3.250000000000, -2.226562500000, -6.703125000000, 1490870083
0.087402343750, 0.581787109375, 0.859130859375, -3.250000000000, -2.226562500000, -6.703125000000, 1490870083
0.087402343750, 0.581787109375, 0.859130859375, -3.250000000000, -2.226562500000, -6.703125000000, 1490870083
0.189697265625, 0.543212890625, 0.889648437500, -4.789062500000, 0.320312500000, -4.359375000000, 1490870083
0.189697265625, 0.543212890625, 0.889648437500, -4.789062500000, 0.320312500000, -4.359375000000, 1490870083
0.189697265625, 0.543212890625, 0.889648437500, -4.789062500000, 0.320312500000, -4.359375000000, 1490870083
0.143554687500, 0.580322265625, 0.871582031250, -3.078125000000, -0.703125000000, -4.539062500000, 1490870083
0.143554687500, 0.580322265625, 0.871582031250, -3.078125000000, -0.703125000000, -4.539062500000, 1490870083
0.143554687500, 0.580322265625, 0.871582031250, -3.078125000000, -0.703125000000, -4.539062500000, 1490870083
0.143554687500, 0.580322265625, 0.871582031250, -3.078125000000, -0.703125000000, -4.539062500000, 1490870083
0.218017578125, 0.595214843750, 0.903808593750, -3.007812500000, 0.968750000000, -1.859375000000, 1490870083
0.218017578125, 0.595214843750, 0.903808593750, -3.007812500000, 0.968750000000, -1.859375000000, 1490870083
0.218017578125, 0.595214843750, 0.903808593750, -3.007812500000, 0.968750000000, -1.859375000000, 1490870083
0.053466796875, 0.475830078125, 0.902343750000, -6.406250000000, -0.093750000000, -3.109375000000, 1490870083
0.053466796875, 0.475830078125, 0.902343750000, -6.406250000000, -0.093750000000, -3.109375000000, 1490870083
0.053466796875, 0.475830078125, 0.902343750000, -6.406250000000, -0.093750000000, -3.109375000000, 1490870083
0.111083984375, 0.544921875000, 0.822998046875, -3.609375000000, -0.656250000000, -5.101562500000, 1490870083
0.111083984375, 0.544921875000, 0.822998046875, -3.609375000000, -0.656250000000, -5.101562500000, 1490870083
0.111083984375, 0.544921875000, 0.822998046875, -3.609375000000, -0.656250000000, -5.101562500000, 1490870083
0.078125000000, 0.579833984375, 0.808593750000, -6.015625000000, -2.187500000000, -3.578125000000, 1490870083
0.078125000000, 0.579833984375, 0.808593750000, -6.015625000000, -2.187500000000, -3.578125000000, 1490870083
0.078125000000, 0.579833984375, 0.808593750000, -6.015625000000, -2.187500000000, -3.578125000000, 1490870083
0.078125000000, 0.579833984375, 0.808593750000, -6.015625000000, -2.187500000000, -3.578125000000, 1490870083
0.063232421875, 0.640625000000, 0.785156250000, -3.125000000000, 0.234375000000, -3.984375000000, 1490870083
0.063232421875, 0.640625000000, 0.785156250000, -3.125000000000, 0.234375000000, -3.984375000000, 1490870083
0.063232421875, 0.640625000000, 0.785156250000, -3.125000000000, 0.234375000000, -3.984375000000, 1490870083
0.125244140625, 0.482910156250, 0.875488281250, -3.835937500000, 0.000000000000, -4.609375000000, 1490870083
0.125244140625, 0.482910156250, 0.875488281250, -3.835937500000, 0.000000000000, -4.609375000000, 1490870083
0.125244140625, 0.482910156250, 0.875488281250, -3.835937500000, 0.000000000000, -4.609375000000, 1490870083
0.127685546875, 0.570556640625, 0.899169921875, -3.976562500000, -0.570312500000, -3.140625000000, 1490870084
0.127685546875, 0.570556640625, 0.899169921875, -3.976562500000, -0.570312500000, -3.140625000000, 1490870084
0.127685546875, 0.570556640625, 0.899169921875, -3.976562500000, -0.570312500000, -3.140625000000, 1490870084
0.134521484375, 0.635498046875, 0.882080078125, -3.929687500000, -0.687500000000, -4.906250000000, 1490870084
0.134521484375, 0.635498046875, 0.882080078125, -3.929687500000, -0.687500000000, -4.906250000000, 1490870084
0.134521484375, 0.635498046875, 0.882080078125, -3.929687500000, -0.687500000000, -4.906250000000, 1490870084
0.134521484375, 0.635498046875, 0.882080078125, -3.929687500000, -0.687500000000, -4.906250000000, 1490870084
0.024658203125, 0.510253906250, 0.797851562500, -4.679687500000, -2.218750000000, -4.023437500000, 1490870084
0.024658203125, 0.510253906250, 0.797851562500, -4.679687500000, -2.218750000000, -4.023437500000, 1490870084
0.024658203125, 0.510253906250, 0.797851562500, -4.679687500000, -2.218750000000, -4.023437500000, 1490870084
0.147949218750, 0.532958984375, 0.903320312500, -3.257812500000, 0.507812500000, -6.054687500000, 1490870084
0.147949218750, 0.532958984375, 0.903320312500, -3.257812500000, 0.507812500000, -6.054687500000, 1490870084
0.147949218750, 0.532958984375, 0.903320312500, -3.257812500000, 0.507812500000, -6.054687500000, 1490870084
0.110351562500, 0.572753906250, 0.849853515625, -1.328125000000, 3.421875000000, -2.750000000000, 1490870084
0.110351562500, 0.572753906250, 0.849853515625, -1.328125000000, 3.421875000000, -2.750000000000, 1490870084
0.110351562500, 0.572753906250, 0.849853515625, -1.328125000000, 3.421875000000, -2.750000000000, 1490870084
0.109863281250, 0.539794921875, 0.900878906250, -6.671875000000, -2.054687500000, -3.468750000000, 1490870084
0.109863281250, 0.539794921875, 0.900878906250, -6.671875000000, -2.054687500000, -3.468750000000, 1490870084
0.109863281250, 0.539794921875, 0.900878906250, -6.671875000000, -2.054687500000, -3.468750000000, 1490870084
0.109863281250, 0.539794921875, 0.900878906250, -6.671875000000, -2.054687500000, -3.468750000000, 1490870084
0.037841796875, 0.630859375000, 0.810058593750, -6.359375000000, 0.890625000000, -6.187500000000, 1490870084
0.037841796875, 0.630859375000, 0.810058593750, -6.359375000000, 0.890625000000, -6.187500000000, 1490870084
0.037841796875, 0.630859375000, 0.810058593750, -6.359375000000, 0.890625000000, -6.187500000000, 1490870084
0.046630859375, 0.575439453125, 0.804199218750, -3.820312500000, -2.453125000000, -6.093750000000, 1490870084
0.046630859375, 0.575439453125, 0.804199218750, -3.820312500000, -2.453125000000, -6.093750000000, 1490870084
0.046630859375, 0.575439453125, 0.804199218750, -3.820312500000, -2.453125000000, -6.093750000000, 1490870084
0.097412109375, 0.588378906250, 0.852294921875, -3.257812500000, 2.609375000000, -1.539062500000, 1490870084
0.097412109375, 0.588378906250, 0.852294921875, -3.257812500000, 2.609375000000, -1.539062500000, 1490870084
0.097412109375, 0.588378906250, 0.852294921875, -3.257812500000, 2.609375000000, -1.539062500000, 1490870084
0.036865234375, 0.591308593750, 0.847900390625, -3.039062500000, -1.054687500000, -3.023437500000, 1490870084
0.036865234375, 0.591308593750, 0.847900390625, -3.039062500000, -1.054687500000, -3.023437500000, 1490870084
-0.026855468750, 0.637451171875, 0.860595703125, -3.304687500000, -2.656250000000, -6.109375000000, 1490870084
-0.026855468750, 0.637451171875, 0.860595703125, -3.304687500000, -2.656250000000, -6.109375000000, 1490870084
-0.026855468750, 0.637451171875, 0.860595703125, -3.304687500000, -2.656250000000, -6.109375000000, 1490870084
-0.026855468750, 0.637451171875, 0.860595703125, -3.304687500000, -2.656250000000, -6.109375000000, 1490870084
-0.026855468750, 0.637451171875, 0.860595703125, -3.304687500000, -2.656250000000, -6.109375000000, 1490870084
0.039794921875, 0.489501953125, 0.870361328125, -3.570312500000, 0.085937500000, -6.820312500000, 1490870084
0.039794921875, 0.489501953125, 0.870361328125, -3.570312500000, 0.085937500000, -6.820312500000, 1490870084
0.039794921875, 0.489501953125, 0.870361328125, -3.570312500000, 0.085937500000, -6.820312500000, 1490870084
0.136230468750, 0.652587890625, 0.903808593750, -3.398437500000, 0.687500000000, -6.468750000000, 1490870084
0.136230468750, 0.652587890625, 0.903808593750, -3.398437500000, 0.687500000000, -6.468750000000, 1490870084
0.136230468750, 0.652587890625, 0.903808593750, -3.398437500000, 0.687500000000, -6.468750000000, 1490870084
0.108642578125, 0.471923828125, 0.906005859375, -3.156250000000, -2.195312500000, -4.921875000000, 1490870084
0.108642578125, 0.471923828125, 0.906005859375, -3.156250000000, -2.195312500000, -4.921875000000, 1490870084
0.108642578125, 0.471923828125, 0.906005859375, -3.156250000000, -2.195312500000, -4.921875000000, 1490870084
0.108642578125, 0.471923828125, 0.906005859375, -3.156250000000, -2.195312500000, -4.921875000000, 1490870084
0.159912109375, 0.531982421875, 0.845947265625, -1.929687500000, 0.921875000000, -1.835937500000, 1490870084
0.159912109375, 0.531982421875, 0.845947265625, -1.929687500000, 0.921875000000, -1.835937500000, 1490870084
0.159912109375, 0.531982421875, 0.845947265625, -1.929687500000, 0.921875000000, -1.835937500000, 1490870084
0.120849609375, 0.504882812500, 0.906005859375, -1.617187500000, -0.148437500000, -3.750000000000, 1490870084
0.120849609375, 0.504882812500, 0.906005859375, -1.617187500000, -0.148437500000, -3.750000000000, 1490870084
0.120849609375, 0.504882812500, 0.906005859375, -1.617187500000, -0.148437500000, -3.750000000000, 1490870084
0.127441406250, 0.470947265625, 0.868164062500, -4.585937500000, -2.992187500000, -3.898437500000, 1490870084
0.127441406250, 0.470947265625, 0.868164062500, -4.585937500000, -2.992187500000, -3.898437500000, 1490870084
0.127441406250, 0.470947265625, 0.868164062500, -4.585937500000, -2.992187500000, -3.898437500000, 1490870084
0.131347656250, 0.582031250000, 0.837890625000, -4.234375000000, -0.468750000000, -6.140625000000, 1490870084
0.131347656250, 0.582031250000, 0.837890625000, -4.234375000000, -0.468750000000, -6.140625000000, 1490870084
0.131347656250, 0.582031250000, 0.837890625000, -4.234375000000, -0.468750000000, -6.140625000000, 1490870084
0.131347656250, 0.582031250000, 0.837890625000, -4.234375000000, -0.468750000000, -6.140625000000, 1490870084
0.052246093750, 0.613281250000, 0.788330078125, -1.429687500000, 1.359375000000, -4.976562500000, 1490870084
0.052246093750, 0.613281250000, 0.788330078125, -1.429687500000, 1.359375000000, -4.976562500000, 1490870084
0.052246093750, 0.613281250000, 0.788330078125, -1.429687500000, 1.359375000000, -4.976562500000, 1490870084
0.125244140625, 0.641845703125, 0.876220703125, 0.492187500000, -2.265625000000, -6.335937500000, 1490870084
0.125244140625, 0.641845703125, 0.876220703125, 0.492187500000, -2.265625000000, -6.335937500000, 1490870084
0.125244140625, 0.641845703125, 0.876220703125, 0.492187500000, -2.265625000000, -6.335937500000, 1490870084
0.260742187500, 0.572998046875, 0.964111328125, -1.210937500000, -0.757812500000, -1.828125000000, 1490870084
0.260742187500, 0.572998046875, 0.964111328125, -1.210937500000, -0.757812500000, -1.828125000000, 1490870084
0.260742187500, 0.572998046875, 0.964111328125, -1.210937500000, -0.757812500000, -1.828125000000, 1490870084
0.182617187500, 0.559814453125, 0.879638671875, -1.562500000000, 0.476562500000, -5.187500000000, 1490870085
0.182617187500, 0.559814453125, 0.879638671875, -1.562500000000, 0.476562500000, -5.187500000000, 1490870085
0.182617187500, 0.559814453125, 0.879638671875, -1.562500000000, 0.476562500000, -5.187500000000, 1490870085
0.182617187500, 0.559814453125, 0.879638671875, -1.562500000000, 0.476562500000, -5.187500000000, 1490870085
0.040527343750, 0.499755859375, 0.885498046875, -4.562500000000, -2.265625000000, -3.773437500000, 1490870085
0.040527343750, 0.499755859375, 0.885498046875, -4.562500000000, -2.265625000000, -3.773437500000, 1490870085
0.040527343750, 0.499755859375, 0.885498046875, -4.562500000000, -2.265625000000, -3.773437500000, 1490870085
0.061279296875, 0.641357421875, 0.806884765625, -4.664062500000, -2.750000000000, -4.968750000000, 1490870085
0.061279296875, 0.641357421875, 0.806884765625, -4.664062500000, -2.750000000000, -4.968750000000, 1490870085
0.061279296875, 0.641357421875, 0.806884765625, -4.664062500000, -2.750000000000, -4.968750000000, 1490870085
0.138671875000, 0.577636718750, 0.861328125000, -4.968750000000, 1.078125000000, -3.554687500000, 1490870085
0.138671875000, 0.577636718750, 0.861328125000, -4.968750000000, 1.078125000000, -3.554687500000, 1490870085
0.138671875000, 0.577636718750, 0.861328125000, -4.968750000000, 1.078125000000, -3.554687500000, 1490870085
0.046875000000, 0.643554687500, 0.897216796875, -2.882812500000, 0.921875000000, -1.625000000000, 1490870085
0.046875000000, 0.643554687500, 0.897216796875, -2.882812500000, 0.921875000000, -1.625000000000, 1490870085
0.046875000000, 0.643554687500, 0.897216796875, -2.882812500000, 0.921875000000, -1.625000000000, 1490870085
0.046875000000, 0.643554687500, 0.897216796875, -2.882812500000, 0.921875000000, -1.625000000000, 1490870085
0.161621093750, 0.528808593750, 0.879638671875, -3.210937500000, -0.851562500000, -4.765625000000, 1490870085
0.161621093750, 0.528808593750, 0.879638671875, -3.210937500000, -0.851562500000, -4.765625000000, 1490870085
0.161621093750, 0.528808593750, 0.879638671875, -3.210937500000, -0.851562500000, -4.765625000000, 1490870085
0.101806640625, 0.557373046875, 0.883056640625, -3.414062500000, -0.851562500000, -6.656250000000, 1490870085
0.101806640625, 0.557373046875, 0.883056640625, -3.414062500000, -0.851562500000, -6.656250000000, 1490870085
0.101806640625, 0.557373046875, 0.883056640625, -3.414062500000, -0.851562500000, -6.656250000000, 1490870085
0.081787109375, 0.552001953125, 0.888916015625, -2.398437500000, 0.453125000000, -6.875000000000, 1490870085
0.081787109375, 0.552001953125, 0.888916015625, -2.398437500000, 0.453125000000, -6.875000000000, 1490870085
0.081787109375, 0.552001953125, 0.888916015625, -2.398437500000, 0.453125000000, -6.875000000000, 1490870085
0.131835937500, 0.628662109375, 0.900634765625, -3.195312500000, 0.734375000000, -4.429687500000, 1490870085
0.131835937500, 0.628662109375, 0.900634765625, -3.195312500000, 0.734375000000, -4.429687500000, 1490870085
0.131835937500, 0.628662109375, 0.900634765625, -3.195312500000, 0.734375000000, -4.429687500000, 1490870085
0.131835937500, 0.628662109375, 0.900634765625, -3.195312500000, 0.734375000000, -4.429687500000, 1490870085
0.145507812500, 0.578857421875, 0.897216796875, 0.398437500000, 1.406250000000, -4.726562500000, 1490870085
0.145507812500, 0.578857421875, 0.897216796875, 0.398437500000, 1.406250000000, -4.726562500000, 1490870085
0.145507812500, 0.578857421875, 0.897216796875, 0.398437500000, 1.406250000000, -4.726562500000, 1490870085
0.035400390625, 0.542968750000, 0.941406250000, -1.101562500000, -0.101562500000, -3.078125000000, 1490870085
0.035400390625, 0.542968750000, 0.941406250000, -1.101562500000, -0.101562500000, -3.078125000000, 1490870085
0.035400390625, 0.542968750000, 0.941406250000, -1.101562500000, -0.101562500000, -3.078125000000, 1490870085
0.039794921875, 0.625488281250, 0.900146484375, 11.898437500000, 6.000000000000, 0.343750000000, 1490870085
0.039794921875, 0.625488281250, 0.900146484375, 11.898437500000, 6.000000000000, 0.343750000000, 1490870085
0.039794921875, 0.625488281250, 0.900146484375, 11.898437500000, 6.000000000000, 0.343750000000, 1490870085
0.134277343750, 0.637939453125, 0.896728515625, 11.820312500000, 19.945312500000, 7.710937500000, 1490870085
0.134277343750, 0.637939453125, 0.896728515625, 11.820312500000, 19.945312500000, 7.710937500000, 1490870085
0.134277343750, 0.637939453125, 0.896728515625, 11.820312500000, 19.945312500000, 7.710937500000, 1490870085
0.134277343750, 0.637939453125, 0.896728515625, 11.820312500000, 19.945312500000, 7.710937500000, 1490870085
0.137695312500, 0.415039062500, 0.822265625000, 7.523437500000, 3.265625000000, -4.601562500000, 1490870085
0.137695312500, 0.415039062500, 0.822265625000, 7.523437500000, 3.265625000000, -4.601562500000, 1490870085
0.137695312500, 0.415039062500, 0.822265625000, 7.523437500000, 3.265625000000, -4.601562500000, 1490870085
-0.155517578125, 0.411132812500, 0.916259765625, 6.343750000000, -1.335937500000, -16.031250000000, 1490870085
-0.155517578125, 0.411132812500, 0.916259765625, 6.343750000000, -1.335937500000, -16.031250000000, 1490870085
-0.155517578125, 0.411132812500, 0.916259765625, 6.343750000000, -1.335937500000, -16.031250000000, 1490870085
-0.148437500000, 0.414062500000, 0.888183593750, -14.804687500000, -14.187500000000, -33.046875000000, 1490870085
-0.148437500000, 0.414062500000, 0.888183593750, -14.804687500000, -14.187500000000, -33.046875000000, 1490870085
-0.148437500000, 0.414062500000, 0.888183593750, -14.804687500000, -14.187500000000, -33.046875000000, 1490870085
-0.070556640625, 0.479003906250, 0.856201171875, -16.609375000000, -2.093750000000, -36.054687500000, 1490870085
-0.070556640625, 0.479003906250, 0.856201171875, -16.609375000000, -2.093750000000, -36.054687500000, 1490870085
-0.070556640625, 0.479003906250, 0.856201171875, -16.609375000000, -2.093750000000, -36.054687500000, 1490870085
-0.070556640625, 0.479003906250, 0.856201171875, -16.609375000000, -2.093750000000, -36.054687500000, 1490870085
0.007324218750, 0.482421875000, 0.914062500000, -12.460937500000, -11.265625000000, -40.460937500000, 1490870085
0.007324218750, 0.482421875000, 0.914062500000, -12.460937500000, -11.265625000000, -40.460937500000, 1490870085
0.007324218750, 0.482421875000, 0.914062500000, -12.460937500000, -11.265625000000, -40.460937500000, 1490870085
0.033447265625, 0.490722656250, 0.831054687500, -27.101562500000, -19.507812500000, -35.656250000000, 1490870085
0.033447265625, 0.490722656250, 0.831054687500, -27.101562500000, -19.507812500000, -35.656250000000, 1490870085
0.033447265625, 0.490722656250, 0.831054687500, -27.101562500000, -19.507812500000, -35.656250000000, 1490870085
0.061279296875, 0.557861328125, 1.015869140625, -0.445312500000, -25.734375000000, -40.132812500000, 1490870085
0.061279296875, 0.557861328125, 1.015869140625, -0.445312500000, -25.734375000000, -40.132812500000, 1490870085
0.061279296875, 0.557861328125, 1.015869140625, -0.445312500000, -25.734375000000, -40.132812500000, 1490870085
0.406494140625, 0.541748046875, 1.029296875000, 7.296875000000, 14.070312500000, -62.492187500000, 1490870086
0.406494140625, 0.541748046875, 1.029296875000, 7.296875000000, 14.070312500000, -62.492187500000, 1490870086
0.406494140625, 0.541748046875, 1.029296875000, 7.296875000000, 14.070312500000, -62.492187500000, 1490870086
0.406494140625, 0.541748046875, 1.029296875000, 7.296875000000, 14.070312500000, -62.492187500000, 1490870086
0.564453125000, 0.752929687500, 0.952148437500, 29.585937500000, 47.757812500000, -43.164062500000, 1490870086
0.564453125000, 0.752929687500, 0.952148437500, 29.585937500000, 47.757812500000, -43.164062500000, 1490870086
0.564453125000, 0.752929687500, 0.952148437500, 29.585937500000, 47.757812500000, -43.164062500000, 1490870086
0.471923828125, 0.527099609375, 0.910644531250, 20.773437500000, 84.828125000000, 5.703125000000, 1490870086
0.471923828125, 0.527099609375, 0.910644531250, 20.773437500000, 84.828125000000, 5.703125000000, 1490870086
0.471923828125, 0.527099609375, 0.910644531250, 20.773437500000, 84.828125000000, 5.703125000000, 1490870086
0.359863281250, 0.369628906250, 0.929687500000, 40.562500000000, 85.234375000000, 0.664062500000, 1490870086
0.359863281250, 0.369628906250, 0.929687500000, 40.562500000000, 85.234375000000, 0.664062500000, 1490870086
0.359863281250, 0.369628906250, 0.929687500000, 40.562500000000, 85.234375000000, 0.664062500000, 1490870086
0.302978515625, 0.281738281250, 0.992431640625, -5.445312500000, 65.367187500000, 40.054687500000, 1490870086
0.302978515625, 0.281738281250, 0.992431640625, -5.445312500000, 65.367187500000, 40.054687500000, 1490870086
0.302978515625, 0.281738281250, 0.992431640625, -16.234375000000, 75.546875000000, 41.109375000000, 1490870086
0.236572265625, 0.440429687500, 1.016601562500, -32.164062500000, 78.281250000000, 59.578125000000, 1490870086
0.236572265625, 0.440429687500, 1.016601562500, -32.164062500000, 78.281250000000, 59.578125000000, 1490870086
0.236572265625, 0.440429687500, 1.016601562500, -32.164062500000, 78.281250000000, 59.578125000000, 1490870086
0.236572265625, 0.440429687500, 1.016601562500, -32.164062500000, 78.281250000000, 59.578125000000, 1490870086
0.226806640625, 0.289062500000, 1.062744140625, -49.125000000000, 94.187500000000, 86.835937500000, 1490870086
0.226806640625, 0.289062500000, 1.062744140625, -49.125000000000, 94.187500000000, 86.835937500000, 1490870086
0.226806640625, 0.289062500000, 1.062744140625, -49.125000000000, 94.187500000000, 86.835937500000, 1490870086
0.086425781250, 0.379394531250, 0.931152343750, -53.671875000000, 163.976562500000, 131.039062500000, 1490870086
0.086425781250, 0.379394531250, 0.931152343750, -53.671875000000, 163.976562500000, 131.039062500000, 1490870086
0.086425781250, 0.379394531250, 0.931152343750, -53.671875000000, 163.976562500000, 131.039062500000, 1490870086
-0.496093750000, 0.400878906250, 0.898925781250, -79.570312500000, 220.750000000000, 123.585937500000, 1490870086
-0.496093750000, 0.400878906250, 0.898925781250, -79.570312500000, 220.750000000000, 123.585937500000, 1490870086
-0.496093750000, 0.400878906250, 0.898925781250, -79.570312500000, 220.750000000000, 123.585937500000, 1490870086
-0.496093750000, 0.400878906250, 0.898925781250, -79.570312500000, 220.750000000000, 123.585937500000, 1490870086
-0.673828125000, 0.464355468750, 0.818359375000, -71.601562500000, 158.898437500000, 103.148437500000, 1490870086
-0.673828125000, 0.464355468750, 0.818359375000, -71.601562500000, 158.898437500000, 103.148437500000, 1490870086
-0.673828125000, 0.464355468750, 0.818359375000, -71.601562500000, 158.898437500000, 103.148437500000, 1490870086
-0.605224609375, 0.392333984375, 0.630371093750, -89.812500000000, 157.914062500000, 82.703125000000, 1490870086
-0.605224609375, 0.392333984375, 0.630371093750, -89.812500000000, 157.914062500000, 82.703125000000, 1490870086
-0.605224609375, 0.392333984375, 0.630371093750, -89.812500000000, 157.914062500000, 82.703125000000, 1490870086
-0.529052734375, 0.285888671875, 0.343017578125, -148.757812500000, 187.421875000000, 58.859375000000, 1490870086
-0.529052734375, 0.285888671875, 0.343017578125, -148.757812500000, 187.421875000000, 58.859375000000, 1490870086
-0.529052734375, 0.285888671875, 0.343017578125, -148.757812500000, 187.421875000000, 58.859375000000, 1490870086
-0.421630859375, 0.188964843750, -0.011474609375, -200.570312500000, 141.531250000000, 57.796875000000, 1490870086
-0.421630859375, 0.188964843750, -0.011474609375, -200.570312500000, 141.531250000000, 57.796875000000, 1490870086
-0.421630859375, 0.188964843750, -0.011474609375, -200.570312500000, 141.531250000000, 57.796875000000, 1490870086
-0.421630859375, 0.188964843750, -0.011474609375, -200.570312500000, 141.531250000000, 57.796875000000, 1490870086
-0.320068359375, -0.145263671875, -0.044921875000, -218.546875000000, -27.703125000000, 253.992187500000, 1490870086
-0.320068359375, -0.145263671875, -0.044921875000, -218.546875000000, -27.703125000000, 253.992187500000, 1490870086
-0.320068359375, -0.145263671875, -0.044921875000, -218.546875000000, -27.703125000000, 253.992187500000, 1490870086
-0.869873046875, -0.257324218750, -0.125000000000, -98.164062500000, 12.562500000000, 176.359375000000, 1490870086
-0.869873046875, -0.257324218750, -0.125000000000, -98.164062500000, 12.562500000000, 176.359375000000, 1490870086
-0.869873046875, -0.257324218750, -0.125000000000, -98.164062500000, 12.562500000000, 176.359375000000, 1490870086
-0.704589843750, -0.438232421875, 0.146972656250, -104.718750000000, -133.257812500000, 219.414062500000, 1490870086
-0.704589843750, -0.438232421875, 0.146972656250, -104.718750000000, -133.257812500000, 219.414062500000, 1490870086
-0.704589843750, -0.438232421875, 0.146972656250, -104.718750000000, -133.257812500000, 219.414062500000, 1490870086
-0.582519531250, -0.665039062500, 0.080566406250, -15.617187500000, -62.554687500000, 237.601562500000, 1490870086
-0.582519531250, -0.665039062500, 0.080566406250, -15.617187500000, -62.554687500000, 237.601562500000, 1490870086
-0.582519531250, -0.665039062500, 0.080566406250, -15.617187500000, -62.554687500000, 237.601562500000, 1490870086
-0.582519531250, -0.665039062500, 0.080566406250, -15.617187500000, -62.554687500000, 237.601562500000, 1490870086
-1.577148437500, -0.672607421875, 0.376953125000, -30.273437500000, -94.109375000000, 253.992187500000, 1490870086
-1.577148437500, -0.672607421875, 0.376953125000, -30.273437500000, -94.109375000000, 253.992187500000, 1490870086
-1.577148437500, -0.672607421875, 0.376953125000, -30.273437500000, -94.109375000000, 253.992187500000, 1490870086
-1.412109375000, -0.610351562500, -0.532714843750, -46.820312500000, 205.437500000000, 253.992187500000, 1490870086
-1.412109375000, -0.610351562500, -0.532714843750, -46.820312500000, 205.437500000000, 253.992187500000, 1490870086
-1.412109375000, -0.610351562500, -0.532714843750, -46.820312500000, 205.437500000000, 253.992187500000, 1490870086
-1.379882812500, -0.822021484375, -0.626953125000, 59.937500000000, -68.156250000000, 56.734375000000, 1490870086
-1.379882812500, -0.822021484375, -0.626953125000, 59.937500000000, -68.156250000000, 56.734375000000, 1490870086
-0.347900390625, -0.857910156250, 0.202392578125, 224.070312500000, -149.992187500000, -60.945312500000, 1490870086
-0.347900390625, -0.857910156250, 0.202392578125, 224.070312500000, -149.992187500000, -60.945312500000, 1490870086
-0.347900390625, -0.857910156250, 0.202392578125, 224.070312500000, -149.992187500000, -60.945312500000, 1490870087
-0.347900390625, -0.857910156250, 0.202392578125, 224.070312500000, -149.992187500000, -60.945312500000, 1490870087
-0.746582031250, -0.682861328125, 0.094238281250, -83.851562500000, 121.945312500000, 95.242187500000, 1490870087
-0.746582031250, -0.682861328125, 0.094238281250, -83.851562500000, 121.945312500000, 95.242187500000, 1490870087
-0.746582031250, -0.682861328125, 0.094238281250, -83.851562500000, 121.945312500000, 95.242187500000, 1490870087
-0.746582031250, -0.682861328125, 0.094238281250, -83.851562500000, 121.945312500000, 95.242187500000, 1490870087
-0.842773437500, -0.210693359375, -3.702880859375, 253.992187500000, 115.250000000000, 48.820312500000, 1490870087
-0.842773437500, -0.210693359375, -3.702880859375, 253.992187500000, 115.250000000000, 48.820312500000, 1490870087
-0.842773437500, -0.210693359375, -3.702880859375, 253.992187500000, 115.250000000000, 48.820312500000, 1490870087
-0.281738281250, -0.829101562500, -0.531738281250, 191.976562500000, 179.429687500000, 130.671875000000, 1490870087
-0.281738281250, -0.829101562500, -0.531738281250, 191.976562500000, 179.429687500000, 130.671875000000, 1490870087
-0.281738281250, -0.829101562500, -0.531738281250, 191.976562500000, 179.429687500000, 130.671875000000, 1490870087
-0.358398437500, -0.914062500000, -0.689941406250, 89.125000000000, 108.335937500000, 54.601562500000, 1490870087
-0.358398437500, -0.914062500000, -0.689941406250, 89.125000000000, 108.335937500000, 54.601562500000, 1490870087
-0.358398437500, -0.914062500000, -0.689941406250, 89.125000000000, 108.335937500000, 54.601562500000, 1490870087
-0.358398437500, -0.914062500000, -0.689941406250, 89.125000000000, 108.335937500000, 54.601562500000, 1490870087
-0.284912109375, -0.939941406250, -0.654785156250, 15.187500000000, 52.617187500000, 11.000000000000, 1490870087
-0.284912109375, -0.939941406250, -0.654785156250, 15.187500000000, 52.617187500000, 11.000000000000, 1490870087
-0.284912109375, -0.939941406250, -0.654785156250, 15.187500000000, 52.617187500000, 11.000000000000, 1490870087
-0.150878906250, -0.688964843750, -0.826660156250, 34.000000000000, 5.460937500000, 7.117187500000, 1490870087
-0.150878906250, -0.688964843750, -0.826660156250, 34.000000000000, 5.460937500000, 7.117187500000, 1490870087
-0.150878906250, -0.688964843750, -0.826660156250, 34.000000000000, 5.460937500000, 7.117187500000, 1490870087
-0.099121093750, -0.646240234375, -0.657958984375, 37.789062500000, 9.312500000000, -4.546875000000, 1490870087
-0.099121093750, -0.646240234375, -0.657958984375, 37.789062500000, 9.312500000000, -4.546875000000, 1490870087
-0.099121093750, -0.646240234375, -0.657958984375, 37.789062500000, 9.312500000000, -4.546875000000, 1490870087
-0.099121093750, -0.646240234375, -0.657958984375, 37.789062500000, 9.312500000000, -4.546875000000, 1490870087
-0.156250000000, -0.492919921875, -0.707031250000, 42.218750000000, -4.640625000000, -4.945312500000, 1490870087
-0.156250000000, -0.492919921875, -0.707031250000, 42.218750000000, -4.640625000000, -4.945312500000, 1490870087
-0.156250000000, -0.492919921875, -0.707031250000, 42.218750000000, -4.640625000000, -4.945312500000, 1490870087
-0.156250000000, -0.492919921875, -0.707031250000, 42.218750000000, -4.640625000000, -4.945312500000, 1490870087
-0.156250000000, -0.492919921875, -0.707031250000, 42.218750000000, -4.640625000000, -4.945312500000, 1490870087
-0.188964843750, -0.606689453125, -0.770751953125, 58.031250000000, 18.796875000000, -8.703125000000, 1490870087
-0.113037109375, -0.692871093750, -0.934326171875, 17.718750000000, 4.609375000000, -8.000000000000, 1490870087
-0.113037109375, -0.692871093750, -0.934326171875, 17.718750000000, 4.609375000000, -8.000000000000, 1490870087
-0.113037109375, -0.692871093750, -0.934326171875, 17.718750000000, 4.609375000000, -8.000000000000, 1490870087
-0.388183593750, -0.537353515625, -0.728027343750, -32.617187500000, -10.414062500000, -19.937500000000, 1490870087
-0.167236328125, -0.534667968750, -0.795654296875, -23.890625000000, -5.070312500000, -9.468750000000, 1490870087
-0.167236328125, -0.534667968750, -0.795654296875, -23.890625000000, -5.070312500000, -9.468750000000, 1490870087
-0.167236328125, -0.534667968750, -0.795654296875, -23.890625000000, -5.070312500000, -9.468750000000, 1490870087
-0.167236328125, -0.534667968750, -0.795654296875, -23.890625000000, -5.070312500000, -9.468750000000, 1490870087
-0.167236328125, -0.534667968750, -0.795654296875, -23.890625000000, -5.070312500000, -9.468750000000, 1490870087
-0.167236328125, -0.534667968750, -0.795654296875, -23.890625000000, -5.070312500000, -9.468750000000, 1490870087
-0.181884765625, -0.589111328125, -0.666503906250, -25.296875000000, -4.445312500000, -6.804687500000, 1490870087
-0.181884765625, -0.589111328125, -0.666503906250, -25.296875000000, -4.445312500000, -6.804687500000, 1490870087
-0.181884765625, -0.589111328125, -0.666503906250, -25.296875000000, -4.445312500000, -6.804687500000, 1490870087
-0.278564453125, -0.640136718750, -0.658203125000, -12.750000000000, 4.835937500000, 4.117187500000, 1490870087
-0.278564453125, -0.640136718750, -0.658203125000, -12.750000000000, 4.835937500000, 4.117187500000, 1490870087
-0.278564453125, -0.640136718750, -0.658203125000, -12.750000000000, 4.835937500000, 4.117187500000, 1490870087
-0.245361328125, -0.560302734375, -0.744628906250, -10.507812500000, 1.757812500000, 3.828125000000, 1490870087
-0.168701171875, -0.585205078125, -0.623291015625, -3.429687500000, -5.757812500000, -7.546875000000, 1490870087
-0.168701171875, -0.585205078125, -0.623291015625, -3.429687500000, -5.757812500000, -7.546875000000, 1490870087
-0.168701171875, -0.585205078125, -0.623291015625, -3.429687500000, -5.757812500000, -7.546875000000, 1490870087
-0.168701171875, -0.585205078125, -0.623291015625, -3.429687500000, -5.757812500000, -7.546875000000, 1490870087
-0.168701171875, -0.585205078125, -0.623291015625, -3.429687500000, -5.757812500000, -7.546875000000, 1490870087
-0.168701171875, -0.585205078125, -0.623291015625, -3.429687500000, -5.757812500000, -7.546875000000, 1490870087
-0.220458984375, -0.555664062500, -0.783935546875, -3.523437500000, -8.500000000000, -5.500000000000, 1490870087
-0.220458984375, -0.555664062500, -0.783935546875, -3.523437500000, -8.500000000000, -5.500000000000, 1490870087
-0.220458984375, -0.555664062500, -0.783935546875, -3.523437500000, -8.500000000000, -5.500000000000, 1490870087
-0.220458984375, -0.555664062500, -0.783935546875, -3.523437500000, -8.500000000000, -5.500000000000, 1490870087
-0.220458984375, -0.555664062500, -0.783935546875, -3.523437500000, -8.500000000000, -5.500000000000, 1490870087
-0.220458984375, -0.555664062500, -0.783935546875, -3.523437500000, -8.500000000000, -5.500000000000, 1490870087
-0.332519531250, -0.676513671875, -0.761718750000, -5.718750000000, -7.031250000000, -7.898437500000, 1490870087
-0.332519531250, -0.676513671875, -0.761718750000, -5.718750000000, -7.031250000000, -7.898437500000, 1490870087
-0.332519531250, -0.676513671875, -0.761718750000, -5.718750000000, -7.031250000000, -7.898437500000, 1490870087
-0.377685546875, -0.647460937500, -0.771728515625, -6.789062500000, -1.289062500000, -8.351562500000, 1490870087
-0.377685546875, -0.647460937500, -0.771728515625, -6.789062500000, -1.289062500000, -8.351562500000, 1490870087
-0.377685546875, -0.647460937500, -0.771728515625, -6.789062500000, -1.289062500000, -8.351562500000, 1490870087
-0.377685546875, -0.647460937500, -0.771728515625, -6.789062500000, -1.289062500000, -8.351562500000, 1490870087
-0.295410156250, -0.647705078125, -0.700683593750, -1.210937500000, 4.335937500000, -3.640625000000, 1490870088
-0.295410156250, -0.647705078125, -0.700683593750, -1.210937500000, 4.335937500000, -3.640625000000, 1490870088
-0.295410156250, -0.647705078125, -0.700683593750, -1.210937500000, 4.335937500000, -3.640625000000, 1490870088
-0.295410156250, -0.647705078125, -0.700683593750, -1.210937500000, 4.335937500000, -3.640625000000, 1490870088
-0.257568359375, -0.626220703125, -0.837402343750, 0.148437500000, 4.570312500000, -4.515625000000, 1490870088
-0.257568359375, -0.626220703125, -0.837402343750, 0.148437500000, 4.570312500000, -4.515625000000, 1490870088
-0.257568359375, -0.626220703125, -0.837402343750, 0.148437500000, 4.570312500000, -4.515625000000, 1490870088
-0.257568359375, -0.626220703125, -0.837402343750, 0.148437500000, 4.570312500000, -4.515625000000, 1490870088
-0.257568359375, -0.626220703125, -0.837402343750, 0.148437500000, 4.570312500000, -4.515625000000, 1490870088
-0.273437500000, -0.595458984375, -0.677490234375, 2.000000000000, 3.460937500000, -4.265625000000, 1490870088
-0.273437500000, -0.595458984375, -0.677490234375, 2.000000000000, 3.460937500000, -4.265625000000, 1490870088
-0.273437500000, -0.595458984375, -0.677490234375, 2.000000000000, 3.460937500000, -4.265625000000, 1490870088
-0.273437500000, -0.595458984375, -0.677490234375, 2.000000000000, 3.460937500000, -4.265625000000, 1490870088
-0.314697265625, -0.584960937500, -0.761962890625, -0.312500000000, 4.265625000000, -4.156250000000, 1490870088
-0.314697265625, -0.584960937500, -0.761962890625, -0.312500000000, 4.265625000000, -4.156250000000, 1490870088
-0.314697265625, -0.584960937500, -0.761962890625, -0.312500000000, 4.265625000000, -4.156250000000, 1490870088
-0.231933593750, -0.541992187500, -0.735351562500, 2.007812500000, 1.453125000000, -3.234375000000, 1490870088
-0.231933593750, -0.541992187500, -0.735351562500, 2.007812500000, 1.453125000000, -3.234375000000, 1490870088
-0.231933593750, -0.541992187500, -0.735351562500, 2.007812500000, 1.453125000000, -3.234375000000, 1490870088
-0.163574218750, -0.633056640625, -0.776855468750, 0.289062500000, 1.351562500000, -4.484375000000, 1490870088
-0.163574218750, -0.633056640625, -0.776855468750, 0.289062500000, 1.351562500000, -4.484375000000, 1490870088
-0.320556640625, -0.558593750000, -0.834472656250, 0.007812500000, 2.062500000000, -4.656250000000, 1490870088
-0.320556640625, -0.558593750000, -0.834472656250, 0.007812500000, 2.062500000000, -4.656250000000, 1490870088
-0.320556640625, -0.558593750000, -0.834472656250, 0.007812500000, 2.062500000000, -4.656250000000, 1490870088
-0.320556640625, -0.558593750000, -0.834472656250, 0.007812500000, 2.062500000000, -4.656250000000, 1490870088
-0.320556640625, -0.558593750000, -0.834472656250, 0.007812500000, 2.062500000000, -4.656250000000, 1490870088
-0.169189453125, -0.589599609375, -0.734375000000, 0.429687500000, 0.984375000000, -5.367187500000, 1490870088
-0.169189453125, -0.589599609375, -0.734375000000, 0.429687500000, 0.984375000000, -5.367187500000, 1490870088
-0.169189453125, -0.589599609375, -0.734375000000, 0.429687500000, 0.984375000000, -5.367187500000, 1490870088
-0.218994140625, -0.571289062500, -0.721679687500, -2.859375000000, -2.437500000000, -5.242187500000, 1490870088
-0.218994140625, -0.571289062500, -0.721679687500, -2.859375000000, -2.437500000000, -5.242187500000, 1490870088
-0.218994140625, -0.571289062500, -0.721679687500, -2.859375000000, -2.437500000000, -5.242187500000, 1490870088
-0.263671875000, -0.574951171875, -0.764404296875, -4.945312500000, -2.125000000000, -4.039062500000, 1490870088
-0.263671875000, -0.574951171875, -0.764404296875, -4.945312500000, -2.125000000000, -4.039062500000, 1490870088
-0.228027343750, -0.583984375000, -0.748779296875, -1.843750000000, -0.906250000000, -6.140625000000, 1490870088
-0.228027343750, -0.583984375000, -0.748779296875, -1.843750000000, -0.906250000000, -6.140625000000, 1490870088
-0.228027343750, -0.583984375000, -0.748779296875, -1.843750000000, -0.906250000000, -6.140625000000, 1490870088
-0.228027343750, -0.583984375000, -0.748779296875, -1.843750000000, -0.906250000000, -6.140625000000, 1490870088
-0.228027343750, -0.583984375000, -0.748779296875, -1.843750000000, -0.906250000000, -6.140625000000, 1490870088
-0.232421875000, -0.544677734375, -0.729003906250, -6.953125000000, -2.015625000000, -4.796875000000, 1490870088
-0.232421875000, -0.544677734375, -0.729003906250, -6.953125000000, -2.015625000000, -4.796875000000, 1490870088
-0.232421875000, -0.544677734375, -0.729003906250, -6.953125000000, -2.015625000000, -4.796875000000, 1490870088
-0.263671875000, -0.634033203125, -0.770019531250, -4.960937500000, 0.015625000000, -5.218750000000, 1490870088
-0.263671875000, -0.634033203125, -0.770019531250, -4.960937500000, 0.015625000000, -5.218750000000, 1490870088
-0.263671875000, -0.634033203125, -0.770019531250, -4.960937500000, 0.015625000000, -5.218750000000, 1490870088
-0.184326171875, -0.646484375000, -0.770263671875, -3.382812500000, 0.562500000000, -3.070312500000, 1490870088
-0.184326171875, -0.646484375000, -0.770263671875, -3.382812500000, 0.562500000000, -3.070312500000, 1490870088
-0.184326171875, -0.646484375000, -0.770263671875, -3.382812500000, 0.562500000000, -3.070312500000, 1490870088
-0.218261718750, -0.635009765625, -0.832763671875, -1.671875000000, 0.968750000000, -3.312500000000, 1490870088
-0.218261718750, -0.635009765625, -0.832763671875, -1.671875000000, 0.968750000000, -3.312500000000, 1490870088
-0.218261718750, -0.635009765625, -0.832763671875, -1.671875000000, 0.968750000000, -3.312500000000, 1490870088
-0.218261718750, -0.635009765625, -0.832763671875, -1.671875000000, 0.968750000000, -3.312500000000, 1490870088
-0.342773437500, -0.573974609375, -0.838623046875, -1.531250000000, 2.875000000000, -4.328125000000, 1490870088
-0.342773437500, -0.573974609375, -0.838623046875, -1.531250000000, 2.875000000000, -4.328125000000, 1490870088
-0.342773437500, -0.573974609375, -0.838623046875, -1.531250000000, 2.875000000000, -4.328125000000, 1490870088
-0.249267578125, -0.558349609375, -0.823242187500, -1.070312500000, 2.906250000000, -6.257812500000, 1490870088
-0.249267578125, -0.558349609375, -0.823242187500, -1.070312500000, 2.906250000000, -6.257812500000, 1490870088
-0.249267578125, -0.558349609375, -0.823242187500, -1.070312500000, 2.906250000000, -6.257812500000, 1490870088
-0.240234375000, -0.640625000000, -0.687255859375, 0.750000000000, 1.437500000000, -3.101562500000, 1490870088
-0.240234375000, -0.640625000000, -0.687255859375, 0.750000000000, 1.437500000000, -3.101562500000, 1490870088
-0.240234375000, -0.640625000000, -0.687255859375, 0.750000000000, 1.437500000000, -3.101562500000, 1490870088
-0.254394531250, -0.645019531250, -0.732177734375, -4.125000000000, -0.085937500000, -6.000000000000, 1490870088
-0.254394531250, -0.645019531250, -0.732177734375, -4.125000000000, -0.085937500000, -6.000000000000, 1490870088
-0.254394531250, -0.645019531250, -0.732177734375, -4.125000000000, -0.085937500000, -6.000000000000, 1490870088
-0.254394531250, -0.645019531250, -0.732177734375, -4.125000000000, -0.085937500000, -6.000000000000, 1490870088
-0.343505859375, -0.547363281250, -0.824707031250, -1.343750000000, -0.054687500000, -3.062500000000, 1490870088
-0.343505859375, -0.547363281250, -0.824707031250, -1.343750000000, -0.054687500000, -3.062500000000, 1490870088
-0.343505859375, -0.547363281250, -0.824707031250, -1.343750000000, -0.054687500000, -3.062500000000, 1490870088
-0.206787109375, -0.550292968750, -0.729248046875, -1.898437500000, 2.664062500000, -6.203125000000, 1490870089
-0.206787109375, -0.550292968750, -0.729248046875, -1.898437500000, 2.664062500000, -6.203125000000, 1490870089
-0.206787109375, -0.550292968750, -0.729248046875, -1.898437500000, 2.664062500000, -6.203125000000, 1490870089
-0.172363281250, -0.607177734375, -0.762451171875, -1.468750000000, 2.867187500000, -1.992187500000, 1490870089
-0.172363281250, -0.607177734375, -0.762451171875, -1.468750000000, 2.867187500000, -1.992187500000, 1490870089
-0.172363281250, -0.607177734375, -0.762451171875, -1.468750000000, 2.867187500000, -1.992187500000, 1490870089
-0.196044921875, -0.609863281250, -0.748046875000, -2.500000000000, -0.265625000000, -6.234375000000, 1490870089
-0.196044921875, -0.609863281250, -0.748046875000, -2.500000000000, -0.265625000000, -6.234375000000, 1490870089
-0.196044921875, -0.609863281250, -0.748046875000, -2.500000000000, -0.265625000000, -6.234375000000, 1490870089
-0.196044921875, -0.609863281250, -0.748046875000, -2.500000000000, -0.265625000000, -6.234375000000, 1490870089
-0.183349609375, -0.634033203125, -0.737060546875, -1.750000000000, 0.750000000000, -5.375000000000, 1490870089
-0.183349609375, -0.634033203125, -0.737060546875, -1.750000000000, 0.750000000000, -5.375000000000, 1490870089
-0.183349609375, -0.634033203125, -0.737060546875, -1.750000000000, 0.750000000000, -5.375000000000, 1490870089
-0.170654296875, -0.544433593750, -0.682128906250, -3.476562500000, -2.968750000000, -1.546875000000, 1490870089
-0.170654296875, -0.544433593750, -0.682128906250, -3.476562500000, -2.968750000000, -1.546875000000, 1490870089
-0.170654296875, -0.544433593750, -0.682128906250, -3.476562500000, -2.968750000000, -1.546875000000, 1490870089
-0.236083984375, -0.494873046875, -0.891845703125, -4.156250000000, -2.101562500000, -1.656250000000, 1490870089
-0.236083984375, -0.494873046875, -0.891845703125, -4.156250000000, -2.101562500000, -1.656250000000, 1490870089
-0.236083984375, -0.494873046875, -0.891845703125, -4.156250000000, -2.101562500000, -1.656250000000, 1490870089
-0.180664062500, -0.539550781250, -0.772216796875, -2.492187500000, -1.093750000000, -8.515625000000, 1490870089
-0.180664062500, -0.539550781250, -0.772216796875, -2.492187500000, -1.093750000000, -8.515625000000, 1490870089
-0.180664062500, -0.539550781250, -0.772216796875, -2.492187500000, -1.093750000000, -8.515625000000, 1490870089
-0.180664062500, -0.539550781250, -0.772216796875, -2.492187500000, -1.093750000000, -8.515625000000, 1490870089
-0.280517578125, -0.634521484375, -0.771240234375, -1.156250000000, 2.445312500000, -7.000000000000, 1490870089
-0.280517578125, -0.634521484375, -0.771240234375, -1.156250000000, 2.445312500000, -7.000000000000, 1490870089
-0.280517578125, -0.634521484375, -0.771240234375, -1.156250000000, 2.445312500000, -7.000000000000, 1490870089
-0.165771484375, -0.574951171875, -0.825195312500, -4.351562500000, 1.375000000000, -1.726562500000, 1490870089
-0.165771484375, -0.574951171875, -0.825195312500, -4.351562500000, 1.375000000000, -1.726562500000, 1490870089
-0.165771484375, -0.574951171875, -0.825195312500, -4.351562500000, 1.375000000000, -1.726562500000, 1490870089
-0.243408203125, -0.570800781250, -0.739990234375, -4.632812500000, -0.187500000000, -3.500000000000, 1490870089
-0.243408203125, -0.570800781250, -0.739990234375, -4.632812500000, -0.187500000000, -3.500000000000, 1490870089
-0.243408203125, -0.570800781250, -0.739990234375, -4.632812500000, -0.187500000000, -3.500000000000, 1490870089
-0.243408203125, -0.570800781250, -0.739990234375, -4.632812500000, -0.187500000000, -3.500000000000, 1490870089
-0.243408203125, -0.570800781250, -0.739990234375, -4.632812500000, -0.187500000000, -3.500000000000, 1490870089
-0.243408203125, -0.570800781250, -0.739990234375, -4.632812500000, -0.187500000000, -3.500000000000, 1490870089
-0.243408203125, -0.570800781250, -0.739990234375, -4.632812500000, -0.187500000000, -3.500000000000, 1490870089
-0.188720703125, -0.615966796875, -0.746093750000, -6.015625000000, 0.015625000000, -5.867187500000, 1490870089
-0.262695312500, -0.545410156250, -0.752197265625, -4.718750000000, 0.257812500000, -3.539062500000, 1490870089
-0.262695312500, -0.545410156250, -0.752197265625, -4.718750000000, 0.257812500000, -3.539062500000, 1490870089
-0.268798828125, -0.522460937500, -0.822509765625, -3.070312500000, -0.968750000000, -1.585937500000, 1490870089
-0.235839843750, -0.548095703125, -0.768554687500, -4.796875000000, 0.757812500000, -3.640625000000, 1490870089
-0.235839843750, -0.548095703125, -0.768554687500, -4.796875000000, 0.757812500000, -3.640625000000, 1490870089
-0.235839843750, -0.548095703125, -0.768554687500, -4.796875000000, 0.757812500000, -3.640625000000, 1490870089
-0.223388671875, -0.558593750000, -0.813476562500, -3.234375000000, 0.906250000000, -3.890625000000, 1490870089
