ACC_X,ACC_Y,ACC_Z,G_X,G_Y,G_Z,Unix Time
0.016845703125, 0.092285156250, 1.080322265625, -4.093750000000, 0.453125000000, -2.210937500000, 1490870616
0.016845703125, 0.092285156250, 1.080322265625, -4.093750000000, 0.453125000000, -2.210937500000, 1490870616
0.016845703125, 0.092285156250, 1.080322265625, -4.093750000000, 0.453125000000, -2.210937500000, 1490870616
0.018798828125, 0.142822265625, 0.989990234375, -4.703125000000, 0.710937500000, -4.445312500000, 1490870616
0.018798828125, 0.142822265625, 0.989990234375, -4.703125000000, 0.710937500000, -4.445312500000, 1490870616
0.018798828125, 0.142822265625, 0.989990234375, -4.703125000000, 0.710937500000, -4.445312500000, 1490870616
-0.050048828125, 0.058105468750, 0.979003906250, -1.718750000000, -2.039062500000, -1.492187500000, 1490870616
-0.050048828125, 0.058105468750, 0.979003906250, -1.718750000000, -2.039062500000, -1.492187500000, 1490870616
-0.050048828125, 0.058105468750, 0.979003906250, -1.718750000000, -2.039062500000, -1.492187500000, 1490870616
-0.020507812500, 0.096679687500, 1.049316406250, -4.351562500000, -0.382812500000, 0.132812500000, 1490870616
-0.020996093750, 0.046142578125, 1.139404296875, -1.906250000000, 0.734375000000, -4.234375000000, 1490870616
-0.020996093750, 0.046142578125, 1.139404296875, -1.906250000000, 0.734375000000, -4.234375000000, 1490870616
-0.020996093750, 0.046142578125, 1.139404296875, -1.906250000000, 0.734375000000, -4.234375000000, 1490870616
-0.026855468750, 0.142333984375, 0.986328125000, -3.734375000000, 0.210937500000, -2.734375000000, 1490870616
-0.026855468750, 0.142333984375, 0.986328125000, -3.734375000000, 0.210937500000, -2.734375000000, 1490870616
-0.026855468750, 0.142333984375, 0.986328125000, -3.734375000000, 0.210937500000, -2.734375000000, 1490870616
0.005371093750, 0.089111328125, 0.969726562500, 0.875000000000, -1.335937500000, 0.937500000000, 1490870616
0.009765625000, 0.135986328125, 1.088623046875, -5.484375000000, -2.976562500000, -2.078125000000, 1490870616
0.009765625000, 0.135986328125, 1.088623046875, -5.484375000000, -2.976562500000, -2.078125000000, 1490870616
-0.045166015625, 0.053466796875, 0.991210937500, -1.187500000000, 0.585937500000, -2.546875000000, 1490870616
-0.045166015625, 0.053466796875, 0.991210937500, -1.187500000000, 0.585937500000, -2.546875000000, 1490870616
-0.045166015625, 0.053466796875, 0.991210937500, -1.187500000000, 0.585937500000, -2.546875000000, 1490870616
-0.045166015625, 0.053466796875, 0.991210937500, -1.187500000000, 0.585937500000, -2.546875000000, 1490870616
-0.045166015625, 0.053466796875, 0.991210937500, -1.187500000000, 0.585937500000, -2.546875000000, 1490870616
-0.045166015625, 0.053466796875, 0.991210937500, -1.187500000000, 0.585937500000, -2.546875000000, 1490870616
-0.045166015625, 0.053466796875, 0.991210937500, -1.187500000000, 0.585937500000, -2.546875000000, 1490870616
-0.090820312500, 0.087890625000, 1.092529296875, -6.726562500000, 0.460937500000, -1.578125000000, 1490870616
-0.090820312500, 0.087890625000, 1.092529296875, -6.726562500000, 0.460937500000, -1.578125000000, 1490870616
-0.090820312500, 0.087890625000, 1.092529296875, -6.726562500000, 0.460937500000, -1.578125000000, 1490870616
-0.017089843750, 0.051513671875, 1.084228515625, -3.085937500000, -2.226562500000, 0.914062500000, 1490870616
-0.017089843750, 0.051513671875, 1.084228515625, -3.085937500000, -2.226562500000, 0.914062500000, 1490870616
-0.017089843750, 0.051513671875, 1.084228515625, -3.085937500000, -2.226562500000, 0.914062500000, 1490870616
-0.017089843750, 0.051513671875, 1.084228515625, -3.085937500000, -2.226562500000, 0.914062500000, 1490870616
0.062988281250, 0.088378906250, 1.085693359375, -1.671875000000, 0.500000000000, -1.515625000000, 1490870616
0.062988281250, 0.088378906250, 1.085693359375, -1.671875000000, 0.500000000000, -1.515625000000, 1490870616
0.062988281250, 0.088378906250, 1.085693359375, -1.671875000000, 0.500000000000, -1.515625000000, 1490870616
-0.021240234375, 0.139160156250, 1.078857421875, -1.601562500000, 0.953125000000, -3.023437500000, 1490870616
-0.030029296875, 0.126953125000, 0.927734375000, -6.804687500000, -0.945312500000, -2.421875000000, 1490870616
-0.030029296875, 0.126953125000, 0.927734375000, -6.804687500000, -0.945312500000, -2.421875000000, 1490870617
-0.030029296875, 0.126953125000, 0.927734375000, -6.804687500000, -0.945312500000, -2.421875000000, 1490870617
-0.030029296875, 0.126953125000, 0.927734375000, -6.804687500000, -0.945312500000, -2.421875000000, 1490870617
-0.030029296875, 0.126953125000, 0.927734375000, -6.804687500000, -0.945312500000, -2.421875000000, 1490870617
0.014892578125, 0.120849609375, 1.041015625000, -3.843750000000, -0.984375000000, -2.710937500000, 1490870617
0.014892578125, 0.120849609375, 1.041015625000, -3.843750000000, -0.984375000000, -2.710937500000, 1490870617
-0.050537109375, 0.101318359375, 1.025634765625, -4.695312500000, -0.031250000000, -1.171875000000, 1490870617
-0.069335937500, 0.082275390625, 0.984375000000, -4.593750000000, 0.843750000000, -3.945312500000, 1490870617
-0.069335937500, 0.082275390625, 0.984375000000, -4.593750000000, 0.843750000000, -3.945312500000, 1490870617
-0.069335937500, 0.082275390625, 0.984375000000, -4.593750000000, 0.843750000000, -3.945312500000, 1490870617
-0.069335937500, 0.082275390625, 0.984375000000, -4.593750000000, 0.843750000000, -3.945312500000, 1490870617
-0.039550781250, 0.091796875000, 1.084228515625, -6.453125000000, 0.195312500000, -5.000000000000, 1490870617
-0.039550781250, 0.091796875000, 1.084228515625, -6.453125000000, 0.195312500000, -5.000000000000, 1490870617
-0.039550781250, 0.091796875000, 1.084228515625, -6.453125000000, 0.195312500000, -5.000000000000, 1490870617
0.023681640625, 0.038574218750, 0.921875000000, -4.632812500000, -1.195312500000, -4.382812500000, 1490870617
0.023681640625, 0.038574218750, 0.921875000000, -4.632812500000, -1.195312500000, -4.382812500000, 1490870617
0.023681640625, 0.038574218750, 0.921875000000, -4.632812500000, -1.195312500000, -4.382812500000, 1490870617
0.014648437500, 0.210449218750, 1.024902343750, 0.671875000000, -4.804687500000, -1.203125000000, 1490870617
0.014648437500, 0.210449218750, 1.024902343750, 0.671875000000, -4.804687500000, -1.203125000000, 1490870617
0.014648437500, 0.210449218750, 1.024902343750, 0.671875000000, -4.804687500000, -1.203125000000, 1490870617
0.014648437500, 0.210449218750, 1.024902343750, 0.671875000000, -4.804687500000, -1.203125000000, 1490870617
-0.025390625000, 0.030029296875, 1.056152343750, 14.718750000000, -27.851562500000, -0.867187500000, 1490870617
-0.025390625000, 0.030029296875, 1.056152343750, 14.718750000000, -27.851562500000, -0.867187500000, 1490870617
-0.025390625000, 0.030029296875, 1.056152343750, 14.718750000000, -27.851562500000, -0.867187500000, 1490870617
-0.094238281250, 0.073242187500, 1.093505859375, 2.070312500000, -17.546875000000, -1.726562500000, 1490870617
-0.094238281250, 0.073242187500, 1.093505859375, 2.070312500000, -17.546875000000, -1.726562500000, 1490870617
-0.094238281250, 0.073242187500, 1.093505859375, 2.070312500000, -17.546875000000, -1.726562500000, 1490870617
0.035888671875, 0.073242187500, 1.050292968750, 3.460937500000, -38.062500000000, -5.757812500000, 1490870617
0.035888671875, 0.073242187500, 1.050292968750, 3.460937500000, -38.062500000000, -5.757812500000, 1490870617
0.035888671875, 0.073242187500, 1.050292968750, 3.460937500000, -38.062500000000, -5.757812500000, 1490870617
-0.146972656250, -0.031738281250, 1.104248046875, -11.429687500000, -39.664062500000, -8.679687500000, 1490870617
-0.146972656250, -0.031738281250, 1.104248046875, -11.429687500000, -39.664062500000, -8.679687500000, 1490870617
-0.146972656250, -0.031738281250, 1.104248046875, -11.429687500000, -39.664062500000, -8.679687500000, 1490870617
-0.146972656250, -0.031738281250, 1.104248046875, -11.429687500000, -39.664062500000, -8.679687500000, 1490870617
-0.141601562500, -0.044921875000, 0.988037109375, -18.632812500000, -49.039062500000, -26.437500000000, 1490870617
-0.141601562500, -0.044921875000, 0.988037109375, -18.632812500000, -49.039062500000, -26.437500000000, 1490870617
0.072753906250, -0.015625000000, 1.073730468750, -20.382812500000, -67.093750000000, -30.328125000000, 1490870617
0.027587890625, 0.081298828125, 1.089111328125, -19.320312500000, -64.328125000000, -29.398437500000, 1490870617
0.027587890625, 0.081298828125, 1.089111328125, -19.320312500000, -64.328125000000, -29.398437500000, 1490870617
0.136230468750, 0.154541015625, 0.932128906250, -16.531250000000, -37.023437500000, -36.273437500000, 1490870617
0.136230468750, 0.154541015625, 0.932128906250, -16.531250000000, -37.023437500000, -36.273437500000, 1490870617
0.136230468750, 0.154541015625, 0.932128906250, -16.531250000000, -37.023437500000, -36.273437500000, 1490870617
0.136230468750, 0.154541015625, 0.932128906250, -16.531250000000, -37.023437500000, -36.273437500000, 1490870617
0.204101562500, 0.013671875000, 1.054199218750, 12.257812500000, -45.984375000000, -45.210937500000, 1490870617
0.204101562500, 0.013671875000, 1.054199218750, 12.257812500000, -45.984375000000, -45.210937500000, 1490870617
0.204101562500, 0.013671875000, 1.054199218750, 12.257812500000, -45.984375000000, -45.210937500000, 1490870617
0.204101562500, 0.013671875000, 1.054199218750, 12.257812500000, -45.984375000000, -45.210937500000, 1490870617
0.163818359375, 0.058349609375, 1.029541015625, -16.757812500000, -44.757812500000, -41.242187500000, 1490870617
0.163818359375, 0.058349609375, 1.029541015625, -16.757812500000, -44.757812500000, -41.242187500000, 1490870617
0.163818359375, 0.058349609375, 1.029541015625, -16.757812500000, -44.757812500000, -41.242187500000, 1490870617
0.378417968750, 0.031005859375, 0.990234375000, -14.320312500000, -59.976562500000, -42.015625000000, 1490870617
0.378417968750, 0.031005859375, 0.990234375000, -14.320312500000, -59.976562500000, -42.015625000000, 1490870617
0.378417968750, 0.031005859375, 0.990234375000, -14.320312500000, -59.976562500000, -42.015625000000, 1490870617
0.342285156250, 0.153076171875, 0.925048828125, -11.734375000000, -57.554687500000, -33.242187500000, 1490870617
0.342285156250, 0.153076171875, 0.925048828125, -11.734375000000, -57.554687500000, -33.242187500000, 1490870617
0.342285156250, 0.153076171875, 0.925048828125, -11.734375000000, -57.554687500000, -33.242187500000, 1490870617
0.245117187500, 0.045898437500, 0.944580078125, -9.554687500000, -49.367187500000, -36.851562500000, 1490870617
0.245117187500, 0.045898437500, 0.944580078125, -9.554687500000, -49.367187500000, -36.851562500000, 1490870617
0.245117187500, 0.045898437500, 0.944580078125, -9.554687500000, -49.367187500000, -36.851562500000, 1490870617
0.245117187500, 0.045898437500, 0.944580078125, -9.554687500000, -49.367187500000, -36.851562500000, 1490870617
0.438720703125, 0.060546875000, 0.961914062500, 15.531250000000, -67.656250000000, -45.757812500000, 1490870617
0.438720703125, 0.060546875000, 0.961914062500, 15.531250000000, -67.656250000000, -45.757812500000, 1490870617
0.438720703125, 0.060546875000, 0.961914062500, 15.531250000000, -67.656250000000, -45.757812500000, 1490870617
0.375000000000, 0.039794921875, 0.937500000000, 2.562500000000, -94.070312500000, -46.210937500000, 1490870617
0.375000000000, 0.039794921875, 0.937500000000, 2.562500000000, -94.070312500000, -46.210937500000, 1490870617
0.375000000000, 0.039794921875, 0.937500000000, 2.562500000000, -94.070312500000, -46.210937500000, 1490870617
0.648925781250, -0.012939453125, 0.915527343750, 1.156250000000, -116.179687500000, -44.164062500000, 1490870617
0.648925781250, -0.012939453125, 0.915527343750, 1.156250000000, -116.179687500000, -44.164062500000, 1490870617
0.648925781250, -0.012939453125, 0.915527343750, 1.156250000000, -116.179687500000, -44.164062500000, 1490870617
0.614746093750, 0.151123046875, 0.661132812500, 17.210937500000, -126.164062500000, -45.578125000000, 1490870618
0.614746093750, 0.151123046875, 0.661132812500, 17.210937500000, -126.164062500000, -45.578125000000, 1490870618
0.614746093750, 0.151123046875, 0.661132812500, 17.210937500000, -126.164062500000, -45.578125000000, 1490870618
0.614746093750, 0.151123046875, 0.661132812500, 17.210937500000, -126.164062500000, -45.578125000000, 1490870618
0.563964843750, -0.069091796875, 0.650634765625, 28.773437500000, -126.460937500000, -55.437500000000, 1490870618
0.563964843750, -0.069091796875, 0.650634765625, 28.773437500000, -126.460937500000, -55.437500000000, 1490870618
0.563964843750, -0.069091796875, 0.650634765625, 28.773437500000, -126.460937500000, -55.437500000000, 1490870618
0.471435546875, -0.116455078125, 0.501953125000, 36.023437500000, -98.351562500000, -57.531250000000, 1490870618
0.471435546875, -0.116455078125, 0.501953125000, 36.023437500000, -98.351562500000, -57.531250000000, 1490870618
0.471435546875, -0.116455078125, 0.501953125000, 36.023437500000, -98.351562500000, -57.531250000000, 1490870618
0.523437500000, -0.346191406250, 0.240966796875, 33.625000000000, -116.625000000000, -90.304687500000, 1490870618
0.523437500000, -0.346191406250, 0.240966796875, 33.625000000000, -116.625000000000, -90.304687500000, 1490870618
0.523437500000, -0.346191406250, 0.240966796875, 33.625000000000, -116.625000000000, -90.304687500000, 1490870618
0.381347656250, -0.405761718750, 0.182861328125, -5.179687500000, -47.187500000000, -49.835937500000, 1490870618
0.381347656250, -0.405761718750, 0.182861328125, -5.179687500000, -47.187500000000, -49.835937500000, 1490870618
0.381347656250, -0.405761718750, 0.182861328125, -5.179687500000, -47.187500000000, -49.835937500000, 1490870618
0.381347656250, -0.405761718750, 0.182861328125, -5.179687500000, -47.187500000000, -49.835937500000, 1490870618
1.179199218750, -0.861816406250, 0.276855468750, 0.828125000000, -256.000000000000, -254.085937500000, 1490870618
1.179199218750, -0.861816406250, 0.276855468750, 0.828125000000, -256.000000000000, -254.085937500000, 1490870618
1.179199218750, -0.861816406250, 0.276855468750, 0.828125000000, -256.000000000000, -254.085937500000, 1490870618
2.889892578125, -0.119384765625, -0.069335937500, 38.265625000000, -256.000000000000, -125.375000000000, 1490870618
2.889892578125, -0.119384765625, -0.069335937500, 38.265625000000, -256.000000000000, -125.375000000000, 1490870618
2.889892578125, -0.119384765625, -0.069335937500, 38.265625000000, -256.000000000000, -125.375000000000, 1490870618
0.325683593750, -0.440185546875, 0.046142578125, 121.968750000000, -230.062500000000, 98.195312500000, 1490870618
0.325683593750, -0.440185546875, 0.046142578125, 121.968750000000, -230.062500000000, 98.195312500000, 1490870618
0.325683593750, -0.440185546875, 0.046142578125, 121.968750000000, -230.062500000000, 98.195312500000, 1490870618
0.783935546875, -0.426757812500, -0.452880859375, 68.242187500000, -256.000000000000, -36.609375000000, 1490870618
0.783935546875, -0.426757812500, -0.452880859375, 68.242187500000, -256.000000000000, -36.609375000000, 1490870618
0.783935546875, -0.426757812500, -0.452880859375, 68.242187500000, -256.000000000000, -36.609375000000, 1490870618
0.899658203125, -0.578857421875, -0.599609375000, 71.851562500000, -256.000000000000, -37.585937500000, 1490870618
0.641113281250, -0.629638671875, -0.688720703125, 87.664062500000, -256.000000000000, -8.476562500000, 1490870618
0.465576171875, -0.521240234375, -0.686767578125, 92.914062500000, -156.070312500000, 5.929687500000, 1490870618
0.465576171875, -0.521240234375, -0.686767578125, 92.914062500000, -156.070312500000, 5.929687500000, 1490870618
0.465576171875, -0.521240234375, -0.686767578125, 92.914062500000, -156.070312500000, 5.929687500000, 1490870618
0.465576171875, -0.521240234375, -0.686767578125, 92.914062500000, -156.070312500000, 5.929687500000, 1490870618
0.481689453125, -0.348144531250, -0.807617187500, 50.367187500000, -96.257812500000, 3.078125000000, 1490870618
0.481689453125, -0.348144531250, -0.807617187500, 50.367187500000, -96.257812500000, 3.078125000000, 1490870618
0.481689453125, -0.348144531250, -0.807617187500, 50.367187500000, -96.257812500000, 3.078125000000, 1490870618
0.481689453125, -0.348144531250, -0.807617187500, 50.367187500000, -96.257812500000, 3.078125000000, 1490870618
0.358886718750, -0.357910156250, -0.931396484375, 36.023437500000, -76.148437500000, -8.210937500000, 1490870618
0.358886718750, -0.357910156250, -0.931396484375, 36.023437500000, -76.148437500000, -8.210937500000, 1490870618
0.358886718750, -0.357910156250, -0.931396484375, 36.023437500000, -76.148437500000, -8.210937500000, 1490870618
0.411865234375, -0.355468750000, -0.892333984375, 37.593750000000, -73.859375000000, 5.398437500000, 1490870618
0.411865234375, -0.355468750000, -0.892333984375, 37.593750000000, -73.859375000000, 5.398437500000, 1490870618
0.464843750000, -0.237060546875, -0.864746093750, 9.664062500000, -8.664062500000, 6.085937500000, 1490870618
0.464843750000, -0.237060546875, -0.864746093750, 9.664062500000, -8.664062500000, 6.085937500000, 1490870618
0.464843750000, -0.237060546875, -0.864746093750, 9.664062500000, -8.664062500000, 6.085937500000, 1490870618
0.464843750000, -0.237060546875, -0.864746093750, 9.664062500000, -8.664062500000, 6.085937500000, 1490870618
0.464843750000, -0.237060546875, -0.864746093750, 9.664062500000, -8.664062500000, 6.085937500000, 1490870618
0.301025390625, -0.337890625000, -0.895263671875, 4.828125000000, 0.960937500000, 1.835937500000, 1490870618
0.301025390625, -0.337890625000, -0.895263671875, 4.828125000000, 0.960937500000, 1.835937500000, 1490870618
0.301025390625, -0.337890625000, -0.895263671875, 4.828125000000, 0.960937500000, 1.835937500000, 1490870618
0.463623046875, -0.301025390625, -0.876464843750, -2.703125000000, 6.570312500000, 4.929687500000, 1490870618
0.463623046875, -0.301025390625, -0.876464843750, -2.703125000000, 6.570312500000, 4.929687500000, 1490870618
0.463623046875, -0.301025390625, -0.876464843750, -2.703125000000, 6.570312500000, 4.929687500000, 1490870618
0.463623046875, -0.301025390625, -0.876464843750, -2.703125000000, 6.570312500000, 4.929687500000, 1490870618
0.571289062500, -0.245117187500, -0.865722656250, -8.375000000000, 11.601562500000, 7.234375000000, 1490870618
0.571289062500, -0.245117187500, -0.865722656250, -8.375000000000, 11.601562500000, 7.234375000000, 1490870618
0.571289062500, -0.245117187500, -0.865722656250, -8.375000000000, 11.601562500000, 7.234375000000, 1490870618
0.380371093750, -0.303955078125, -0.888427734375, -12.796875000000, 11.335937500000, 0.148437500000, 1490870618
0.380371093750, -0.303955078125, -0.888427734375, -12.796875000000, 11.335937500000, 0.148437500000, 1490870618
0.380371093750, -0.303955078125, -0.888427734375, -12.796875000000, 11.335937500000, 0.148437500000, 1490870618
0.428222656250, -0.362792968750, -0.804443359375, -10.898437500000, 10.242187500000, -4.007812500000, 1490870618
0.428222656250, -0.362792968750, -0.804443359375, -10.898437500000, 10.242187500000, -4.007812500000, 1490870618
0.428222656250, -0.362792968750, -0.804443359375, -10.898437500000, 10.242187500000, -4.007812500000, 1490870618
0.463623046875, -0.293457031250, -0.811035156250, -2.679687500000, 16.773437500000, 6.382812500000, 1490870618
0.463623046875, -0.293457031250, -0.811035156250, -2.679687500000, 16.773437500000, 6.382812500000, 1490870619
0.463623046875, -0.293457031250, -0.811035156250, -2.679687500000, 16.773437500000, 6.382812500000, 1490870619
0.463623046875, -0.293457031250, -0.811035156250, -2.679687500000, 16.773437500000, 6.382812500000, 1490870619
0.515380859375, -0.317626953125, -0.811523437500, -1.359375000000, 13.968750000000, 4.851562500000, 1490870619
0.515380859375, -0.317626953125, -0.811523437500, -1.359375000000, 13.968750000000, 4.851562500000, 1490870619
0.515380859375, -0.317626953125, -0.811523437500, -1.359375000000, 13.968750000000, 4.851562500000, 1490870619
0.429931640625, -0.340087890625, -0.885986328125, 1.171875000000, 11.710937500000, 8.031250000000, 1490870619
0.429931640625, -0.340087890625, -0.885986328125, 1.171875000000, 11.710937500000, 8.031250000000, 1490870619
0.429931640625, -0.340087890625, -0.885986328125, 1.171875000000, 11.710937500000, 8.031250000000, 1490870619
0.435302734375, -0.323730468750, -0.885986328125, -6.984375000000, 8.820312500000, 1.507812500000, 1490870619
0.435302734375, -0.323730468750, -0.885986328125, -6.984375000000, 8.820312500000, 1.507812500000, 1490870619
0.435302734375, -0.323730468750, -0.885986328125, -6.984375000000, 8.820312500000, 1.507812500000, 1490870619
0.459960937500, -0.269775390625, -0.799072265625, -8.156250000000, 3.742187500000, -2.523437500000, 1490870619
0.459960937500, -0.269775390625, -0.799072265625, -8.156250000000, 3.742187500000, -2.523437500000, 1490870619
0.459960937500, -0.269775390625, -0.799072265625, -8.156250000000, 3.742187500000, -2.523437500000, 1490870619
0.459960937500, -0.269775390625, -0.799072265625, -8.156250000000, 3.742187500000, -2.523437500000, 1490870619
0.428955078125, -0.312500000000, -0.745849609375, -6.187500000000, 3.312500000000, 1.671875000000, 1490870619
0.428955078125, -0.312500000000, -0.745849609375, -6.187500000000, 3.312500000000, 1.671875000000, 1490870619
0.428955078125, -0.312500000000, -0.745849609375, -6.187500000000, 3.312500000000, 1.671875000000, 1490870619
0.497070312500, -0.391357421875, -0.798828125000, -4.171875000000, 2.546875000000, -2.523437500000, 1490870619
0.497070312500, -0.391357421875, -0.798828125000, -4.171875000000, 2.546875000000, -2.523437500000, 1490870619
0.497070312500, -0.391357421875, -0.798828125000, -4.171875000000, 2.546875000000, -2.523437500000, 1490870619
0.493896484375, -0.292480468750, -0.855957031250, -4.468750000000, -1.117187500000, -1.093750000000, 1490870619
0.493896484375, -0.292480468750, -0.855957031250, -4.468750000000, -1.117187500000, -1.093750000000, 1490870619
0.493896484375, -0.292480468750, -0.855957031250, -4.468750000000, -1.117187500000, -1.093750000000, 1490870619
0.510009765625, -0.231933593750, -0.787597656250, -1.531250000000, -4.953125000000, -2.234375000000, 1490870619
0.510009765625, -0.231933593750, -0.787597656250, -1.531250000000, -4.953125000000, -2.234375000000, 1490870619
0.510009765625, -0.231933593750, -0.787597656250, -1.531250000000, -4.953125000000, -2.234375000000, 1490870619
0.510009765625, -0.231933593750, -0.787597656250, -1.531250000000, -4.953125000000, -2.234375000000, 1490870619
0.504150390625, -0.343261718750, -0.833984375000, -2.320312500000, -6.179687500000, -1.664062500000, 1490870619
0.504150390625, -0.343261718750, -0.833984375000, -2.320312500000, -6.179687500000, -1.664062500000, 1490870619
0.504150390625, -0.343261718750, -0.833984375000, -2.320312500000, -6.179687500000, -1.664062500000, 1490870619
0.432617187500, -0.233398437500, -0.885986328125, 0.062500000000, -6.343750000000, -2.476562500000, 1490870619
0.432617187500, -0.233398437500, -0.885986328125, 0.062500000000, -6.343750000000, -2.476562500000, 1490870619
0.432617187500, -0.233398437500, -0.885986328125, 0.062500000000, -6.343750000000, -2.476562500000, 1490870619
0.420166015625, -0.323974609375, -0.844238281250, -2.250000000000, -3.601562500000, -2.031250000000, 1490870619
0.420166015625, -0.323974609375, -0.844238281250, -2.250000000000, -3.601562500000, -2.031250000000, 1490870619
0.420166015625, -0.323974609375, -0.844238281250, -2.250000000000, -3.601562500000, -2.031250000000, 1490870619
0.437500000000, -0.242431640625, -0.872314453125, -4.320312500000, -2.296875000000, -4.210937500000, 1490870619
0.437500000000, -0.242431640625, -0.872314453125, -4.320312500000, -2.296875000000, -4.210937500000, 1490870619
0.437500000000, -0.242431640625, -0.872314453125, -4.320312500000, -2.296875000000, -4.210937500000, 1490870619
0.437500000000, -0.242431640625, -0.872314453125, -4.320312500000, -2.296875000000, -4.210937500000, 1490870619
0.505371093750, -0.367431640625, -0.914062500000, -4.523437500000, 2.195312500000, -4.734375000000, 1490870619
0.505371093750, -0.367431640625, -0.914062500000, -4.523437500000, 2.195312500000, -4.734375000000, 1490870619
0.505371093750, -0.367431640625, -0.914062500000, -4.523437500000, 2.195312500000, -4.734375000000, 1490870619
0.424560546875, -0.292724609375, -0.821044921875, -4.695312500000, 2.875000000000, -2.234375000000, 1490870619
0.424560546875, -0.292724609375, -0.821044921875, -4.695312500000, 2.875000000000, -2.234375000000, 1490870619
0.424560546875, -0.292724609375, -0.821044921875, -4.695312500000, 2.875000000000, -2.234375000000, 1490870619
0.488037109375, -0.387695312500, -0.895507812500, -3.117187500000, 2.835937500000, 0.914062500000, 1490870619
0.488037109375, -0.387695312500, -0.895507812500, -3.117187500000, 2.835937500000, 0.914062500000, 1490870619
0.488037109375, -0.387695312500, -0.895507812500, -3.117187500000, 2.835937500000, 0.914062500000, 1490870619
0.440917968750, -0.333740234375, -0.797851562500, -4.953125000000, 4.312500000000, -1.382812500000, 1490870619
0.440917968750, -0.333740234375, -0.797851562500, -4.953125000000, 4.312500000000, -1.382812500000, 1490870619
0.440917968750, -0.333740234375, -0.797851562500, -4.953125000000, 4.312500000000, -1.382812500000, 1490870619
0.440917968750, -0.333740234375, -0.797851562500, -4.953125000000, 4.312500000000, -1.382812500000, 1490870619
0.522216796875, -0.380615234375, -0.890869140625, -3.132812500000, 1.218750000000, -0.664062500000, 1490870619
0.522216796875, -0.380615234375, -0.890869140625, -3.132812500000, 1.218750000000, -0.664062500000, 1490870619
0.522216796875, -0.380615234375, -0.890869140625, -3.132812500000, 1.218750000000, -0.664062500000, 1490870619
0.432861328125, -0.322021484375, -0.887207031250, -4.320312500000, 2.109375000000, -1.164062500000, 1490870619
0.432861328125, -0.322021484375, -0.887207031250, -4.320312500000, 2.109375000000, -1.164062500000, 1490870619
0.432861328125, -0.322021484375, -0.887207031250, -4.320312500000, 2.109375000000, -1.164062500000, 1490870619
0.487304687500, -0.300048828125, -0.782958984375, -1.984375000000, 0.632812500000, -3.101562500000, 1490870619
0.487304687500, -0.300048828125, -0.782958984375, -1.984375000000, 0.632812500000, -3.101562500000, 1490870619
0.487304687500, -0.300048828125, -0.782958984375, -1.984375000000, 0.632812500000, -3.101562500000, 1490870619
0.502929687500, -0.331298828125, -0.792968750000, -1.812500000000, -1.492187500000, -3.523437500000, 1490870619
0.502929687500, -0.331298828125, -0.792968750000, -1.812500000000, -1.492187500000, -3.523437500000, 1490870619
0.502929687500, -0.331298828125, -0.792968750000, -1.812500000000, -1.492187500000, -3.523437500000, 1490870619
0.502929687500, -0.331298828125, -0.792968750000, -1.812500000000, -1.492187500000, -3.523437500000, 1490870619
0.352783203125, -0.299560546875, -0.790527343750, -4.695312500000, 0.015625000000, -2.554687500000, 1490870620
0.352783203125, -0.299560546875, -0.790527343750, -4.695312500000, 0.015625000000, -2.554687500000, 1490870620
0.352783203125, -0.299560546875, -0.790527343750, -4.695312500000, 0.015625000000, -2.554687500000, 1490870620
0.502441406250, -0.285156250000, -0.833984375000, -4.789062500000, 0.414062500000, -4.968750000000, 1490870620
0.502441406250, -0.285156250000, -0.833984375000, -4.789062500000, 0.414062500000, -4.968750000000, 1490870620
0.502441406250, -0.285156250000, -0.833984375000, -4.789062500000, 0.414062500000, -4.968750000000, 1490870620
0.451171875000, -0.305664062500, -0.838867187500, -4.398437500000, -0.820312500000, -1.859375000000, 1490870620
0.529052734375, -0.304443359375, -0.909912109375, -4.703125000000, -0.773437500000, -1.734375000000, 1490870620
0.529052734375, -0.304443359375, -0.909912109375, -4.703125000000, -0.773437500000, -1.734375000000, 1490870620
0.529052734375, -0.304443359375, -0.909912109375, -4.703125000000, -0.773437500000, -1.734375000000, 1490870620
0.529052734375, -0.304443359375, -0.909912109375, -3.601562500000, 2.085937500000, -4.968750000000, 1490870620
0.436035156250, -0.327148437500, -0.803466796875, -4.765625000000, -0.789062500000, -4.578125000000, 1490870620
0.436035156250, -0.327148437500, -0.803466796875, -4.765625000000, -0.789062500000, -4.578125000000, 1490870620
0.436035156250, -0.327148437500, -0.803466796875, -4.765625000000, -0.789062500000, -4.578125000000, 1490870620
0.436035156250, -0.327148437500, -0.803466796875, -4.765625000000, -0.789062500000, -4.578125000000, 1490870620
0.436035156250, -0.327148437500, -0.803466796875, -4.765625000000, -0.789062500000, -4.578125000000, 1490870620
0.437255859375, -0.383789062500, -0.793945312500, -3.523437500000, -0.578125000000, 0.828125000000, 1490870620
0.437255859375, -0.383789062500, -0.793945312500, -3.523437500000, -0.578125000000, 0.828125000000, 1490870620
0.437255859375, -0.383789062500, -0.793945312500, -3.523437500000, -0.578125000000, 0.828125000000, 1490870620
0.487060546875, -0.297363281250, -0.807373046875, -1.132812500000, -0.804687500000, -1.164062500000, 1490870620
0.441162109375, -0.223388671875, -0.900390625000, -4.085937500000, -0.609375000000, -4.601562500000, 1490870620
0.441162109375, -0.223388671875, -0.900390625000, -4.085937500000, -0.609375000000, -4.601562500000, 1490870620
0.441162109375, -0.223388671875, -0.900390625000, -4.085937500000, -0.609375000000, -4.601562500000, 1490870620
0.441162109375, -0.223388671875, -0.900390625000, -4.085937500000, -0.609375000000, -4.601562500000, 1490870620
0.441162109375, -0.223388671875, -0.900390625000, -4.085937500000, -0.609375000000, -4.601562500000, 1490870620
0.441162109375, -0.223388671875, -0.900390625000, -4.085937500000, -0.609375000000, -4.601562500000, 1490870620
0.465087890625, -0.319824218750, -0.828857421875, -4.593750000000, -0.914062500000, -1.203125000000, 1490870620
0.465087890625, -0.319824218750, -0.828857421875, -4.593750000000, -0.914062500000, -1.203125000000, 1490870620
0.465087890625, -0.319824218750, -0.828857421875, -4.593750000000, -0.914062500000, -1.203125000000, 1490870620
0.473144531250, -0.312744140625, -0.808105468750, -2.679687500000, -2.976562500000, 0.000000000000, 1490870620
0.473144531250, -0.312744140625, -0.808105468750, -2.679687500000, -2.976562500000, 0.000000000000, 1490870620
0.473144531250, -0.312744140625, -0.808105468750, -2.679687500000, -2.976562500000, 0.000000000000, 1490870620
0.410644531250, -0.302001953125, -0.887451171875, -4.437500000000, -2.953125000000, -1.398437500000, 1490870620
0.410644531250, -0.302001953125, -0.887451171875, -4.437500000000, -2.953125000000, -1.398437500000, 1490870620
0.410644531250, -0.302001953125, -0.887451171875, -4.437500000000, -2.953125000000, -1.398437500000, 1490870620
0.421630859375, -0.288085937500, -0.901855468750, -4.101562500000, 0.164062500000, -4.367187500000, 1490870620
0.421630859375, -0.288085937500, -0.901855468750, -4.101562500000, 0.164062500000, -4.367187500000, 1490870620
0.421630859375, -0.288085937500, -0.901855468750, -4.101562500000, 0.164062500000, -4.367187500000, 1490870620
0.421630859375, -0.288085937500, -0.901855468750, -4.101562500000, 0.164062500000, -4.367187500000, 1490870620
0.514160156250, -0.273925781250, -0.788330078125, -3.023437500000, 0.242187500000, -2.695312500000, 1490870620
0.514160156250, -0.273925781250, -0.788330078125, -3.023437500000, 0.242187500000, -2.695312500000, 1490870620
0.514160156250, -0.273925781250, -0.788330078125, -3.023437500000, 0.242187500000, -2.695312500000, 1490870620
0.426513671875, -0.289794921875, -0.787353515625, -3.273437500000, -0.742187500000, -1.609375000000, 1490870620
0.426513671875, -0.289794921875, -0.787353515625, -3.273437500000, -0.742187500000, -1.609375000000, 1490870620
0.426513671875, -0.289794921875, -0.787353515625, -3.273437500000, -0.742187500000, -1.609375000000, 1490870620
0.415771484375, -0.238525390625, -0.856201171875, -3.281250000000, 2.523437500000, 0.546875000000, 1490870620
0.415771484375, -0.238525390625, -0.856201171875, -3.281250000000, 2.523437500000, 0.546875000000, 1490870620
0.415771484375, -0.238525390625, -0.856201171875, -3.281250000000, 2.523437500000, 0.546875000000, 1490870620
0.519531250000, -0.339355468750, -0.795410156250, -4.453125000000, -2.203125000000, -1.453125000000, 1490870620
0.519531250000, -0.339355468750, -0.795410156250, -4.453125000000, -2.203125000000, -1.453125000000, 1490870620
0.519531250000, -0.339355468750, -0.795410156250, -4.453125000000, -2.203125000000, -1.453125000000, 1490870620
0.519531250000, -0.339355468750, -0.795410156250, -4.453125000000, -2.203125000000, -1.453125000000, 1490870620
0.352294921875, -0.398193359375, -0.875000000000, -4.031250000000, -0.046875000000, -4.414062500000, 1490870620
0.352294921875, -0.398193359375, -0.875000000000, -4.031250000000, -0.046875000000, -4.414062500000, 1490870620
0.352294921875, -0.398193359375, -0.875000000000, -4.031250000000, -0.046875000000, -4.414062500000, 1490870620
0.467041015625, -0.338867187500, -0.794921875000, -3.546875000000, 0.953125000000, -4.226562500000, 1490870620
0.467041015625, -0.338867187500, -0.794921875000, -3.546875000000, 0.953125000000, -4.226562500000, 1490870620
0.467041015625, -0.338867187500, -0.794921875000, -3.546875000000, 0.953125000000, -4.226562500000, 1490870620
0.418457031250, -0.170166015625, -0.885253906250, -4.703125000000, -2.625000000000, -4.070312500000, 1490870620
0.418457031250, -0.170166015625, -0.885253906250, -4.703125000000, -2.625000000000, -4.070312500000, 1490870620
0.418457031250, -0.170166015625, -0.885253906250, -4.703125000000, -2.625000000000, -4.070312500000, 1490870620
0.486572265625, -0.314208984375, -0.863281250000, -1.804687500000, -0.718750000000, -3.226562500000, 1490870620
0.486572265625, -0.314208984375, -0.863281250000, -1.804687500000, -0.718750000000, -3.226562500000, 1490870620
0.486572265625, -0.314208984375, -0.863281250000, -1.804687500000, -0.718750000000, -3.226562500000, 1490870620
0.486572265625, -0.314208984375, -0.863281250000, -1.804687500000, -0.718750000000, -3.226562500000, 1490870620
0.455322265625, -0.313720703125, -0.864990234375, -4.117187500000, -0.789062500000, -4.757812500000, 1490870620
0.455322265625, -0.313720703125, -0.864990234375, -4.117187500000, -0.789062500000, -4.757812500000, 1490870621
0.455322265625, -0.313720703125, -0.864990234375, -4.117187500000, -0.789062500000, -4.757812500000, 1490870621
0.518310546875, -0.243408203125, -0.950439453125, -2.898437500000, -2.125000000000, 0.640625000000, 1490870621
0.518310546875, -0.243408203125, -0.950439453125, -2.898437500000, -2.125000000000, 0.640625000000, 1490870621
0.518310546875, -0.243408203125, -0.950439453125, -2.898437500000, -2.125000000000, 0.640625000000, 1490870621
0.436035156250, -0.233886718750, -0.848388671875, -4.367187500000, 1.390625000000, -4.218750000000, 1490870621
0.436035156250, -0.233886718750, -0.848388671875, -4.367187500000, 1.390625000000, -4.218750000000, 1490870621
0.436035156250, -0.233886718750, -0.848388671875, -4.367187500000, 1.390625000000, -4.218750000000, 1490870621
0.497070312500, -0.218994140625, -0.852050781250, -6.210937500000, -0.757812500000, -1.585937500000, 1490870621
0.497070312500, -0.218994140625, -0.852050781250, -6.210937500000, -0.757812500000, -1.585937500000, 1490870621
0.497070312500, -0.218994140625, -0.852050781250, -6.210937500000, -0.757812500000, -1.585937500000, 1490870621
0.410888671875, -0.271972656250, -0.870849609375, -3.484375000000, 2.156250000000, -1.250000000000, 1490870621
0.459228515625, -0.246093750000, -0.876953125000, -3.242187500000, -0.664062500000, -2.031250000000, 1490870621
0.459228515625, -0.246093750000, -0.876953125000, -3.242187500000, -0.664062500000, -2.031250000000, 1490870621
0.459228515625, -0.246093750000, -0.876953125000, -4.507812500000, -0.757812500000, -4.929687500000, 1490870621
0.417480468750, -0.242431640625, -0.893798828125, -1.781250000000, 0.492187500000, -0.445312500000, 1490870621
0.417480468750, -0.242431640625, -0.893798828125, -1.781250000000, 0.492187500000, -0.445312500000, 1490870621
0.417480468750, -0.242431640625, -0.893798828125, -1.781250000000, 0.492187500000, -0.445312500000, 1490870621
0.491943359375, -0.298339843750, -0.889892578125, -4.523437500000, 0.484375000000, -3.539062500000, 1490870621
0.491943359375, -0.298339843750, -0.889892578125, -4.523437500000, 0.484375000000, -3.539062500000, 1490870621
0.491943359375, -0.298339843750, -0.889892578125, -4.523437500000, 0.484375000000, -3.539062500000, 1490870621
0.477050781250, -0.287353515625, -0.812255859375, -2.328125000000, 0.125000000000, -2.523437500000, 1490870621
0.477050781250, -0.287353515625, -0.812255859375, -2.328125000000, 0.125000000000, -2.523437500000, 1490870621
0.477050781250, -0.287353515625, -0.812255859375, -2.328125000000, 0.125000000000, -2.523437500000, 1490870621
0.477050781250, -0.287353515625, -0.812255859375, -2.328125000000, 0.125000000000, -2.523437500000, 1490870621
0.481933593750, -0.323730468750, -0.786865234375, -1.773437500000, 0.929687500000, -4.125000000000, 1490870621
0.427734375000, -0.292968750000, -0.784912109375, -4.875000000000, 0.000000000000, -1.656250000000, 1490870621
0.427734375000, -0.292968750000, -0.784912109375, -4.875000000000, 0.000000000000, -1.656250000000, 1490870621
0.484619140625, -0.343750000000, -0.844970703125, -4.242187500000, 2.304687500000, -2.820312500000, 1490870621
0.484619140625, -0.343750000000, -0.844970703125, -4.242187500000, 2.304687500000, -2.820312500000, 1490870621
0.484619140625, -0.343750000000, -0.844970703125, -4.484375000000, 0.054687500000, -1.265625000000, 1490870621
