ACC_X,ACC_Y,ACC_Z,G_X,G_Y,G_Z,Unix Time
-0.062255859375, -1.263427734375, 0.118408203125, -153.273437500000, -7.492187500000, -32.023437500000, 1490870308
-0.062255859375, -1.263427734375, 0.118408203125, -153.273437500000, -7.492187500000, -32.023437500000, 1490870308
-0.062255859375, -1.263427734375, 0.118408203125, -153.273437500000, -7.492187500000, -32.023437500000, 1490870308
0.072998046875, -1.194091796875, 0.234130859375, -104.156250000000, -46.851562500000, -16.710937500000, 1490870308
0.072998046875, -1.194091796875, 0.234130859375, -104.156250000000, -46.851562500000, -16.710937500000, 1490870308
0.072998046875, -1.194091796875, 0.234130859375, -104.156250000000, -46.851562500000, -16.710937500000, 1490870308
0.016113281250, -0.918701171875, 0.263183593750, -71.562500000000, 13.742187500000, -40.218750000000, 1490870308
0.016113281250, -0.918701171875, 0.263183593750, -71.562500000000, 13.742187500000, -40.218750000000, 1490870309
0.016113281250, -0.918701171875, 0.263183593750, -71.562500000000, 13.742187500000, -40.218750000000, 1490870309
0.016113281250, -0.918701171875, 0.263183593750, -71.562500000000, 13.742187500000, -40.218750000000, 1490870309
-0.155761718750, -0.709228515625, 0.106933593750, -18.054687500000, 67.953125000000, 17.156250000000, 1490870309
-0.155761718750, -0.709228515625, 0.106933593750, -18.054687500000, 67.953125000000, 17.156250000000, 1490870309
-0.155761718750, -0.709228515625, 0.106933593750, -18.054687500000, 67.953125000000, 17.156250000000, 1490870309
-0.086669921875, -0.590332031250, 0.135253906250, 11.796875000000, 50.875000000000, 5.250000000000, 1490870309
-0.086669921875, -0.590332031250, 0.135253906250, 11.796875000000, 50.875000000000, 5.250000000000, 1490870309
-0.086669921875, -0.590332031250, 0.135253906250, 11.796875000000, 50.875000000000, 5.250000000000, 1490870309
-0.064208984375, -0.519042968750, 0.083984375000, 48.984375000000, 5.445312500000, -10.968750000000, 1490870309
-0.064208984375, -0.519042968750, 0.083984375000, 48.984375000000, 5.445312500000, -10.968750000000, 1490870309
-0.064208984375, -0.519042968750, 0.083984375000, 48.984375000000, 5.445312500000, -10.968750000000, 1490870309
-0.070312500000, -0.527587890625, 0.090087890625, 64.289062500000, -5.234375000000, -5.789062500000, 1490870309
0.088623046875, -1.240722656250, 0.272460937500, 112.343750000000, -119.234375000000, 28.429687500000, 1490870309
0.088623046875, -1.240722656250, 0.272460937500, 112.343750000000, -119.234375000000, 28.429687500000, 1490870309
0.088623046875, -1.240722656250, 0.272460937500, 112.343750000000, -119.234375000000, 28.429687500000, 1490870309
0.088623046875, -1.240722656250, 0.272460937500, 112.343750000000, -119.234375000000, 28.429687500000, 1490870309
0.083007812500, -1.463134765625, 0.337890625000, 124.148437500000, -102.109375000000, 40.687500000000, 1490870309
0.083007812500, -1.463134765625, 0.337890625000, 124.148437500000, -102.109375000000, 40.687500000000, 1490870309
0.083007812500, -1.463134765625, 0.337890625000, 124.148437500000, -102.109375000000, 40.687500000000, 1490870309
0.083007812500, -1.463134765625, 0.337890625000, 124.148437500000, -102.109375000000, 40.687500000000, 1490870309
0.083007812500, -1.463134765625, 0.337890625000, 124.148437500000, -102.109375000000, 40.687500000000, 1490870309
-0.389892578125, -1.350585937500, 1.070556640625, 157.906250000000, 7.742187500000, 70.117187500000, 1490870309
-0.389892578125, -1.350585937500, 1.070556640625, 157.906250000000, 7.742187500000, 70.117187500000, 1490870309
-0.389892578125, -1.350585937500, 1.070556640625, 157.906250000000, 7.742187500000, 70.117187500000, 1490870309
-0.030517578125, -1.426269531250, 0.580078125000, -138.117187500000, 69.250000000000, 42.265625000000, 1490870309
-0.030517578125, -1.426269531250, 0.580078125000, -138.117187500000, 69.250000000000, 42.265625000000, 1490870309
-0.030517578125, -1.426269531250, 0.580078125000, -138.117187500000, 69.250000000000, 42.265625000000, 1490870309
-0.030517578125, -1.426269531250, 0.580078125000, -138.117187500000, 69.250000000000, 42.265625000000, 1490870309
0.168457031250, -1.093994140625, 0.169189453125, -178.015625000000, 90.109375000000, 28.250000000000, 1490870309
0.168457031250, -1.093994140625, 0.169189453125, -178.015625000000, 90.109375000000, 28.250000000000, 1490870309
0.168457031250, -1.093994140625, 0.169189453125, -178.015625000000, 90.109375000000, 28.250000000000, 1490870309
0.231689453125, -1.085937500000, 0.176269531250, -134.015625000000, 100.906250000000, 3.906250000000, 1490870309
0.231689453125, -1.085937500000, 0.176269531250, -134.015625000000, 100.906250000000, 3.906250000000, 1490870309
0.231689453125, -1.085937500000, 0.176269531250, -134.015625000000, 100.906250000000, 3.906250000000, 1490870309
0.238037109375, -0.730224609375, 0.115966796875, -58.476562500000, -13.648437500000, 11.937500000000, 1490870309
0.238037109375, -0.730224609375, 0.115966796875, -58.476562500000, -13.648437500000, 11.937500000000, 1490870309
0.238037109375, -0.730224609375, 0.115966796875, -58.476562500000, -13.648437500000, 11.937500000000, 1490870309
0.238037109375, -0.730224609375, 0.115966796875, -58.476562500000, -13.648437500000, 11.937500000000, 1490870309
0.238037109375, -0.730224609375, 0.115966796875, -37.984375000000, -2.875000000000, 18.414062500000, 1490870309
0.162841796875, -0.607421875000, 0.204833984375, -0.898437500000, 55.992187500000, 6.601562500000, 1490870309
0.162841796875, -0.607421875000, 0.204833984375, -0.898437500000, 55.992187500000, 6.601562500000, 1490870309
0.162841796875, -0.607421875000, 0.204833984375, -0.898437500000, 55.992187500000, 6.601562500000, 1490870309
0.162841796875, -0.607421875000, 0.204833984375, -0.898437500000, 55.992187500000, 6.601562500000, 1490870309
0.106445312500, -0.497070312500, 0.104980468750, 41.460937500000, 57.867187500000, 26.523437500000, 1490870309
0.106445312500, -0.497070312500, 0.104980468750, 41.460937500000, 57.867187500000, 26.523437500000, 1490870309
0.106445312500, -0.497070312500, 0.104980468750, 41.460937500000, 57.867187500000, 26.523437500000, 1490870309
0.106445312500, -0.497070312500, 0.104980468750, 41.460937500000, 57.867187500000, 26.523437500000, 1490870309
-0.000732421875, -0.483642578125, 0.155029296875, 59.250000000000, 40.937500000000, 12.468750000000, 1490870309
-0.000732421875, -0.483642578125, 0.155029296875, 59.250000000000, 40.937500000000, 12.468750000000, 1490870309
-0.000732421875, -0.483642578125, 0.155029296875, 59.250000000000, 40.937500000000, 12.468750000000, 1490870309
0.065673828125, -0.694335937500, 0.171142578125, 169.679687500000, 24.914062500000, 33.585937500000, 1490870309
0.315429687500, -1.197509765625, 1.382080078125, 95.804687500000, -115.007812500000, -30.054687500000, 1490870309
0.315429687500, -1.197509765625, 1.382080078125, 95.804687500000, -115.007812500000, -30.054687500000, 1490870309
0.053222656250, -1.191650390625, 0.506103515625, -47.382812500000, 88.539062500000, -15.054687500000, 1490870309
0.053222656250, -1.191650390625, 0.506103515625, -47.382812500000, 88.539062500000, -15.054687500000, 1490870309
0.053222656250, -1.191650390625, 0.506103515625, -47.382812500000, 88.539062500000, -15.054687500000, 1490870309
0.053222656250, -1.191650390625, 0.506103515625, -47.382812500000, 88.539062500000, -15.054687500000, 1490870309
0.053222656250, -1.191650390625, 0.506103515625, -47.382812500000, 88.539062500000, -15.054687500000, 1490870309
0.053222656250, -1.191650390625, 0.506103515625, -47.382812500000, 88.539062500000, -15.054687500000, 1490870309
0.053222656250, -1.191650390625, 0.506103515625, -47.382812500000, 88.539062500000, -15.054687500000, 1490870309
-0.111083984375, -1.296630859375, 0.270507812500, -66.148437500000, 40.906250000000, -61.187500000000, 1490870309
-0.111083984375, -1.296630859375, 0.270507812500, -66.148437500000, 40.906250000000, -61.187500000000, 1490870309
-0.111083984375, -1.296630859375, 0.270507812500, -66.148437500000, 40.906250000000, -61.187500000000, 1490870309
-0.111083984375, -1.296630859375, 0.270507812500, -66.148437500000, 40.906250000000, -61.187500000000, 1490870309
-0.111083984375, -1.296630859375, 0.270507812500, -66.148437500000, 40.906250000000, -61.187500000000, 1490870309
-0.111083984375, -1.296630859375, 0.270507812500, -66.148437500000, 40.906250000000, -61.187500000000, 1490870310
-0.007812500000, -1.206298828125, 0.333007812500, -68.039062500000, 62.179687500000, -50.062500000000, 1490870310
-0.007812500000, -1.206298828125, 0.333007812500, -68.039062500000, 62.179687500000, -50.062500000000, 1490870310
-0.007812500000, -1.206298828125, 0.333007812500, -68.039062500000, 62.179687500000, -50.062500000000, 1490870310
-0.007812500000, -1.206298828125, 0.333007812500, -68.039062500000, 62.179687500000, -50.062500000000, 1490870310
-0.019531250000, -1.072998046875, 0.208251953125, -61.273437500000, 68.031250000000, -35.945312500000, 1490870310
0.017089843750, -1.026611328125, 0.181152343750, -96.468750000000, -0.421875000000, -55.734375000000, 1490870310
0.017089843750, -1.026611328125, 0.181152343750, -96.468750000000, -0.421875000000, -55.734375000000, 1490870310
0.017089843750, -1.026611328125, 0.181152343750, -96.468750000000, -0.421875000000, -55.734375000000, 1490870310
0.017089843750, -1.026611328125, 0.181152343750, -96.468750000000, -0.421875000000, -55.734375000000, 1490870310
-0.159667968750, -1.188720703125, 0.154785156250, -32.335937500000, -55.343750000000, -36.109375000000, 1490870310
-0.159667968750, -1.188720703125, 0.154785156250, -32.335937500000, -55.343750000000, -36.109375000000, 1490870310
-0.159667968750, -1.188720703125, 0.154785156250, -32.335937500000, -55.343750000000, -36.109375000000, 1490870310
-0.384521484375, -0.998291015625, 0.207519531250, 20.835937500000, -46.414062500000, -21.460937500000, 1490870310
-0.384521484375, -0.998291015625, 0.207519531250, 20.835937500000, -46.414062500000, -21.460937500000, 1490870310
-0.384521484375, -0.998291015625, 0.207519531250, 20.835937500000, -46.414062500000, -21.460937500000, 1490870310
-0.384521484375, -0.998291015625, 0.207519531250, 20.835937500000, -46.414062500000, -21.460937500000, 1490870310
-0.384521484375, -0.998291015625, 0.207519531250, 20.835937500000, -46.414062500000, -21.460937500000, 1490870310
-0.236328125000, -0.745849609375, 0.125488281250, 67.320312500000, -14.953125000000, 14.953125000000, 1490870310
-0.236328125000, -0.745849609375, 0.125488281250, 67.320312500000, -14.953125000000, 14.953125000000, 1490870310
-0.236328125000, -0.745849609375, 0.125488281250, 67.320312500000, -14.953125000000, 14.953125000000, 1490870310
-0.127929687500, -0.718017578125, 0.261718750000, 112.031250000000, -80.007812500000, 0.265625000000, 1490870310
-0.127929687500, -0.718017578125, 0.261718750000, 112.031250000000, -80.007812500000, 0.265625000000, 1490870310
-0.127929687500, -0.718017578125, 0.261718750000, 112.031250000000, -80.007812500000, 0.265625000000, 1490870310
0.052001953125, -0.582031250000, 0.521484375000, 38.992187500000, -253.687500000000, -16.273437500000, 1490870310
0.052001953125, -0.582031250000, 0.521484375000, 38.992187500000, -253.687500000000, -16.273437500000, 1490870310
0.052001953125, -0.582031250000, 0.521484375000, 38.992187500000, -253.687500000000, -16.273437500000, 1490870310
0.052001953125, -0.582031250000, 0.521484375000, 38.992187500000, -253.687500000000, -16.273437500000, 1490870310
0.204833984375, -0.582031250000, 0.635742187500, 42.437500000000, -3.140625000000, -0.703125000000, 1490870310
0.204833984375, -0.582031250000, 0.635742187500, 42.437500000000, -3.140625000000, -0.703125000000, 1490870310
-0.088378906250, -1.012695312500, 0.234619140625, -32.828125000000, 0.562500000000, 13.296875000000, 1490870310
-0.088378906250, -1.012695312500, 0.234619140625, -32.828125000000, 0.562500000000, 13.296875000000, 1490870310
-0.088378906250, -1.012695312500, 0.234619140625, -32.828125000000, 0.562500000000, 13.296875000000, 1490870310
-0.088378906250, -1.012695312500, 0.234619140625, -32.828125000000, 0.562500000000, 13.296875000000, 1490870310
0.022216796875, -1.337402343750, 0.253417968750, -4.296875000000, 15.179687500000, 45.617187500000, 1490870310
0.213623046875, -1.441650390625, 0.327148437500, -4.296875000000, 15.179687500000, 45.617187500000, 1490870310
0.213623046875, -1.441650390625, 0.327148437500, -4.296875000000, 15.179687500000, 45.617187500000, 1490870310
0.213623046875, -1.441650390625, 0.327148437500, -4.296875000000, 15.179687500000, 45.617187500000, 1490870310
0.145263671875, -1.363281250000, 0.508789062500, -25.273437500000, 26.351562500000, 72.492187500000, 1490870310
0.145263671875, -1.363281250000, 0.508789062500, -25.273437500000, 26.351562500000, 72.492187500000, 1490870310
0.145263671875, -1.363281250000, 0.508789062500, -25.273437500000, 26.351562500000, 72.492187500000, 1490870310
0.145263671875, -1.363281250000, 0.508789062500, -25.273437500000, 26.351562500000, 72.492187500000, 1490870310
0.145263671875, -1.363281250000, 0.508789062500, -25.273437500000, 26.351562500000, 72.492187500000, 1490870310
0.145263671875, -1.363281250000, 0.508789062500, -25.273437500000, 26.351562500000, 72.492187500000, 1490870310
0.006591796875, -0.909667968750, 0.122802734375, -67.593750000000, 98.171875000000, 61.914062500000, 1490870310
0.006591796875, -0.909667968750, 0.122802734375, -67.593750000000, 98.171875000000, 61.914062500000, 1490870310
0.006591796875, -0.909667968750, 0.122802734375, -67.593750000000, 98.171875000000, 61.914062500000, 1490870310
0.151123046875, -1.077636718750, 0.168945312500, -112.179687500000, 10.570312500000, -13.156250000000, 1490870310
0.151123046875, -1.077636718750, 0.168945312500, -112.179687500000, 10.570312500000, -13.156250000000, 1490870310
0.151123046875, -1.077636718750, 0.168945312500, -112.179687500000, 10.570312500000, -13.156250000000, 1490870310
0.113281250000, -0.925537109375, 0.207519531250, -76.351562500000, -7.187500000000, -23.039062500000, 1490870310
0.113281250000, -0.925537109375, 0.207519531250, -76.351562500000, -7.187500000000, -23.039062500000, 1490870310
0.113281250000, -0.925537109375, 0.207519531250, -76.351562500000, -7.187500000000, -23.039062500000, 1490870310
0.113281250000, -0.925537109375, 0.207519531250, -76.351562500000, -7.187500000000, -23.039062500000, 1490870310
0.110595703125, -0.982421875000, 0.279541015625, -32.062500000000, 28.210937500000, 4.421875000000, 1490870310
0.110595703125, -0.982421875000, 0.279541015625, -32.062500000000, 28.210937500000, 4.421875000000, 1490870310
0.110595703125, -0.982421875000, 0.279541015625, -32.062500000000, 28.210937500000, 4.421875000000, 1490870310
0.253906250000, -0.864501953125, 0.261230468750, 36.273437500000, 58.554687500000, 14.273437500000, 1490870310
0.253906250000, -0.864501953125, 0.261230468750, 36.273437500000, 58.554687500000, 14.273437500000, 1490870310
0.117919921875, -0.664062500000, 0.057128906250, 63.703125000000, 14.046875000000, 9.500000000000, 1490870310
0.117919921875, -0.664062500000, 0.057128906250, 63.703125000000, 14.046875000000, 9.500000000000, 1490870310
0.117919921875, -0.664062500000, 0.057128906250, 63.703125000000, 14.046875000000, 9.500000000000, 1490870310
0.117919921875, -0.664062500000, 0.057128906250, 63.703125000000, 14.046875000000, 9.500000000000, 1490870310
-0.080566406250, -0.660888671875, 0.447021484375, 112.031250000000, -98.320312500000, 7.148437500000, 1490870310
-0.080566406250, -0.660888671875, 0.447021484375, 112.031250000000, -98.320312500000, 7.148437500000, 1490870311
-0.080566406250, -0.660888671875, 0.447021484375, 112.031250000000, -98.320312500000, 7.148437500000, 1490870311
-0.080566406250, -0.660888671875, 0.447021484375, 112.031250000000, -98.320312500000, 7.148437500000, 1490870311
-0.080566406250, -0.660888671875, 0.447021484375, 112.031250000000, -98.320312500000, 7.148437500000, 1490870311
-0.079833984375, -0.772705078125, 0.490478515625, 68.859375000000, 62.828125000000, 3.484375000000, 1490870311
0.069824218750, -0.665527343750, 0.364501953125, 51.312500000000, 34.210937500000, 6.695312500000, 1490870311
0.069824218750, -0.665527343750, 0.364501953125, 51.312500000000, 34.210937500000, 6.695312500000, 1490870311
0.069824218750, -0.665527343750, 0.364501953125, 51.312500000000, 34.210937500000, 6.695312500000, 1490870311
0.069824218750, -0.665527343750, 0.364501953125, 51.312500000000, 34.210937500000, 6.695312500000, 1490870311
0.104248046875, -0.925537109375, 0.398925781250, -12.625000000000, 19.500000000000, 10.070312500000, 1490870311
0.104248046875, -0.925537109375, 0.398925781250, -12.625000000000, 19.500000000000, 10.070312500000, 1490870311
0.104248046875, -0.925537109375, 0.398925781250, -12.625000000000, 19.500000000000, 10.070312500000, 1490870311
-0.008789062500, -1.080078125000, 0.181884765625, -3.023437500000, 10.218750000000, -8.984375000000, 1490870311
-0.008789062500, -1.080078125000, 0.181884765625, -3.023437500000, 10.218750000000, -8.984375000000, 1490870311
-0.008789062500, -1.080078125000, 0.181884765625, -3.023437500000, 10.218750000000, -8.984375000000, 1490870311
-0.008789062500, -1.080078125000, 0.181884765625, -3.023437500000, 10.218750000000, -8.984375000000, 1490870311
0.185791015625, -1.252929687500, 0.309326171875, 33.539062500000, -2.437500000000, -7.140625000000, 1490870311
0.185791015625, -1.252929687500, 0.309326171875, 33.539062500000, -2.437500000000, -7.140625000000, 1490870311
0.185791015625, -1.252929687500, 0.309326171875, 33.539062500000, -2.437500000000, -7.140625000000, 1490870311
0.205566406250, -1.756103515625, 0.580810546875, 38.750000000000, -27.953125000000, -24.468750000000, 1490870311
0.205566406250, -1.756103515625, 0.580810546875, 38.750000000000, -27.953125000000, -24.468750000000, 1490870311
0.205566406250, -1.756103515625, 0.580810546875, 38.750000000000, -27.953125000000, -24.468750000000, 1490870311
0.024902343750, -1.814208984375, 0.699218750000, 40.593750000000, 14.390625000000, -41.890625000000, 1490870311
0.024902343750, -1.814208984375, 0.699218750000, 40.593750000000, 14.390625000000, -41.890625000000, 1490870311
0.024902343750, -1.814208984375, 0.699218750000, 40.593750000000, 14.390625000000, -41.890625000000, 1490870311
0.005126953125, -1.231933593750, 0.225097656250, -81.367187500000, 89.242187500000, -43.742187500000, 1490870311
0.005126953125, -1.231933593750, 0.225097656250, -81.367187500000, 89.242187500000, -43.742187500000, 1490870311
0.005126953125, -1.231933593750, 0.225097656250, -81.367187500000, 89.242187500000, -43.742187500000, 1490870311
0.005126953125, -1.231933593750, 0.225097656250, -81.367187500000, 89.242187500000, -43.742187500000, 1490870311
-0.036865234375, -1.056640625000, 0.169921875000, -140.546875000000, 100.875000000000, -50.359375000000, 1490870311
-0.036865234375, -1.056640625000, 0.169921875000, -140.546875000000, 100.875000000000, -50.359375000000, 1490870311
-0.036865234375, -1.056640625000, 0.169921875000, -140.546875000000, 100.875000000000, -50.359375000000, 1490870311
-0.006347656250, -1.082275390625, 0.196044921875, -155.039062500000, 41.101562500000, -75.843750000000, 1490870311
-0.006347656250, -1.082275390625, 0.196044921875, -155.039062500000, 41.101562500000, -75.843750000000, 1490870311
-0.006347656250, -1.082275390625, 0.196044921875, -155.039062500000, 41.101562500000, -75.843750000000, 1490870311
-0.209716796875, -1.215087890625, 0.194091796875, -205.109375000000, -64.617187500000, -109.929687500000, 1490870311
-0.209716796875, -1.215087890625, 0.194091796875, -205.109375000000, -64.617187500000, -109.929687500000, 1490870311
-0.209716796875, -1.215087890625, 0.194091796875, -205.109375000000, -64.617187500000, -109.929687500000, 1490870311
-0.281738281250, -1.065185546875, 0.198974609375, -110.812500000000, -17.906250000000, -89.945312500000, 1490870311
-0.281738281250, -1.065185546875, 0.198974609375, -110.812500000000, -17.906250000000, -89.945312500000, 1490870311
-0.281738281250, -1.065185546875, 0.198974609375, -110.812500000000, -17.906250000000, -89.945312500000, 1490870311
-0.281738281250, -1.065185546875, 0.198974609375, -110.812500000000, -17.906250000000, -89.945312500000, 1490870311
-0.273925781250, -0.861328125000, 0.056396484375, -73.898437500000, 56.781250000000, -68.796875000000, 1490870311
-0.273925781250, -0.861328125000, 0.056396484375, -73.898437500000, 56.781250000000, -68.796875000000, 1490870311
-0.273925781250, -0.861328125000, 0.056396484375, -73.898437500000, 56.781250000000, -68.796875000000, 1490870311
-0.228515625000, -0.614257812500, 0.084228515625, -21.445312500000, 30.304687500000, -43.718750000000, 1490870311
-0.228515625000, -0.614257812500, 0.084228515625, -21.445312500000, 30.304687500000, -43.718750000000, 1490870311
-0.228515625000, -0.614257812500, 0.084228515625, -21.445312500000, 30.304687500000, -43.718750000000, 1490870311
-0.139404296875, -0.618408203125, 0.050292968750, 82.140625000000, 31.648437500000, -3.265625000000, 1490870311
-0.139404296875, -0.618408203125, 0.050292968750, 82.140625000000, 31.648437500000, -3.265625000000, 1490870311
-0.139404296875, -0.618408203125, 0.050292968750, 82.140625000000, 31.648437500000, -3.265625000000, 1490870311
-0.076904296875, -0.541992187500, 0.089355468750, 189.093750000000, -79.156250000000, 30.804687500000, 1490870311
-0.076904296875, -0.541992187500, 0.089355468750, 189.093750000000, -79.156250000000, 30.804687500000, 1490870311
-0.076904296875, -0.541992187500, 0.089355468750, 189.093750000000, -79.156250000000, 30.804687500000, 1490870311
-0.076904296875, -0.541992187500, 0.089355468750, 189.093750000000, -79.156250000000, 30.804687500000, 1490870311
0.506103515625, -1.105957031250, 0.315429687500, 253.992187500000, -256.000000000000, 67.531250000000, 1490870311
0.506103515625, -1.105957031250, 0.315429687500, 253.992187500000, -256.000000000000, 67.531250000000, 1490870311
0.506103515625, -1.105957031250, 0.315429687500, 253.992187500000, -256.000000000000, 67.531250000000, 1490870311
0.506103515625, -1.105957031250, 0.315429687500, 253.992187500000, -256.000000000000, 67.531250000000, 1490870311
0.506103515625, -1.105957031250, 0.315429687500, 253.992187500000, -256.000000000000, 67.531250000000, 1490870311
0.523681640625, -0.861083984375, 0.864501953125, 216.960937500000, -227.328125000000, -26.507812500000, 1490870311
0.523681640625, -0.861083984375, 0.864501953125, 216.960937500000, -227.328125000000, -26.507812500000, 1490870311
0.523681640625, -0.861083984375, 0.864501953125, 216.960937500000, -227.328125000000, -26.507812500000, 1490870311
-0.239013671875, -1.329833984375, 0.173583984375, -179.929687500000, -181.617187500000, 8.039062500000, 1490870311
-0.239013671875, -1.329833984375, 0.173583984375, -179.929687500000, -181.617187500000, 8.039062500000, 1490870311
-0.239013671875, -1.329833984375, 0.173583984375, -179.929687500000, -181.617187500000, 8.039062500000, 1490870311
-0.239013671875, -1.329833984375, 0.173583984375, -179.929687500000, -181.617187500000, 8.039062500000, 1490870311
-0.239013671875, -1.329833984375, 0.173583984375, -179.929687500000, -181.617187500000, 8.039062500000, 1490870311
-0.201904296875, -1.273193359375, 0.228271484375, -122.039062500000, 9.945312500000, 11.226562500000, 1490870311
-0.201904296875, -1.273193359375, 0.228271484375, -122.039062500000, 9.945312500000, 11.226562500000, 1490870311
-0.201904296875, -1.273193359375, 0.228271484375, -122.039062500000, 9.945312500000, 11.226562500000, 1490870311
