ACC_X,ACC_Y,ACC_Z,G_X,G_Y,G_Z,Unix Time
-0.212646484375, -1.004882812500, 0.184570312500, -8.242187500000, 6.343750000000, -10.812500000000, 1490870760
-0.212646484375, -1.004882812500, 0.184570312500, -8.242187500000, 6.343750000000, -10.812500000000, 1490870760
-0.212646484375, -1.004882812500, 0.184570312500, -8.242187500000, 6.343750000000, -10.812500000000, 1490870760
-0.166992187500, -1.001708984375, 0.108398437500, -4.695312500000, 0.914062500000, -1.171875000000, 1490870760
-0.166992187500, -1.001708984375, 0.108398437500, -4.695312500000, 0.914062500000, -1.171875000000, 1490870760
-0.166992187500, -1.001708984375, 0.108398437500, -4.695312500000, 0.914062500000, -1.171875000000, 1490870760
-0.166992187500, -1.001708984375, 0.108398437500, -4.695312500000, 0.914062500000, -1.171875000000, 1490870760
-0.205322265625, -0.960693359375, 0.272460937500, -0.664062500000, -6.890625000000, -1.460937500000, 1490870760
-0.205322265625, -0.960693359375, 0.272460937500, -0.664062500000, -6.890625000000, -1.460937500000, 1490870760
-0.205322265625, -0.960693359375, 0.272460937500, -0.664062500000, -6.890625000000, -1.460937500000, 1490870760
-0.218261718750, -0.950683593750, 0.201416015625, -0.789062500000, -6.578125000000, -3.703125000000, 1490870760
-0.218261718750, -0.950683593750, 0.201416015625, -0.789062500000, -6.578125000000, -3.703125000000, 1490870760
-0.160400390625, -1.020019531250, 0.115722656250, -3.398437500000, 1.164062500000, -4.109375000000, 1490870760
-0.160400390625, -1.020019531250, 0.115722656250, -3.398437500000, 1.164062500000, -4.109375000000, 1490870760
-0.160400390625, -1.020019531250, 0.115722656250, -3.398437500000, 1.164062500000, -4.109375000000, 1490870760
-0.160400390625, -1.020019531250, 0.115722656250, -3.398437500000, 1.164062500000, -4.109375000000, 1490870760
-0.048583984375, -0.977294921875, 0.199951171875, -4.921875000000, 4.007812500000, -6.617187500000, 1490870760
-0.048583984375, -0.977294921875, 0.199951171875, -4.921875000000, 4.007812500000, -6.617187500000, 1490870760
-0.048583984375, -0.977294921875, 0.199951171875, -4.921875000000, 4.007812500000, -6.617187500000, 1490870760
-0.048583984375, -0.977294921875, 0.199951171875, -4.921875000000, 4.007812500000, -6.617187500000, 1490870760
-0.100830078125, -0.935546875000, 0.107177734375, -1.820312500000, 2.304687500000, 2.210937500000, 1490870760
-0.100830078125, -0.935546875000, 0.107177734375, -1.820312500000, 2.304687500000, 2.210937500000, 1490870760
-0.100830078125, -0.935546875000, 0.107177734375, -1.820312500000, 2.304687500000, 2.210937500000, 1490870760
-0.215332031250, -1.021240234375, 0.202148437500, -4.054687500000, 2.968750000000, -4.289062500000, 1490870760
-0.215332031250, -1.021240234375, 0.202148437500, -4.054687500000, 2.968750000000, -4.289062500000, 1490870760
-0.215332031250, -1.021240234375, 0.202148437500, -4.054687500000, 2.968750000000, -4.289062500000, 1490870760
-0.261230468750, -1.005126953125, 0.195068359375, -1.343750000000, -4.984375000000, -3.945312500000, 1490870760
-0.261230468750, -1.005126953125, 0.195068359375, -1.343750000000, -4.984375000000, -3.945312500000, 1490870760
-0.261230468750, -1.005126953125, 0.195068359375, -1.343750000000, -4.984375000000, -3.945312500000, 1490870760
-0.261230468750, -1.005126953125, 0.195068359375, -1.343750000000, -4.984375000000, -3.945312500000, 1490870760
-0.182373046875, -1.012451171875, 0.119140625000, -2.789062500000, -4.062500000000, -3.781250000000, 1490870760
-0.182373046875, -1.012451171875, 0.119140625000, -2.789062500000, -4.062500000000, -3.781250000000, 1490870760
-0.182373046875, -1.012451171875, 0.119140625000, -2.789062500000, -4.062500000000, -3.781250000000, 1490870760
-0.182373046875, -1.012451171875, 0.119140625000, -2.789062500000, -4.062500000000, -3.781250000000, 1490870760
-0.182373046875, -1.012451171875, 0.119140625000, -2.789062500000, -4.062500000000, -3.781250000000, 1490870760
-0.156250000000, -0.968750000000, 0.144287109375, -4.492187500000, -0.210937500000, -6.562500000000, 1490870760
-0.156250000000, -0.968750000000, 0.144287109375, -4.492187500000, -0.210937500000, -6.562500000000, 1490870760
-0.156250000000, -0.968750000000, 0.144287109375, -4.492187500000, -0.210937500000, -6.562500000000, 1490870760
-0.156250000000, -0.968750000000, 0.144287109375, -4.492187500000, -0.210937500000, -6.562500000000, 1490870760
-0.221679687500, -1.016845703125, 0.193115234375, -4.382812500000, -0.546875000000, -4.554687500000, 1490870760
-0.221679687500, -1.016845703125, 0.193115234375, -4.382812500000, -0.546875000000, -4.554687500000, 1490870760
-0.221679687500, -1.016845703125, 0.193115234375, -4.382812500000, -0.546875000000, -4.554687500000, 1490870760
-0.168945312500, -1.011474609375, 0.104248046875, -6.953125000000, -0.343750000000, 2.187500000000, 1490870760
-0.168945312500, -1.011474609375, 0.104248046875, -6.953125000000, -0.343750000000, 2.187500000000, 1490870760
-0.168945312500, -1.011474609375, 0.104248046875, -6.953125000000, -0.343750000000, 2.187500000000, 1490870760
-0.168945312500, -1.011474609375, 0.104248046875, -6.953125000000, -0.343750000000, 2.187500000000, 1490870760
-0.212890625000, -0.965087890625, 0.139404296875, -4.578125000000, 0.640625000000, -2.960937500000, 1490870760
-0.212890625000, -0.965087890625, 0.139404296875, -4.578125000000, 0.640625000000, -2.960937500000, 1490870760
-0.212890625000, -0.965087890625, 0.139404296875, -4.578125000000, 0.640625000000, -2.960937500000, 1490870760
-0.207519531250, -0.982177734375, 0.159423828125, 0.960937500000, -4.085937500000, 2.398437500000, 1490870760
-0.207519531250, -0.982177734375, 0.159423828125, 0.960937500000, -4.085937500000, 2.398437500000, 1490870760
-0.207519531250, -0.982177734375, 0.159423828125, 0.960937500000, -4.085937500000, 2.398437500000, 1490870760
-0.198486328125, -0.971435546875, 0.121582031250, -2.906250000000, 1.343750000000, -6.453125000000, 1490870760
-0.198486328125, -0.971435546875, 0.121582031250, -2.906250000000, 1.343750000000, -6.453125000000, 1490870760
-0.198486328125, -0.971435546875, 0.121582031250, -2.906250000000, 1.343750000000, -6.453125000000, 1490870760
-0.214355468750, -0.936035156250, 0.155029296875, -1.179687500000, -8.734375000000, 3.882812500000, 1490870760
-0.214355468750, -0.936035156250, 0.155029296875, -1.179687500000, -8.734375000000, 3.882812500000, 1490870760
-0.214355468750, -0.936035156250, 0.155029296875, -1.179687500000, -8.734375000000, 3.882812500000, 1490870760
-0.200195312500, -0.935791015625, 0.108398437500, 0.398437500000, -5.953125000000, 14.570312500000, 1490870760
-0.052001953125, -0.931884765625, 0.212402343750, 4.757812500000, -8.875000000000, 18.242187500000, 1490870760
-0.052001953125, -0.931884765625, 0.212402343750, 4.757812500000, -8.875000000000, 18.242187500000, 1490870760
-0.052001953125, -0.931884765625, 0.212402343750, 4.757812500000, -8.875000000000, 18.242187500000, 1490870760
-0.079589843750, -0.910888671875, 0.055175781250, -3.835937500000, -15.812500000000, 18.000000000000, 1490870761
-0.079589843750, -0.910888671875, 0.055175781250, -3.835937500000, -15.812500000000, 18.000000000000, 1490870761
-0.079589843750, -0.910888671875, 0.055175781250, -3.835937500000, -15.812500000000, 18.000000000000, 1490870761
-0.039794921875, -1.052490234375, 0.144287109375, -8.289062500000, -12.085937500000, 22.750000000000, 1490870761
-0.039794921875, -1.052490234375, 0.144287109375, -8.289062500000, -12.085937500000, 22.750000000000, 1490870761
-0.039794921875, -1.052490234375, 0.144287109375, -8.289062500000, -12.085937500000, 22.750000000000, 1490870761
-0.137695312500, -0.999755859375, 0.144287109375, -5.968750000000, 2.289062500000, 1.351562500000, 1490870761
-0.137695312500, -0.999755859375, 0.144287109375, -5.968750000000, 2.289062500000, 1.351562500000, 1490870761
-0.137695312500, -0.999755859375, 0.144287109375, -5.968750000000, 2.289062500000, 1.351562500000, 1490870761
-0.137695312500, -0.999755859375, 0.144287109375, -5.968750000000, 2.289062500000, 1.351562500000, 1490870761
-0.100097656250, -0.936767578125, 0.036132812500, -1.632812500000, -6.414062500000, -4.812500000000, 1490870761
-0.100097656250, -0.936767578125, 0.036132812500, -1.632812500000, -6.414062500000, -4.812500000000, 1490870761
-0.100097656250, -0.936767578125, 0.036132812500, -1.632812500000, -6.414062500000, -4.812500000000, 1490870761
-0.070800781250, -0.936279296875, 0.116699218750, -2.867187500000, -6.007812500000, -4.578125000000, 1490870761
-0.070800781250, -0.936279296875, 0.116699218750, -2.867187500000, -6.007812500000, -4.578125000000, 1490870761
-0.070800781250, -0.936279296875, 0.116699218750, -2.867187500000, -6.007812500000, -4.578125000000, 1490870761
-0.134521484375, -1.015136718750, 0.096435546875, -1.507812500000, -2.742187500000, -4.093750000000, 1490870761
-0.134521484375, -1.015136718750, 0.096435546875, -1.507812500000, -2.742187500000, -4.093750000000, 1490870761
-0.134521484375, -1.015136718750, 0.096435546875, -1.507812500000, -2.742187500000, -4.093750000000, 1490870761
-0.042968750000, -0.988281250000, 0.098876953125, -3.476562500000, -1.250000000000, -2.250000000000, 1490870761
-0.042968750000, -0.988281250000, 0.098876953125, -3.476562500000, -1.250000000000, -2.250000000000, 1490870761
-0.042968750000, -0.988281250000, 0.098876953125, -3.476562500000, -1.250000000000, -2.250000000000, 1490870761
-0.042968750000, -0.988281250000, 0.098876953125, -3.476562500000, -1.250000000000, -2.250000000000, 1490870761
-0.192138671875, -1.028564453125, 0.154052734375, -4.062500000000, -2.164062500000, -3.765625000000, 1490870761
-0.192138671875, -1.028564453125, 0.154052734375, -4.062500000000, -2.164062500000, -3.765625000000, 1490870761
-0.192138671875, -1.028564453125, 0.154052734375, -4.062500000000, -2.164062500000, -3.765625000000, 1490870761
-0.051513671875, -0.977050781250, 0.206298828125, -3.257812500000, -2.890625000000, -1.718750000000, 1490870761
-0.051513671875, -0.977050781250, 0.206298828125, -3.257812500000, -2.890625000000, -1.718750000000, 1490870761
-0.051513671875, -0.977050781250, 0.206298828125, -3.257812500000, -2.890625000000, -1.718750000000, 1490870761
-0.034423828125, -0.927001953125, 0.187744140625, -1.960937500000, 0.960937500000, -0.851562500000, 1490870761
-0.034423828125, -0.927001953125, 0.187744140625, -1.960937500000, 0.960937500000, -0.851562500000, 1490870761
-0.034423828125, -0.927001953125, 0.187744140625, -1.960937500000, 0.960937500000, -0.851562500000, 1490870761
-0.114746093750, -1.024169921875, 0.156494140625, -3.234375000000, -2.742187500000, 0.859375000000, 1490870761
-0.114746093750, -1.024169921875, 0.156494140625, -3.234375000000, -2.742187500000, 0.859375000000, 1490870761
-0.114746093750, -1.024169921875, 0.156494140625, -3.234375000000, -2.742187500000, 0.859375000000, 1490870761
-0.114746093750, -1.024169921875, 0.156494140625, -3.234375000000, -2.742187500000, 0.859375000000, 1490870761
-0.134033203125, -1.000732421875, 0.098144531250, -4.710937500000, -1.093750000000, -4.453125000000, 1490870761
-0.134033203125, -1.000732421875, 0.098144531250, -4.710937500000, -1.093750000000, -4.453125000000, 1490870761
-0.134033203125, -1.000732421875, 0.098144531250, -4.710937500000, -1.093750000000, -4.453125000000, 1490870761
-0.059326171875, -1.125976562500, 0.099365234375, -6.757812500000, -2.226562500000, -1.687500000000, 1490870761
-0.059326171875, -1.125976562500, 0.099365234375, -6.757812500000, -2.226562500000, -1.687500000000, 1490870761
-0.059326171875, -1.125976562500, 0.099365234375, -6.757812500000, -2.226562500000, -1.687500000000, 1490870761
0.005371093750, -0.924316406250, 0.192871093750, -3.078125000000, 0.500000000000, -1.070312500000, 1490870761
0.005371093750, -0.924316406250, 0.192871093750, -3.078125000000, 0.500000000000, -1.070312500000, 1490870761
0.005371093750, -0.924316406250, 0.192871093750, -3.078125000000, 0.500000000000, -1.070312500000, 1490870761
-0.125244140625, -0.950195312500, 0.175781250000, -1.281250000000, 0.890625000000, -4.476562500000, 1490870761
-0.125244140625, -0.950195312500, 0.175781250000, -1.281250000000, 0.890625000000, -4.476562500000, 1490870761
-0.125244140625, -0.950195312500, 0.175781250000, -1.281250000000, 0.890625000000, -4.476562500000, 1490870761
-0.125244140625, -0.950195312500, 0.175781250000, -1.281250000000, 0.890625000000, -4.476562500000, 1490870761
-0.132080078125, -1.011230468750, 0.205322265625, -6.710937500000, -2.210937500000, -7.789062500000, 1490870761
-0.132080078125, -1.011230468750, 0.205322265625, -6.710937500000, -2.210937500000, -7.789062500000, 1490870761
-0.132080078125, -1.011230468750, 0.205322265625, -6.710937500000, -2.210937500000, -7.789062500000, 1490870761
-0.132568359375, -0.908203125000, 0.273193359375, -1.125000000000, -3.984375000000, -1.500000000000, 1490870761
-0.132568359375, -0.908203125000, 0.273193359375, -1.125000000000, -3.984375000000, -1.500000000000, 1490870761
-0.132568359375, -0.908203125000, 0.273193359375, -1.125000000000, -3.984375000000, -1.500000000000, 1490870761
-0.056396484375, -1.026123046875, 0.204589843750, -1.914062500000, -2.015625000000, -6.898437500000, 1490870761
-0.056396484375, -1.026123046875, 0.204589843750, -1.914062500000, -2.015625000000, -6.898437500000, 1490870761
-0.056396484375, -1.026123046875, 0.204589843750, -1.914062500000, -2.015625000000, -6.898437500000, 1490870761
-0.054443359375, -0.930419921875, 0.115234375000, -4.015625000000, -2.203125000000, -1.726562500000, 1490870761
-0.054443359375, -0.930419921875, 0.115234375000, -4.015625000000, -2.203125000000, -1.726562500000, 1490870761
-0.054443359375, -0.930419921875, 0.115234375000, -4.015625000000, -2.203125000000, -1.726562500000, 1490870761
-0.054443359375, -0.930419921875, 0.115234375000, -4.015625000000, -2.203125000000, -1.726562500000, 1490870761
-0.035400390625, -1.003173828125, 0.113769531250, -3.570312500000, -1.078125000000, -5.226562500000, 1490870761
-0.035400390625, -1.003173828125, 0.113769531250, -3.570312500000, -1.078125000000, -5.226562500000, 1490870761
-0.035400390625, -1.003173828125, 0.113769531250, -3.570312500000, -1.078125000000, -5.226562500000, 1490870761
-0.048583984375, -0.871337890625, 0.153564453125, -4.921875000000, -2.023437500000, -3.320312500000, 1490870761
-0.048583984375, -0.871337890625, 0.153564453125, -4.921875000000, -2.023437500000, -3.320312500000, 1490870761
-0.034667968750, -0.981201171875, 0.218017578125, -1.406250000000, -0.210937500000, 2.796875000000, 1490870762
-0.034667968750, -0.981201171875, 0.218017578125, -1.406250000000, -0.210937500000, 2.796875000000, 1490870762
-0.034667968750, -0.981201171875, 0.218017578125, -1.406250000000, -0.210937500000, 2.796875000000, 1490870762
-0.034667968750, -0.981201171875, 0.218017578125, -1.406250000000, -0.210937500000, 2.796875000000, 1490870762
-0.034667968750, -0.981201171875, 0.218017578125, -1.406250000000, -0.210937500000, 2.796875000000, 1490870762
-0.154541015625, -1.030517578125, 0.061279296875, -4.359375000000, 0.648437500000, -1.406250000000, 1490870762
-0.154541015625, -1.030517578125, 0.061279296875, -4.359375000000, 0.648437500000, -1.406250000000, 1490870762
-0.154541015625, -1.030517578125, 0.061279296875, -4.359375000000, 0.648437500000, -1.406250000000, 1490870762
-0.125732421875, -0.908203125000, 0.107177734375, -4.921875000000, 0.835937500000, -4.656250000000, 1490870762
-0.125732421875, -0.908203125000, 0.107177734375, -4.921875000000, 0.835937500000, -4.656250000000, 1490870762
-0.125732421875, -0.908203125000, 0.107177734375, -4.921875000000, 0.835937500000, -4.656250000000, 1490870762
0.001220703125, -0.972412109375, 0.108886718750, -3.734375000000, 2.570312500000, -4.640625000000, 1490870762
0.001220703125, -0.972412109375, 0.108886718750, -3.734375000000, 2.570312500000, -4.640625000000, 1490870762
0.001220703125, -0.972412109375, 0.108886718750, -3.734375000000, 2.570312500000, -4.640625000000, 1490870762
-0.134765625000, -0.943847656250, 0.116210937500, -4.632812500000, 2.539062500000, -5.351562500000, 1490870762
-0.134765625000, -0.943847656250, 0.116210937500, -4.632812500000, 2.539062500000, -5.351562500000, 1490870762
-0.134765625000, -0.943847656250, 0.116210937500, -4.632812500000, 2.539062500000, -5.351562500000, 1490870762
-0.113281250000, -1.013427734375, 0.094238281250, 0.539062500000, -0.648437500000, -5.539062500000, 1490870762
-0.113281250000, -1.013427734375, 0.094238281250, 0.539062500000, -0.648437500000, -5.539062500000, 1490870762
-0.113281250000, -1.013427734375, 0.094238281250, 0.539062500000, -0.648437500000, -5.539062500000, 1490870762
-0.164794921875, -0.976806640625, 0.062500000000, -1.515625000000, 2.382812500000, -3.171875000000, 1490870762
-0.164794921875, -0.976806640625, 0.062500000000, -2.648437500000, 2.898437500000, -4.226562500000, 1490870762
-0.094726562500, -1.026367187500, 0.102050781250, -2.648437500000, 2.898437500000, -4.226562500000, 1490870762
-0.147216796875, -0.918701171875, 0.209228515625, 0.742187500000, -0.015625000000, -5.093750000000, 1490870762
-0.147216796875, -0.918701171875, 0.209228515625, 0.742187500000, -0.015625000000, -5.093750000000, 1490870762
-0.147216796875, -0.918701171875, 0.209228515625, 0.742187500000, -0.015625000000, -5.093750000000, 1490870762
-0.147216796875, -0.918701171875, 0.209228515625, 0.742187500000, -0.015625000000, -5.093750000000, 1490870762
-0.147216796875, -0.918701171875, 0.209228515625, 0.742187500000, -0.015625000000, -5.093750000000, 1490870762
-0.147216796875, -0.918701171875, 0.209228515625, 0.742187500000, -0.015625000000, -5.093750000000, 1490870762
-0.036865234375, -1.009033203125, 0.193115234375, -0.812500000000, -0.484375000000, -7.132812500000, 1490870762
-0.036865234375, -1.009033203125, 0.193115234375, -0.812500000000, -0.484375000000, -7.132812500000, 1490870762
-0.036865234375, -1.009033203125, 0.193115234375, -0.812500000000, -0.484375000000, -7.132812500000, 1490870762
-0.036865234375, -1.009033203125, 0.193115234375, -0.812500000000, -0.484375000000, -7.132812500000, 1490870762
-0.036865234375, -1.009033203125, 0.193115234375, -0.812500000000, -0.484375000000, -7.132812500000, 1490870762
-0.140625000000, -0.947753906250, 0.188720703125, 0.843750000000, 0.804687500000, -4.679687500000, 1490870762
-0.140625000000, -0.947753906250, 0.188720703125, 0.843750000000, 0.804687500000, -4.679687500000, 1490870762
-0.140625000000, -0.947753906250, 0.188720703125, 0.843750000000, 0.804687500000, -4.679687500000, 1490870762
-0.152099609375, -0.923339843750, 0.210205078125, 4.281250000000, 2.867187500000, -6.742187500000, 1490870762
-0.152099609375, -0.923339843750, 0.210205078125, 4.281250000000, 2.867187500000, -6.742187500000, 1490870762
-0.152099609375, -0.923339843750, 0.210205078125, 4.281250000000, 2.867187500000, -6.742187500000, 1490870762
-0.052978515625, -1.027832031250, 0.102783203125, 12.218750000000, 4.515625000000, -8.148437500000, 1490870762
-0.052978515625, -1.027832031250, 0.102783203125, 12.218750000000, 4.515625000000, -8.148437500000, 1490870762
-0.052978515625, -1.027832031250, 0.102783203125, 12.218750000000, 4.515625000000, -8.148437500000, 1490870762
-0.151367187500, -0.920410156250, 0.216308593750, 15.671875000000, 14.539062500000, -1.054687500000, 1490870762
-0.151367187500, -0.920410156250, 0.216308593750, 15.671875000000, 14.539062500000, -1.054687500000, 1490870762
-0.151367187500, -0.920410156250, 0.216308593750, 15.671875000000, 14.539062500000, -1.054687500000, 1490870762
-0.116943359375, -0.992431640625, 0.115234375000, 15.937500000000, 13.617187500000, -1.765625000000, 1490870762
-0.191406250000, -0.866210937500, 0.113525390625, 25.078125000000, 6.976562500000, -3.078125000000, 1490870762
-0.191406250000, -0.866210937500, 0.113525390625, 25.078125000000, 6.976562500000, -3.078125000000, 1490870762
-0.191406250000, -0.866210937500, 0.113525390625, 25.078125000000, 6.976562500000, -3.078125000000, 1490870762
-0.035156250000, -0.922607421875, 0.215820312500, 30.875000000000, 8.328125000000, 2.250000000000, 1490870762
-0.035156250000, -0.922607421875, 0.215820312500, 30.875000000000, 8.328125000000, 2.250000000000, 1490870762
-0.035156250000, -0.922607421875, 0.215820312500, 30.875000000000, 8.328125000000, 2.250000000000, 1490870762
-0.154541015625, -0.930664062500, 0.193603515625, 39.070312500000, 2.343750000000, -6.117187500000, 1490870762
-0.154541015625, -0.930664062500, 0.193603515625, 39.070312500000, 2.343750000000, -6.117187500000, 1490870762
-0.154541015625, -0.930664062500, 0.193603515625, 39.070312500000, 2.343750000000, -6.117187500000, 1490870762
-0.140136718750, -0.942871093750, -0.004638671875, 62.078125000000, 8.929687500000, -8.460937500000, 1490870762
-0.140136718750, -0.942871093750, -0.004638671875, 62.078125000000, 8.929687500000, -8.460937500000, 1490870762
-0.140136718750, -0.942871093750, -0.004638671875, 62.078125000000, 8.929687500000, -8.460937500000, 1490870762
-0.140136718750, -0.942871093750, -0.004638671875, 62.078125000000, 8.929687500000, -8.460937500000, 1490870762
-0.261474609375, -1.027343750000, 0.140625000000, 86.187500000000, 24.132812500000, -17.804687500000, 1490870762
-0.261474609375, -1.027343750000, 0.140625000000, 86.187500000000, 24.132812500000, -17.804687500000, 1490870762
-0.261474609375, -1.027343750000, 0.140625000000, 86.187500000000, 24.132812500000, -17.804687500000, 1490870762
-0.271240234375, -0.972900390625, 0.144775390625, 92.593750000000, -4.250000000000, -26.703125000000, 1490870762
-0.271240234375, -0.972900390625, 0.144775390625, 92.593750000000, -4.250000000000, -26.703125000000, 1490870762
-0.271240234375, -0.972900390625, 0.144775390625, 92.593750000000, -4.250000000000, -26.703125000000, 1490870762
-0.093750000000, -1.051757812500, 0.067138671875, 42.257812500000, -27.109375000000, -13.546875000000, 1490870763
-0.093750000000, -1.051757812500, 0.067138671875, 42.257812500000, -27.109375000000, -13.546875000000, 1490870763
-0.093750000000, -1.051757812500, 0.067138671875, 42.257812500000, -27.109375000000, -13.546875000000, 1490870763
-0.214599609375, -1.217529296875, -0.008056640625, -47.117187500000, -46.023437500000, -32.039062500000, 1490870763
-0.214599609375, -1.217529296875, -0.008056640625, -47.117187500000, -46.023437500000, -32.039062500000, 1490870763
-0.214599609375, -1.217529296875, -0.008056640625, -47.117187500000, -46.023437500000, -32.039062500000, 1490870763
-0.214599609375, -1.217529296875, -0.008056640625, -47.117187500000, -46.023437500000, -32.039062500000, 1490870763
-0.339843750000, -1.471191406250, -0.027343750000, -85.539062500000, -22.664062500000, -52.242187500000, 1490870763
-0.339843750000, -1.471191406250, -0.027343750000, -85.539062500000, -22.664062500000, -52.242187500000, 1490870763
-0.339843750000, -1.471191406250, -0.027343750000, -85.539062500000, -22.664062500000, -52.242187500000, 1490870763
-0.438476562500, -1.711914062500, 0.034423828125, -186.960937500000, 24.820312500000, -61.703125000000, 1490870763
-0.438476562500, -1.711914062500, 0.034423828125, -186.960937500000, 24.820312500000, -61.703125000000, 1490870763
-0.438476562500, -1.711914062500, 0.034423828125, -186.960937500000, 24.820312500000, -61.703125000000, 1490870763
-0.513427734375, -1.773193359375, -0.011718750000, -221.968750000000, 132.632812500000, -32.195312500000, 1490870763
-0.513427734375, -1.773193359375, -0.011718750000, -221.968750000000, 132.632812500000, -32.195312500000, 1490870763
-0.513427734375, -1.773193359375, -0.011718750000, -221.968750000000, 132.632812500000, -32.195312500000, 1490870763
-0.400878906250, -1.446533203125, 0.009033203125, -204.226562500000, 46.539062500000, -71.421875000000, 1490870763
-0.400878906250, -1.446533203125, 0.009033203125, -204.226562500000, 46.539062500000, -71.421875000000, 1490870763
-0.400878906250, -1.446533203125, 0.009033203125, -204.226562500000, 46.539062500000, -71.421875000000, 1490870763
-0.400878906250, -1.446533203125, 0.009033203125, -204.226562500000, 46.539062500000, -71.421875000000, 1490870763
-0.271484375000, -1.169677734375, -0.062500000000, -79.367187500000, -12.179687500000, -34.070312500000, 1490870763
-0.271484375000, -1.169677734375, -0.062500000000, -79.367187500000, -12.179687500000, -34.070312500000, 1490870763
-0.271484375000, -1.169677734375, -0.062500000000, -79.367187500000, -12.179687500000, -34.070312500000, 1490870763
-0.091064453125, -0.827636718750, 0.063476562500, -8.140625000000, -94.039062500000, 114.812500000000, 1490870763
-0.091064453125, -0.827636718750, 0.063476562500, -8.140625000000, -94.039062500000, 114.812500000000, 1490870763
-0.091064453125, -0.827636718750, 0.063476562500, -8.140625000000, -94.039062500000, 114.812500000000, 1490870763
0.112792968750, -1.505126953125, -0.133300781250, 57.179687500000, -151.226562500000, 35.523437500000, 1490870763
0.112792968750, -1.505126953125, -0.133300781250, 57.179687500000, -151.226562500000, 35.523437500000, 1490870763
0.112792968750, -1.505126953125, -0.133300781250, 57.179687500000, -151.226562500000, 35.523437500000, 1490870763
-0.356689453125, -1.342041015625, 0.046630859375, 7.203125000000, -52.710937500000, -74.398437500000, 1490870763
-0.356689453125, -1.342041015625, 0.046630859375, 7.203125000000, -52.710937500000, -74.398437500000, 1490870763
-0.356689453125, -1.342041015625, 0.046630859375, 7.203125000000, -52.710937500000, -74.398437500000, 1490870763
-0.303466796875, -1.051757812500, -0.087890625000, 118.906250000000, 174.570312500000, 108.781250000000, 1490870763
-0.303466796875, -1.051757812500, -0.087890625000, 118.906250000000, 174.570312500000, 108.781250000000, 1490870763
-0.303466796875, -1.051757812500, -0.087890625000, 118.906250000000, 174.570312500000, 108.781250000000, 1490870763
-0.303466796875, -1.051757812500, -0.087890625000, 118.906250000000, 174.570312500000, 108.781250000000, 1490870763
-0.300048828125, -1.018554687500, 0.025634765625, 68.609375000000, 179.054687500000, 35.320312500000, 1490870763
-0.300048828125, -1.018554687500, 0.025634765625, 68.609375000000, 179.054687500000, 35.320312500000, 1490870763
-0.300048828125, -1.018554687500, 0.025634765625, 68.609375000000, 179.054687500000, 35.320312500000, 1490870763
-0.235595703125, -0.971923828125, -0.009033203125, 146.070312500000, 94.679687500000, 66.109375000000, 1490870763
-0.235595703125, -0.971923828125, -0.009033203125, 146.070312500000, 94.679687500000, 66.109375000000, 1490870763
-0.235595703125, -0.971923828125, -0.009033203125, 146.070312500000, 94.679687500000, 66.109375000000, 1490870763
-0.111816406250, -0.721923828125, 0.215820312500, 253.687500000000, -219.500000000000, 55.929687500000, 1490870763
-0.111816406250, -0.721923828125, 0.215820312500, 253.687500000000, -219.500000000000, 55.929687500000, 1490870763
-0.111816406250, -0.721923828125, 0.215820312500, 253.687500000000, -219.500000000000, 55.929687500000, 1490870763
-0.111816406250, -0.721923828125, 0.215820312500, 253.687500000000, -219.500000000000, 55.929687500000, 1490870763
-0.041015625000, -0.858398437500, 0.841552734375, -96.281250000000, -54.335937500000, -20.242187500000, 1490870763
-0.041015625000, -0.858398437500, 0.841552734375, -96.281250000000, -54.335937500000, -20.242187500000, 1490870763
-0.041015625000, -0.858398437500, 0.841552734375, -96.281250000000, -54.335937500000, -20.242187500000, 1490870763
-0.063720703125, -0.668457031250, 0.086914062500, -256.000000000000, 7.656250000000, -70.101562500000, 1490870763
-0.063720703125, -0.668457031250, 0.086914062500, -256.000000000000, 7.656250000000, -70.101562500000, 1490870763
-0.063720703125, -0.668457031250, 0.086914062500, -256.000000000000, 7.656250000000, -70.101562500000, 1490870763
-0.042480468750, -0.541015625000, 0.081542968750, -188.851562500000, 56.398437500000, -41.250000000000, 1490870763
-0.042480468750, -0.541015625000, 0.081542968750, -188.851562500000, 56.398437500000, -41.250000000000, 1490870763
-0.042480468750, -0.541015625000, 0.081542968750, -188.851562500000, 56.398437500000, -41.250000000000, 1490870763
-0.102539062500, -0.652099609375, -0.038085937500, -174.242187500000, 20.507812500000, -57.882812500000, 1490870763
-0.102539062500, -0.652099609375, -0.038085937500, -174.242187500000, 20.507812500000, -57.882812500000, 1490870763
-0.102539062500, -0.652099609375, -0.038085937500, -174.242187500000, 20.507812500000, -57.882812500000, 1490870763
-0.102539062500, -0.652099609375, -0.038085937500, -174.242187500000, 20.507812500000, -57.882812500000, 1490870763
-0.139648437500, -0.595703125000, 0.039794921875, -109.750000000000, -29.414062500000, -41.218750000000, 1490870763
-0.139648437500, -0.595703125000, 0.039794921875, -109.750000000000, -29.414062500000, -41.218750000000, 1490870763
-0.139648437500, -0.595703125000, 0.039794921875, -109.750000000000, -29.414062500000, -41.218750000000, 1490870763
-0.135009765625, -0.905761718750, 0.137939453125, 9.179687500000, -93.718750000000, 4.140625000000, 1490870763
-0.135009765625, -0.905761718750, 0.137939453125, 9.179687500000, -93.718750000000, 4.140625000000, 1490870763
-0.135009765625, -0.905761718750, 0.137939453125, 9.179687500000, -93.718750000000, 4.140625000000, 1490870763
-0.022460937500, -0.951171875000, -0.022949218750, 56.250000000000, -165.046875000000, 23.085937500000, 1490870763
-0.022460937500, -0.951171875000, -0.022949218750, 56.250000000000, -165.046875000000, 23.085937500000, 1490870763
-0.022460937500, -0.951171875000, -0.022949218750, 56.250000000000, -165.046875000000, 23.085937500000, 1490870763
0.042236328125, -1.063720703125, 0.270019531250, 101.984375000000, 30.171875000000, 60.398437500000, 1490870764
0.042236328125, -1.063720703125, 0.270019531250, 101.984375000000, 30.171875000000, 60.398437500000, 1490870764
0.042236328125, -1.063720703125, 0.270019531250, 101.984375000000, 30.171875000000, 60.398437500000, 1490870764
0.042236328125, -1.063720703125, 0.270019531250, 101.984375000000, 30.171875000000, 60.398437500000, 1490870764
-0.566650390625, -0.905761718750, 1.852539062500, 254.570312500000, 134.992187500000, 62.523437500000, 1490870764
-0.566650390625, -0.905761718750, 1.852539062500, 254.570312500000, 134.992187500000, 62.523437500000, 1490870764
-0.566650390625, -0.905761718750, 1.852539062500, 254.570312500000, 134.992187500000, 62.523437500000, 1490870764
-0.125000000000, -1.027343750000, 0.339843750000, -176.562500000000, -4.406250000000, -31.296875000000, 1490870764
-0.125000000000, -1.027343750000, 0.339843750000, -176.562500000000, -4.406250000000, -31.296875000000, 1490870764
-0.125000000000, -1.027343750000, 0.339843750000, -176.562500000000, -4.406250000000, -31.296875000000, 1490870764
-0.216308593750, -0.914062500000, 0.045898437500, -95.390625000000, 18.687500000000, -26.812500000000, 1490870764
-0.216308593750, -0.914062500000, 0.045898437500, -95.390625000000, 18.687500000000, -26.812500000000, 1490870764
-0.216308593750, -0.914062500000, 0.045898437500, -95.390625000000, 18.687500000000, -26.812500000000, 1490870764
-0.229492187500, -0.875000000000, 0.075683593750, -72.093750000000, 19.054687500000, -24.804687500000, 1490870764
-0.150146484375, -0.937744140625, 0.381835937500, 80.289062500000, 28.109375000000, -0.273437500000, 1490870764
-0.150146484375, -0.937744140625, 0.381835937500, 80.289062500000, 28.109375000000, -0.273437500000, 1490870764
-0.150146484375, -0.937744140625, 0.381835937500, 80.289062500000, 28.109375000000, -0.273437500000, 1490870764
-0.150146484375, -0.937744140625, 0.381835937500, 80.289062500000, 28.109375000000, -0.273437500000, 1490870764
-0.150146484375, -0.937744140625, 0.381835937500, 80.289062500000, 28.109375000000, -0.273437500000, 1490870764
-0.309082031250, -0.852783203125, 0.706787109375, -30.125000000000, -35.093750000000, -26.296875000000, 1490870764
-0.245849609375, -0.855224609375, 0.593261718750, -30.125000000000, -35.093750000000, -26.296875000000, 1490870764
-0.245849609375, -0.855224609375, 0.593261718750, -30.125000000000, -35.093750000000, -26.296875000000, 1490870764
-0.245849609375, -0.855224609375, 0.593261718750, -30.125000000000, -35.093750000000, -26.296875000000, 1490870764
-0.202880859375, -0.788085937500, 0.339355468750, -57.687500000000, -8.984375000000, -20.273437500000, 1490870764
-0.045654296875, -0.906005859375, 0.234130859375, 14.976562500000, -53.117187500000, 0.976562500000, 1490870764
-0.045654296875, -0.906005859375, 0.234130859375, 14.976562500000, -53.117187500000, 0.976562500000, 1490870764
-0.045654296875, -0.906005859375, 0.234130859375, 14.976562500000, -53.117187500000, 0.976562500000, 1490870764
-0.045654296875, -0.906005859375, 0.234130859375, 14.976562500000, -53.117187500000, 0.976562500000, 1490870764
-0.045654296875, -0.906005859375, 0.234130859375, 14.976562500000, -53.117187500000, 0.976562500000, 1490870764
-0.045654296875, -0.906005859375, 0.234130859375, 16.789062500000, -41.609375000000, 2.523437500000, 1490870764
-0.225097656250, -0.963134765625, 0.404785156250, -0.281250000000, -12.453125000000, 5.500000000000, 1490870764
-0.225097656250, -0.963134765625, 0.404785156250, -0.281250000000, -12.453125000000, 5.500000000000, 1490870764
-0.225097656250, -0.963134765625, 0.404785156250, -0.281250000000, -12.453125000000, 5.500000000000, 1490870764
-0.262207031250, -0.966552734375, 0.275634765625, -10.367187500000, 4.562500000000, -3.656250000000, 1490870764
-0.262207031250, -0.966552734375, 0.275634765625, -10.367187500000, 4.562500000000, -3.656250000000, 1490870764
-0.262207031250, -0.966552734375, 0.275634765625, -10.367187500000, 4.562500000000, -3.656250000000, 1490870764
-0.108398437500, -0.907470703125, 0.267089843750, -5.843750000000, -3.210937500000, -5.875000000000, 1490870764
-0.108886718750, -1.020263671875, 0.449951171875, -0.265625000000, -34.937500000000, -1.835937500000, 1490870764
-0.108886718750, -1.020263671875, 0.449951171875, -0.265625000000, -34.937500000000, -1.835937500000, 1490870764
-0.108886718750, -1.020263671875, 0.449951171875, -0.265625000000, -34.937500000000, -1.835937500000, 1490870764
-0.108886718750, -1.020263671875, 0.449951171875, -0.265625000000, -34.937500000000, -1.835937500000, 1490870764
-0.155517578125, -1.004882812500, 0.378173828125, 2.734375000000, -15.234375000000, 0.554687500000, 1490870764
-0.155517578125, -1.004882812500, 0.378173828125, 2.734375000000, -15.234375000000, 0.554687500000, 1490870764
-0.155517578125, -1.004882812500, 0.378173828125, 2.734375000000, -15.234375000000, 0.554687500000, 1490870764
-0.155517578125, -1.004882812500, 0.378173828125, 2.734375000000, -15.234375000000, 0.554687500000, 1490870764
-0.155517578125, -1.004882812500, 0.378173828125, 2.734375000000, -15.234375000000, 0.554687500000, 1490870764
-0.174804687500, -0.957275390625, 0.463134765625, -3.203125000000, -19.132812500000, -4.195312500000, 1490870764
-0.158691406250, -0.948974609375, 0.375732421875, -7.992187500000, -18.562500000000, -0.359375000000, 1490870764
-0.138671875000, -0.902099609375, 0.329345703125, 2.468750000000, -29.281250000000, 0.132812500000, 1490870764
-0.107177734375, -0.927001953125, 0.398681640625, 17.093750000000, -42.171875000000, -5.437500000000, 1490870764
-0.210449218750, -1.014160156250, 0.382568359375, -11.382812500000, 9.250000000000, -6.539062500000, 1490870764
-0.210449218750, -1.014160156250, 0.382568359375, -11.382812500000, 9.250000000000, -6.539062500000, 1490870764
-0.210449218750, -1.014160156250, 0.382568359375, -11.382812500000, 9.250000000000, -6.539062500000, 1490870764
-0.210449218750, -1.014160156250, 0.382568359375, -11.382812500000, 9.250000000000, -6.539062500000, 1490870764
-0.210449218750, -1.014160156250, 0.382568359375, -11.382812500000, 9.250000000000, -6.539062500000, 1490870764
-0.054443359375, -0.848632812500, 0.239013671875, -11.898437500000, -9.648437500000, -8.812500000000, 1490870764
-0.054443359375, -0.848632812500, 0.239013671875, -11.898437500000, -9.648437500000, -8.812500000000, 1490870764
-0.054443359375, -0.848632812500, 0.239013671875, -11.898437500000, -9.648437500000, -8.812500000000, 1490870764
-0.054443359375, -0.848632812500, 0.239013671875, -11.898437500000, -9.648437500000, -8.812500000000, 1490870764
-0.054443359375, -0.848632812500, 0.239013671875, -11.898437500000, -9.648437500000, -8.812500000000, 1490870764
-0.054443359375, -0.848632812500, 0.239013671875, -11.898437500000, -9.648437500000, -8.812500000000, 1490870764
-0.054443359375, -0.848632812500, 0.239013671875, -11.898437500000, -9.648437500000, -8.812500000000, 1490870764
-0.068603515625, -0.986816406250, 0.403076171875, 36.757812500000, -12.890625000000, -8.234375000000, 1490870764
-0.068603515625, -0.986816406250, 0.403076171875, 36.757812500000, -12.890625000000, -8.234375000000, 1490870764
-0.068603515625, -0.986816406250, 0.403076171875, 36.757812500000, -12.890625000000, -8.234375000000, 1490870764
-0.182128906250, -1.007812500000, 0.387695312500, -39.679687500000, 31.515625000000, 6.921875000000, 1490870765
-0.182128906250, -1.007812500000, 0.387695312500, -39.679687500000, 31.515625000000, 6.921875000000, 1490870765
-0.182128906250, -1.007812500000, 0.387695312500, -39.679687500000, 31.515625000000, 6.921875000000, 1490870765
-0.182128906250, -1.007812500000, 0.387695312500, -39.679687500000, 31.515625000000, 6.921875000000, 1490870765
0.087402343750, -0.896972656250, 0.326904296875, -11.289062500000, -13.164062500000, -0.828125000000, 1490870765
0.087402343750, -0.896972656250, 0.326904296875, -11.289062500000, -13.164062500000, -0.828125000000, 1490870765
0.087402343750, -0.896972656250, 0.326904296875, -11.289062500000, -13.164062500000, -0.828125000000, 1490870765
-0.064208984375, -1.010009765625, 0.375732421875, 15.070312500000, 22.757812500000, 13.398437500000, 1490870765
-0.064208984375, -1.010009765625, 0.375732421875, 15.070312500000, 22.757812500000, 13.398437500000, 1490870765
-0.064208984375, -1.010009765625, 0.375732421875, 15.070312500000, 22.757812500000, 13.398437500000, 1490870765
-0.253906250000, -1.018554687500, 0.403320312500, 4.359375000000, 28.023437500000, 7.476562500000, 1490870765
-0.253906250000, -1.018554687500, 0.403320312500, 4.359375000000, 28.023437500000, 7.476562500000, 1490870765
-0.253906250000, -1.018554687500, 0.403320312500, 4.359375000000, 28.023437500000, 7.476562500000, 1490870765
-0.268798828125, -0.890869140625, 0.221923828125, 4.929687500000, -22.187500000000, -7.468750000000, 1490870765
-0.268798828125, -0.890869140625, 0.221923828125, 4.929687500000, -22.187500000000, -7.468750000000, 1490870765
-0.268798828125, -0.890869140625, 0.221923828125, 4.929687500000, -22.187500000000, -7.468750000000, 1490870765
-0.268798828125, -0.890869140625, 0.221923828125, 4.929687500000, -22.187500000000, -7.468750000000, 1490870765
-0.152587890625, -1.003173828125, 0.267333984375, 13.304687500000, -30.531250000000, -7.367187500000, 1490870765
-0.068603515625, -0.947998046875, 0.455078125000, 0.218750000000, 2.914062500000, -8.859375000000, 1490870765
-0.068603515625, -0.947998046875, 0.455078125000, 0.218750000000, 2.914062500000, -8.859375000000, 1490870765
-0.068603515625, -0.947998046875, 0.455078125000, 0.218750000000, 2.914062500000, -8.859375000000, 1490870765
-0.068603515625, -0.947998046875, 0.455078125000, 0.218750000000, 2.914062500000, -8.859375000000, 1490870765
0.018310546875, -0.858398437500, 0.320800781250, 1.257812500000, 25.000000000000, 1.468750000000, 1490870765
0.018310546875, -0.858398437500, 0.320800781250, 1.257812500000, 25.000000000000, 1.468750000000, 1490870765
0.018310546875, -0.858398437500, 0.320800781250, 1.257812500000, 25.000000000000, 1.468750000000, 1490870765
0.018310546875, -0.858398437500, 0.320800781250, 1.257812500000, 25.000000000000, 1.468750000000, 1490870765
0.018310546875, -0.858398437500, 0.320800781250, 1.257812500000, 25.000000000000, 1.468750000000, 1490870765
-0.187744140625, -0.867919921875, 0.377441406250, 2.320312500000, 22.578125000000, 2.359375000000, 1490870765
-0.187744140625, -0.867919921875, 0.377441406250, 2.320312500000, 22.578125000000, 2.359375000000, 1490870765
-0.187744140625, -0.867919921875, 0.377441406250, 2.320312500000, 22.578125000000, 2.359375000000, 1490870765
-0.099853515625, -1.015869140625, 0.182861328125, -1.585937500000, 8.335937500000, -10.179687500000, 1490870765
-0.099853515625, -1.015869140625, 0.182861328125, -1.585937500000, 8.335937500000, -10.179687500000, 1490870765
-0.055908203125, -1.142089843750, 0.234130859375, -6.062500000000, 3.015625000000, -6.359375000000, 1490870765
-0.055908203125, -1.142089843750, 0.234130859375, -6.062500000000, 3.015625000000, -6.359375000000, 1490870765
-0.055908203125, -1.142089843750, 0.234130859375, -6.062500000000, 3.015625000000, -6.359375000000, 1490870765
-0.055908203125, -1.142089843750, 0.234130859375, -6.062500000000, 3.015625000000, -6.359375000000, 1490870765
-0.108642578125, -0.979736328125, 0.324218750000, -20.523437500000, -1.210937500000, -7.734375000000, 1490870765
-0.108642578125, -0.979736328125, 0.324218750000, -20.523437500000, -1.210937500000, -7.734375000000, 1490870765
-0.108642578125, -0.979736328125, 0.324218750000, -20.523437500000, -1.210937500000, -7.734375000000, 1490870765
-0.148193359375, -0.936035156250, 0.238281250000, -15.687500000000, -1.351562500000, -14.710937500000, 1490870765
-0.148193359375, -0.936035156250, 0.238281250000, -15.687500000000, -1.351562500000, -14.710937500000, 1490870765
-0.148193359375, -0.936035156250, 0.238281250000, -15.687500000000, -1.351562500000, -14.710937500000, 1490870765
-0.148193359375, -0.936035156250, 0.238281250000, -15.687500000000, -1.351562500000, -14.710937500000, 1490870765
0.023925781250, -1.067138671875, 0.243408203125, 6.484375000000, 21.945312500000, -3.757812500000, 1490870765
0.023925781250, -1.067138671875, 0.243408203125, 6.484375000000, 21.945312500000, -3.757812500000, 1490870765
0.023925781250, -1.067138671875, 0.243408203125, 6.484375000000, 21.945312500000, -3.757812500000, 1490870765
-0.261718750000, -0.915039062500, 0.337402343750, 5.257812500000, 18.125000000000, -2.929687500000, 1490870765
-0.261718750000, -0.915039062500, 0.337402343750, 5.257812500000, 18.125000000000, -2.929687500000, 1490870765
-0.261718750000, -0.915039062500, 0.337402343750, 5.257812500000, 18.125000000000, -2.929687500000, 1490870765
-0.116455078125, -0.857177734375, 0.322265625000, -0.039062500000, 7.382812500000, -9.257812500000, 1490870765
-0.116455078125, -0.857177734375, 0.322265625000, -0.039062500000, 7.382812500000, -9.257812500000, 1490870765
-0.116455078125, -0.857177734375, 0.322265625000, -0.039062500000, 7.382812500000, -9.257812500000, 1490870765
-0.198486328125, -0.917480468750, 0.284912109375, -6.078125000000, 5.679687500000, -10.445312500000, 1490870765
-0.198486328125, -0.917480468750, 0.284912109375, -6.078125000000, 5.679687500000, -10.445312500000, 1490870765
-0.198486328125, -0.917480468750, 0.284912109375, -6.078125000000, 5.679687500000, -10.445312500000, 1490870765
-0.198486328125, -0.917480468750, 0.284912109375, -6.078125000000, 5.679687500000, -10.445312500000, 1490870765
-0.119873046875, -0.962890625000, 0.331542968750, -7.265625000000, -2.765625000000, -7.203125000000, 1490870765
-0.119873046875, -0.962890625000, 0.331542968750, -7.265625000000, -2.765625000000, -7.203125000000, 1490870765
-0.119873046875, -0.962890625000, 0.331542968750, -7.265625000000, -2.765625000000, -7.203125000000, 1490870765
-0.200683593750, -0.921142578125, 0.231201171875, -10.429687500000, -1.429687500000, -5.164062500000, 1490870765
-0.200683593750, -0.921142578125, 0.231201171875, -10.429687500000, -1.429687500000, -5.164062500000, 1490870765
-0.200683593750, -0.921142578125, 0.231201171875, -10.429687500000, -1.429687500000, -5.164062500000, 1490870765
-0.109375000000, -0.977050781250, 0.283203125000, -6.546875000000, -3.289062500000, -5.953125000000, 1490870765
-0.109375000000, -0.977050781250, 0.283203125000, -6.546875000000, -3.289062500000, -5.953125000000, 1490870765
-0.109375000000, -0.977050781250, 0.283203125000, -6.546875000000, -3.289062500000, -5.953125000000, 1490870765
-0.121826171875, -0.942382812500, 0.293212890625, -5.578125000000, -10.164062500000, -5.195312500000, 1490870766
-0.117187500000, -0.865966796875, 0.342285156250, -8.585937500000, -10.984375000000, -5.984375000000, 1490870766
-0.117187500000, -0.865966796875, 0.342285156250, -8.585937500000, -10.984375000000, -5.984375000000, 1490870766
-0.117187500000, -0.865966796875, 0.342285156250, -8.585937500000, -10.984375000000, -5.984375000000, 1490870766
-0.159912109375, -0.945556640625, 0.312744140625, -7.062500000000, -12.093750000000, -8.265625000000, 1490870766
-0.159912109375, -0.945556640625, 0.312744140625, -7.062500000000, -12.093750000000, -8.265625000000, 1490870766
-0.159912109375, -0.945556640625, 0.312744140625, -7.062500000000, -12.093750000000, -8.265625000000, 1490870766
-0.159912109375, -0.945556640625, 0.312744140625, -7.062500000000, -12.093750000000, -8.265625000000, 1490870766
-0.150634765625, -1.003662109375, 0.273925781250, -4.554687500000, -9.148437500000, -9.015625000000, 1490870766
-0.150634765625, -1.003662109375, 0.273925781250, -4.554687500000, -9.148437500000, -9.015625000000, 1490870766
-0.150634765625, -1.003662109375, 0.273925781250, -4.554687500000, -9.148437500000, -9.015625000000, 1490870766
-0.150634765625, -1.003662109375, 0.273925781250, -4.554687500000, -9.148437500000, -9.015625000000, 1490870766
-0.150634765625, -1.003662109375, 0.273925781250, -4.554687500000, -9.148437500000, -9.015625000000, 1490870766
