ACC_X,ACC_Y,ACC_Z,G_X,G_Y,G_Z,Unix Time
-0.205810546875, -0.919677734375, 0.351318359375, -3.039062500000, 2.484375000000, -3.531250000000, 1490870136
-0.205810546875, -0.919677734375, 0.351318359375, -3.039062500000, 2.484375000000, -3.531250000000, 1490870136
-0.205810546875, -0.919677734375, 0.351318359375, -3.039062500000, 2.484375000000, -3.531250000000, 1490870136
-0.102783203125, -0.857177734375, 0.384033203125, -4.703125000000, 2.039062500000, -6.046875000000, 1490870136
-0.102783203125, -0.857177734375, 0.384033203125, -4.703125000000, 2.039062500000, -6.046875000000, 1490870136
-0.102783203125, -0.857177734375, 0.384033203125, -4.703125000000, 2.039062500000, -6.046875000000, 1490870136
-0.168701171875, -0.903320312500, 0.353027343750, -4.765625000000, 4.156250000000, -4.718750000000, 1490870136
-0.168701171875, -0.903320312500, 0.353027343750, -4.765625000000, 4.156250000000, -4.718750000000, 1490870136
-0.168701171875, -0.903320312500, 0.353027343750, -4.765625000000, 4.156250000000, -4.718750000000, 1490870136
-0.177734375000, -0.953125000000, 0.462646484375, -3.398437500000, -0.671875000000, -4.343750000000, 1490870136
-0.177734375000, -0.953125000000, 0.462646484375, -3.398437500000, -0.671875000000, -4.343750000000, 1490870136
-0.177734375000, -0.953125000000, 0.462646484375, -3.398437500000, -0.671875000000, -4.343750000000, 1490870136
-0.177734375000, -0.953125000000, 0.462646484375, -3.398437500000, -0.671875000000, -4.343750000000, 1490870136
-0.191650390625, -0.914794921875, 0.343994140625, -6.507812500000, 0.453125000000, -6.390625000000, 1490870136
-0.191650390625, -0.914794921875, 0.343994140625, -6.507812500000, 0.453125000000, -6.390625000000, 1490870136
-0.191650390625, -0.914794921875, 0.343994140625, -6.507812500000, 0.453125000000, -6.390625000000, 1490870136
-0.095703125000, -0.937988281250, 0.458251953125, -3.687500000000, -0.085937500000, -4.265625000000, 1490870136
-0.095703125000, -0.937988281250, 0.458251953125, -3.687500000000, -0.085937500000, -4.265625000000, 1490870136
-0.095703125000, -0.937988281250, 0.458251953125, -3.687500000000, -0.085937500000, -4.265625000000, 1490870136
-0.256347656250, -1.019287109375, 0.370361328125, -6.726562500000, 4.242187500000, -6.750000000000, 1490870136
-0.119628906250, -1.005615234375, 0.352539062500, -8.781250000000, 2.187500000000, -1.945312500000, 1490870136
-0.119628906250, -1.005615234375, 0.352539062500, -8.781250000000, 2.187500000000, -1.945312500000, 1490870136
-0.119628906250, -1.005615234375, 0.352539062500, -8.781250000000, 2.187500000000, -1.945312500000, 1490870136
-0.119628906250, -1.005615234375, 0.352539062500, -8.781250000000, 2.187500000000, -1.945312500000, 1490870136
-0.119628906250, -1.005615234375, 0.352539062500, -8.781250000000, 2.187500000000, -1.945312500000, 1490870136
-0.119628906250, -1.005615234375, 0.352539062500, -8.781250000000, 2.187500000000, -1.945312500000, 1490870136
-0.172363281250, -0.866943359375, 0.353515625000, -4.539062500000, -0.359375000000, -4.539062500000, 1490870136
-0.172363281250, -0.866943359375, 0.353515625000, -4.539062500000, -0.359375000000, -4.539062500000, 1490870136
-0.172363281250, -0.866943359375, 0.353515625000, -4.539062500000, -0.359375000000, -4.539062500000, 1490870136
-0.184082031250, -0.917724609375, 0.354003906250, -1.125000000000, 0.289062500000, -4.289062500000, 1490870136
-0.184082031250, -0.917724609375, 0.354003906250, -1.125000000000, 0.289062500000, -4.289062500000, 1490870136
-0.184082031250, -0.917724609375, 0.354003906250, -1.125000000000, 0.289062500000, -4.289062500000, 1490870136
-0.099609375000, -0.894042968750, 0.395507812500, -5.335937500000, 0.070312500000, -4.093750000000, 1490870136
-0.099609375000, -0.894042968750, 0.395507812500, -5.335937500000, 0.070312500000, -4.093750000000, 1490870136
-0.099609375000, -0.894042968750, 0.395507812500, -5.335937500000, 0.070312500000, -4.093750000000, 1490870136
-0.255615234375, -0.806640625000, 0.383789062500, -1.617187500000, 0.515625000000, -4.984375000000, 1490870136
-0.255615234375, -0.806640625000, 0.383789062500, -1.617187500000, 0.515625000000, -4.984375000000, 1490870136
-0.255615234375, -0.806640625000, 0.383789062500, -1.617187500000, 0.515625000000, -4.984375000000, 1490870136
-0.255615234375, -0.806640625000, 0.383789062500, -1.617187500000, 0.515625000000, -4.984375000000, 1490870136
-0.218017578125, -0.959228515625, 0.422851562500, -2.867187500000, 2.093750000000, -1.726562500000, 1490870136
-0.218017578125, -0.959228515625, 0.422851562500, -2.867187500000, 2.093750000000, -1.726562500000, 1490870136
-0.218017578125, -0.959228515625, 0.422851562500, -2.867187500000, 2.093750000000, -1.726562500000, 1490870136
-0.197998046875, -0.953613281250, 0.438720703125, -3.890625000000, -0.320312500000, -2.218750000000, 1490870137
-0.197998046875, -0.953613281250, 0.438720703125, -3.890625000000, -0.320312500000, -2.218750000000, 1490870137
-0.197998046875, -0.953613281250, 0.438720703125, -3.890625000000, -0.320312500000, -2.218750000000, 1490870137
-0.179443359375, -0.928222656250, 0.311767578125, -1.828125000000, -2.406250000000, -3.273437500000, 1490870137
-0.179443359375, -0.928222656250, 0.311767578125, -1.828125000000, -2.406250000000, -3.273437500000, 1490870137
-0.179443359375, -0.928222656250, 0.311767578125, -1.828125000000, -2.406250000000, -3.273437500000, 1490870137
-0.251220703125, -0.890380859375, 0.389160156250, -3.312500000000, -1.156250000000, -4.445312500000, 1490870137
-0.251220703125, -0.890380859375, 0.389160156250, -3.312500000000, -1.156250000000, -4.445312500000, 1490870137
-0.251220703125, -0.890380859375, 0.389160156250, -3.312500000000, -1.156250000000, -4.445312500000, 1490870137
-0.251220703125, -0.890380859375, 0.389160156250, -3.312500000000, -1.156250000000, -4.445312500000, 1490870137
-0.101074218750, -0.854736328125, 0.310546875000, -3.554687500000, -0.406250000000, -4.070312500000, 1490870137
-0.101074218750, -0.854736328125, 0.310546875000, -3.554687500000, -0.406250000000, -4.070312500000, 1490870137
-0.101074218750, -0.854736328125, 0.310546875000, -3.554687500000, -0.406250000000, -4.070312500000, 1490870137
-0.107421875000, -0.960693359375, 0.366699218750, -3.062500000000, 0.914062500000, -6.578125000000, 1490870137
-0.107421875000, -0.960693359375, 0.366699218750, -3.062500000000, 0.914062500000, -6.578125000000, 1490870137
-0.107421875000, -0.960693359375, 0.366699218750, -3.062500000000, 0.914062500000, -6.578125000000, 1490870137
-0.140136718750, -0.955810546875, 0.344726562500, -6.851562500000, 0.476562500000, -3.820312500000, 1490870137
-0.140136718750, -0.955810546875, 0.344726562500, -6.851562500000, 0.476562500000, -3.820312500000, 1490870137
-0.140136718750, -0.955810546875, 0.344726562500, -6.851562500000, 0.476562500000, -3.820312500000, 1490870137
-0.140136718750, -0.955810546875, 0.344726562500, -6.851562500000, 0.476562500000, -3.820312500000, 1490870137
-0.204589843750, -0.916992187500, 0.465576171875, -4.234375000000, 0.968750000000, -4.429687500000, 1490870137
-0.204589843750, -0.916992187500, 0.465576171875, -4.234375000000, 0.968750000000, -4.429687500000, 1490870137
-0.204589843750, -0.916992187500, 0.465576171875, -4.234375000000, 0.968750000000, -4.429687500000, 1490870137
-0.204589843750, -0.916992187500, 0.465576171875, -4.234375000000, 0.968750000000, -4.429687500000, 1490870137
-0.096923828125, -0.918457031250, 0.364501953125, -4.289062500000, -0.460937500000, -1.445312500000, 1490870137
-0.096923828125, -0.918457031250, 0.364501953125, -4.289062500000, -0.460937500000, -1.445312500000, 1490870137
-0.096923828125, -0.918457031250, 0.364501953125, -4.289062500000, -0.460937500000, -1.445312500000, 1490870137
-0.096923828125, -0.918457031250, 0.364501953125, -4.289062500000, -0.460937500000, -1.445312500000, 1490870137
-0.096923828125, -0.918457031250, 0.364501953125, -4.289062500000, -0.460937500000, -1.445312500000, 1490870137
-0.118164062500, -0.807128906250, 0.323730468750, -6.007812500000, 4.945312500000, -3.093750000000, 1490870137
-0.118164062500, -0.807128906250, 0.323730468750, -6.007812500000, 4.945312500000, -3.093750000000, 1490870137
-0.118164062500, -0.807128906250, 0.323730468750, -6.007812500000, 4.945312500000, -3.093750000000, 1490870137
-0.098876953125, -0.976074218750, 0.379882812500, -4.218750000000, -2.671875000000, -2.835937500000, 1490870137
-0.098876953125, -0.976074218750, 0.379882812500, -4.218750000000, -2.671875000000, -2.835937500000, 1490870137
-0.098876953125, -0.976074218750, 0.379882812500, -4.218750000000, -2.671875000000, -2.835937500000, 1490870137
-0.098876953125, -0.976074218750, 0.379882812500, -4.218750000000, -2.671875000000, -2.835937500000, 1490870137
-0.214111328125, -0.791015625000, 0.382568359375, -4.796875000000, -0.398437500000, -2.703125000000, 1490870137
-0.214111328125, -0.791015625000, 0.382568359375, -4.796875000000, -0.398437500000, -2.703125000000, 1490870137
-0.214111328125, -0.791015625000, 0.382568359375, -4.796875000000, -0.398437500000, -2.703125000000, 1490870137
-0.164062500000, -0.942871093750, 0.453125000000, -4.992187500000, -1.546875000000, -4.039062500000, 1490870137
-0.164062500000, -0.942871093750, 0.453125000000, -4.992187500000, -1.546875000000, -4.039062500000, 1490870137
-0.164062500000, -0.942871093750, 0.453125000000, -4.992187500000, -1.546875000000, -4.039062500000, 1490870137
-0.167968750000, -0.851074218750, 0.345458984375, -4.500000000000, 0.820312500000, -3.031250000000, 1490870137
-0.167968750000, -0.851074218750, 0.345458984375, -4.500000000000, 0.820312500000, -3.031250000000, 1490870137
-0.167968750000, -0.851074218750, 0.345458984375, -4.500000000000, 0.820312500000, -3.031250000000, 1490870137
-0.200927734375, -0.909912109375, 0.354736328125, -4.062500000000, -2.710937500000, -3.804687500000, 1490870137
-0.200927734375, -0.909912109375, 0.354736328125, -4.062500000000, -2.710937500000, -3.804687500000, 1490870137
-0.200927734375, -0.909912109375, 0.354736328125, -4.062500000000, -2.710937500000, -3.804687500000, 1490870137
-0.200927734375, -0.909912109375, 0.354736328125, -4.062500000000, -2.710937500000, -3.804687500000, 1490870137
-0.213623046875, -0.893798828125, 0.393798828125, -3.710937500000, 0.507812500000, -1.140625000000, 1490870137
-0.213623046875, -0.893798828125, 0.393798828125, -3.710937500000, 0.507812500000, -1.140625000000, 1490870137
-0.213623046875, -0.893798828125, 0.393798828125, -3.710937500000, 0.507812500000, -1.140625000000, 1490870137
-0.120849609375, -0.848632812500, 0.355224609375, -1.539062500000, -0.875000000000, -6.046875000000, 1490870137
-0.120849609375, -0.848632812500, 0.355224609375, -1.539062500000, -0.875000000000, -6.046875000000, 1490870137
-0.120849609375, -0.848632812500, 0.355224609375, -1.539062500000, -0.875000000000, -6.046875000000, 1490870137
-0.167968750000, -0.928222656250, 0.355712890625, -4.968750000000, -0.968750000000, -2.820312500000, 1490870137
-0.167968750000, -0.928222656250, 0.355712890625, -4.968750000000, -0.968750000000, -2.820312500000, 1490870137
-0.167968750000, -0.928222656250, 0.355712890625, -4.968750000000, -0.968750000000, -2.820312500000, 1490870137
-0.105468750000, -0.950927734375, 0.390380859375, -3.187500000000, -2.554687500000, -1.937500000000, 1490870137
-0.105468750000, -0.950927734375, 0.390380859375, -3.187500000000, -2.554687500000, -1.937500000000, 1490870137
-0.105468750000, -0.950927734375, 0.390380859375, -3.187500000000, -2.554687500000, -1.937500000000, 1490870137
-0.105468750000, -0.950927734375, 0.390380859375, -3.187500000000, -2.554687500000, -1.937500000000, 1490870137
-0.145751953125, -0.959228515625, 0.302246093750, -6.226562500000, 0.054687500000, -4.085937500000, 1490870137
-0.145751953125, -0.959228515625, 0.302246093750, -6.226562500000, 0.054687500000, -4.085937500000, 1490870137
-0.145751953125, -0.959228515625, 0.302246093750, -6.226562500000, 0.054687500000, -4.085937500000, 1490870137
-0.094726562500, -0.861572265625, 0.401123046875, -4.203125000000, 2.382812500000, -2.843750000000, 1490870137
-0.094726562500, -0.861572265625, 0.401123046875, -4.203125000000, 2.382812500000, -2.843750000000, 1490870137
-0.094726562500, -0.861572265625, 0.401123046875, -4.203125000000, 2.382812500000, -2.843750000000, 1490870137
-0.254638671875, -0.949218750000, 0.438232421875, -3.320312500000, -4.187500000000, -1.125000000000, 1490870138
-0.254638671875, -0.949218750000, 0.438232421875, -3.320312500000, -4.187500000000, -1.125000000000, 1490870138
-0.254638671875, -0.949218750000, 0.438232421875, -3.320312500000, -4.187500000000, -1.125000000000, 1490870138
-0.114990234375, -0.887207031250, 0.451171875000, -4.296875000000, 2.414062500000, -2.914062500000, 1490870138
-0.114990234375, -0.887207031250, 0.451171875000, -4.296875000000, 2.414062500000, -2.914062500000, 1490870138
-0.114990234375, -0.887207031250, 0.451171875000, -4.296875000000, 2.414062500000, -2.914062500000, 1490870138
-0.114990234375, -0.887207031250, 0.451171875000, -4.296875000000, 2.414062500000, -2.914062500000, 1490870138
-0.197265625000, -0.872070312500, 0.304199218750, -3.750000000000, -1.367187500000, -3.890625000000, 1490870138
-0.197265625000, -0.872070312500, 0.304199218750, -3.750000000000, -1.367187500000, -3.890625000000, 1490870138
-0.197265625000, -0.872070312500, 0.304199218750, -3.750000000000, -1.367187500000, -3.890625000000, 1490870138
-0.166748046875, -0.920898437500, 0.448974609375, -6.773437500000, -0.945312500000, -4.234375000000, 1490870138
-0.166748046875, -0.920898437500, 0.448974609375, -6.773437500000, -0.945312500000, -4.234375000000, 1490870138
-0.166748046875, -0.920898437500, 0.448974609375, -6.773437500000, -0.945312500000, -4.234375000000, 1490870138
-0.164794921875, -0.962646484375, 0.506347656250, -6.093750000000, -0.914062500000, -3.695312500000, 1490870138
-0.164794921875, -0.962646484375, 0.506347656250, -6.093750000000, -0.914062500000, -3.695312500000, 1490870138
-0.164794921875, -0.962646484375, 0.506347656250, -6.093750000000, -0.914062500000, -3.695312500000, 1490870138
-0.215087890625, -0.938476562500, 0.445068359375, -3.460937500000, -0.046875000000, -6.218750000000, 1490870138
-0.215087890625, -0.938476562500, 0.445068359375, -3.460937500000, -0.046875000000, -6.218750000000, 1490870138
-0.215087890625, -0.938476562500, 0.445068359375, -3.460937500000, -0.046875000000, -6.218750000000, 1490870138
-0.215087890625, -0.938476562500, 0.445068359375, -3.460937500000, -0.046875000000, -6.218750000000, 1490870138
-0.211669921875, -0.869140625000, 0.403320312500, -3.171875000000, 0.289062500000, -4.695312500000, 1490870138
-0.211669921875, -0.869140625000, 0.403320312500, -3.171875000000, 0.289062500000, -4.695312500000, 1490870138
-0.211669921875, -0.869140625000, 0.403320312500, -3.171875000000, 0.289062500000, -4.695312500000, 1490870138
-0.217773437500, -0.918701171875, 0.444580078125, -3.023437500000, 0.835937500000, -4.304687500000, 1490870138
-0.217773437500, -0.918701171875, 0.444580078125, -3.023437500000, 0.835937500000, -4.304687500000, 1490870138
-0.217773437500, -0.918701171875, 0.444580078125, -3.023437500000, 0.835937500000, -4.304687500000, 1490870138
-0.154052734375, -0.783691406250, 0.370605468750, -6.007812500000, 0.203125000000, -4.257812500000, 1490870138
-0.154052734375, -0.783691406250, 0.370605468750, -6.007812500000, 0.203125000000, -4.257812500000, 1490870138
-0.154052734375, -0.783691406250, 0.370605468750, -6.007812500000, 0.203125000000, -4.257812500000, 1490870138
-0.052246093750, -1.014892578125, 0.360595703125, -4.640625000000, 0.804687500000, -4.539062500000, 1490870138
-0.052246093750, -1.014892578125, 0.360595703125, -4.640625000000, 0.804687500000, -4.539062500000, 1490870138
-0.052246093750, -1.014892578125, 0.360595703125, -4.640625000000, 0.804687500000, -4.539062500000, 1490870138
-0.052246093750, -1.014892578125, 0.360595703125, -4.640625000000, 0.804687500000, -4.539062500000, 1490870138
-0.108398437500, -1.012695312500, 0.363281250000, -4.531250000000, -2.804687500000, -4.453125000000, 1490870138
-0.108398437500, -1.012695312500, 0.363281250000, -4.531250000000, -2.804687500000, -4.453125000000, 1490870138
-0.108398437500, -1.012695312500, 0.363281250000, -4.531250000000, -2.804687500000, -4.453125000000, 1490870138
-0.097900390625, -0.864990234375, 0.309814453125, -6.093750000000, 1.023437500000, -2.648437500000, 1490870138
-0.097900390625, -0.864990234375, 0.309814453125, -6.093750000000, 1.023437500000, -2.648437500000, 1490870138
-0.097900390625, -0.864990234375, 0.309814453125, -6.093750000000, 1.023437500000, -2.648437500000, 1490870138
-0.213623046875, -0.944335937500, 0.447021484375, -1.742187500000, -2.765625000000, -4.976562500000, 1490870138
-0.213623046875, -0.944335937500, 0.447021484375, -1.742187500000, -2.765625000000, -4.976562500000, 1490870138
-0.213623046875, -0.944335937500, 0.447021484375, -1.742187500000, -2.765625000000, -4.976562500000, 1490870138
-0.104248046875, -0.863281250000, 0.374023437500, -3.546875000000, -0.054687500000, -3.578125000000, 1490870138
-0.104248046875, -0.863281250000, 0.374023437500, -3.546875000000, -0.054687500000, -3.578125000000, 1490870138
-0.104248046875, -0.863281250000, 0.374023437500, -3.546875000000, -0.054687500000, -3.578125000000, 1490870138
-0.104248046875, -0.863281250000, 0.374023437500, -3.546875000000, -0.054687500000, -3.578125000000, 1490870138
-0.152099609375, -0.860107421875, 0.362060546875, -3.703125000000, -0.960937500000, -3.242187500000, 1490870138
-0.152099609375, -0.860107421875, 0.362060546875, -3.703125000000, -0.960937500000, -3.242187500000, 1490870138
-0.152099609375, -0.860107421875, 0.362060546875, -3.703125000000, -0.960937500000, -3.242187500000, 1490870138
-0.275390625000, -0.945556640625, 0.390625000000, -6.226562500000, 0.226562500000, -6.101562500000, 1490870138
-0.275390625000, -0.945556640625, 0.390625000000, -6.226562500000, 0.226562500000, -6.101562500000, 1490870138
-0.275390625000, -0.945556640625, 0.390625000000, -6.226562500000, 0.226562500000, -6.101562500000, 1490870138
-0.194335937500, -0.891357421875, 0.362548828125, -4.828125000000, 0.562500000000, -4.367187500000, 1490870138
-0.194335937500, -0.891357421875, 0.362548828125, -4.828125000000, 0.562500000000, -4.367187500000, 1490870138
-0.194335937500, -0.891357421875, 0.362548828125, -4.828125000000, 0.562500000000, -4.367187500000, 1490870138
-0.103515625000, -0.860595703125, 0.362304687500, -3.523437500000, -0.921875000000, -1.515625000000, 1490870138
-0.103515625000, -0.860595703125, 0.362304687500, -3.523437500000, -0.921875000000, -1.515625000000, 1490870138
-0.103515625000, -0.860595703125, 0.362304687500, -3.523437500000, -0.921875000000, -1.515625000000, 1490870138
-0.252441406250, -0.981689453125, 0.403076171875, -5.062500000000, -0.195312500000, -3.132812500000, 1490870138
-0.187500000000, -0.939208984375, 0.407958984375, -4.179687500000, -0.773437500000, -2.437500000000, 1490870138
-0.187500000000, -0.939208984375, 0.407958984375, -4.179687500000, -0.773437500000, -2.437500000000, 1490870138
-0.101806640625, -0.963867187500, 0.396972656250, -1.593750000000, 0.390625000000, -4.015625000000, 1490870138
-0.101806640625, -0.963867187500, 0.396972656250, -1.593750000000, 0.390625000000, -4.015625000000, 1490870138
-0.101806640625, -0.963867187500, 0.396972656250, -1.593750000000, 0.390625000000, -4.015625000000, 1490870138
-0.101806640625, -0.963867187500, 0.396972656250, -1.593750000000, 0.390625000000, -4.015625000000, 1490870138
-0.056152343750, -0.930664062500, 0.401367187500, -3.289062500000, -0.406250000000, -4.234375000000, 1490870139
-0.056152343750, -0.930664062500, 0.401367187500, -3.289062500000, -0.406250000000, -4.234375000000, 1490870139
-0.056152343750, -0.930664062500, 0.401367187500, -3.289062500000, -0.406250000000, -4.234375000000, 1490870139
-0.216064453125, -0.953125000000, 0.404541015625, -3.664062500000, 2.234375000000, -1.273437500000, 1490870139
-0.216064453125, -0.953125000000, 0.404541015625, -3.664062500000, 2.234375000000, -1.273437500000, 1490870139
-0.216064453125, -0.953125000000, 0.404541015625, -3.664062500000, 2.234375000000, -1.273437500000, 1490870139
-0.216064453125, -0.953125000000, 0.404541015625, -3.664062500000, 2.234375000000, -1.273437500000, 1490870139
-0.107910156250, -1.004882812500, 0.400390625000, -4.578125000000, -0.757812500000, -4.062500000000, 1490870139
-0.107910156250, -1.004882812500, 0.400390625000, -4.578125000000, -0.757812500000, -4.062500000000, 1490870139
-0.107910156250, -1.004882812500, 0.400390625000, -4.578125000000, -0.757812500000, -4.062500000000, 1490870139
-0.108642578125, -1.013671875000, 0.438476562500, -3.648437500000, 2.695312500000, -1.656250000000, 1490870139
-0.108642578125, -1.013671875000, 0.438476562500, -3.648437500000, 2.695312500000, -1.656250000000, 1490870139
-0.108642578125, -1.013671875000, 0.438476562500, -3.648437500000, 2.695312500000, -1.656250000000, 1490870139
-0.254394531250, -0.924560546875, 0.363281250000, -2.773437500000, -2.750000000000, -4.460937500000, 1490870139
-0.254394531250, -0.924560546875, 0.363281250000, -2.773437500000, -2.750000000000, -4.460937500000, 1490870139
-0.254394531250, -0.924560546875, 0.363281250000, -2.773437500000, -2.750000000000, -4.460937500000, 1490870139
-0.106445312500, -0.922607421875, 0.348876953125, -5.742187500000, 0.828125000000, -4.031250000000, 1490870139
-0.106445312500, -0.922607421875, 0.348876953125, -5.742187500000, 0.828125000000, -4.031250000000, 1490870139
-0.106445312500, -0.922607421875, 0.348876953125, -5.742187500000, 0.828125000000, -4.031250000000, 1490870139
-0.106445312500, -0.922607421875, 0.348876953125, -5.742187500000, 0.828125000000, -4.031250000000, 1490870139
-0.151123046875, -0.881103515625, 0.337890625000, -4.843750000000, 0.882812500000, -4.226562500000, 1490870139
-0.151123046875, -0.881103515625, 0.337890625000, -4.843750000000, 0.882812500000, -4.226562500000, 1490870139
-0.260742187500, -0.906005859375, 0.454589843750, -3.789062500000, -2.023437500000, -4.890625000000, 1490870139
-0.260742187500, -0.906005859375, 0.454589843750, -3.789062500000, -2.023437500000, -4.890625000000, 1490870139
-0.260742187500, -0.906005859375, 0.454589843750, -3.789062500000, -2.023437500000, -4.890625000000, 1490870139
-0.260742187500, -0.906005859375, 0.454589843750, -3.789062500000, -2.023437500000, -4.890625000000, 1490870139
-0.136230468750, -0.942626953125, 0.396240234375, -4.804687500000, 0.625000000000, -6.085937500000, 1490870139
-0.136230468750, -0.942626953125, 0.396240234375, -4.804687500000, 0.625000000000, -6.085937500000, 1490870139
-0.136230468750, -0.942626953125, 0.396240234375, -4.804687500000, 0.625000000000, -6.085937500000, 1490870139
-0.195556640625, -0.891601562500, 0.443359375000, -5.914062500000, 2.578125000000, -4.460937500000, 1490870139
-0.195556640625, -0.891601562500, 0.443359375000, -5.914062500000, 2.578125000000, -4.460937500000, 1490870139
-0.195556640625, -0.891601562500, 0.443359375000, -5.914062500000, 2.578125000000, -4.460937500000, 1490870139
-0.195556640625, -0.891601562500, 0.443359375000, -5.914062500000, 2.578125000000, -4.460937500000, 1490870139
-0.117675781250, -0.962402343750, 0.358642578125, -3.156250000000, 0.843750000000, -3.265625000000, 1490870139
-0.117675781250, -0.962402343750, 0.358642578125, -3.156250000000, 0.843750000000, -3.265625000000, 1490870139
-0.117675781250, -0.962402343750, 0.358642578125, -3.156250000000, 0.843750000000, -3.265625000000, 1490870139
-0.200683593750, -0.852539062500, 0.395019531250, -3.679687500000, 0.757812500000, -4.968750000000, 1490870139
-0.200683593750, -0.852539062500, 0.395019531250, -3.679687500000, 0.757812500000, -4.968750000000, 1490870139
-0.200683593750, -0.852539062500, 0.395019531250, -3.679687500000, 0.757812500000, -4.968750000000, 1490870139
-0.267333984375, -0.882568359375, 0.454101562500, -3.195312500000, -0.710937500000, -4.226562500000, 1490870139
-0.267333984375, -0.882568359375, 0.454101562500, -3.195312500000, -0.710937500000, -4.226562500000, 1490870139
-0.267333984375, -0.882568359375, 0.454101562500, -3.195312500000, -0.710937500000, -4.226562500000, 1490870139
-0.190429687500, -0.855957031250, 0.441894531250, -3.078125000000, -2.804687500000, -4.789062500000, 1490870139
-0.190429687500, -0.855957031250, 0.441894531250, -3.078125000000, -2.804687500000, -4.789062500000, 1490870139
-0.190429687500, -0.855957031250, 0.441894531250, -3.078125000000, -2.804687500000, -4.789062500000, 1490870139
-0.190429687500, -0.855957031250, 0.441894531250, -3.078125000000, -2.804687500000, -4.789062500000, 1490870139
-0.205566406250, -0.948242187500, 0.440917968750, -4.734375000000, 0.007812500000, -6.703125000000, 1490870139
-0.205566406250, -0.948242187500, 0.440917968750, -4.734375000000, 0.007812500000, -6.703125000000, 1490870139
-0.205566406250, -0.948242187500, 0.440917968750, -4.734375000000, 0.007812500000, -6.703125000000, 1490870139
-0.131835937500, -0.910888671875, 0.459960937500, -3.445312500000, 2.398437500000, -4.679687500000, 1490870139
-0.131835937500, -0.910888671875, 0.459960937500, -3.445312500000, 2.398437500000, -4.679687500000, 1490870139
-0.131835937500, -0.910888671875, 0.459960937500, -3.445312500000, 2.398437500000, -4.679687500000, 1490870139
-0.171386718750, -0.927734375000, 0.365966796875, -4.375000000000, -4.523437500000, -3.492187500000, 1490870139
-0.171386718750, -0.927734375000, 0.365966796875, -4.375000000000, -4.523437500000, -3.492187500000, 1490870139
-0.171386718750, -0.927734375000, 0.365966796875, -4.375000000000, -4.523437500000, -3.492187500000, 1490870139
-0.126220703125, -0.855957031250, 0.445068359375, -3.226562500000, -0.156250000000, -6.593750000000, 1490870139
-0.126220703125, -0.855957031250, 0.445068359375, -3.226562500000, -0.156250000000, -6.593750000000, 1490870139
-0.126220703125, -0.855957031250, 0.445068359375, -3.226562500000, -0.156250000000, -6.593750000000, 1490870139
-0.126220703125, -0.855957031250, 0.445068359375, -3.226562500000, -0.156250000000, -6.593750000000, 1490870139
-0.239990234375, -0.844482421875, 0.333740234375, -4.578125000000, -2.476562500000, -1.117187500000, 1490870139
-0.239990234375, -0.844482421875, 0.333740234375, -4.578125000000, -2.476562500000, -1.117187500000, 1490870139
-0.239990234375, -0.844482421875, 0.333740234375, -4.578125000000, -2.476562500000, -1.117187500000, 1490870139
-0.194580078125, -0.958007812500, 0.450683593750, -4.867187500000, 0.703125000000, -3.203125000000, 1490870139
-0.194580078125, -0.958007812500, 0.450683593750, -4.867187500000, 0.703125000000, -3.203125000000, 1490870139
-0.194580078125, -0.958007812500, 0.450683593750, -4.867187500000, 0.703125000000, -3.203125000000, 1490870139
-0.187744140625, -0.913574218750, 0.354003906250, -3.960937500000, 0.179687500000, -3.406250000000, 1490870139
-0.187744140625, -0.913574218750, 0.354003906250, -3.960937500000, 0.179687500000, -3.406250000000, 1490870139
-0.187744140625, -0.913574218750, 0.354003906250, -3.960937500000, 0.179687500000, -3.406250000000, 1490870139
-0.171386718750, -0.966552734375, 0.372558593750, -4.718750000000, 2.062500000000, -1.429687500000, 1490870140
-0.171386718750, -0.966552734375, 0.372558593750, -4.718750000000, 2.062500000000, -1.429687500000, 1490870140
-0.171386718750, -0.966552734375, 0.372558593750, -4.718750000000, 2.062500000000, -1.429687500000, 1490870140
-0.171386718750, -0.966552734375, 0.372558593750, -4.718750000000, 2.062500000000, -1.429687500000, 1490870140
-0.095458984375, -0.904296875000, 0.405517578125, -1.875000000000, 0.851562500000, -1.656250000000, 1490870140
-0.095458984375, -0.904296875000, 0.405517578125, -1.875000000000, 0.851562500000, -1.656250000000, 1490870140
-0.095458984375, -0.904296875000, 0.405517578125, -1.875000000000, 0.851562500000, -1.656250000000, 1490870140
-0.207031250000, -0.899902343750, 0.360351562500, -1.984375000000, 2.601562500000, -4.906250000000, 1490870140
-0.207031250000, -0.899902343750, 0.360351562500, -1.984375000000, 2.601562500000, -4.906250000000, 1490870140
-0.207031250000, -0.899902343750, 0.360351562500, -1.984375000000, 2.601562500000, -4.906250000000, 1490870140
-0.156738281250, -0.855712890625, 0.403320312500, -4.257812500000, -0.921875000000, -3.976562500000, 1490870140
-0.156738281250, -0.855712890625, 0.403320312500, -4.257812500000, -0.921875000000, -3.976562500000, 1490870140
-0.156738281250, -0.855712890625, 0.403320312500, -4.257812500000, -0.921875000000, -3.976562500000, 1490870140
-0.215576171875, -0.966064453125, 0.300292968750, -4.648437500000, -0.929687500000, -3.609375000000, 1490870140
-0.215576171875, -0.966064453125, 0.300292968750, -4.648437500000, -0.929687500000, -3.609375000000, 1490870140
-0.215576171875, -0.966064453125, 0.300292968750, -4.648437500000, -0.929687500000, -3.609375000000, 1490870140
-0.215576171875, -0.966064453125, 0.300292968750, -4.648437500000, -0.929687500000, -3.609375000000, 1490870140
-0.201660156250, -0.866699218750, 0.304443359375, -4.054687500000, 2.578125000000, -3.414062500000, 1490870140
-0.214599609375, -0.951416015625, 0.353027343750, -3.296875000000, 2.164062500000, -5.132812500000, 1490870140
-0.145751953125, -0.869873046875, 0.452880859375, -1.093750000000, -0.367187500000, -3.898437500000, 1490870140
-0.145751953125, -0.869873046875, 0.452880859375, -1.093750000000, -0.367187500000, -3.898437500000, 1490870140
-0.145751953125, -0.869873046875, 0.452880859375, -1.093750000000, -0.367187500000, -3.898437500000, 1490870140
-0.145751953125, -0.869873046875, 0.452880859375, -1.093750000000, -0.367187500000, -3.898437500000, 1490870140
-0.105224609375, -0.919189453125, 0.298828125000, -2.625000000000, -2.218750000000, -4.257812500000, 1490870140
-0.105224609375, -0.919189453125, 0.298828125000, -2.625000000000, -2.218750000000, -4.257812500000, 1490870140
-0.105224609375, -0.919189453125, 0.298828125000, -2.625000000000, -2.218750000000, -4.257812500000, 1490870140
-0.166748046875, -0.959716796875, 0.415283203125, -4.000000000000, 1.734375000000, -3.156250000000, 1490870140
-0.166748046875, -0.959716796875, 0.415283203125, -4.000000000000, 1.734375000000, -3.156250000000, 1490870140
-0.166748046875, -0.959716796875, 0.415283203125, -4.000000000000, 1.734375000000, -3.156250000000, 1490870140
-0.166748046875, -0.959716796875, 0.415283203125, -4.000000000000, 1.734375000000, -3.156250000000, 1490870140
-0.108642578125, -1.006591796875, 0.392333984375, -4.968750000000, 0.156250000000, -4.367187500000, 1490870140
-0.108642578125, -1.006591796875, 0.392333984375, -4.968750000000, 0.156250000000, -4.367187500000, 1490870140
-0.108642578125, -1.006591796875, 0.392333984375, -4.968750000000, 0.156250000000, -4.367187500000, 1490870140
-0.108886718750, -0.878417968750, 0.306396484375, -2.992187500000, -2.164062500000, -4.445312500000, 1490870140
-0.108886718750, -0.878417968750, 0.306396484375, -2.992187500000, -2.164062500000, -4.445312500000, 1490870140
-0.108886718750, -0.878417968750, 0.306396484375, -2.992187500000, -2.164062500000, -4.445312500000, 1490870140
-0.253906250000, -0.937500000000, 0.388427734375, -3.250000000000, 0.234375000000, -3.382812500000, 1490870140
-0.253906250000, -0.937500000000, 0.388427734375, -3.250000000000, 0.234375000000, -3.382812500000, 1490870140
-0.253906250000, -0.937500000000, 0.388427734375, -3.250000000000, 0.234375000000, -3.382812500000, 1490870140
-0.153808593750, -0.937255859375, 0.369384765625, -3.015625000000, 0.304687500000, -6.085937500000, 1490870140
-0.153808593750, -0.937255859375, 0.369384765625, -3.015625000000, 0.304687500000, -6.085937500000, 1490870140
-0.153808593750, -0.937255859375, 0.369384765625, -3.015625000000, 0.304687500000, -6.085937500000, 1490870140
-0.153808593750, -0.937255859375, 0.369384765625, -3.015625000000, 0.304687500000, -6.085937500000, 1490870140
-0.213378906250, -0.964111328125, 0.362304687500, -3.023437500000, 0.296875000000, -3.867187500000, 1490870140
-0.213378906250, -0.964111328125, 0.362304687500, -3.023437500000, 0.296875000000, -3.867187500000, 1490870140
-0.213378906250, -0.964111328125, 0.362304687500, -3.023437500000, 0.296875000000, -3.867187500000, 1490870140
-0.157714843750, -0.856933593750, 0.371093750000, -3.203125000000, -2.421875000000, -4.242187500000, 1490870140
-0.157714843750, -0.856933593750, 0.371093750000, -3.203125000000, -2.421875000000, -4.242187500000, 1490870140
-0.157714843750, -0.856933593750, 0.371093750000, -3.203125000000, -2.421875000000, -4.242187500000, 1490870140
-0.047607421875, -0.971435546875, 0.354736328125, -4.429687500000, -2.609375000000, -4.242187500000, 1490870140
-0.047607421875, -0.971435546875, 0.354736328125, -4.429687500000, -2.609375000000, -4.242187500000, 1490870140
-0.047607421875, -0.971435546875, 0.354736328125, -4.429687500000, -2.609375000000, -4.242187500000, 1490870140
-0.162353515625, -0.869628906250, 0.362060546875, -1.945312500000, 0.820312500000, -2.882812500000, 1490870140
-0.162353515625, -0.869628906250, 0.362060546875, -1.945312500000, 0.820312500000, -2.882812500000, 1490870140
-0.162353515625, -0.869628906250, 0.362060546875, -1.945312500000, 0.820312500000, -2.882812500000, 1490870140
-0.162353515625, -0.869628906250, 0.362060546875, -1.945312500000, 0.820312500000, -2.882812500000, 1490870140
-0.200195312500, -0.933837890625, 0.455566406250, -4.679687500000, 2.015625000000, -6.281250000000, 1490870140
-0.200195312500, -0.933837890625, 0.455566406250, -4.679687500000, 2.015625000000, -6.281250000000, 1490870140
-0.200195312500, -0.933837890625, 0.455566406250, -4.679687500000, 2.015625000000, -6.281250000000, 1490870140
-0.113281250000, -0.855468750000, 0.441650390625, -4.664062500000, 0.562500000000, -5.265625000000, 1490870140
-0.113281250000, -0.855468750000, 0.441650390625, -4.664062500000, 0.562500000000, -5.265625000000, 1490870140
-0.113281250000, -0.855468750000, 0.441650390625, -4.664062500000, 0.562500000000, -5.265625000000, 1490870140
-0.154785156250, -0.918701171875, 0.363281250000, -4.765625000000, 2.398437500000, -2.328125000000, 1490870140
-0.154785156250, -0.918701171875, 0.363281250000, -4.765625000000, 2.398437500000, -2.328125000000, 1490870140
-0.154785156250, -0.918701171875, 0.363281250000, -4.765625000000, 2.398437500000, -2.328125000000, 1490870140
-0.187744140625, -0.872070312500, 0.454589843750, -3.101562500000, 2.570312500000, -4.210937500000, 1490870141
-0.187744140625, -0.872070312500, 0.454589843750, -3.101562500000, 2.570312500000, -4.210937500000, 1490870141
-0.187744140625, -0.872070312500, 0.454589843750, -3.101562500000, 2.570312500000, -4.210937500000, 1490870141
-0.187744140625, -0.872070312500, 0.454589843750, -3.101562500000, 2.570312500000, -4.210937500000, 1490870141
-0.198486328125, -0.963867187500, 0.351318359375, -3.023437500000, 2.054687500000, -1.226562500000, 1490870141
-0.198486328125, -0.963867187500, 0.351318359375, -3.023437500000, 2.054687500000, -1.226562500000, 1490870141
-0.198486328125, -0.963867187500, 0.351318359375, -3.023437500000, 2.054687500000, -1.226562500000, 1490870141
-0.110839843750, -0.929931640625, 0.430664062500, -4.109375000000, 0.828125000000, -4.062500000000, 1490870141
-0.110839843750, -0.929931640625, 0.430664062500, -4.109375000000, 0.828125000000, -4.062500000000, 1490870141
-0.110839843750, -0.929931640625, 0.430664062500, -4.109375000000, 0.828125000000, -4.062500000000, 1490870141
-0.204345703125, -0.916503906250, 0.392578125000, -3.257812500000, -2.187500000000, -3.062500000000, 1490870141
-0.204345703125, -0.916503906250, 0.392578125000, -3.257812500000, -2.187500000000, -3.062500000000, 1490870141
-0.204345703125, -0.916503906250, 0.392578125000, -3.257812500000, -2.187500000000, -3.062500000000, 1490870141
-0.114746093750, -0.860107421875, 0.308593750000, -3.343750000000, 2.640625000000, -4.304687500000, 1490870141
-0.114746093750, -0.860107421875, 0.308593750000, -3.343750000000, 2.640625000000, -4.304687500000, 1490870141
-0.114746093750, -0.860107421875, 0.308593750000, -3.343750000000, 2.640625000000, -4.304687500000, 1490870141
-0.114746093750, -0.860107421875, 0.308593750000, -3.343750000000, 2.640625000000, -4.304687500000, 1490870141
-0.246093750000, -0.905273437500, 0.384521484375, -4.046875000000, 2.062500000000, -4.726562500000, 1490870141
-0.246093750000, -0.905273437500, 0.384521484375, -4.046875000000, 2.062500000000, -4.726562500000, 1490870141
-0.246093750000, -0.905273437500, 0.384521484375, -4.046875000000, 2.062500000000, -4.726562500000, 1490870141
-0.208496093750, -0.846435546875, 0.376464843750, -4.757812500000, 0.539062500000, -4.515625000000, 1490870141
-0.208496093750, -0.846435546875, 0.376464843750, -4.757812500000, 0.539062500000, -4.515625000000, 1490870141
-0.208496093750, -0.846435546875, 0.376464843750, -4.757812500000, 0.539062500000, -4.515625000000, 1490870141
-0.097656250000, -0.863281250000, 0.465332031250, -1.484375000000, 0.148437500000, -1.945312500000, 1490870141
-0.097656250000, -0.863281250000, 0.465332031250, -1.484375000000, 0.148437500000, -1.945312500000, 1490870141
-0.097656250000, -0.863281250000, 0.465332031250, -1.484375000000, 0.148437500000, -1.945312500000, 1490870141
-0.096191406250, -0.953369140625, 0.295166015625, -3.281250000000, -0.218750000000, -3.257812500000, 1490870141
-0.096191406250, -0.953369140625, 0.295166015625, -3.281250000000, -0.218750000000, -3.257812500000, 1490870141
-0.096191406250, -0.953369140625, 0.295166015625, -3.281250000000, -0.218750000000, -3.257812500000, 1490870141
-0.096191406250, -0.953369140625, 0.295166015625, -3.281250000000, -0.218750000000, -3.257812500000, 1490870141
-0.200195312500, -0.963378906250, 0.389892578125, -4.140625000000, 0.500000000000, -1.679687500000, 1490870141
-0.200195312500, -0.963378906250, 0.389892578125, -4.140625000000, 0.500000000000, -1.679687500000, 1490870141
-0.200195312500, -0.963378906250, 0.389892578125, -4.140625000000, 0.500000000000, -1.679687500000, 1490870141
-0.111083984375, -0.950439453125, 0.290039062500, -1.804687500000, 0.234375000000, -6.164062500000, 1490870141
-0.111083984375, -0.950439453125, 0.290039062500, -1.804687500000, 0.234375000000, -6.164062500000, 1490870141
-0.111083984375, -0.950439453125, 0.290039062500, -1.804687500000, 0.234375000000, -6.164062500000, 1490870141
-0.118652343750, -0.915527343750, 0.405273437500, -1.515625000000, 1.140625000000, -4.054687500000, 1490870141
-0.118652343750, -0.915527343750, 0.405273437500, -1.515625000000, 1.140625000000, -4.054687500000, 1490870141
-0.118652343750, -0.915527343750, 0.405273437500, -1.515625000000, 1.140625000000, -4.054687500000, 1490870141
-0.150146484375, -0.873046875000, 0.358886718750, -4.484375000000, 2.132812500000, -3.562500000000, 1490870141
-0.150146484375, -0.873046875000, 0.358886718750, -4.484375000000, 2.132812500000, -3.562500000000, 1490870141
-0.150146484375, -0.873046875000, 0.358886718750, -4.484375000000, 2.132812500000, -3.562500000000, 1490870141
-0.150146484375, -0.873046875000, 0.358886718750, -4.484375000000, 2.132812500000, -3.562500000000, 1490870141
-0.110107421875, -0.872070312500, 0.448242187500, -4.812500000000, -0.242187500000, -1.421875000000, 1490870141
-0.110107421875, -0.872070312500, 0.448242187500, -4.812500000000, -0.242187500000, -1.421875000000, 1490870141
-0.188232421875, -0.965576171875, 0.354736328125, -1.218750000000, -0.578125000000, -4.929687500000, 1490870141
-0.188232421875, -0.965576171875, 0.354736328125, -1.218750000000, -0.578125000000, -4.929687500000, 1490870141
-0.188232421875, -0.965576171875, 0.354736328125, -1.218750000000, -0.578125000000, -4.929687500000, 1490870141
-0.188232421875, -0.965576171875, 0.354736328125, -1.218750000000, -0.578125000000, -4.929687500000, 1490870141
-0.169433593750, -0.950927734375, 0.399169921875, -4.820312500000, -0.539062500000, -3.414062500000, 1490870141
-0.169433593750, -0.950927734375, 0.399169921875, -4.820312500000, -0.539062500000, -3.414062500000, 1490870141
-0.169433593750, -0.950927734375, 0.399169921875, -4.820312500000, -0.539062500000, -3.414062500000, 1490870141
-0.118164062500, -0.967529296875, 0.402343750000, -4.812500000000, 0.132812500000, -6.828125000000, 1490870141
-0.118164062500, -0.967529296875, 0.402343750000, -4.812500000000, 0.132812500000, -6.828125000000, 1490870141
-0.118164062500, -0.967529296875, 0.402343750000, -3.156250000000, 2.101562500000, -1.414062500000, 1490870141
-0.193847656250, -0.968261718750, 0.396972656250, -3.679687500000, 2.406250000000, -6.312500000000, 1490870141
-0.193847656250, -0.968261718750, 0.396972656250, -3.679687500000, 2.406250000000, -6.312500000000, 1490870141
-0.193847656250, -0.968261718750, 0.396972656250, -3.679687500000, 2.406250000000, -6.312500000000, 1490870141
-0.211181640625, -0.945800781250, 0.387207031250, -3.960937500000, -2.273437500000, -3.218750000000, 1490870141
-0.114501953125, -0.850341796875, 0.289062500000, -3.632812500000, 0.687500000000, -4.671875000000, 1490870141
-0.114501953125, -0.850341796875, 0.289062500000, -3.632812500000, 0.687500000000, -4.671875000000, 1490870141
-0.114501953125, -0.850341796875, 0.289062500000, -3.632812500000, 0.687500000000, -4.671875000000, 1490870141
