ACC_X,ACC_Y,ACC_Z,G_X,G_Y,G_Z,Unix Time
-0.053955078125, -1.062988281250, 0.103759765625, -3.046875000000, 4.320312500000, 0.156250000000, 1490870770
-0.053955078125, -1.062988281250, 0.103759765625, -3.046875000000, 4.320312500000, 0.156250000000, 1490870770
-0.053955078125, -1.062988281250, 0.103759765625, -3.046875000000, 4.320312500000, 0.156250000000, 1490870770
-0.147460937500, -1.017822265625, 0.188476562500, -1.617187500000, 2.312500000000, -8.820312500000, 1490870770
-0.147460937500, -1.017822265625, 0.188476562500, -1.617187500000, 2.312500000000, -8.820312500000, 1490870770
-0.147460937500, -1.017822265625, 0.188476562500, -1.617187500000, 2.312500000000, -8.820312500000, 1490870770
-0.147460937500, -1.017822265625, 0.188476562500, -1.617187500000, 2.312500000000, -8.820312500000, 1490870770
-0.196044921875, -1.005859375000, 0.096679687500, -6.710937500000, -0.273437500000, -5.835937500000, 1490870770
-0.196044921875, -1.005859375000, 0.096679687500, -6.710937500000, -0.273437500000, -5.835937500000, 1490870770
-0.119384765625, -0.956542968750, 0.097412109375, -3.382812500000, 0.445312500000, -4.851562500000, 1490870770
-0.119384765625, -0.956542968750, 0.097412109375, -3.382812500000, 0.445312500000, -4.851562500000, 1490870770
-0.119384765625, -0.956542968750, 0.097412109375, -3.382812500000, 0.445312500000, -4.851562500000, 1490870770
-0.119384765625, -0.956542968750, 0.097412109375, -3.382812500000, 0.445312500000, -4.851562500000, 1490870770
-0.188720703125, -1.077148437500, 0.152587890625, -3.515625000000, 0.914062500000, 0.640625000000, 1490870770
-0.188720703125, -1.077148437500, 0.152587890625, -3.515625000000, 0.914062500000, 0.640625000000, 1490870770
-0.188720703125, -1.077148437500, 0.152587890625, -3.515625000000, 0.914062500000, 0.640625000000, 1490870770
-0.121826171875, -1.063232421875, 0.095458984375, -1.289062500000, -0.632812500000, -6.460937500000, 1490870770
-0.121826171875, -1.063232421875, 0.095458984375, -1.289062500000, -0.632812500000, -6.460937500000, 1490870770
-0.121826171875, -1.063232421875, 0.095458984375, -1.289062500000, -0.632812500000, -6.460937500000, 1490870770
-0.129150390625, -0.927246093750, 0.152343750000, -4.375000000000, 0.781250000000, -4.992187500000, 1490870770
-0.260009765625, -0.949218750000, 0.118408203125, -3.835937500000, 0.460937500000, -6.078125000000, 1490870770
-0.260009765625, -0.949218750000, 0.118408203125, -3.835937500000, 0.460937500000, -6.078125000000, 1490870770
-0.260009765625, -0.949218750000, 0.118408203125, -3.835937500000, 0.460937500000, -6.078125000000, 1490870770
-0.191650390625, -0.970947265625, 0.156250000000, -6.023437500000, -2.445312500000, -4.453125000000, 1490870770
-0.191650390625, -0.970947265625, 0.156250000000, -6.023437500000, -2.445312500000, -4.453125000000, 1490870770
-0.191650390625, -0.970947265625, 0.156250000000, -6.023437500000, -2.445312500000, -4.453125000000, 1490870770
-0.123291015625, -1.042724609375, 0.143066406250, -6.242187500000, 0.070312500000, -2.320312500000, 1490870770
-0.123291015625, -1.042724609375, 0.143066406250, -6.242187500000, 0.070312500000, -2.320312500000, 1490870770
-0.123291015625, -1.042724609375, 0.143066406250, -6.242187500000, 0.070312500000, -2.320312500000, 1490870770
-0.197021484375, -1.006835937500, 0.149169921875, -3.546875000000, -0.273437500000, -4.046875000000, 1490870770
-0.197021484375, -1.006835937500, 0.149169921875, -3.546875000000, -0.273437500000, -4.046875000000, 1490870770
-0.197021484375, -1.006835937500, 0.149169921875, -3.546875000000, -0.273437500000, -4.046875000000, 1490870770
-0.197021484375, -1.006835937500, 0.149169921875, -3.546875000000, -0.273437500000, -4.046875000000, 1490870770
-0.152832031250, -0.910400390625, 0.188476562500, -6.953125000000, -1.796875000000, -5.710937500000, 1490870770
-0.152832031250, -0.910400390625, 0.188476562500, -6.953125000000, -1.796875000000, -5.710937500000, 1490870770
-0.152832031250, -0.910400390625, 0.188476562500, -6.953125000000, -1.796875000000, -5.710937500000, 1490870770
-0.073486328125, -1.029785156250, 0.121337890625, -3.093750000000, 0.234375000000, -8.656250000000, 1490870770
-0.073486328125, -1.029785156250, 0.121337890625, -3.093750000000, 0.234375000000, -8.656250000000, 1490870770
-0.073486328125, -1.029785156250, 0.121337890625, -3.093750000000, 0.234375000000, -8.656250000000, 1490870770
-0.061279296875, -0.972656250000, 0.109375000000, -3.484375000000, 4.015625000000, -8.218750000000, 1490870770
-0.061279296875, -0.972656250000, 0.109375000000, -3.484375000000, 4.015625000000, -8.218750000000, 1490870770
-0.061279296875, -0.972656250000, 0.109375000000, -3.484375000000, 4.015625000000, -8.218750000000, 1490870770
-0.082275390625, -0.874511718750, 0.095458984375, -6.351562500000, -2.007812500000, -3.250000000000, 1490870770
-0.082275390625, -0.874511718750, 0.095458984375, -6.351562500000, -2.007812500000, -3.250000000000, 1490870771
-0.082275390625, -0.874511718750, 0.095458984375, -6.351562500000, -2.007812500000, -3.250000000000, 1490870771
-0.082275390625, -0.874511718750, 0.095458984375, -6.351562500000, -2.007812500000, -3.250000000000, 1490870771
-0.137207031250, -1.091552734375, 0.198730468750, -2.000000000000, 0.335937500000, -4.625000000000, 1490870771
-0.137207031250, -1.091552734375, 0.198730468750, -2.000000000000, 0.335937500000, -4.625000000000, 1490870771
-0.137207031250, -1.091552734375, 0.198730468750, -2.000000000000, 0.335937500000, -4.625000000000, 1490870771
-0.096435546875, -0.950683593750, 0.119140625000, -1.414062500000, 4.039062500000, -5.914062500000, 1490870771
-0.096435546875, -0.950683593750, 0.119140625000, -1.414062500000, 4.039062500000, -5.914062500000, 1490870771
-0.096435546875, -0.950683593750, 0.119140625000, -1.414062500000, 4.039062500000, -5.914062500000, 1490870771
-0.214843750000, -0.926269531250, 0.106445312500, -6.976562500000, 0.640625000000, -4.453125000000, 1490870771
-0.214843750000, -0.926269531250, 0.106445312500, -6.976562500000, 0.640625000000, -4.453125000000, 1490870771
-0.131591796875, -0.971679687500, 0.099853515625, -4.945312500000, -0.093750000000, -4.187500000000, 1490870771
-0.131591796875, -0.971679687500, 0.099853515625, -4.945312500000, -0.093750000000, -4.187500000000, 1490870771
-0.131591796875, -0.971679687500, 0.099853515625, -4.945312500000, -0.093750000000, -4.187500000000, 1490870771
-0.131591796875, -0.971679687500, 0.099853515625, -4.945312500000, -0.093750000000, -4.187500000000, 1490870771
-0.041259765625, -0.971679687500, 0.250244140625, -6.671875000000, 2.101562500000, -4.960937500000, 1490870771
-0.041259765625, -0.971679687500, 0.250244140625, -6.671875000000, 2.101562500000, -4.960937500000, 1490870771
-0.041259765625, -0.971679687500, 0.250244140625, -6.671875000000, 2.101562500000, -4.960937500000, 1490870771
-0.041259765625, -0.971679687500, 0.250244140625, -6.671875000000, 2.101562500000, -4.960937500000, 1490870771
-0.136230468750, -0.913574218750, 0.098632812500, -5.398437500000, 2.054687500000, -5.140625000000, 1490870771
-0.136230468750, -0.913574218750, 0.098632812500, -5.398437500000, 2.054687500000, -5.140625000000, 1490870771
-0.136230468750, -0.913574218750, 0.098632812500, -5.398437500000, 2.054687500000, -5.140625000000, 1490870771
-0.062255859375, -0.978759765625, 0.189453125000, -4.492187500000, 0.328125000000, -8.070312500000, 1490870771
-0.062255859375, -0.978759765625, 0.189453125000, -4.492187500000, 0.328125000000, -8.070312500000, 1490870771
-0.062255859375, -0.978759765625, 0.189453125000, -4.492187500000, 0.328125000000, -8.070312500000, 1490870771
-0.202148437500, -1.074218750000, 0.187988281250, -3.296875000000, 2.304687500000, -4.710937500000, 1490870771
-0.202148437500, -1.074218750000, 0.187988281250, -3.296875000000, 2.304687500000, -4.710937500000, 1490870771
-0.202148437500, -1.074218750000, 0.187988281250, -3.296875000000, 2.304687500000, -4.710937500000, 1490870771
-0.202148437500, -1.074218750000, 0.187988281250, -3.296875000000, 2.304687500000, -4.710937500000, 1490870771
-0.126220703125, -1.092773437500, 0.105712890625, -4.539062500000, -2.476562500000, 0.078125000000, 1490870771
-0.126220703125, -1.092773437500, 0.105712890625, -4.539062500000, -2.476562500000, 0.078125000000, 1490870771
-0.126220703125, -1.092773437500, 0.105712890625, -4.539062500000, -2.476562500000, 0.078125000000, 1490870771
-0.107910156250, -1.007568359375, 0.118652343750, -1.882812500000, -0.460937500000, -3.648437500000, 1490870771
-0.107910156250, -1.007568359375, 0.118652343750, -1.882812500000, -0.460937500000, -3.648437500000, 1490870771
-0.107910156250, -1.007568359375, 0.118652343750, -1.882812500000, -0.460937500000, -3.648437500000, 1490870771
-0.093750000000, -0.922851562500, 0.210205078125, -3.460937500000, -0.359375000000, -3.835937500000, 1490870771
-0.093750000000, -0.922851562500, 0.210205078125, -3.460937500000, -0.359375000000, -3.835937500000, 1490870771
-0.093750000000, -0.922851562500, 0.210205078125, -3.460937500000, -0.359375000000, -3.835937500000, 1490870771
-0.154785156250, -1.007812500000, 0.108154296875, -3.812500000000, -0.632812500000, -1.500000000000, 1490870771
-0.154785156250, -1.007812500000, 0.108154296875, -3.812500000000, -0.632812500000, -1.500000000000, 1490870771
-0.154785156250, -1.007812500000, 0.108154296875, -3.812500000000, -0.632812500000, -1.500000000000, 1490870771
-0.154785156250, -1.007812500000, 0.108154296875, -3.812500000000, -0.632812500000, -1.500000000000, 1490870771
-0.115234375000, -0.921386718750, 0.188232421875, -3.257812500000, -0.945312500000, -4.250000000000, 1490870771
-0.115234375000, -0.921386718750, 0.188232421875, -3.257812500000, -0.945312500000, -4.250000000000, 1490870771
-0.115234375000, -0.921386718750, 0.188232421875, -3.257812500000, -0.945312500000, -4.250000000000, 1490870771
-0.141113281250, -1.000000000000, 0.129882812500, -3.125000000000, 0.906250000000, -3.109375000000, 1490870771
-0.141113281250, -1.000000000000, 0.129882812500, -3.125000000000, 0.906250000000, -3.109375000000, 1490870771
-0.141113281250, -1.000000000000, 0.129882812500, -3.125000000000, 0.906250000000, -3.109375000000, 1490870771
-0.141601562500, -1.022705078125, 0.216308593750, -3.328125000000, 0.132812500000, -8.656250000000, 1490870771
-0.141601562500, -1.022705078125, 0.216308593750, -3.328125000000, 0.132812500000, -8.656250000000, 1490870771
-0.141601562500, -1.022705078125, 0.216308593750, -3.328125000000, 0.132812500000, -8.656250000000, 1490870771
-0.114501953125, -1.026367187500, 0.123779296875, -3.046875000000, 0.750000000000, -1.562500000000, 1490870771
-0.114501953125, -1.026367187500, 0.123779296875, -3.046875000000, 0.750000000000, -1.562500000000, 1490870771
-0.114501953125, -1.026367187500, 0.123779296875, -3.046875000000, 0.750000000000, -1.562500000000, 1490870771
-0.114501953125, -1.026367187500, 0.123779296875, -3.046875000000, 0.750000000000, -1.562500000000, 1490870771
-0.056396484375, -1.083496093750, 0.137207031250, -1.812500000000, 0.554687500000, -5.750000000000, 1490870771
-0.056396484375, -1.083496093750, 0.137207031250, -1.812500000000, 0.554687500000, -5.750000000000, 1490870771
-0.056396484375, -1.083496093750, 0.137207031250, -1.812500000000, 0.554687500000, -5.750000000000, 1490870771
-0.199707031250, -0.974365234375, 0.169677734375, -4.109375000000, 0.906250000000, -2.570312500000, 1490870771
-0.199707031250, -0.974365234375, 0.169677734375, -4.109375000000, 0.906250000000, -2.570312500000, 1490870771
-0.199707031250, -0.974365234375, 0.169677734375, -4.109375000000, 0.906250000000, -2.570312500000, 1490870771
-0.127197265625, -0.936035156250, 0.173095703125, -1.453125000000, 0.960937500000, -2.625000000000, 1490870771
-0.127197265625, -0.936035156250, 0.173095703125, -1.453125000000, 0.960937500000, -2.625000000000, 1490870771
-0.127197265625, -0.936035156250, 0.173095703125, -1.453125000000, 0.960937500000, -2.625000000000, 1490870771
-0.151123046875, -0.852050781250, 0.144775390625, -6.039062500000, 2.609375000000, -6.398437500000, 1490870771
-0.151123046875, -0.852050781250, 0.144775390625, -6.039062500000, 2.609375000000, -6.398437500000, 1490870771
-0.151123046875, -0.852050781250, 0.144775390625, -6.039062500000, 2.609375000000, -6.398437500000, 1490870771
-0.151123046875, -0.852050781250, 0.144775390625, -6.039062500000, 2.609375000000, -6.398437500000, 1490870771
-0.140869140625, -1.007568359375, 0.158203125000, -4.617187500000, 1.046875000000, -1.250000000000, 1490870772
-0.140869140625, -1.007568359375, 0.158203125000, -4.617187500000, 1.046875000000, -1.250000000000, 1490870772
-0.140869140625, -1.007568359375, 0.158203125000, -4.617187500000, 1.046875000000, -1.250000000000, 1490870772
-0.100585937500, -1.063476562500, 0.095703125000, -1.218750000000, -1.101562500000, -5.203125000000, 1490870772
-0.100585937500, -1.063476562500, 0.095703125000, -1.218750000000, -1.101562500000, -5.203125000000, 1490870772
-0.100585937500, -1.063476562500, 0.095703125000, -1.218750000000, -1.101562500000, -5.203125000000, 1490870772
0.022705078125, -0.927978515625, 0.144531250000, -4.390625000000, 0.765625000000, -5.273437500000, 1490870772
0.022705078125, -0.927978515625, 0.144531250000, -4.390625000000, 0.765625000000, -5.273437500000, 1490870772
0.022705078125, -0.927978515625, 0.144531250000, -4.390625000000, 0.765625000000, -5.273437500000, 1490870772
-0.095214843750, -0.989746093750, 0.162841796875, -4.476562500000, 2.609375000000, -2.320312500000, 1490870772
-0.095214843750, -0.989746093750, 0.162841796875, -4.476562500000, 2.609375000000, -2.320312500000, 1490870772
-0.095214843750, -0.989746093750, 0.162841796875, -4.476562500000, 2.609375000000, -2.320312500000, 1490870772
-0.095214843750, -0.989746093750, 0.162841796875, -4.476562500000, 2.609375000000, -2.320312500000, 1490870772
-0.114746093750, -1.018310546875, 0.143798828125, -1.406250000000, -2.242187500000, -1.851562500000, 1490870772
-0.114746093750, -1.018310546875, 0.143798828125, -1.406250000000, -2.242187500000, -1.851562500000, 1490870772
-0.114746093750, -1.018310546875, 0.143798828125, -1.406250000000, -2.242187500000, -1.851562500000, 1490870772
-0.141601562500, -0.993164062500, 0.167724609375, -3.242187500000, 2.031250000000, -3.664062500000, 1490870772
-0.141601562500, -0.993164062500, 0.167724609375, -3.242187500000, 2.031250000000, -3.664062500000, 1490870772
-0.141601562500, -0.993164062500, 0.167724609375, -3.242187500000, 2.031250000000, -3.664062500000, 1490870772
-0.127197265625, -1.087890625000, 0.116943359375, -1.453125000000, 0.320312500000, -4.859375000000, 1490870772
-0.127197265625, -1.087890625000, 0.116943359375, -1.453125000000, 0.320312500000, -4.859375000000, 1490870772
-0.127197265625, -1.087890625000, 0.116943359375, -1.453125000000, 0.320312500000, -4.859375000000, 1490870772
-0.150146484375, -1.028076171875, 0.105224609375, -4.007812500000, 2.812500000000, -2.234375000000, 1490870772
-0.150146484375, -1.028076171875, 0.105224609375, -4.007812500000, 2.812500000000, -2.234375000000, 1490870772
-0.150146484375, -1.028076171875, 0.105224609375, -4.007812500000, 2.812500000000, -2.234375000000, 1490870772
-0.102294921875, -0.909179687500, 0.209228515625, -1.289062500000, 2.476562500000, -4.343750000000, 1490870772
-0.145996093750, -1.029541015625, 0.134033203125, -2.687500000000, -0.843750000000, -4.226562500000, 1490870772
-0.145996093750, -1.029541015625, 0.134033203125, -2.687500000000, -0.843750000000, -4.226562500000, 1490870772
-0.145996093750, -1.029541015625, 0.134033203125, -2.687500000000, -0.843750000000, -4.226562500000, 1490870772
-0.178955078125, -0.987548828125, 0.111328125000, 4.601562500000, 2.500000000000, -1.593750000000, 1490870772
-0.178955078125, -0.987548828125, 0.111328125000, 4.601562500000, 2.500000000000, -1.593750000000, 1490870772
-0.178955078125, -0.987548828125, 0.111328125000, 4.601562500000, 2.500000000000, -1.593750000000, 1490870772
-0.057861328125, -0.999267578125, 0.095947265625, 7.578125000000, 12.835937500000, -3.843750000000, 1490870772
-0.057861328125, -0.999267578125, 0.095947265625, 7.578125000000, 12.835937500000, -3.843750000000, 1490870772
-0.057861328125, -0.999267578125, 0.095947265625, 7.578125000000, 12.835937500000, -3.843750000000, 1490870772
-0.115478515625, -1.006591796875, 0.139404296875, 7.968750000000, 10.625000000000, -4.820312500000, 1490870772
-0.115478515625, -1.006591796875, 0.139404296875, 7.968750000000, 10.625000000000, -4.820312500000, 1490870772
-0.115478515625, -1.006591796875, 0.139404296875, 7.968750000000, 10.625000000000, -4.820312500000, 1490870772
-0.100585937500, -0.952880859375, 0.144042968750, 12.054687500000, -2.085937500000, -6.187500000000, 1490870772
-0.100585937500, -0.952880859375, 0.144042968750, 12.054687500000, -2.085937500000, -6.187500000000, 1490870772
-0.100585937500, -0.952880859375, 0.144042968750, 12.054687500000, -2.085937500000, -6.187500000000, 1490870772
-0.100585937500, -0.952880859375, 0.144042968750, 12.054687500000, -2.085937500000, -6.187500000000, 1490870772
-0.145751953125, -1.053955078125, 0.119628906250, 3.976562500000, 11.210937500000, -0.757812500000, 1490870772
-0.145751953125, -1.053955078125, 0.119628906250, 3.976562500000, 11.210937500000, -0.757812500000, 1490870772
-0.145751953125, -1.053955078125, 0.119628906250, 3.976562500000, 11.210937500000, -0.757812500000, 1490870772
-0.193847656250, -0.936035156250, 0.093261718750, 12.679687500000, 1.062500000000, 1.187500000000, 1490870772
-0.193847656250, -0.936035156250, 0.093261718750, 12.679687500000, 1.062500000000, 1.187500000000, 1490870772
-0.193847656250, -0.936035156250, 0.093261718750, 12.679687500000, 1.062500000000, 1.187500000000, 1490870772
-0.107177734375, -0.920654296875, 0.155761718750, 17.132812500000, -13.531250000000, 1.156250000000, 1490870772
-0.107177734375, -0.920654296875, 0.155761718750, 17.132812500000, -13.531250000000, 1.156250000000, 1490870772
-0.107177734375, -0.920654296875, 0.155761718750, 17.132812500000, -13.531250000000, 1.156250000000, 1490870772
-0.107177734375, -0.920654296875, 0.155761718750, 17.132812500000, -13.531250000000, 1.156250000000, 1490870772
-0.165771484375, -0.967773437500, 0.047363281250, 21.625000000000, 6.179687500000, -6.507812500000, 1490870772
-0.165771484375, -0.967773437500, 0.047363281250, 21.625000000000, 6.179687500000, -6.507812500000, 1490870772
-0.165771484375, -0.967773437500, 0.047363281250, 21.625000000000, 6.179687500000, -6.507812500000, 1490870772
-0.134521484375, -0.954589843750, 0.062255859375, 16.781250000000, 12.375000000000, -3.000000000000, 1490870772
-0.134521484375, -0.954589843750, 0.062255859375, 16.781250000000, 12.375000000000, -3.000000000000, 1490870772
-0.134521484375, -0.954589843750, 0.062255859375, 16.781250000000, 12.375000000000, -3.000000000000, 1490870772
-0.202636718750, -0.955078125000, 0.111328125000, 37.554687500000, 31.296875000000, -13.109375000000, 1490870772
-0.202636718750, -0.955078125000, 0.111328125000, 37.554687500000, 31.296875000000, -13.109375000000, 1490870772
-0.202636718750, -0.955078125000, 0.111328125000, 37.554687500000, 31.296875000000, -13.109375000000, 1490870772
-0.130615234375, -0.904052734375, 0.040039062500, 63.312500000000, -20.523437500000, -2.210937500000, 1490870772
-0.130615234375, -0.904052734375, 0.040039062500, 63.312500000000, -20.523437500000, -2.210937500000, 1490870772
-0.130615234375, -0.904052734375, 0.040039062500, 63.312500000000, -20.523437500000, -2.210937500000, 1490870772
-0.130615234375, -0.904052734375, 0.040039062500, 63.312500000000, -20.523437500000, -2.210937500000, 1490870772
-0.110839843750, -0.937988281250, -0.000000000000, 59.304687500000, -72.976562500000, 6.218750000000, 1490870772
-0.110839843750, -0.937988281250, -0.000000000000, 59.304687500000, -72.976562500000, 6.218750000000, 1490870773
-0.110839843750, -0.937988281250, -0.000000000000, 59.304687500000, -72.976562500000, 6.218750000000, 1490870773
-0.052490234375, -1.000488281250, 0.154052734375, 54.929687500000, -20.148437500000, 8.023437500000, 1490870773
-0.052490234375, -1.000488281250, 0.154052734375, 54.929687500000, -20.148437500000, 8.023437500000, 1490870773
-0.212890625000, -1.076660156250, 0.112304687500, 59.687500000000, -13.039062500000, -8.351562500000, 1490870773
-0.212890625000, -1.076660156250, 0.112304687500, 59.687500000000, -13.039062500000, -8.351562500000, 1490870773
-0.212890625000, -1.076660156250, 0.112304687500, 59.687500000000, -13.039062500000, -8.351562500000, 1490870773
-0.205078125000, -1.222412109375, 0.137451171875, -55.562500000000, 75.007812500000, -2.007812500000, 1490870773
-0.205078125000, -1.222412109375, 0.137451171875, -55.562500000000, 75.007812500000, -2.007812500000, 1490870773
-0.205078125000, -1.222412109375, 0.137451171875, -55.562500000000, 75.007812500000, -2.007812500000, 1490870773
-0.205078125000, -1.222412109375, 0.137451171875, -55.562500000000, 75.007812500000, -2.007812500000, 1490870773
-0.205078125000, -1.222412109375, 0.137451171875, -55.562500000000, 75.007812500000, -2.007812500000, 1490870773
-0.211914062500, -1.157714843750, -0.012695312500, -79.531250000000, 106.976562500000, -7.468750000000, 1490870773
-0.211914062500, -1.157714843750, -0.012695312500, -79.531250000000, 106.976562500000, -7.468750000000, 1490870773
-0.211914062500, -1.157714843750, -0.012695312500, -79.531250000000, 106.976562500000, -7.468750000000, 1490870773
-0.051513671875, -1.180664062500, -0.015625000000, -132.929687500000, -112.148437500000, -16.406250000000, 1490870773
-0.051513671875, -1.180664062500, -0.015625000000, -132.929687500000, -112.148437500000, -16.406250000000, 1490870773
-0.051513671875, -1.180664062500, -0.015625000000, -132.929687500000, -112.148437500000, -16.406250000000, 1490870773
-0.134033203125, -1.173339843750, 0.009033203125, 10.046875000000, 187.210937500000, -13.890625000000, 1490870773
-0.134033203125, -1.173339843750, 0.009033203125, 10.046875000000, 187.210937500000, -13.890625000000, 1490870773
-0.134033203125, -1.173339843750, 0.009033203125, 10.046875000000, 187.210937500000, -13.890625000000, 1490870773
0.062988281250, -1.442626953125, -0.193603515625, -185.828125000000, 114.273437500000, -26.937500000000, 1490870773
0.062988281250, -1.442626953125, -0.193603515625, -185.828125000000, 114.273437500000, -26.937500000000, 1490870773
0.062988281250, -1.442626953125, -0.193603515625, -185.828125000000, 114.273437500000, -26.937500000000, 1490870773
0.071044921875, -1.637207031250, 0.210205078125, -105.093750000000, -256.000000000000, -3.578125000000, 1490870773
0.071044921875, -1.637207031250, 0.210205078125, -105.093750000000, -256.000000000000, -3.578125000000, 1490870773
0.071044921875, -1.637207031250, 0.210205078125, -105.093750000000, -256.000000000000, -3.578125000000, 1490870773
0.071044921875, -1.637207031250, 0.210205078125, -105.093750000000, -256.000000000000, -3.578125000000, 1490870773
0.088134765625, -1.558837890625, 0.134765625000, -105.062500000000, -256.000000000000, 1.375000000000, 1490870773
0.088134765625, -1.558837890625, 0.134765625000, -105.062500000000, -256.000000000000, 1.375000000000, 1490870773
0.088134765625, -1.558837890625, 0.134765625000, -105.062500000000, -256.000000000000, 1.375000000000, 1490870773
-0.081542968750, -1.363769531250, 0.198730468750, 10.320312500000, -145.875000000000, -10.640625000000, 1490870773
-0.081542968750, -1.363769531250, 0.198730468750, 10.320312500000, -145.875000000000, -10.640625000000, 1490870773
-0.081542968750, -1.363769531250, 0.198730468750, 10.320312500000, -145.875000000000, -10.640625000000, 1490870773
-0.130126953125, -1.326904296875, 0.059326171875, -29.351562500000, 253.992187500000, 9.468750000000, 1490870773
-0.130126953125, -1.326904296875, 0.059326171875, -29.351562500000, 253.992187500000, 9.468750000000, 1490870773
-0.130126953125, -1.326904296875, 0.059326171875, -29.351562500000, 253.992187500000, 9.468750000000, 1490870773
-0.130126953125, -1.326904296875, 0.059326171875, -29.351562500000, 253.992187500000, 9.468750000000, 1490870773
-0.051269531250, -1.186767578125, 0.084472656250, -60.695312500000, 253.992187500000, -27.828125000000, 1490870773
-0.051269531250, -1.186767578125, 0.084472656250, -60.695312500000, 253.992187500000, -27.828125000000, 1490870773
-0.051269531250, -1.186767578125, 0.084472656250, -60.695312500000, 253.992187500000, -27.828125000000, 1490870773
-0.343017578125, -1.197753906250, 0.083496093750, -13.554687500000, 237.984375000000, 9.195312500000, 1490870773
-0.343017578125, -1.197753906250, 0.083496093750, -13.554687500000, 237.984375000000, 9.195312500000, 1490870773
-0.343017578125, -1.197753906250, 0.083496093750, -13.554687500000, 237.984375000000, 9.195312500000, 1490870773
-0.231445312500, -1.156005859375, -0.035156250000, 76.359375000000, -55.789062500000, -8.195312500000, 1490870773
-0.231445312500, -1.156005859375, -0.035156250000, 76.359375000000, -55.789062500000, -8.195312500000, 1490870773
-0.231445312500, -1.156005859375, -0.035156250000, 76.359375000000, -55.789062500000, -8.195312500000, 1490870773
-0.290527343750, -1.239257812500, 0.032470703125, 166.937500000000, -169.601562500000, 15.820312500000, 1490870773
-0.290527343750, -1.239257812500, 0.032470703125, 166.937500000000, -169.601562500000, 15.820312500000, 1490870773
-0.290527343750, -1.239257812500, 0.032470703125, 166.937500000000, -169.601562500000, 15.820312500000, 1490870773
-0.290527343750, -1.239257812500, 0.032470703125, 166.937500000000, -169.601562500000, 15.820312500000, 1490870773
0.194824218750, -0.972656250000, 0.189208984375, 146.585937500000, -189.234375000000, 37.140625000000, 1490870773
0.313476562500, -0.959716796875, 0.235839843750, 87.015625000000, -111.984375000000, 7.117187500000, 1490870773
0.313476562500, -0.959716796875, 0.235839843750, 87.015625000000, -111.984375000000, 7.117187500000, 1490870773
0.313476562500, -0.959716796875, 0.235839843750, 87.015625000000, -111.984375000000, 7.117187500000, 1490870773
-0.135009765625, -0.899414062500, 0.166503906250, -44.335937500000, 84.398437500000, -9.000000000000, 1490870773
-0.135009765625, -0.899414062500, 0.166503906250, -44.335937500000, 84.398437500000, -9.000000000000, 1490870773
-0.135009765625, -0.899414062500, 0.166503906250, -44.335937500000, 84.398437500000, -9.000000000000, 1490870773
-0.135009765625, -0.899414062500, 0.166503906250, -66.140625000000, 59.937500000000, -14.234375000000, 1490870773
-0.065429687500, -0.472167968750, 0.078125000000, -102.015625000000, -18.601562500000, -18.664062500000, 1490870773
-0.065429687500, -0.472167968750, 0.078125000000, -102.015625000000, -18.601562500000, -18.664062500000, 1490870773
-0.065429687500, -0.472167968750, 0.078125000000, -102.015625000000, -18.601562500000, -18.664062500000, 1490870773
-0.065429687500, -0.472167968750, 0.078125000000, -102.015625000000, -18.601562500000, -18.664062500000, 1490870773
-0.063476562500, -0.454833984375, 0.070556640625, -131.390625000000, -23.710937500000, -23.351562500000, 1490870773
0.082275390625, -0.507080078125, -0.020751953125, -144.718750000000, -18.781250000000, -25.875000000000, 1490870773
0.082275390625, -0.507080078125, -0.020751953125, -144.718750000000, -18.781250000000, -25.875000000000, 1490870773
0.082275390625, -0.507080078125, -0.020751953125, -144.718750000000, -18.781250000000, -25.875000000000, 1490870773
0.020996093750, -0.517333984375, -0.026123046875, -170.593750000000, 27.726562500000, -31.210937500000, 1490870774
0.020996093750, -0.517333984375, -0.026123046875, -170.593750000000, 27.726562500000, -31.210937500000, 1490870774
0.020996093750, -0.517333984375, -0.026123046875, -170.593750000000, 27.726562500000, -31.210937500000, 1490870774
-0.091064453125, -0.516113281250, 0.020507812500, -152.796875000000, 62.085937500000, -31.554687500000, 1490870774
-0.091064453125, -0.516113281250, 0.020507812500, -152.796875000000, 62.085937500000, -31.554687500000, 1490870774
-0.091064453125, -0.516113281250, 0.020507812500, -152.796875000000, 62.085937500000, -31.554687500000, 1490870774
-0.174804687500, -0.533447265625, -0.018554687500, -157.554687500000, 78.015625000000, -33.968750000000, 1490870774
-0.174804687500, -0.533447265625, -0.018554687500, -157.554687500000, 78.015625000000, -33.968750000000, 1490870774
-0.174804687500, -0.533447265625, -0.018554687500, -157.554687500000, 78.015625000000, -33.968750000000, 1490870774
-0.174804687500, -0.533447265625, -0.018554687500, -157.554687500000, 78.015625000000, -33.968750000000, 1490870774
-0.214599609375, -0.885498046875, 0.052734375000, -62.765625000000, 81.007812500000, -10.156250000000, 1490870774
-0.214599609375, -0.885498046875, 0.052734375000, -62.765625000000, 81.007812500000, -10.156250000000, 1490870774
-0.214599609375, -0.885498046875, 0.052734375000, -62.765625000000, 81.007812500000, -10.156250000000, 1490870774
-0.153564453125, -1.017822265625, 0.114501953125, 109.656250000000, -149.351562500000, 8.585937500000, 1490870774
-0.153564453125, -1.017822265625, 0.114501953125, 109.656250000000, -149.351562500000, 8.585937500000, 1490870774
-0.153564453125, -1.017822265625, 0.114501953125, 109.656250000000, -149.351562500000, 8.585937500000, 1490870774
-0.153564453125, -1.017822265625, 0.114501953125, 109.656250000000, -149.351562500000, 8.585937500000, 1490870774
-0.294189453125, -0.595947265625, 1.683837890625, 138.632812500000, -124.828125000000, 27.906250000000, 1490870774
-0.193115234375, -1.122802734375, 1.576904296875, 138.632812500000, -124.828125000000, 27.906250000000, 1490870774
-0.193115234375, -1.122802734375, 1.576904296875, 138.632812500000, -124.828125000000, 27.906250000000, 1490870774
-0.193115234375, -1.122802734375, 1.576904296875, 138.632812500000, -124.828125000000, 27.906250000000, 1490870774
-0.193115234375, -1.122802734375, 1.576904296875, 138.632812500000, -124.828125000000, 27.906250000000, 1490870774
-0.193115234375, -1.122802734375, 1.576904296875, 138.632812500000, -124.828125000000, 27.906250000000, 1490870774
0.093750000000, -1.069580078125, 0.195068359375, -186.875000000000, 12.640625000000, 2.664062500000, 1490870774
0.093750000000, -1.069580078125, 0.195068359375, -186.875000000000, 12.640625000000, 2.664062500000, 1490870774
0.093750000000, -1.069580078125, 0.195068359375, -186.875000000000, 12.640625000000, 2.664062500000, 1490870774
-0.050537109375, -0.972412109375, 0.135009765625, -22.960937500000, -9.703125000000, 5.195312500000, 1490870774
-0.050537109375, -0.972412109375, 0.135009765625, -22.960937500000, -9.703125000000, 5.195312500000, 1490870774
-0.050537109375, -0.972412109375, 0.135009765625, -22.960937500000, -9.703125000000, 5.195312500000, 1490870774
-0.297851562500, -0.852294921875, 0.228759765625, 86.500000000000, 71.609375000000, 5.765625000000, 1490870774
-0.297851562500, -0.852294921875, 0.228759765625, 86.500000000000, 71.609375000000, 5.765625000000, 1490870774
-0.297851562500, -0.852294921875, 0.228759765625, 86.500000000000, 71.609375000000, 5.765625000000, 1490870774
-0.060791015625, -0.861572265625, 0.426513671875, -62.101562500000, -34.726562500000, -24.250000000000, 1490870774
-0.060791015625, -0.861572265625, 0.426513671875, -62.101562500000, -34.726562500000, -24.250000000000, 1490870774
-0.060791015625, -0.861572265625, 0.426513671875, -62.101562500000, -34.726562500000, -24.250000000000, 1490870774
-0.060791015625, -0.861572265625, 0.426513671875, -62.101562500000, -34.726562500000, -24.250000000000, 1490870774
-0.133544921875, -0.950195312500, 0.196289062500, -22.734375000000, 1.468750000000, -11.335937500000, 1490870774
-0.133544921875, -0.950195312500, 0.196289062500, -22.734375000000, 1.468750000000, -11.335937500000, 1490870774
-0.133544921875, -0.950195312500, 0.196289062500, -22.734375000000, 1.468750000000, -11.335937500000, 1490870774
-0.114257812500, -0.964111328125, 0.313720703125, 42.078125000000, 28.750000000000, -2.906250000000, 1490870774
-0.114257812500, -0.964111328125, 0.313720703125, 42.078125000000, 28.750000000000, -2.906250000000, 1490870774
-0.114257812500, -0.964111328125, 0.313720703125, 42.078125000000, 28.750000000000, -2.906250000000, 1490870774
-0.196777343750, -1.089599609375, 0.477783203125, 11.046875000000, 18.257812500000, -1.617187500000, 1490870774
-0.196777343750, -1.089599609375, 0.477783203125, 11.046875000000, 18.257812500000, -1.617187500000, 1490870774
-0.196777343750, -1.089599609375, 0.477783203125, 11.046875000000, 18.257812500000, -1.617187500000, 1490870774
-0.196044921875, -0.927734375000, 0.229248046875, -7.125000000000, 4.492187500000, -6.898437500000, 1490870774
-0.196044921875, -0.927734375000, 0.229248046875, -7.125000000000, 4.492187500000, -6.898437500000, 1490870774
-0.196044921875, -0.927734375000, 0.229248046875, -7.125000000000, 4.492187500000, -6.898437500000, 1490870774
-0.095214843750, -0.914062500000, 0.310058593750, 6.609375000000, 5.234375000000, -6.593750000000, 1490870774
-0.095214843750, -0.914062500000, 0.310058593750, 6.609375000000, 5.234375000000, -6.593750000000, 1490870774
-0.095214843750, -0.914062500000, 0.310058593750, 6.609375000000, 5.234375000000, -6.593750000000, 1490870774
-0.095214843750, -0.914062500000, 0.310058593750, 6.609375000000, 5.234375000000, -6.593750000000, 1490870774
-0.201660156250, -0.979980468750, 0.221679687500, 2.054687500000, -3.953125000000, -2.328125000000, 1490870774
-0.184570312500, -0.912841796875, 0.245361328125, 2.054687500000, -3.953125000000, -2.328125000000, 1490870774
-0.184570312500, -0.912841796875, 0.245361328125, 2.054687500000, -3.953125000000, -2.328125000000, 1490870774
-0.184570312500, -0.912841796875, 0.245361328125, 2.054687500000, -3.953125000000, -2.328125000000, 1490870774
-0.184570312500, -0.912841796875, 0.245361328125, 2.054687500000, -3.953125000000, -2.328125000000, 1490870774
-0.184570312500, -0.912841796875, 0.245361328125, 2.054687500000, -3.953125000000, -2.328125000000, 1490870774
-0.120849609375, -0.918457031250, 0.324462890625, 1.507812500000, -3.703125000000, -4.351562500000, 1490870774
-0.120849609375, -0.918457031250, 0.324462890625, 1.507812500000, -3.703125000000, -4.351562500000, 1490870774
-0.120849609375, -0.918457031250, 0.324462890625, 1.507812500000, -3.703125000000, -4.351562500000, 1490870774
-0.120849609375, -0.918457031250, 0.324462890625, 1.507812500000, -3.703125000000, -4.351562500000, 1490870774
-0.198974609375, -0.920410156250, 0.317871093750, -6.101562500000, -6.195312500000, -3.523437500000, 1490870774
-0.198974609375, -0.920410156250, 0.317871093750, -6.101562500000, -6.195312500000, -3.523437500000, 1490870774
-0.198974609375, -0.920410156250, 0.317871093750, -6.101562500000, -6.195312500000, -3.523437500000, 1490870774
-0.122070312500, -1.001953125000, 0.312255859375, -0.132812500000, -1.500000000000, -2.585937500000, 1490870774
-0.122070312500, -1.001953125000, 0.312255859375, -0.132812500000, -1.500000000000, -2.585937500000, 1490870774
-0.122070312500, -1.001953125000, 0.312255859375, -0.132812500000, -1.500000000000, -2.585937500000, 1490870775
-0.259277343750, -0.977539062500, 0.304687500000, -5.109375000000, -8.859375000000, -3.171875000000, 1490870775
-0.259277343750, -0.977539062500, 0.304687500000, -5.109375000000, -8.859375000000, -3.171875000000, 1490870775
-0.259277343750, -0.977539062500, 0.304687500000, -5.109375000000, -8.859375000000, -3.171875000000, 1490870775
-0.213623046875, -0.844970703125, 0.247802734375, -3.703125000000, -1.609375000000, -8.156250000000, 1490870775
-0.213623046875, -0.844970703125, 0.247802734375, -3.703125000000, -1.609375000000, -8.156250000000, 1490870775
-0.213623046875, -0.844970703125, 0.247802734375, -3.703125000000, -1.609375000000, -8.156250000000, 1490870775
-0.213623046875, -0.844970703125, 0.247802734375, -3.703125000000, -1.609375000000, -8.156250000000, 1490870775
-0.159912109375, -1.003173828125, 0.241699218750, -4.210937500000, -0.125000000000, -3.570312500000, 1490870775
-0.159912109375, -1.003173828125, 0.241699218750, -4.210937500000, -0.125000000000, -3.570312500000, 1490870775
-0.159912109375, -1.003173828125, 0.241699218750, -4.210937500000, -0.125000000000, -3.570312500000, 1490870775
-0.173583984375, -0.954101562500, 0.377929687500, -6.914062500000, 4.820312500000, -3.312500000000, 1490870775
-0.173583984375, -0.954101562500, 0.377929687500, -6.914062500000, 4.820312500000, -3.312500000000, 1490870775
-0.173583984375, -0.954101562500, 0.377929687500, -6.914062500000, 4.820312500000, -3.312500000000, 1490870775
-0.182617187500, -1.007812500000, 0.248046875000, -4.960937500000, 4.406250000000, -0.695312500000, 1490870775
-0.182617187500, -1.007812500000, 0.248046875000, -4.960937500000, 4.406250000000, -0.695312500000, 1490870775
-0.182617187500, -1.007812500000, 0.248046875000, -4.960937500000, 4.406250000000, -0.695312500000, 1490870775
-0.213134765625, -0.927246093750, 0.282470703125, -7.945312500000, -0.398437500000, -1.390625000000, 1490870775
-0.213134765625, -0.927246093750, 0.282470703125, -7.945312500000, -0.398437500000, -1.390625000000, 1490870775
-0.213134765625, -0.927246093750, 0.282470703125, -7.945312500000, -0.398437500000, -1.390625000000, 1490870775
-0.213134765625, -0.927246093750, 0.282470703125, -7.945312500000, -0.398437500000, -1.390625000000, 1490870775
-0.172119140625, -0.933837890625, 0.376953125000, -8.078125000000, -1.031250000000, -6.968750000000, 1490870775
-0.172119140625, -0.933837890625, 0.376953125000, -8.078125000000, -1.031250000000, -6.968750000000, 1490870775
-0.172119140625, -0.933837890625, 0.376953125000, -8.078125000000, -1.031250000000, -6.968750000000, 1490870775
-0.054687500000, -1.011230468750, 0.291748046875, -6.742187500000, 0.023437500000, -2.843750000000, 1490870775
-0.054687500000, -1.011230468750, 0.291748046875, -6.742187500000, 0.023437500000, -2.843750000000, 1490870775
-0.054687500000, -1.011230468750, 0.291748046875, -6.742187500000, 0.023437500000, -2.843750000000, 1490870775
-0.117919921875, -1.000244140625, 0.328369140625, -6.000000000000, -2.117187500000, -0.367187500000, 1490870775
-0.117919921875, -1.000244140625, 0.328369140625, -6.000000000000, -2.117187500000, -0.367187500000, 1490870775
-0.117919921875, -1.000244140625, 0.328369140625, -6.000000000000, -2.117187500000, -0.367187500000, 1490870775
-0.175292968750, -1.004882812500, 0.394531250000, -3.289062500000, -4.031250000000, 2.070312500000, 1490870775
-0.175292968750, -1.004882812500, 0.394531250000, -3.289062500000, -4.031250000000, 2.070312500000, 1490870775
-0.175292968750, -1.004882812500, 0.394531250000, -3.289062500000, -4.031250000000, 2.070312500000, 1490870775
-0.175292968750, -1.004882812500, 0.394531250000, -3.289062500000, -4.031250000000, 2.070312500000, 1490870775
-0.097656250000, -0.983398437500, 0.327880859375, -7.500000000000, -4.203125000000, -2.953125000000, 1490870775
-0.097656250000, -0.983398437500, 0.327880859375, -7.500000000000, -4.203125000000, -2.953125000000, 1490870775
-0.097656250000, -0.983398437500, 0.327880859375, -7.500000000000, -4.203125000000, -2.953125000000, 1490870775
-0.216796875000, -0.910644531250, 0.230224609375, -4.953125000000, -3.468750000000, -5.187500000000, 1490870775
-0.216796875000, -0.910644531250, 0.230224609375, -4.953125000000, -3.468750000000, -5.187500000000, 1490870775
-0.216796875000, -0.910644531250, 0.230224609375, -4.953125000000, -3.468750000000, -5.187500000000, 1490870775
-0.149169921875, -1.011718750000, 0.289306640625, -4.070312500000, -3.789062500000, -0.765625000000, 1490870775
-0.149169921875, -1.011718750000, 0.289306640625, -4.070312500000, -3.789062500000, -0.765625000000, 1490870775
-0.149169921875, -1.011718750000, 0.289306640625, -4.070312500000, -3.789062500000, -0.765625000000, 1490870775
-0.164062500000, -1.020751953125, 0.337646484375, -4.570312500000, -4.414062500000, -0.570312500000, 1490870775
-0.164062500000, -1.020751953125, 0.337646484375, -4.570312500000, -4.414062500000, -0.570312500000, 1490870775
-0.164062500000, -1.020751953125, 0.337646484375, -4.570312500000, -4.414062500000, -0.570312500000, 1490870775
-0.164062500000, -1.020751953125, 0.337646484375, -4.570312500000, -4.414062500000, -0.570312500000, 1490870775
-0.185546875000, -0.895019531250, 0.281982421875, 0.718750000000, -4.914062500000, 0.718750000000, 1490870775
-0.185546875000, -0.895019531250, 0.281982421875, 0.718750000000, -4.914062500000, 0.718750000000, 1490870775
-0.185546875000, -0.895019531250, 0.281982421875, 0.718750000000, -4.914062500000, 0.718750000000, 1490870775
-0.190917968750, -0.870117187500, 0.273925781250, -4.851562500000, -4.578125000000, -1.929687500000, 1490870775
-0.190917968750, -0.870117187500, 0.273925781250, -4.851562500000, -4.578125000000, -1.929687500000, 1490870775
-0.190917968750, -0.870117187500, 0.273925781250, -4.851562500000, -4.578125000000, -1.929687500000, 1490870775
-0.140869140625, -0.969726562500, 0.233154296875, -3.062500000000, -4.937500000000, 2.406250000000, 1490870775
-0.217041015625, -0.905273437500, 0.240234375000, 0.203125000000, -4.148437500000, -2.484375000000, 1490870775
-0.217041015625, -0.905273437500, 0.240234375000, 0.203125000000, -4.148437500000, -2.484375000000, 1490870775
-0.217041015625, -0.905273437500, 0.240234375000, 0.203125000000, -4.148437500000, -2.484375000000, 1490870775
-0.217041015625, -0.905273437500, 0.240234375000, 0.203125000000, -4.148437500000, -2.484375000000, 1490870775
-0.100830078125, -0.975341796875, 0.308593750000, 0.078125000000, -1.343750000000, 0.890625000000, 1490870775
-0.100830078125, -0.975341796875, 0.308593750000, 0.078125000000, -1.343750000000, 0.890625000000, 1490870775
-0.100830078125, -0.975341796875, 0.308593750000, 0.078125000000, -1.343750000000, 0.890625000000, 1490870775
-0.100830078125, -0.975341796875, 0.308593750000, 0.078125000000, -1.343750000000, 0.890625000000, 1490870775
-0.100830078125, -0.975341796875, 0.308593750000, 0.078125000000, -1.343750000000, 0.890625000000, 1490870775
-0.216308593750, -0.950195312500, 0.342773437500, -1.898437500000, 0.117187500000, 2.484375000000, 1490870775
-0.216308593750, -0.950195312500, 0.342773437500, -1.898437500000, 0.117187500000, 2.484375000000, 1490870775
-0.216308593750, -0.950195312500, 0.342773437500, -1.898437500000, 0.117187500000, 2.484375000000, 1490870775
-0.191406250000, -1.007568359375, 0.337646484375, -2.453125000000, 1.445312500000, 0.765625000000, 1490870776
-0.191406250000, -1.007568359375, 0.337646484375, -2.453125000000, 1.445312500000, 0.765625000000, 1490870776
-0.191406250000, -1.007568359375, 0.337646484375, -2.453125000000, 1.445312500000, 0.765625000000, 1490870776
-0.137451171875, -1.008544921875, 0.316650390625, -1.226562500000, -0.078125000000, -4.476562500000, 1490870776
-0.137451171875, -1.008544921875, 0.316650390625, -1.226562500000, -0.078125000000, -4.476562500000, 1490870776
-0.137451171875, -1.008544921875, 0.316650390625, -1.226562500000, -0.078125000000, -4.476562500000, 1490870776
-0.137451171875, -1.008544921875, 0.316650390625, -1.226562500000, -0.078125000000, -4.476562500000, 1490870776
-0.129150390625, -1.023925781250, 0.308349609375, -4.921875000000, 2.257812500000, -3.632812500000, 1490870776
-0.129150390625, -1.023925781250, 0.308349609375, -4.921875000000, 2.257812500000, -3.632812500000, 1490870776
-0.129150390625, -1.023925781250, 0.308349609375, -4.921875000000, 2.257812500000, -3.632812500000, 1490870776
-0.125976562500, -1.007324218750, 0.280517578125, -1.914062500000, 1.781250000000, -1.054687500000, 1490870776
-0.125976562500, -1.007324218750, 0.280517578125, -1.914062500000, 1.781250000000, -1.054687500000, 1490870776
-0.125976562500, -1.007324218750, 0.280517578125, -1.914062500000, 1.781250000000, -1.054687500000, 1490870776
-0.199218750000, -0.914306640625, 0.249755859375, -3.304687500000, -0.335937500000, 0.398437500000, 1490870776
-0.199218750000, -0.914306640625, 0.249755859375, -3.304687500000, -0.335937500000, 0.398437500000, 1490870776
-0.199218750000, -0.914306640625, 0.249755859375, -3.304687500000, -0.335937500000, 0.398437500000, 1490870776
-0.277099609375, -0.939697265625, 0.248046875000, -3.554687500000, -0.273437500000, -0.468750000000, 1490870776
-0.277099609375, -0.939697265625, 0.248046875000, -3.554687500000, -0.273437500000, -0.468750000000, 1490870776
-0.277099609375, -0.939697265625, 0.248046875000, -3.554687500000, -0.273437500000, -0.468750000000, 1490870776
-0.277099609375, -0.939697265625, 0.248046875000, -3.554687500000, -0.273437500000, -0.468750000000, 1490870776
-0.099609375000, -0.955322265625, 0.315917968750, -4.132812500000, -0.031250000000, -4.015625000000, 1490870776
-0.099609375000, -0.955322265625, 0.315917968750, -4.132812500000, -0.031250000000, -4.015625000000, 1490870776
-0.099609375000, -0.955322265625, 0.315917968750, -4.132812500000, -0.031250000000, -4.015625000000, 1490870776
-0.114501953125, -0.967285156250, 0.253417968750, -4.648437500000, 2.109375000000, -1.257812500000, 1490870776
-0.114501953125, -0.967285156250, 0.253417968750, -4.648437500000, 2.109375000000, -1.257812500000, 1490870776
-0.114501953125, -0.967285156250, 0.253417968750, -4.695312500000, -0.390625000000, -1.562500000000, 1490870776
-0.156005859375, -0.967285156250, 0.233154296875, 0.484375000000, 4.398437500000, -4.273437500000, 1490870776
-0.156005859375, -0.967285156250, 0.233154296875, 0.484375000000, 4.398437500000, -4.273437500000, 1490870776
-0.156005859375, -0.967285156250, 0.233154296875, 0.484375000000, 4.398437500000, -4.273437500000, 1490870776
-0.096191406250, -1.017578125000, 0.323242187500, -2.210937500000, 1.062500000000, -4.664062500000, 1490870776
-0.144042968750, -0.941894531250, 0.318359375000, -0.992187500000, 3.664062500000, -6.812500000000, 1490870776
-0.113525390625, -0.918945312500, 0.236816406250, -6.343750000000, 0.875000000000, -0.390625000000, 1490870776
-0.113525390625, -0.918945312500, 0.236816406250, -6.343750000000, 0.875000000000, -0.390625000000, 1490870776
-0.113525390625, -0.918945312500, 0.236816406250, -6.343750000000, 0.875000000000, -0.390625000000, 1490870776
-0.098632812500, -0.966308593750, 0.290039062500, 0.375000000000, -2.148437500000, -8.867187500000, 1490870776
-0.098632812500, -0.966308593750, 0.290039062500, 0.375000000000, -2.148437500000, -8.867187500000, 1490870776
