ACC_X,ACC_Y,ACC_Z,G_X,G_Y,G_Z,Unix Time
-0.209228515625, -0.852539062500, 0.360107421875, 3.007812500000, 16.742187500000, 3.554687500000, 1490870130
-0.209228515625, -0.852539062500, 0.360107421875, 3.007812500000, 16.742187500000, 3.554687500000, 1490870130
-0.209228515625, -0.852539062500, 0.360107421875, 3.007812500000, 16.742187500000, 3.554687500000, 1490870130
-0.209228515625, -0.852539062500, 0.360107421875, 3.007812500000, 16.742187500000, 3.554687500000, 1490870130
-0.169921875000, -0.902343750000, 0.366699218750, -0.179687500000, 16.687500000000, -0.390625000000, 1490870130
-0.169921875000, -0.902343750000, 0.366699218750, -0.179687500000, 16.687500000000, -0.390625000000, 1490870130
-0.169921875000, -0.902343750000, 0.366699218750, -0.179687500000, 16.687500000000, -0.390625000000, 1490870130
-0.173583984375, -0.872802734375, 0.295410156250, 0.867187500000, 14.523437500000, -2.453125000000, 1490870130
-0.108886718750, -0.943359375000, 0.441650390625, -10.117187500000, 10.156250000000, -2.234375000000, 1490870130
-0.108886718750, -0.943359375000, 0.441650390625, -10.117187500000, 10.156250000000, -2.234375000000, 1490870130
-0.108886718750, -0.943359375000, 0.441650390625, -10.117187500000, 10.156250000000, -2.234375000000, 1490870130
-0.108886718750, -0.943359375000, 0.441650390625, -10.117187500000, 10.156250000000, -2.234375000000, 1490870130
-0.108886718750, -0.943359375000, 0.441650390625, -10.117187500000, 10.156250000000, -2.234375000000, 1490870130
-0.224365234375, -0.875244140625, 0.380615234375, -3.187500000000, 7.437500000000, 1.453125000000, 1490870130
-0.205322265625, -0.852050781250, 0.414306640625, -4.273437500000, 10.109375000000, 2.328125000000, 1490870130
-0.205322265625, -0.852050781250, 0.414306640625, -4.273437500000, 10.109375000000, 2.328125000000, 1490870130
-0.205322265625, -0.852050781250, 0.414306640625, -4.273437500000, 10.109375000000, 2.328125000000, 1490870130
-0.198486328125, -0.894287109375, 0.448974609375, -1.195312500000, 10.906250000000, 0.835937500000, 1490870130
-0.198486328125, -0.894287109375, 0.448974609375, -1.195312500000, 10.906250000000, 0.835937500000, 1490870130
-0.198486328125, -0.894287109375, 0.448974609375, -1.195312500000, 10.906250000000, 0.835937500000, 1490870130
-0.163085937500, -0.922363281250, 0.401367187500, -4.554687500000, 7.062500000000, -1.523437500000, 1490870130
-0.163085937500, -0.922363281250, 0.401367187500, -4.554687500000, 7.062500000000, -1.523437500000, 1490870130
-0.163085937500, -0.922363281250, 0.401367187500, -4.554687500000, 7.062500000000, -1.523437500000, 1490870130
-0.276123046875, -0.854248046875, 0.394531250000, -3.148437500000, 0.750000000000, -4.648437500000, 1490870130
-0.276123046875, -0.854248046875, 0.394531250000, -3.148437500000, 0.750000000000, -4.648437500000, 1490870130
-0.276123046875, -0.854248046875, 0.394531250000, -3.148437500000, 0.750000000000, -4.648437500000, 1490870130
-0.312744140625, -0.907470703125, 0.463623046875, -6.601562500000, -10.187500000000, -7.335937500000, 1490870130
-0.312744140625, -0.907470703125, 0.463623046875, -6.601562500000, -10.187500000000, -7.335937500000, 1490870130
-0.312744140625, -0.907470703125, 0.463623046875, -6.601562500000, -10.187500000000, -7.335937500000, 1490870130
-0.312744140625, -0.907470703125, 0.463623046875, -6.601562500000, -10.187500000000, -7.335937500000, 1490870130
-0.193847656250, -1.017333984375, 0.356201171875, -11.210937500000, -6.140625000000, -12.406250000000, 1490870130
-0.193847656250, -1.017333984375, 0.356201171875, -11.210937500000, -6.140625000000, -12.406250000000, 1490870130
-0.193847656250, -1.017333984375, 0.356201171875, -11.210937500000, -6.140625000000, -12.406250000000, 1490870130
-0.190185546875, -0.872070312500, 0.440673828125, -5.187500000000, -10.960937500000, -12.156250000000, 1490870130
-0.190185546875, -0.872070312500, 0.440673828125, -5.187500000000, -10.960937500000, -12.156250000000, 1490870130
-0.190185546875, -0.872070312500, 0.440673828125, -5.187500000000, -10.960937500000, -12.156250000000, 1490870130
-0.119873046875, -0.852050781250, 0.349853515625, -3.210937500000, -3.101562500000, -8.828125000000, 1490870130
-0.119873046875, -0.852050781250, 0.349853515625, -3.210937500000, -3.101562500000, -8.828125000000, 1490870130
-0.111328125000, -0.856689453125, 0.402832031250, 0.632812500000, -3.453125000000, -4.640625000000, 1490870130
-0.111328125000, -0.856689453125, 0.402832031250, 0.632812500000, -3.453125000000, -4.640625000000, 1490870130
-0.111328125000, -0.856689453125, 0.402832031250, 0.632812500000, -3.453125000000, -4.640625000000, 1490870130
-0.111328125000, -0.856689453125, 0.402832031250, 0.632812500000, -3.453125000000, -4.640625000000, 1490870130
-0.111328125000, -0.856689453125, 0.402832031250, 0.632812500000, -3.453125000000, -4.640625000000, 1490870130
-0.167236328125, -0.885253906250, 0.376953125000, -4.390625000000, -3.351562500000, -5.984375000000, 1490870130
-0.167236328125, -0.885253906250, 0.376953125000, -4.390625000000, -3.351562500000, -5.984375000000, 1490870130
-0.167236328125, -0.885253906250, 0.376953125000, -4.390625000000, -3.351562500000, -5.984375000000, 1490870130
-0.169677734375, -0.875488281250, 0.368896484375, -8.781250000000, -3.257812500000, -6.867187500000, 1490870130
-0.169677734375, -0.875488281250, 0.368896484375, -8.781250000000, -3.257812500000, -6.867187500000, 1490870130
-0.169677734375, -0.875488281250, 0.368896484375, -8.781250000000, -3.257812500000, -6.867187500000, 1490870130
-0.190185546875, -0.866943359375, 0.407714843750, -5.007812500000, -1.734375000000, -5.796875000000, 1490870130
-0.190185546875, -0.866943359375, 0.407714843750, -5.007812500000, -1.734375000000, -5.796875000000, 1490870130
-0.190185546875, -0.866943359375, 0.407714843750, -5.007812500000, -1.734375000000, -5.796875000000, 1490870130
-0.123779296875, -0.951171875000, 0.418457031250, -6.898437500000, -2.062500000000, -3.304687500000, 1490870130
-0.123779296875, -0.951171875000, 0.418457031250, -6.898437500000, -2.062500000000, -3.304687500000, 1490870130
-0.123779296875, -0.951171875000, 0.418457031250, -6.898437500000, -2.062500000000, -3.304687500000, 1490870130
-0.193359375000, -0.909912109375, 0.346679687500, -4.695312500000, -0.757812500000, -5.210937500000, 1490870130
-0.199462890625, -0.893066406250, 0.357666015625, -3.406250000000, -0.351562500000, -1.226562500000, 1490870130
-0.199462890625, -0.893066406250, 0.357666015625, -3.406250000000, -0.351562500000, -1.226562500000, 1490870130
-0.199462890625, -0.893066406250, 0.357666015625, -3.406250000000, -0.351562500000, -1.226562500000, 1490870130
-0.195312500000, -0.944580078125, 0.424316406250, -3.375000000000, 2.109375000000, -4.492187500000, 1490870130
-0.195312500000, -0.944580078125, 0.424316406250, -3.375000000000, 2.109375000000, -4.492187500000, 1490870130
-0.195312500000, -0.944580078125, 0.424316406250, -3.375000000000, 2.109375000000, -4.492187500000, 1490870130
-0.261718750000, -0.904785156250, 0.410644531250, -3.039062500000, 1.390625000000, -1.367187500000, 1490870131
-0.261718750000, -0.904785156250, 0.410644531250, -3.039062500000, 1.390625000000, -1.367187500000, 1490870131
-0.261718750000, -0.904785156250, 0.410644531250, -3.039062500000, 1.390625000000, -1.367187500000, 1490870131
-0.190429687500, -0.940673828125, 0.374267578125, -4.539062500000, 0.742187500000, -3.406250000000, 1490870131
-0.190429687500, -0.940673828125, 0.374267578125, -4.539062500000, 0.742187500000, -3.406250000000, 1490870131
-0.190429687500, -0.940673828125, 0.374267578125, -4.539062500000, 0.742187500000, -3.406250000000, 1490870131
-0.190429687500, -0.940673828125, 0.374267578125, -4.539062500000, 0.742187500000, -3.406250000000, 1490870131
-0.166503906250, -0.873291015625, 0.419189453125, -3.289062500000, -2.554687500000, -2.960937500000, 1490870131
-0.166503906250, -0.873291015625, 0.419189453125, -3.289062500000, -2.554687500000, -2.960937500000, 1490870131
-0.166503906250, -0.873291015625, 0.419189453125, -3.289062500000, -2.554687500000, -2.960937500000, 1490870131
-0.235351562500, -1.012695312500, 0.448486328125, -4.046875000000, -0.335937500000, -3.101562500000, 1490870131
-0.235351562500, -1.012695312500, 0.448486328125, -4.046875000000, -0.335937500000, -3.101562500000, 1490870131
-0.235351562500, -1.012695312500, 0.448486328125, -4.046875000000, -0.335937500000, -3.101562500000, 1490870131
-0.201171875000, -0.954101562500, 0.368652343750, -2.015625000000, -6.210937500000, -6.632812500000, 1490870131
-0.201171875000, -0.954101562500, 0.368652343750, -2.015625000000, -6.210937500000, -6.632812500000, 1490870131
-0.201171875000, -0.954101562500, 0.368652343750, -2.015625000000, -6.210937500000, -6.632812500000, 1490870131
-0.207519531250, -0.903320312500, 0.457031250000, -1.765625000000, -1.500000000000, -1.007812500000, 1490870131
-0.207519531250, -0.903320312500, 0.457031250000, -1.765625000000, -1.500000000000, -1.007812500000, 1490870131
-0.207519531250, -0.903320312500, 0.457031250000, -1.765625000000, -1.500000000000, -1.007812500000, 1490870131
-0.207519531250, -0.903320312500, 0.457031250000, -1.765625000000, -1.500000000000, -1.007812500000, 1490870131
-0.151611328125, -0.855224609375, 0.348632812500, -1.992187500000, -3.343750000000, -3.242187500000, 1490870131
-0.151611328125, -0.855224609375, 0.348632812500, -1.992187500000, -3.343750000000, -3.242187500000, 1490870131
-0.151611328125, -0.855224609375, 0.348632812500, -1.992187500000, -3.343750000000, -3.242187500000, 1490870131
-0.137207031250, -0.887939453125, 0.458007812500, -3.117187500000, -2.898437500000, 0.046875000000, 1490870131
-0.137207031250, -0.887939453125, 0.458007812500, -3.117187500000, -2.898437500000, 0.046875000000, 1490870131
-0.137207031250, -0.887939453125, 0.458007812500, -3.117187500000, -2.898437500000, 0.046875000000, 1490870131
-0.097167968750, -0.956787109375, 0.465332031250, -4.664062500000, -4.289062500000, -4.164062500000, 1490870131
-0.097167968750, -0.956787109375, 0.465332031250, -4.664062500000, -4.289062500000, -4.164062500000, 1490870131
-0.097167968750, -0.956787109375, 0.465332031250, -4.664062500000, -4.289062500000, -4.164062500000, 1490870131
-0.196777343750, -0.857421875000, 0.392578125000, -5.000000000000, 4.437500000000, 0.687500000000, 1490870131
-0.196777343750, -0.857421875000, 0.392578125000, -5.000000000000, 4.437500000000, 0.687500000000, 1490870131
-0.196777343750, -0.857421875000, 0.392578125000, -5.000000000000, 4.437500000000, 0.687500000000, 1490870131
-0.196777343750, -0.857421875000, 0.392578125000, -5.000000000000, 4.437500000000, 0.687500000000, 1490870131
-0.164550781250, -0.929931640625, 0.411376953125, -2.726562500000, -0.421875000000, -2.679687500000, 1490870131
-0.164550781250, -0.929931640625, 0.411376953125, -2.726562500000, -0.421875000000, -2.679687500000, 1490870131
-0.164550781250, -0.929931640625, 0.411376953125, -2.726562500000, -0.421875000000, -2.679687500000, 1490870131
-0.151611328125, -0.866699218750, 0.355712890625, -4.742187500000, 2.867187500000, 0.093750000000, 1490870131
-0.200683593750, -0.896972656250, 0.445068359375, -1.773437500000, 1.828125000000, 0.695312500000, 1490870131
-0.200683593750, -0.896972656250, 0.445068359375, -1.773437500000, 1.828125000000, 0.695312500000, 1490870131
-0.200683593750, -0.896972656250, 0.445068359375, -1.773437500000, 1.828125000000, 0.695312500000, 1490870131
-0.200683593750, -0.896972656250, 0.445068359375, -1.773437500000, 1.828125000000, 0.695312500000, 1490870131
-0.200683593750, -0.896972656250, 0.445068359375, -1.773437500000, 1.828125000000, 0.695312500000, 1490870131
-0.156250000000, -0.940429687500, 0.296386718750, -1.500000000000, 4.312500000000, -2.218750000000, 1490870131
-0.056640625000, -0.957763671875, 0.464355468750, -4.109375000000, 1.976562500000, -4.125000000000, 1490870131
-0.056640625000, -0.957763671875, 0.464355468750, -4.109375000000, 1.976562500000, -4.125000000000, 1490870131
-0.056640625000, -0.957763671875, 0.464355468750, -4.109375000000, 1.976562500000, -4.125000000000, 1490870131
-0.154785156250, -0.950195312500, 0.351806640625, -1.117187500000, 2.359375000000, -2.265625000000, 1490870131
-0.154785156250, -0.950195312500, 0.351806640625, -1.117187500000, 2.359375000000, -2.265625000000, 1490870131
-0.154785156250, -0.950195312500, 0.351806640625, -1.117187500000, 2.359375000000, -2.265625000000, 1490870131
-0.132568359375, -1.000732421875, 0.343017578125, 0.023437500000, 4.843750000000, -1.812500000000, 1490870131
-0.132568359375, -1.000732421875, 0.343017578125, 0.023437500000, 4.843750000000, -1.812500000000, 1490870131
-0.222412109375, -0.954101562500, 0.388427734375, -4.132812500000, 0.078125000000, -6.437500000000, 1490870131
-0.222412109375, -0.954101562500, 0.388427734375, -4.132812500000, 0.078125000000, -6.437500000000, 1490870131
-0.222412109375, -0.954101562500, 0.388427734375, -4.132812500000, 0.078125000000, -6.437500000000, 1490870131
-0.222412109375, -0.954101562500, 0.388427734375, -4.132812500000, 0.078125000000, -6.437500000000, 1490870131
-0.192138671875, -0.905761718750, 0.441894531250, -1.976562500000, 2.921875000000, -1.835937500000, 1490870131
-0.192138671875, -0.905761718750, 0.441894531250, -1.976562500000, 2.921875000000, -1.835937500000, 1490870131
-0.192138671875, -0.905761718750, 0.441894531250, -1.976562500000, 2.921875000000, -1.835937500000, 1490870131
-0.192138671875, -0.905761718750, 0.441894531250, -1.976562500000, 2.921875000000, -1.835937500000, 1490870131
-0.100341796875, -0.948242187500, 0.369873046875, -4.062500000000, -0.546875000000, -3.281250000000, 1490870131
-0.100341796875, -0.948242187500, 0.369873046875, -4.062500000000, -0.546875000000, -3.281250000000, 1490870131
-0.100341796875, -0.948242187500, 0.369873046875, -4.062500000000, -0.546875000000, -3.281250000000, 1490870131
-0.094726562500, -0.944580078125, 0.438476562500, -0.375000000000, -0.843750000000, -1.687500000000, 1490870131
-0.094726562500, -0.944580078125, 0.438476562500, -0.375000000000, -0.843750000000, -1.687500000000, 1490870131
-0.094726562500, -0.944580078125, 0.438476562500, -0.375000000000, -0.843750000000, -1.687500000000, 1490870131
-0.144042968750, -0.895263671875, 0.381835937500, -1.882812500000, 0.460937500000, -3.367187500000, 1490870131
-0.144042968750, -0.895263671875, 0.381835937500, -1.882812500000, 0.460937500000, -3.367187500000, 1490870131
-0.144042968750, -0.895263671875, 0.381835937500, -1.882812500000, 0.460937500000, -3.367187500000, 1490870131
-0.163818359375, -0.965332031250, 0.287597656250, 0.000000000000, -0.484375000000, -3.632812500000, 1490870132
-0.163818359375, -0.965332031250, 0.287597656250, 0.000000000000, -0.484375000000, -3.632812500000, 1490870132
-0.163818359375, -0.965332031250, 0.287597656250, 0.000000000000, -0.484375000000, -3.632812500000, 1490870132
-0.163818359375, -0.965332031250, 0.287597656250, 0.000000000000, -0.484375000000, -3.632812500000, 1490870132
-0.122070312500, -1.005371093750, 0.348876953125, -2.570312500000, -2.445312500000, -3.664062500000, 1490870132
-0.122070312500, -1.005371093750, 0.348876953125, -2.570312500000, -2.445312500000, -3.664062500000, 1490870132
-0.122070312500, -1.005371093750, 0.348876953125, -2.570312500000, -2.445312500000, -3.664062500000, 1490870132
-0.166748046875, -0.955566406250, 0.352539062500, -1.171875000000, -2.023437500000, -3.687500000000, 1490870132
-0.166748046875, -0.955566406250, 0.352539062500, -1.171875000000, -2.023437500000, -3.687500000000, 1490870132
-0.166748046875, -0.955566406250, 0.352539062500, -1.171875000000, -2.023437500000, -3.687500000000, 1490870132
-0.250976562500, -0.949707031250, 0.395263671875, 0.726562500000, -2.687500000000, -4.273437500000, 1490870132
-0.250976562500, -0.949707031250, 0.395263671875, 0.726562500000, -2.687500000000, -4.273437500000, 1490870132
-0.250976562500, -0.949707031250, 0.395263671875, 0.726562500000, -2.687500000000, -4.273437500000, 1490870132
-0.182861328125, -0.836425781250, 0.410156250000, -2.281250000000, -1.554687500000, -6.257812500000, 1490870132
-0.182861328125, -0.836425781250, 0.410156250000, -2.281250000000, -1.554687500000, -6.257812500000, 1490870132
-0.182861328125, -0.836425781250, 0.410156250000, -2.281250000000, -1.554687500000, -6.257812500000, 1490870132
-0.182861328125, -0.836425781250, 0.410156250000, -2.281250000000, -1.554687500000, -6.257812500000, 1490870132
-0.113281250000, -1.024658203125, 0.368164062500, 0.406250000000, -2.195312500000, -4.164062500000, 1490870132
-0.113281250000, -1.024658203125, 0.368164062500, 0.406250000000, -2.195312500000, -4.164062500000, 1490870132
-0.113281250000, -1.024658203125, 0.368164062500, 0.406250000000, -2.195312500000, -4.164062500000, 1490870132
-0.116943359375, -0.848632812500, 0.349365234375, -2.257812500000, -1.531250000000, -6.085937500000, 1490870132
-0.116943359375, -0.848632812500, 0.349365234375, -2.257812500000, -1.531250000000, -6.085937500000, 1490870132
-0.116943359375, -0.848632812500, 0.349365234375, -2.257812500000, -1.531250000000, -6.085937500000, 1490870132
-0.035644531250, -0.917724609375, 0.364013671875, -1.710937500000, 2.726562500000, -4.242187500000, 1490870132
-0.035644531250, -0.917724609375, 0.364013671875, -1.710937500000, 2.726562500000, -4.242187500000, 1490870132
-0.145507812500, -0.948730468750, 0.367919921875, -4.578125000000, -2.203125000000, -4.679687500000, 1490870132
-0.145507812500, -0.948730468750, 0.367919921875, -4.578125000000, -2.203125000000, -4.679687500000, 1490870132
-0.145507812500, -0.948730468750, 0.367919921875, -4.578125000000, -2.203125000000, -4.679687500000, 1490870132
-0.145507812500, -0.948730468750, 0.367919921875, -4.578125000000, -2.203125000000, -4.679687500000, 1490870132
-0.056396484375, -0.884765625000, 0.449707031250, -1.625000000000, 0.078125000000, -4.820312500000, 1490870132
-0.056396484375, -0.884765625000, 0.449707031250, -1.625000000000, 0.078125000000, -4.820312500000, 1490870132
-0.056396484375, -0.884765625000, 0.449707031250, -1.625000000000, 0.078125000000, -4.820312500000, 1490870132
-0.056396484375, -0.884765625000, 0.449707031250, -1.625000000000, 0.078125000000, -4.820312500000, 1490870132
-0.199951171875, -0.951904296875, 0.355224609375, -2.734375000000, -2.335937500000, -4.890625000000, 1490870132
-0.199951171875, -0.951904296875, 0.355224609375, -2.734375000000, -2.335937500000, -4.890625000000, 1490870132
-0.199951171875, -0.951904296875, 0.355224609375, -2.734375000000, -2.335937500000, -4.890625000000, 1490870132
-0.091552734375, -0.920654296875, 0.363525390625, -6.742187500000, 0.359375000000, -3.281250000000, 1490870132
-0.091552734375, -0.920654296875, 0.363525390625, -6.742187500000, 0.359375000000, -3.281250000000, 1490870132
-0.091552734375, -0.920654296875, 0.363525390625, -6.742187500000, 0.359375000000, -3.281250000000, 1490870132
-0.119873046875, -0.943847656250, 0.468505859375, -3.320312500000, -2.554687500000, -3.890625000000, 1490870132
-0.119873046875, -0.943847656250, 0.468505859375, -3.320312500000, -2.554687500000, -3.890625000000, 1490870132
-0.119873046875, -0.943847656250, 0.468505859375, -3.320312500000, -2.554687500000, -3.890625000000, 1490870132
-0.119873046875, -0.943847656250, 0.468505859375, -3.320312500000, -2.554687500000, -3.890625000000, 1490870132
-0.112792968750, -1.011718750000, 0.354248046875, -4.625000000000, 0.656250000000, 0.078125000000, 1490870132
-0.112792968750, -1.011718750000, 0.354248046875, -4.625000000000, 0.656250000000, 0.078125000000, 1490870132
-0.112792968750, -1.011718750000, 0.354248046875, -4.625000000000, 0.656250000000, 0.078125000000, 1490870132
-0.195800781250, -0.952392578125, 0.356445312500, -6.593750000000, 0.164062500000, -4.617187500000, 1490870132
-0.195800781250, -0.952392578125, 0.356445312500, -6.593750000000, 0.164062500000, -4.617187500000, 1490870132
-0.195800781250, -0.952392578125, 0.356445312500, -6.593750000000, 0.164062500000, -4.617187500000, 1490870132
-0.115478515625, -0.908935546875, 0.354980468750, -4.835937500000, 0.367187500000, -3.578125000000, 1490870132
-0.115478515625, -0.908935546875, 0.354980468750, -4.835937500000, 0.367187500000, -3.578125000000, 1490870132
-0.199951171875, -0.855712890625, 0.350341796875, -6.531250000000, 2.664062500000, -4.156250000000, 1490870132
-0.199951171875, -0.855712890625, 0.350341796875, -6.531250000000, 2.664062500000, -4.156250000000, 1490870132
-0.199951171875, -0.855712890625, 0.350341796875, -6.531250000000, 2.664062500000, -4.156250000000, 1490870132
-0.199951171875, -0.855712890625, 0.350341796875, -6.531250000000, 2.664062500000, -4.156250000000, 1490870132
-0.199951171875, -0.855712890625, 0.350341796875, -6.531250000000, 2.664062500000, -4.156250000000, 1490870132
-0.242919921875, -0.901123046875, 0.467285156250, -4.664062500000, 0.773437500000, -1.562500000000, 1490870132
-0.242919921875, -0.901123046875, 0.467285156250, -4.664062500000, 0.773437500000, -1.562500000000, 1490870132
-0.242919921875, -0.901123046875, 0.467285156250, -4.664062500000, 0.773437500000, -1.562500000000, 1490870132
-0.098144531250, -0.922119140625, 0.441650390625, -3.562500000000, -0.070312500000, -1.164062500000, 1490870132
-0.098144531250, -0.922119140625, 0.441650390625, -3.562500000000, -0.070312500000, -1.164062500000, 1490870132
-0.098144531250, -0.922119140625, 0.441650390625, -3.562500000000, -0.070312500000, -1.164062500000, 1490870132
-0.196533203125, -0.862792968750, 0.448486328125, -3.914062500000, 2.609375000000, -6.796875000000, 1490870132
-0.196533203125, -0.862792968750, 0.448486328125, -3.914062500000, 2.609375000000, -6.796875000000, 1490870132
-0.196533203125, -0.862792968750, 0.448486328125, -3.914062500000, 2.609375000000, -6.796875000000, 1490870132
-0.117919921875, -1.002685546875, 0.443115234375, -4.476562500000, -1.710937500000, -6.296875000000, 1490870133
-0.117919921875, -1.002685546875, 0.443115234375, -4.476562500000, -1.710937500000, -6.296875000000, 1490870133
-0.117919921875, -1.002685546875, 0.443115234375, -4.476562500000, -1.710937500000, -6.296875000000, 1490870133
-0.117919921875, -1.002685546875, 0.443115234375, -4.476562500000, -1.710937500000, -6.296875000000, 1490870133
-0.205322265625, -0.960937500000, 0.301025390625, -3.820312500000, -0.351562500000, -2.070312500000, 1490870133
-0.205322265625, -0.960937500000, 0.301025390625, -3.820312500000, -0.351562500000, -2.070312500000, 1490870133
-0.205322265625, -0.960937500000, 0.301025390625, -3.820312500000, -0.351562500000, -2.070312500000, 1490870133
-0.094238281250, -0.936523437500, 0.395263671875, -6.046875000000, -4.812500000000, -6.804687500000, 1490870133
-0.094238281250, -0.936523437500, 0.395263671875, -6.046875000000, -4.812500000000, -6.804687500000, 1490870133
-0.094238281250, -0.936523437500, 0.395263671875, -6.046875000000, -4.812500000000, -6.804687500000, 1490870133
-0.121093750000, -0.963867187500, 0.409179687500, -6.460937500000, 0.523437500000, -3.445312500000, 1490870133
-0.121093750000, -0.963867187500, 0.409179687500, -6.460937500000, 0.523437500000, -3.445312500000, 1490870133
-0.121093750000, -0.963867187500, 0.409179687500, -6.460937500000, 0.523437500000, -3.445312500000, 1490870133
-0.172607421875, -0.872802734375, 0.337158203125, -6.875000000000, -2.632812500000, -4.812500000000, 1490870133
-0.172607421875, -0.872802734375, 0.337158203125, -6.875000000000, -2.632812500000, -4.812500000000, 1490870133
-0.172607421875, -0.872802734375, 0.337158203125, -6.875000000000, -2.632812500000, -4.812500000000, 1490870133
-0.172607421875, -0.872802734375, 0.337158203125, -6.875000000000, -2.632812500000, -4.812500000000, 1490870133
-0.116943359375, -0.868652343750, 0.352539062500, -3.515625000000, -2.398437500000, -1.648437500000, 1490870133
-0.116943359375, -0.868652343750, 0.352539062500, -3.515625000000, -2.398437500000, -1.648437500000, 1490870133
-0.116943359375, -0.868652343750, 0.352539062500, -3.515625000000, -2.398437500000, -1.648437500000, 1490870133
-0.061523437500, -0.846679687500, 0.355957031250, -6.617187500000, -1.726562500000, -3.453125000000, 1490870133
-0.061523437500, -0.846679687500, 0.355957031250, -6.617187500000, -1.726562500000, -3.453125000000, 1490870133
-0.061523437500, -0.846679687500, 0.355957031250, -6.617187500000, -1.726562500000, -3.453125000000, 1490870133
-0.051757812500, -0.961914062500, 0.367675781250, -3.093750000000, -1.156250000000, -6.226562500000, 1490870133
-0.051757812500, -0.961914062500, 0.367675781250, -3.093750000000, -1.156250000000, -6.226562500000, 1490870133
-0.051757812500, -0.961914062500, 0.367675781250, -3.093750000000, -1.156250000000, -6.226562500000, 1490870133
-0.255371093750, -0.848388671875, 0.430664062500, -3.289062500000, -2.468750000000, -4.492187500000, 1490870133
-0.255371093750, -0.848388671875, 0.430664062500, -3.289062500000, -2.468750000000, -4.492187500000, 1490870133
-0.255371093750, -0.848388671875, 0.430664062500, -3.289062500000, -2.468750000000, -4.492187500000, 1490870133
-0.255371093750, -0.848388671875, 0.430664062500, -3.289062500000, -2.468750000000, -4.492187500000, 1490870133
-0.132324218750, -0.840820312500, 0.456054687500, -3.328125000000, -2.828125000000, -5.304687500000, 1490870133
-0.132324218750, -0.840820312500, 0.456054687500, -3.328125000000, -2.828125000000, -5.304687500000, 1490870133
-0.132324218750, -0.840820312500, 0.456054687500, -3.328125000000, -2.828125000000, -5.304687500000, 1490870133
-0.207519531250, -0.854492187500, 0.438964843750, -3.703125000000, -2.421875000000, -4.062500000000, 1490870133
-0.207519531250, -0.854492187500, 0.438964843750, -3.703125000000, -2.421875000000, -4.062500000000, 1490870133
-0.207519531250, -0.854492187500, 0.438964843750, -3.703125000000, -2.421875000000, -4.062500000000, 1490870133
-0.104492187500, -0.853271484375, 0.368896484375, -5.203125000000, 2.937500000000, -4.617187500000, 1490870133
-0.104492187500, -0.853271484375, 0.368896484375, -5.203125000000, 2.937500000000, -4.617187500000, 1490870133
-0.104492187500, -0.853271484375, 0.368896484375, -5.203125000000, 2.937500000000, -4.617187500000, 1490870133
-0.145751953125, -0.873046875000, 0.365966796875, -4.281250000000, 0.328125000000, -1.992187500000, 1490870133
-0.145751953125, -0.873046875000, 0.365966796875, -4.281250000000, 0.328125000000, -1.992187500000, 1490870133
-0.145751953125, -0.873046875000, 0.365966796875, -4.281250000000, 0.328125000000, -1.992187500000, 1490870133
-0.145751953125, -0.873046875000, 0.365966796875, -4.281250000000, 0.328125000000, -1.992187500000, 1490870133
-0.258300781250, -0.902343750000, 0.395263671875, -3.406250000000, 1.062500000000, -3.867187500000, 1490870133
-0.258300781250, -0.902343750000, 0.395263671875, -3.406250000000, 1.062500000000, -3.867187500000, 1490870133
-0.258300781250, -0.902343750000, 0.395263671875, -3.406250000000, 1.062500000000, -3.867187500000, 1490870133
-0.035156250000, -0.947753906250, 0.390869140625, -4.359375000000, 0.468750000000, -6.539062500000, 1490870133
-0.035156250000, -0.947753906250, 0.390869140625, -4.359375000000, 0.468750000000, -6.539062500000, 1490870133
-0.035156250000, -0.947753906250, 0.390869140625, -4.359375000000, 0.468750000000, -6.539062500000, 1490870133
-0.201660156250, -0.965332031250, 0.451171875000, -4.539062500000, 2.968750000000, -6.601562500000, 1490870133
-0.201660156250, -0.965332031250, 0.451171875000, -4.539062500000, 2.968750000000, -6.601562500000, 1490870133
-0.201660156250, -0.965332031250, 0.451171875000, -4.539062500000, 2.968750000000, -6.601562500000, 1490870133
-0.109619140625, -0.868164062500, 0.468750000000, -2.828125000000, 1.382812500000, 0.492187500000, 1490870133
-0.109619140625, -0.868164062500, 0.468750000000, -2.828125000000, 1.382812500000, 0.492187500000, 1490870133
-0.109619140625, -0.868164062500, 0.468750000000, -2.828125000000, 1.382812500000, 0.492187500000, 1490870133
-0.109619140625, -0.868164062500, 0.468750000000, -2.828125000000, 1.382812500000, 0.492187500000, 1490870133
-0.098388671875, -0.853271484375, 0.392089843750, -3.984375000000, 1.906250000000, -1.351562500000, 1490870133
-0.098388671875, -0.853271484375, 0.392089843750, -3.984375000000, 1.906250000000, -1.351562500000, 1490870133
-0.098388671875, -0.853271484375, 0.392089843750, -3.984375000000, 1.906250000000, -1.351562500000, 1490870133
-0.115966796875, -0.948730468750, 0.414550781250, -1.570312500000, -0.085937500000, -1.484375000000, 1490870133
-0.115966796875, -0.948730468750, 0.414550781250, -1.570312500000, -0.085937500000, -1.484375000000, 1490870133
-0.115966796875, -0.948730468750, 0.414550781250, -1.570312500000, -0.085937500000, -1.484375000000, 1490870133
-0.047119140625, -0.948486328125, 0.405273437500, -4.460937500000, 1.882812500000, -3.851562500000, 1490870133
-0.047119140625, -0.948486328125, 0.405273437500, -4.460937500000, 1.882812500000, -3.851562500000, 1490870133
-0.047119140625, -0.948486328125, 0.405273437500, -4.460937500000, 1.882812500000, -3.851562500000, 1490870133
-0.187011718750, -0.810546875000, 0.350341796875, -8.390625000000, 1.734375000000, -4.085937500000, 1490870133
-0.187011718750, -0.810546875000, 0.350341796875, -8.390625000000, 1.734375000000, -4.085937500000, 1490870133
-0.187011718750, -0.810546875000, 0.350341796875, -8.390625000000, 1.734375000000, -4.085937500000, 1490870133
-0.187011718750, -0.810546875000, 0.350341796875, -8.390625000000, 1.734375000000, -4.085937500000, 1490870134
-0.120849609375, -0.870605468750, 0.391601562500, -6.523437500000, 1.937500000000, -1.343750000000, 1490870134
-0.120849609375, -0.870605468750, 0.391601562500, -6.523437500000, 1.937500000000, -1.343750000000, 1490870134
-0.120849609375, -0.870605468750, 0.391601562500, -6.523437500000, 1.937500000000, -1.343750000000, 1490870134
-0.199462890625, -0.939941406250, 0.416259765625, -6.781250000000, 2.320312500000, -4.031250000000, 1490870134
-0.199462890625, -0.939941406250, 0.416259765625, -6.781250000000, 2.320312500000, -4.031250000000, 1490870134
-0.199462890625, -0.939941406250, 0.416259765625, -6.781250000000, 2.320312500000, -4.031250000000, 1490870134
-0.040527343750, -0.807861328125, 0.290039062500, -3.984375000000, 4.617187500000, -1.742187500000, 1490870134
-0.040527343750, -0.807861328125, 0.290039062500, -3.984375000000, 4.617187500000, -1.742187500000, 1490870134
-0.040527343750, -0.807861328125, 0.290039062500, -3.984375000000, 4.617187500000, -1.742187500000, 1490870134
-0.049560546875, -0.938720703125, 0.440673828125, 0.289062500000, 1.164062500000, -1.101562500000, 1490870134
-0.049560546875, -0.938720703125, 0.440673828125, 0.289062500000, 1.164062500000, -1.101562500000, 1490870134
-0.049560546875, -0.938720703125, 0.440673828125, 0.289062500000, 1.164062500000, -1.101562500000, 1490870134
-0.049560546875, -0.938720703125, 0.440673828125, 0.289062500000, 1.164062500000, -1.101562500000, 1490870134
-0.141601562500, -0.887695312500, 0.417968750000, -1.976562500000, 4.843750000000, -4.007812500000, 1490870134
-0.141601562500, -0.887695312500, 0.417968750000, -1.976562500000, 4.843750000000, -4.007812500000, 1490870134
-0.141601562500, -0.887695312500, 0.417968750000, -1.976562500000, 4.843750000000, -4.007812500000, 1490870134
-0.132568359375, -0.959716796875, 0.307617187500, -4.835937500000, 0.265625000000, -2.968750000000, 1490870134
-0.132568359375, -0.959716796875, 0.307617187500, -4.835937500000, 0.265625000000, -2.968750000000, 1490870134
-0.132568359375, -0.959716796875, 0.307617187500, -4.835937500000, 0.265625000000, -2.968750000000, 1490870134
-0.152587890625, -0.875000000000, 0.463867187500, -4.398437500000, 2.179687500000, -4.476562500000, 1490870134
-0.152587890625, -0.875000000000, 0.463867187500, -4.398437500000, 2.179687500000, -4.476562500000, 1490870134
-0.152587890625, -0.875000000000, 0.463867187500, -4.398437500000, 2.179687500000, -4.476562500000, 1490870134
-0.189208984375, -0.854003906250, 0.447998046875, -4.289062500000, 2.203125000000, -1.601562500000, 1490870134
-0.189208984375, -0.854003906250, 0.447998046875, -4.289062500000, 2.203125000000, -1.601562500000, 1490870134
-0.189208984375, -0.854003906250, 0.447998046875, -4.289062500000, 2.203125000000, -1.601562500000, 1490870134
-0.189208984375, -0.854003906250, 0.447998046875, -4.289062500000, 2.203125000000, -1.601562500000, 1490870134
-0.204345703125, -0.864501953125, 0.400390625000, -1.148437500000, -0.976562500000, -1.921875000000, 1490870134
-0.204345703125, -0.864501953125, 0.400390625000, -1.148437500000, -0.976562500000, -1.921875000000, 1490870134
-0.204345703125, -0.864501953125, 0.400390625000, -1.148437500000, -0.976562500000, -1.921875000000, 1490870134
-0.214599609375, -0.953369140625, 0.405273437500, -6.609375000000, -0.789062500000, -3.093750000000, 1490870134
-0.214599609375, -0.953369140625, 0.405273437500, -6.609375000000, -0.789062500000, -3.093750000000, 1490870134
-0.214599609375, -0.953369140625, 0.405273437500, -6.609375000000, -0.789062500000, -3.093750000000, 1490870134
-0.114990234375, -0.877929687500, 0.366943359375, -3.000000000000, -0.007812500000, -2.820312500000, 1490870134
-0.114990234375, -0.877929687500, 0.366943359375, -3.000000000000, -0.007812500000, -2.820312500000, 1490870134
-0.114990234375, -0.877929687500, 0.366943359375, -3.000000000000, -0.007812500000, -2.820312500000, 1490870134
-0.133544921875, -0.959228515625, 0.355957031250, -4.195312500000, 1.500000000000, -3.765625000000, 1490870134
-0.133544921875, -0.959228515625, 0.355957031250, -4.195312500000, 1.500000000000, -3.765625000000, 1490870134
-0.133544921875, -0.959228515625, 0.355957031250, -4.195312500000, 1.500000000000, -3.765625000000, 1490870134
-0.133544921875, -0.959228515625, 0.355957031250, -4.195312500000, 1.500000000000, -3.765625000000, 1490870134
-0.201904296875, -0.857666015625, 0.365478515625, -3.710937500000, -0.125000000000, -6.148437500000, 1490870134
-0.201904296875, -0.857666015625, 0.365478515625, -3.710937500000, -0.125000000000, -6.148437500000, 1490870134
-0.201904296875, -0.857666015625, 0.365478515625, -3.710937500000, -0.125000000000, -6.148437500000, 1490870134
-0.101074218750, -0.893066406250, 0.445068359375, -2.234375000000, 4.406250000000, -3.257812500000, 1490870134
-0.101074218750, -0.893066406250, 0.445068359375, -2.234375000000, 4.406250000000, -3.257812500000, 1490870134
-0.101074218750, -0.893066406250, 0.445068359375, -2.234375000000, 4.406250000000, -3.257812500000, 1490870134
-0.159179687500, -0.856445312500, 0.404541015625, -1.882812500000, -1.195312500000, -6.960937500000, 1490870134
-0.159179687500, -0.856445312500, 0.404541015625, -1.882812500000, -1.195312500000, -6.960937500000, 1490870134
-0.159179687500, -0.856445312500, 0.404541015625, -1.882812500000, -1.195312500000, -6.960937500000, 1490870134
-0.121093750000, -0.962402343750, 0.400878906250, -1.687500000000, 2.578125000000, -4.054687500000, 1490870134
-0.121093750000, -0.962402343750, 0.400878906250, -1.687500000000, 2.578125000000, -4.054687500000, 1490870134
-0.121093750000, -0.962402343750, 0.400878906250, -1.687500000000, 2.578125000000, -4.054687500000, 1490870134
-0.121093750000, -0.962402343750, 0.400878906250, -1.687500000000, 2.578125000000, -4.054687500000, 1490870134
-0.187255859375, -0.900146484375, 0.365478515625, -4.765625000000, -2.914062500000, -4.875000000000, 1490870134
-0.187255859375, -0.900146484375, 0.365478515625, -4.765625000000, -2.914062500000, -4.875000000000, 1490870134
-0.187255859375, -0.900146484375, 0.365478515625, -4.765625000000, -2.914062500000, -4.875000000000, 1490870134
-0.059570312500, -0.952636718750, 0.422119140625, -3.210937500000, 2.437500000000, -4.382812500000, 1490870134
-0.059570312500, -0.952636718750, 0.422119140625, -3.210937500000, 2.437500000000, -4.382812500000, 1490870134
-0.059570312500, -0.952636718750, 0.422119140625, -3.210937500000, 2.437500000000, -4.382812500000, 1490870134
-0.217529296875, -0.861328125000, 0.392333984375, -3.250000000000, -2.656250000000, -4.164062500000, 1490870134
-0.217529296875, -0.861328125000, 0.392333984375, -3.250000000000, -2.656250000000, -4.164062500000, 1490870134
-0.217529296875, -0.861328125000, 0.392333984375, -3.250000000000, -2.656250000000, -4.164062500000, 1490870134
-0.208007812500, -0.988037109375, 0.301269531250, -2.898437500000, -0.687500000000, -3.398437500000, 1490870134
-0.208007812500, -0.988037109375, 0.301269531250, -2.898437500000, -0.687500000000, -3.398437500000, 1490870134
-0.208007812500, -0.988037109375, 0.301269531250, -2.898437500000, -0.687500000000, -3.398437500000, 1490870134
-0.208007812500, -0.988037109375, 0.301269531250, -2.898437500000, -0.687500000000, -3.398437500000, 1490870134
-0.118164062500, -0.904052734375, 0.402587890625, -4.234375000000, -0.671875000000, -4.375000000000, 1490870135
-0.118164062500, -0.904052734375, 0.402587890625, -4.234375000000, -0.671875000000, -4.375000000000, 1490870135
-0.118164062500, -0.904052734375, 0.402587890625, -4.234375000000, -0.671875000000, -4.375000000000, 1490870135
-0.151367187500, -0.884765625000, 0.364257812500, -4.117187500000, -0.945312500000, -5.328125000000, 1490870135
-0.151367187500, -0.884765625000, 0.364257812500, -4.117187500000, -0.945312500000, -5.328125000000, 1490870135
-0.151367187500, -0.884765625000, 0.364257812500, -4.117187500000, -0.945312500000, -5.328125000000, 1490870135
-0.133789062500, -0.941894531250, 0.355712890625, -3.445312500000, -0.828125000000, -5.250000000000, 1490870135
-0.133789062500, -0.941894531250, 0.355712890625, -3.445312500000, -0.828125000000, -5.250000000000, 1490870135
-0.133789062500, -0.941894531250, 0.355712890625, -3.445312500000, -0.828125000000, -5.250000000000, 1490870135
-0.110351562500, -0.930908203125, 0.353515625000, -4.148437500000, 0.640625000000, -3.937500000000, 1490870135
-0.110351562500, -0.930908203125, 0.353515625000, -4.148437500000, 0.640625000000, -3.937500000000, 1490870135
-0.110351562500, -0.930908203125, 0.353515625000, -4.148437500000, 0.640625000000, -3.937500000000, 1490870135
-0.110351562500, -0.930908203125, 0.353515625000, -1.125000000000, -0.664062500000, -3.218750000000, 1490870135
-0.192138671875, -0.860839843750, 0.351562500000, -3.601562500000, 0.820312500000, -4.406250000000, 1490870135
-0.192138671875, -0.860839843750, 0.351562500000, -3.601562500000, 0.820312500000, -4.406250000000, 1490870135
-0.192138671875, -0.860839843750, 0.351562500000, -3.601562500000, 0.820312500000, -4.406250000000, 1490870135
-0.143554687500, -0.941162109375, 0.299072265625, -3.664062500000, 2.984375000000, -3.484375000000, 1490870135
-0.143554687500, -0.941162109375, 0.299072265625, -3.664062500000, 2.984375000000, -3.484375000000, 1490870135
-0.143554687500, -0.941162109375, 0.299072265625, -3.664062500000, 2.984375000000, -3.484375000000, 1490870135
-0.165039062500, -0.912353515625, 0.451171875000, -2.453125000000, -6.546875000000, -3.312500000000, 1490870135
-0.165039062500, -0.912353515625, 0.451171875000, -2.453125000000, -6.546875000000, -3.312500000000, 1490870135
-0.165039062500, -0.912353515625, 0.451171875000, -2.453125000000, -6.546875000000, -3.312500000000, 1490870135
