ACC_X,ACC_Y,ACC_Z,G_X,G_Y,G_Z,Unix Time
-0.126708984375, -0.971435546875, 0.113769531250, -3.062500000000, 0.328125000000, -1.898437500000, 1490870845
-0.126708984375, -0.971435546875, 0.113769531250, -3.062500000000, 0.328125000000, -1.898437500000, 1490870845
-0.126708984375, -0.971435546875, 0.113769531250, -3.062500000000, 0.328125000000, -1.898437500000, 1490870845
-0.118896484375, -0.971679687500, 0.233886718750, -4.320312500000, -2.593750000000, -1.062500000000, 1490870845
-0.118896484375, -0.971679687500, 0.233886718750, -4.320312500000, -2.593750000000, -1.062500000000, 1490870845
-0.118896484375, -0.971679687500, 0.233886718750, -4.320312500000, -2.593750000000, -1.062500000000, 1490870845
-0.130126953125, -0.912597656250, 0.175048828125, -3.765625000000, -6.531250000000, -3.179687500000, 1490870845
-0.130126953125, -0.912597656250, 0.175048828125, -3.765625000000, -6.531250000000, -3.179687500000, 1490870845
-0.130126953125, -0.912597656250, 0.175048828125, -3.765625000000, -6.531250000000, -3.179687500000, 1490870845
-0.130126953125, -0.912597656250, 0.175048828125, -3.765625000000, -6.531250000000, -3.179687500000, 1490870845
-0.082763671875, -0.978759765625, 0.187011718750, -3.531250000000, -6.343750000000, -3.023437500000, 1490870845
-0.082763671875, -0.978759765625, 0.187011718750, -3.531250000000, -6.343750000000, -3.023437500000, 1490870845
-0.082763671875, -0.978759765625, 0.187011718750, -3.531250000000, -6.343750000000, -3.023437500000, 1490870845
0.011962890625, -1.028808593750, 0.231689453125, 0.039062500000, -3.984375000000, -6.140625000000, 1490870845
0.011962890625, -1.028808593750, 0.231689453125, 0.039062500000, -3.984375000000, -6.140625000000, 1490870845
0.011962890625, -1.028808593750, 0.231689453125, 0.039062500000, -3.984375000000, -6.140625000000, 1490870845
-0.136474609375, -0.979980468750, 0.167724609375, -0.750000000000, -13.296875000000, -4.500000000000, 1490870845
-0.136474609375, -0.979980468750, 0.167724609375, -0.750000000000, -13.296875000000, -4.500000000000, 1490870845
-0.136474609375, -0.979980468750, 0.167724609375, -0.750000000000, -13.296875000000, -4.500000000000, 1490870845
-0.136474609375, -0.979980468750, 0.167724609375, -0.750000000000, -13.296875000000, -4.500000000000, 1490870845
0.008300781250, -1.011718750000, 0.192626953125, -1.476562500000, -10.789062500000, -4.351562500000, 1490870845
0.008300781250, -1.011718750000, 0.192626953125, -1.476562500000, -10.789062500000, -4.351562500000, 1490870845
0.008300781250, -1.011718750000, 0.192626953125, -1.476562500000, -10.789062500000, -4.351562500000, 1490870845
-0.146728515625, -1.026611328125, 0.279052734375, -4.570312500000, -7.695312500000, -4.289062500000, 1490870845
-0.146728515625, -1.026611328125, 0.279052734375, -4.570312500000, -7.695312500000, -4.289062500000, 1490870845
-0.146728515625, -1.026611328125, 0.279052734375, -4.570312500000, -7.695312500000, -4.289062500000, 1490870845
-0.048095703125, -1.012695312500, 0.279785156250, -3.046875000000, -9.960937500000, -6.359375000000, 1490870845
-0.048095703125, -1.012695312500, 0.279785156250, -3.046875000000, -9.960937500000, -6.359375000000, 1490870845
-0.048095703125, -1.012695312500, 0.279785156250, -3.046875000000, -9.960937500000, -6.359375000000, 1490870845
-0.133789062500, -1.005859375000, 0.177734375000, -4.820312500000, -9.140625000000, -6.281250000000, 1490870845
-0.038330078125, -1.011230468750, 0.125000000000, -4.992187500000, -8.523437500000, -5.312500000000, 1490870845
-0.038330078125, -1.011230468750, 0.125000000000, -4.992187500000, -8.523437500000, -5.312500000000, 1490870845
-0.038330078125, -1.011230468750, 0.125000000000, -4.992187500000, -8.523437500000, -5.312500000000, 1490870845
-0.038330078125, -1.011230468750, 0.125000000000, -4.992187500000, -8.523437500000, -5.312500000000, 1490870845
-0.038330078125, -1.011230468750, 0.125000000000, -4.992187500000, -8.523437500000, -5.312500000000, 1490870845
-0.038330078125, -1.011230468750, 0.125000000000, -4.992187500000, -8.523437500000, -5.312500000000, 1490870845
-0.202636718750, -1.003417968750, 0.202880859375, -1.554687500000, -3.757812500000, -6.867187500000, 1490870845
-0.202636718750, -1.003417968750, 0.202880859375, -1.554687500000, -3.757812500000, -6.867187500000, 1490870845
-0.202636718750, -1.003417968750, 0.202880859375, -1.554687500000, -3.757812500000, -6.867187500000, 1490870845
-0.192626953125, -0.960693359375, 0.253662109375, -1.875000000000, 0.531250000000, -3.640625000000, 1490870845
-0.192626953125, -0.960693359375, 0.253662109375, -1.875000000000, 0.531250000000, -3.640625000000, 1490870845
-0.192626953125, -0.960693359375, 0.253662109375, -1.875000000000, 0.531250000000, -3.640625000000, 1490870845
-0.098144531250, -1.016357421875, 0.179443359375, 0.164062500000, 0.968750000000, -6.148437500000, 1490870845
-0.098144531250, -1.016357421875, 0.179443359375, 0.164062500000, 0.968750000000, -6.148437500000, 1490870845
-0.098144531250, -1.016357421875, 0.179443359375, 0.164062500000, 0.968750000000, -6.148437500000, 1490870845
-0.098144531250, -1.016357421875, 0.179443359375, 0.164062500000, 0.968750000000, -6.148437500000, 1490870845
-0.130371093750, -1.089843750000, 0.161621093750, 0.179687500000, -0.718750000000, -4.828125000000, 1490870845
-0.130371093750, -1.089843750000, 0.161621093750, 0.179687500000, -0.718750000000, -4.828125000000, 1490870845
-0.130371093750, -1.089843750000, 0.161621093750, 0.179687500000, -0.718750000000, -4.828125000000, 1490870845
-0.197998046875, -1.078613281250, 0.165283203125, -4.500000000000, 0.632812500000, -4.367187500000, 1490870845
-0.197998046875, -1.078613281250, 0.165283203125, -4.500000000000, 0.632812500000, -4.367187500000, 1490870845
-0.197998046875, -1.078613281250, 0.165283203125, -4.500000000000, 0.632812500000, -4.367187500000, 1490870845
-0.145507812500, -0.924072265625, 0.178466796875, -6.382812500000, 2.585937500000, -4.000000000000, 1490870846
-0.145507812500, -0.924072265625, 0.178466796875, -6.382812500000, 2.585937500000, -4.000000000000, 1490870846
0.015380859375, -0.990234375000, 0.218505859375, 0.148437500000, -4.414062500000, -6.234375000000, 1490870846
0.015380859375, -0.990234375000, 0.218505859375, 0.148437500000, -4.414062500000, -6.234375000000, 1490870846
0.015380859375, -0.990234375000, 0.218505859375, 0.148437500000, -4.414062500000, -6.234375000000, 1490870846
0.015380859375, -0.990234375000, 0.218505859375, 0.148437500000, -4.414062500000, -6.234375000000, 1490870846
-0.130859375000, -0.921630859375, 0.274414062500, -3.273437500000, 6.328125000000, -1.164062500000, 1490870846
-0.130859375000, -0.921630859375, 0.274414062500, -3.273437500000, 6.328125000000, -1.164062500000, 1490870846
-0.130859375000, -0.921630859375, 0.274414062500, -3.273437500000, 6.328125000000, -1.164062500000, 1490870846
-0.130859375000, -0.921630859375, 0.274414062500, -3.273437500000, 6.328125000000, -1.164062500000, 1490870846
-0.196777343750, -0.928466796875, 0.159912109375, -3.500000000000, 3.671875000000, -1.125000000000, 1490870846
-0.196777343750, -0.928466796875, 0.159912109375, -3.500000000000, 3.671875000000, -1.125000000000, 1490870846
-0.196777343750, -0.928466796875, 0.159912109375, -3.500000000000, 3.671875000000, -1.125000000000, 1490870846
-0.040771484375, -0.917968750000, 0.182128906250, -4.093750000000, 2.984375000000, -4.218750000000, 1490870846
-0.040771484375, -0.917968750000, 0.182128906250, -4.093750000000, 2.984375000000, -4.218750000000, 1490870846
-0.040771484375, -0.917968750000, 0.182128906250, -4.093750000000, 2.984375000000, -4.218750000000, 1490870846
-0.128173828125, -1.069091796875, 0.178222656250, -3.664062500000, 2.335937500000, -2.664062500000, 1490870846
-0.128173828125, -1.069091796875, 0.178222656250, -3.664062500000, 2.335937500000, -2.664062500000, 1490870846
-0.128173828125, -1.069091796875, 0.178222656250, -3.664062500000, 2.335937500000, -2.664062500000, 1490870846
-0.128173828125, -1.069091796875, 0.178222656250, -3.664062500000, 2.335937500000, -2.664062500000, 1490870846
-0.074462890625, -0.948242187500, 0.212158203125, -3.867187500000, 4.835937500000, -1.484375000000, 1490870846
-0.074462890625, -0.948242187500, 0.212158203125, -3.867187500000, 4.835937500000, -1.484375000000, 1490870846
-0.074462890625, -0.948242187500, 0.212158203125, -3.867187500000, 4.835937500000, -1.484375000000, 1490870846
-0.147460937500, -0.959472656250, 0.200195312500, -3.101562500000, 1.453125000000, -1.476562500000, 1490870846
0.021728515625, -0.917236328125, 0.159179687500, -3.351562500000, 1.117187500000, -1.367187500000, 1490870846
0.021728515625, -0.917236328125, 0.159179687500, -3.351562500000, 1.117187500000, -1.367187500000, 1490870846
-0.213867187500, -1.004638671875, 0.178710937500, -6.523437500000, 2.601562500000, -4.851562500000, 1490870846
-0.213867187500, -1.004638671875, 0.178710937500, -6.523437500000, 2.601562500000, -4.851562500000, 1490870846
-0.213867187500, -1.004638671875, 0.178710937500, -6.523437500000, 2.601562500000, -4.851562500000, 1490870846
-0.213867187500, -1.004638671875, 0.178710937500, -6.523437500000, 2.601562500000, -4.851562500000, 1490870846
-0.213867187500, -1.004638671875, 0.178710937500, -6.523437500000, 2.601562500000, -4.851562500000, 1490870846
-0.213867187500, -1.004638671875, 0.178710937500, -6.523437500000, 2.601562500000, -4.851562500000, 1490870846
-0.213867187500, -1.004638671875, 0.178710937500, -6.523437500000, 2.601562500000, -4.851562500000, 1490870846
-0.140380859375, -0.848876953125, 0.166503906250, -4.898437500000, -0.062500000000, -3.953125000000, 1490870846
-0.140380859375, -0.848876953125, 0.166503906250, -4.898437500000, -0.062500000000, -3.953125000000, 1490870846
-0.140380859375, -0.848876953125, 0.166503906250, -4.898437500000, -0.062500000000, -3.953125000000, 1490870846
-0.062255859375, -0.958007812500, 0.218017578125, -5.117187500000, -0.835937500000, -2.718750000000, 1490870846
-0.062255859375, -0.958007812500, 0.218017578125, -5.117187500000, -0.835937500000, -2.718750000000, 1490870846
-0.062255859375, -0.958007812500, 0.218017578125, -5.117187500000, -0.835937500000, -2.718750000000, 1490870846
-0.108154296875, -0.922607421875, 0.250488281250, -6.468750000000, 2.789062500000, -3.421875000000, 1490870846
-0.108154296875, -0.922607421875, 0.250488281250, -6.468750000000, 2.789062500000, -3.421875000000, 1490870846
-0.108154296875, -0.922607421875, 0.250488281250, -6.468750000000, 2.789062500000, -3.421875000000, 1490870846
-0.187744140625, -0.983886718750, 0.238281250000, -2.070312500000, -6.437500000000, -4.843750000000, 1490870846
-0.187744140625, -0.983886718750, 0.238281250000, -2.070312500000, -6.437500000000, -4.843750000000, 1490870846
-0.187744140625, -0.983886718750, 0.238281250000, -2.070312500000, -6.437500000000, -4.843750000000, 1490870846
-0.187744140625, -0.983886718750, 0.238281250000, -2.070312500000, -6.437500000000, -4.843750000000, 1490870846
-0.125000000000, -0.922363281250, 0.265869140625, -6.898437500000, -0.664062500000, -4.257812500000, 1490870846
-0.125000000000, -0.922363281250, 0.265869140625, -6.898437500000, -0.664062500000, -4.257812500000, 1490870846
-0.125000000000, -0.922363281250, 0.265869140625, -6.898437500000, -0.664062500000, -4.257812500000, 1490870846
-0.050537109375, -0.952392578125, 0.216796875000, -3.195312500000, -4.250000000000, -3.664062500000, 1490870846
-0.050537109375, -0.952392578125, 0.216796875000, -3.195312500000, -4.250000000000, -3.664062500000, 1490870846
-0.050537109375, -0.952392578125, 0.216796875000, -3.195312500000, -4.250000000000, -3.664062500000, 1490870846
-0.151611328125, -0.872070312500, 0.285156250000, -1.890625000000, -1.835937500000, -3.250000000000, 1490870846
-0.151611328125, -0.872070312500, 0.285156250000, -1.890625000000, -1.835937500000, -3.250000000000, 1490870846
-0.151611328125, -0.872070312500, 0.285156250000, -1.890625000000, -1.835937500000, -3.250000000000, 1490870846
-0.050292968750, -1.022460937500, 0.197509765625, 0.492187500000, -2.031250000000, -4.742187500000, 1490870846
-0.050292968750, -1.022460937500, 0.197509765625, 0.492187500000, -2.031250000000, -4.742187500000, 1490870846
-0.050292968750, -1.022460937500, 0.197509765625, 0.492187500000, -2.031250000000, -4.742187500000, 1490870846
-0.050292968750, -1.022460937500, 0.197509765625, 0.492187500000, -2.031250000000, -4.742187500000, 1490870846
-0.142089843750, -0.967773437500, 0.161376953125, -4.820312500000, -0.875000000000, -3.640625000000, 1490870846
-0.142089843750, -0.967773437500, 0.161376953125, -4.820312500000, -0.875000000000, -3.640625000000, 1490870846
-0.142089843750, -0.967773437500, 0.161376953125, -4.820312500000, -0.875000000000, -3.640625000000, 1490870846
-0.144531250000, -1.018310546875, 0.167968750000, -1.906250000000, -0.820312500000, -4.281250000000, 1490870846
-0.144531250000, -1.018310546875, 0.167968750000, -1.906250000000, -0.820312500000, -4.281250000000, 1490870846
-0.144531250000, -1.018310546875, 0.167968750000, -1.906250000000, -0.820312500000, -4.281250000000, 1490870846
0.001220703125, -0.961914062500, 0.185791015625, -4.085937500000, 0.773437500000, -4.726562500000, 1490870846
0.001220703125, -0.961914062500, 0.185791015625, -4.085937500000, 0.773437500000, -4.726562500000, 1490870847
0.001220703125, -0.961914062500, 0.185791015625, -4.085937500000, 0.773437500000, -4.726562500000, 1490870847
-0.084960937500, -0.956298828125, 0.177246093750, -3.195312500000, -0.367187500000, -1.968750000000, 1490870847
-0.084960937500, -0.956298828125, 0.177246093750, -3.195312500000, -0.367187500000, -1.968750000000, 1490870847
-0.084960937500, -0.956298828125, 0.177246093750, -3.195312500000, -0.367187500000, -1.968750000000, 1490870847
-0.084960937500, -0.956298828125, 0.177246093750, -3.195312500000, -0.367187500000, -1.968750000000, 1490870847
-0.140136718750, -0.946533203125, 0.168457031250, -4.203125000000, 0.859375000000, -1.875000000000, 1490870847
-0.140136718750, -0.946533203125, 0.168457031250, -4.203125000000, 0.859375000000, -1.875000000000, 1490870847
-0.140136718750, -0.946533203125, 0.168457031250, -4.203125000000, 0.859375000000, -1.875000000000, 1490870847
-0.042236328125, -0.908935546875, 0.216552734375, -3.023437500000, 2.250000000000, -1.156250000000, 1490870847
-0.042236328125, -0.908935546875, 0.216552734375, -3.023437500000, 2.250000000000, -1.156250000000, 1490870847
-0.042236328125, -0.908935546875, 0.216552734375, -3.023437500000, 2.250000000000, -1.156250000000, 1490870847
-0.153320312500, -1.024414062500, 0.164794921875, -3.453125000000, 1.429687500000, -1.640625000000, 1490870847
-0.153320312500, -1.024414062500, 0.164794921875, -3.453125000000, 1.429687500000, -1.640625000000, 1490870847
-0.153320312500, -1.024414062500, 0.164794921875, -3.453125000000, 1.429687500000, -1.640625000000, 1490870847
-0.089111328125, -0.968505859375, 0.261718750000, -6.070312500000, 0.976562500000, -4.078125000000, 1490870847
-0.089111328125, -0.968505859375, 0.261718750000, -6.070312500000, 0.976562500000, -4.078125000000, 1490870847
-0.089111328125, -0.968505859375, 0.261718750000, -6.070312500000, 0.976562500000, -4.078125000000, 1490870847
-0.089111328125, -0.968505859375, 0.261718750000, -6.070312500000, 0.976562500000, -4.078125000000, 1490870847
-0.066162109375, -0.953613281250, 0.183105468750, -3.117187500000, 2.539062500000, -4.046875000000, 1490870847
-0.066162109375, -0.953613281250, 0.183105468750, -3.117187500000, 2.539062500000, -4.046875000000, 1490870847
-0.066162109375, -0.953613281250, 0.183105468750, -3.117187500000, 2.539062500000, -4.046875000000, 1490870847
0.001220703125, -0.929443359375, 0.113037109375, -2.335937500000, -0.429687500000, -1.890625000000, 1490870847
0.001220703125, -0.929443359375, 0.113037109375, -2.335937500000, -0.429687500000, -1.890625000000, 1490870847
0.001220703125, -0.929443359375, 0.113037109375, -2.335937500000, -0.429687500000, -1.890625000000, 1490870847
-0.132080078125, -0.908935546875, 0.260009765625, -4.054687500000, 1.304687500000, -6.023437500000, 1490870847
-0.132080078125, -0.908935546875, 0.260009765625, -4.054687500000, 1.304687500000, -6.023437500000, 1490870847
-0.132080078125, -0.908935546875, 0.260009765625, -4.054687500000, 1.304687500000, -6.023437500000, 1490870847
-0.092773437500, -0.955078125000, 0.278076171875, -2.109375000000, 1.453125000000, -4.640625000000, 1490870847
-0.092773437500, -0.955078125000, 0.278076171875, -2.109375000000, 1.453125000000, -4.640625000000, 1490870847
-0.092773437500, -0.955078125000, 0.278076171875, -2.109375000000, 1.453125000000, -4.640625000000, 1490870847
-0.092773437500, -0.955078125000, 0.278076171875, -2.109375000000, 1.453125000000, -4.640625000000, 1490870847
-0.127685546875, -1.016601562500, 0.195556640625, -2.765625000000, -0.070312500000, -4.687500000000, 1490870847
-0.127685546875, -1.016601562500, 0.195556640625, -2.765625000000, -0.070312500000, -4.687500000000, 1490870847
-0.127685546875, -1.016601562500, 0.195556640625, -2.765625000000, -0.070312500000, -4.687500000000, 1490870847
-0.089843750000, -0.948242187500, 0.276855468750, -2.828125000000, -0.875000000000, -4.046875000000, 1490870847
-0.089843750000, -0.948242187500, 0.276855468750, -2.828125000000, -0.875000000000, -4.046875000000, 1490870847
-0.089843750000, -0.948242187500, 0.276855468750, -2.828125000000, -0.875000000000, -4.046875000000, 1490870847
-0.027099609375, -0.943115234375, 0.175781250000, -1.421875000000, 2.914062500000, -3.343750000000, 1490870847
-0.027099609375, -0.943115234375, 0.175781250000, -1.421875000000, 2.914062500000, -3.343750000000, 1490870847
-0.027099609375, -0.943115234375, 0.175781250000, -1.421875000000, 2.914062500000, -3.343750000000, 1490870847
0.008300781250, -1.009521484375, 0.213378906250, 0.312500000000, 1.398437500000, -3.257812500000, 1490870847
0.008300781250, -1.009521484375, 0.213378906250, 0.312500000000, 1.398437500000, -3.257812500000, 1490870847
0.008300781250, -1.009521484375, 0.213378906250, 0.312500000000, 1.398437500000, -3.257812500000, 1490870847
0.008300781250, -1.009521484375, 0.213378906250, 0.312500000000, 1.398437500000, -3.257812500000, 1490870847
-0.040283203125, -0.908935546875, 0.185791015625, -2.203125000000, 3.453125000000, 0.210937500000, 1490870847
-0.040283203125, -0.908935546875, 0.185791015625, -2.203125000000, 3.453125000000, 0.210937500000, 1490870847
-0.040283203125, -0.908935546875, 0.185791015625, -2.203125000000, 3.453125000000, 0.210937500000, 1490870847
-0.149414062500, -1.007568359375, 0.248779296875, -1.984375000000, 4.078125000000, -4.335937500000, 1490870847
-0.149414062500, -1.007568359375, 0.248779296875, -1.984375000000, 4.078125000000, -4.335937500000, 1490870847
-0.149414062500, -1.007568359375, 0.248779296875, -1.984375000000, 4.078125000000, -4.335937500000, 1490870847
-0.179443359375, -1.017089843750, 0.127197265625, 0.226562500000, 2.000000000000, -1.828125000000, 1490870847
-0.179443359375, -1.017089843750, 0.127197265625, 0.226562500000, 2.000000000000, -1.828125000000, 1490870847
-0.179443359375, -1.017089843750, 0.127197265625, 0.226562500000, 2.000000000000, -1.828125000000, 1490870847
-0.050781250000, -1.012451171875, 0.253906250000, -3.093750000000, 2.445312500000, -4.140625000000, 1490870847
-0.050781250000, -1.012451171875, 0.253906250000, -3.093750000000, 2.445312500000, -4.140625000000, 1490870847
-0.050781250000, -1.012451171875, 0.253906250000, -3.093750000000, 2.445312500000, -4.140625000000, 1490870847
-0.050781250000, -1.012451171875, 0.253906250000, -3.093750000000, 2.445312500000, -4.140625000000, 1490870847
-0.135253906250, -0.968017578125, 0.166503906250, -2.750000000000, 0.429687500000, -4.554687500000, 1490870847
-0.135253906250, -0.968017578125, 0.166503906250, -2.750000000000, 0.429687500000, -4.554687500000, 1490870847
-0.135253906250, -0.968017578125, 0.166503906250, -2.750000000000, 0.429687500000, -4.554687500000, 1490870847
-0.145263671875, -1.080078125000, 0.175781250000, 0.796875000000, -4.031250000000, -1.914062500000, 1490870847
-0.145263671875, -1.080078125000, 0.175781250000, 0.796875000000, -4.031250000000, -1.914062500000, 1490870847
-0.145263671875, -1.080078125000, 0.175781250000, 0.796875000000, -4.031250000000, -1.914062500000, 1490870847
-0.059326171875, -0.895751953125, 0.191650390625, -0.867187500000, -2.867187500000, -2.484375000000, 1490870847
-0.059326171875, -0.895751953125, 0.191650390625, -0.867187500000, -2.867187500000, -2.484375000000, 1490870847
-0.059326171875, -0.895751953125, 0.191650390625, -0.867187500000, -2.867187500000, -2.484375000000, 1490870848
0.005615234375, -0.885009765625, 0.168212890625, 10.304687500000, 1.710937500000, 6.515625000000, 1490870848
0.005615234375, -0.885009765625, 0.168212890625, 10.304687500000, 1.710937500000, 6.515625000000, 1490870848
0.005615234375, -0.885009765625, 0.168212890625, 10.304687500000, 1.710937500000, 6.515625000000, 1490870848
0.005615234375, -0.885009765625, 0.168212890625, 10.304687500000, 1.710937500000, 6.515625000000, 1490870848
-0.080810546875, -0.992431640625, 0.264892578125, 11.484375000000, 11.093750000000, 8.585937500000, 1490870848
-0.080810546875, -0.992431640625, 0.264892578125, 11.484375000000, 11.093750000000, 8.585937500000, 1490870848
-0.080810546875, -0.992431640625, 0.264892578125, 11.484375000000, 11.093750000000, 8.585937500000, 1490870848
-0.077148437500, -0.977050781250, 0.186523437500, 12.414062500000, 8.289062500000, 12.617187500000, 1490870848
-0.077148437500, -0.977050781250, 0.186523437500, 12.414062500000, 8.289062500000, 12.617187500000, 1490870848
-0.077148437500, -0.977050781250, 0.186523437500, 12.414062500000, 8.289062500000, 12.617187500000, 1490870848
-0.082763671875, -1.003906250000, 0.268798828125, 11.906250000000, 17.234375000000, 5.898437500000, 1490870848
-0.082763671875, -1.003906250000, 0.268798828125, 11.906250000000, 17.234375000000, 5.898437500000, 1490870848
-0.082763671875, -1.003906250000, 0.268798828125, 11.906250000000, 17.234375000000, 5.898437500000, 1490870848
-0.208007812500, -1.003662109375, 0.262451171875, 14.632812500000, 2.203125000000, 0.820312500000, 1490870848
-0.208007812500, -1.003662109375, 0.262451171875, 14.632812500000, 2.203125000000, 0.820312500000, 1490870848
-0.208007812500, -1.003662109375, 0.262451171875, 14.632812500000, 2.203125000000, 0.820312500000, 1490870848
-0.208007812500, -1.003662109375, 0.262451171875, 14.632812500000, 2.203125000000, 0.820312500000, 1490870848
0.003173828125, -0.896728515625, 0.267822265625, 1.992187500000, -16.093750000000, -7.156250000000, 1490870848
0.003173828125, -0.896728515625, 0.267822265625, 1.992187500000, -16.093750000000, -7.156250000000, 1490870848
0.003173828125, -0.896728515625, 0.267822265625, 1.992187500000, -16.093750000000, -7.156250000000, 1490870848
-0.017089843750, -0.970458984375, 0.186767578125, 1.539062500000, -11.546875000000, -12.054687500000, 1490870848
-0.017089843750, -0.970458984375, 0.186767578125, 1.539062500000, -11.546875000000, -12.054687500000, 1490870848
-0.017089843750, -0.970458984375, 0.186767578125, 1.539062500000, -11.546875000000, -12.054687500000, 1490870848
0.072021484375, -0.957519531250, 0.334228515625, -0.617187500000, -18.984375000000, -10.945312500000, 1490870848
0.072021484375, -0.957519531250, 0.334228515625, -0.617187500000, -18.984375000000, -10.945312500000, 1490870848
0.072021484375, -0.957519531250, 0.334228515625, -0.617187500000, -18.984375000000, -10.945312500000, 1490870848
-0.057128906250, -0.985351562500, 0.196044921875, 4.312500000000, -13.171875000000, -11.156250000000, 1490870848
-0.057128906250, -0.985351562500, 0.196044921875, 4.312500000000, -13.171875000000, -11.156250000000, 1490870848
-0.057128906250, -0.985351562500, 0.196044921875, 4.312500000000, -13.171875000000, -11.156250000000, 1490870848
-0.057128906250, -0.985351562500, 0.196044921875, 4.312500000000, -13.171875000000, -11.156250000000, 1490870848
-0.135498046875, -1.026367187500, 0.231445312500, 9.867187500000, -24.257812500000, -16.406250000000, 1490870848
-0.135498046875, -1.026367187500, 0.231445312500, 9.867187500000, -24.257812500000, -16.406250000000, 1490870848
-0.135498046875, -1.026367187500, 0.231445312500, 9.867187500000, -24.257812500000, -16.406250000000, 1490870848
0.013427734375, -1.058349609375, 0.170898437500, 10.585937500000, -29.429687500000, -19.257812500000, 1490870848
0.013427734375, -1.058349609375, 0.170898437500, 10.585937500000, -29.429687500000, -19.257812500000, 1490870848
0.013427734375, -1.058349609375, 0.170898437500, 10.585937500000, -29.429687500000, -19.257812500000, 1490870848
0.010253906250, -1.197021484375, 0.252197265625, -0.234375000000, -36.710937500000, -22.218750000000, 1490870848
0.010253906250, -1.197021484375, 0.252197265625, -0.234375000000, -36.710937500000, -22.218750000000, 1490870848
0.010253906250, -1.197021484375, 0.252197265625, -0.234375000000, -36.710937500000, -22.218750000000, 1490870848
-0.095703125000, -1.185546875000, 0.257568359375, -24.843750000000, -2.390625000000, -30.515625000000, 1490870848
-0.095703125000, -1.185546875000, 0.257568359375, -24.843750000000, -2.390625000000, -30.515625000000, 1490870848
-0.095703125000, -1.185546875000, 0.257568359375, -24.843750000000, -2.390625000000, -30.515625000000, 1490870848
-0.095703125000, -1.185546875000, 0.257568359375, -24.843750000000, -2.390625000000, -30.515625000000, 1490870848
-0.122558593750, -1.274414062500, 0.213623046875, -31.734375000000, -31.070312500000, -40.218750000000, 1490870848
-0.122558593750, -1.274414062500, 0.213623046875, -31.734375000000, -31.070312500000, -40.218750000000, 1490870848
-0.122558593750, -1.274414062500, 0.213623046875, -31.734375000000, -31.070312500000, -40.218750000000, 1490870848
-0.190917968750, -0.940429687500, -0.000000000000, -39.195312500000, -9.320312500000, -30.921875000000, 1490870848
-0.190917968750, -0.940429687500, -0.000000000000, -39.195312500000, -9.320312500000, -30.921875000000, 1490870848
-0.190917968750, -0.940429687500, -0.000000000000, -39.195312500000, -9.320312500000, -30.921875000000, 1490870848
-0.142822265625, -0.765869140625, -0.006835937500, -77.390625000000, 69.312500000000, -51.953125000000, 1490870848
-0.142822265625, -0.765869140625, -0.006835937500, -77.390625000000, 69.312500000000, -51.953125000000, 1490870848
-0.142822265625, -0.765869140625, -0.006835937500, -77.390625000000, 69.312500000000, -51.953125000000, 1490870848
-0.114013671875, -0.863525390625, 0.062744140625, -39.796875000000, 60.640625000000, -18.851562500000, 1490870848
-0.114013671875, -0.863525390625, 0.062744140625, -39.796875000000, 60.640625000000, -18.851562500000, 1490870848
-0.114013671875, -0.863525390625, 0.062744140625, -39.796875000000, 60.640625000000, -18.851562500000, 1490870848
-0.114013671875, -0.863525390625, 0.062744140625, -39.796875000000, 60.640625000000, -18.851562500000, 1490870848
-0.157470703125, -1.089111328125, -0.021972656250, -9.523437500000, -66.835937500000, -9.085937500000, 1490870848
-0.157470703125, -1.089111328125, -0.021972656250, -9.523437500000, -66.835937500000, -9.085937500000, 1490870848
-0.157470703125, -1.089111328125, -0.021972656250, -9.523437500000, -66.835937500000, -9.085937500000, 1490870848
-0.144775390625, -0.923339843750, 0.080810546875, 81.679687500000, -62.648437500000, 17.539062500000, 1490870848
-0.144775390625, -0.923339843750, 0.080810546875, 81.679687500000, -62.648437500000, 17.539062500000, 1490870848
-0.144775390625, -0.923339843750, 0.080810546875, 81.679687500000, -62.648437500000, 17.539062500000, 1490870848
-0.068115234375, -0.935302734375, 0.197753906250, 105.718750000000, -50.125000000000, 19.507812500000, 1490870848
-0.068115234375, -0.935302734375, 0.197753906250, 105.718750000000, -50.125000000000, 19.507812500000, 1490870848
-0.068115234375, -0.935302734375, 0.197753906250, 105.718750000000, -50.125000000000, 19.507812500000, 1490870848
-0.177490234375, -0.741943359375, 0.467041015625, 38.046875000000, 63.523437500000, 28.328125000000, 1490870848
-0.177490234375, -0.741943359375, 0.467041015625, 38.046875000000, 63.523437500000, 28.328125000000, 1490870849
-0.177490234375, -0.741943359375, 0.467041015625, 38.046875000000, 63.523437500000, 28.328125000000, 1490870849
-0.177490234375, -0.741943359375, 0.467041015625, 38.046875000000, 63.523437500000, 28.328125000000, 1490870849
-0.185058593750, -1.001708984375, 0.252685546875, -34.343750000000, -3.328125000000, 6.054687500000, 1490870849
-0.185058593750, -1.001708984375, 0.252685546875, -34.343750000000, -3.328125000000, 6.054687500000, 1490870849
-0.185058593750, -1.001708984375, 0.252685546875, -34.343750000000, -3.328125000000, 6.054687500000, 1490870849
-0.317626953125, -0.963867187500, 0.042236328125, -30.757812500000, 38.570312500000, 4.843750000000, 1490870849
-0.317626953125, -0.963867187500, 0.042236328125, -30.757812500000, 38.570312500000, 4.843750000000, 1490870849
-0.317626953125, -0.963867187500, 0.042236328125, -30.757812500000, 38.570312500000, 4.843750000000, 1490870849
-0.157226562500, -1.013183593750, 0.181884765625, -14.625000000000, 38.359375000000, 3.539062500000, 1490870849
-0.233886718750, -1.031005859375, 0.118408203125, -30.296875000000, 53.460937500000, 1.164062500000, 1490870849
-0.233886718750, -1.031005859375, 0.118408203125, -30.296875000000, 53.460937500000, 1.164062500000, 1490870849
-0.319580078125, -1.108154296875, 0.161865234375, -17.671875000000, 56.914062500000, 5.617187500000, 1490870849
-0.319580078125, -1.108154296875, 0.161865234375, -17.671875000000, 56.914062500000, 5.617187500000, 1490870849
-0.319580078125, -1.108154296875, 0.161865234375, -17.671875000000, 56.914062500000, 5.617187500000, 1490870849
-0.319580078125, -1.108154296875, 0.161865234375, -17.671875000000, 56.914062500000, 5.617187500000, 1490870849
-0.319580078125, -1.108154296875, 0.161865234375, -17.671875000000, 56.914062500000, 5.617187500000, 1490870849
-0.319580078125, -1.108154296875, 0.161865234375, -17.671875000000, 56.914062500000, 5.617187500000, 1490870849
-0.319580078125, -1.108154296875, 0.161865234375, -17.671875000000, 56.914062500000, 5.617187500000, 1490870849
-0.336181640625, -1.082031250000, 0.171142578125, -19.664062500000, 20.093750000000, 8.859375000000, 1490870849
-0.336181640625, -1.082031250000, 0.171142578125, -19.664062500000, 20.093750000000, 8.859375000000, 1490870849
-0.336181640625, -1.082031250000, 0.171142578125, -19.664062500000, 20.093750000000, 8.859375000000, 1490870849
-0.312988281250, -1.291748046875, 0.280029296875, -24.179687500000, -27.429687500000, 9.640625000000, 1490870849
-0.312988281250, -1.291748046875, 0.280029296875, -24.179687500000, -27.429687500000, 9.640625000000, 1490870849
0.051513671875, -1.011718750000, 0.218261718750, -57.125000000000, 43.500000000000, 30.382812500000, 1490870849
0.051513671875, -1.011718750000, 0.218261718750, -57.125000000000, 43.500000000000, 30.382812500000, 1490870849
0.051513671875, -1.011718750000, 0.218261718750, -57.125000000000, 43.500000000000, 30.382812500000, 1490870849
0.051513671875, -1.011718750000, 0.218261718750, -57.125000000000, 43.500000000000, 30.382812500000, 1490870849
0.018066406250, -0.836425781250, -0.024414062500, -90.210937500000, 50.804687500000, 29.750000000000, 1490870849
0.018066406250, -0.836425781250, -0.024414062500, -90.210937500000, 50.804687500000, 29.750000000000, 1490870849
0.018066406250, -0.836425781250, -0.024414062500, -90.210937500000, 50.804687500000, 29.750000000000, 1490870849
0.018066406250, -0.836425781250, -0.024414062500, -90.210937500000, 50.804687500000, 29.750000000000, 1490870849
0.007324218750, -1.014404296875, 0.066406250000, -70.664062500000, 43.882812500000, 9.328125000000, 1490870849
0.007324218750, -1.014404296875, 0.066406250000, -70.664062500000, 43.882812500000, 9.328125000000, 1490870849
0.007324218750, -1.014404296875, 0.066406250000, -70.664062500000, 43.882812500000, 9.328125000000, 1490870849
-0.068847656250, -1.061035156250, 0.065917968750, -33.992187500000, -34.140625000000, 13.984375000000, 1490870849
-0.068847656250, -1.061035156250, 0.065917968750, -33.992187500000, -34.140625000000, 13.984375000000, 1490870849
-0.068847656250, -1.061035156250, 0.065917968750, -33.992187500000, -34.140625000000, 13.984375000000, 1490870849
-0.050781250000, -1.040527343750, -0.028564453125, 43.890625000000, 25.523437500000, 18.882812500000, 1490870849
-0.050781250000, -1.040527343750, -0.028564453125, 43.890625000000, 25.523437500000, 18.882812500000, 1490870849
-0.050781250000, -1.040527343750, -0.028564453125, 43.890625000000, 25.523437500000, 18.882812500000, 1490870849
-0.050781250000, -1.040527343750, -0.028564453125, 43.890625000000, 25.523437500000, 18.882812500000, 1490870849
-0.147705078125, -0.891113281250, 0.052490234375, 59.031250000000, 182.148437500000, 4.500000000000, 1490870849
-0.147705078125, -0.891113281250, 0.052490234375, 59.031250000000, 182.148437500000, 4.500000000000, 1490870849
-0.147705078125, -0.891113281250, 0.052490234375, 59.031250000000, 182.148437500000, 4.500000000000, 1490870849
-0.182373046875, -0.668945312500, 0.269287109375, 110.195312500000, -65.031250000000, 15.664062500000, 1490870849
-0.182373046875, -0.668945312500, 0.269287109375, 110.195312500000, -65.031250000000, 15.664062500000, 1490870849
-0.182373046875, -0.668945312500, 0.269287109375, 110.195312500000, -65.031250000000, 15.664062500000, 1490870849
-0.027587890625, -0.862060546875, 0.506591796875, 45.765625000000, -129.695312500000, -5.273437500000, 1490870849
-0.027587890625, -0.862060546875, 0.506591796875, 45.765625000000, -129.695312500000, -5.273437500000, 1490870849
-0.027587890625, -0.862060546875, 0.506591796875, 45.765625000000, -129.695312500000, -5.273437500000, 1490870849
0.016845703125, -0.862060546875, 0.169189453125, -30.523437500000, -17.804687500000, -13.078125000000, 1490870849
0.016845703125, -0.862060546875, 0.169189453125, -30.523437500000, -17.804687500000, -13.078125000000, 1490870849
0.016845703125, -0.862060546875, 0.169189453125, -30.523437500000, -17.804687500000, -13.078125000000, 1490870849
0.016845703125, -0.862060546875, 0.169189453125, -30.523437500000, -17.804687500000, -13.078125000000, 1490870849
-0.130615234375, -0.911376953125, 0.122314453125, -13.820312500000, -34.757812500000, -22.171875000000, 1490870849
-0.130615234375, -0.911376953125, 0.122314453125, -13.820312500000, -34.757812500000, -22.171875000000, 1490870849
-0.130615234375, -0.911376953125, 0.122314453125, -13.820312500000, -34.757812500000, -22.171875000000, 1490870849
0.052978515625, -0.865966796875, 0.101562500000, -4.328125000000, -31.578125000000, -16.460937500000, 1490870849
0.052978515625, -0.865966796875, 0.101562500000, -4.328125000000, -31.578125000000, -16.460937500000, 1490870849
0.052978515625, -0.865966796875, 0.101562500000, -4.328125000000, -31.578125000000, -16.460937500000, 1490870849
0.267578125000, -1.257080078125, 0.263427734375, 2.562500000000, 11.750000000000, -6.789062500000, 1490870849
0.267578125000, -1.257080078125, 0.263427734375, 2.562500000000, 11.750000000000, -6.789062500000, 1490870849
0.267578125000, -1.257080078125, 0.263427734375, 2.562500000000, 11.750000000000, -6.789062500000, 1490870849
-0.264160156250, -1.371582031250, 0.177734375000, -14.554687500000, 16.890625000000, -21.500000000000, 1490870849
-0.264160156250, -1.371582031250, 0.177734375000, -14.554687500000, 16.890625000000, -21.500000000000, 1490870849
-0.264160156250, -1.371582031250, 0.177734375000, -14.554687500000, 16.890625000000, -21.500000000000, 1490870849
-0.264160156250, -1.371582031250, 0.177734375000, -14.554687500000, 16.890625000000, -21.500000000000, 1490870850
-0.103027343750, -1.111328125000, 0.288574218750, -32.890625000000, -22.296875000000, -46.851562500000, 1490870850
-0.103027343750, -1.111328125000, 0.288574218750, -32.890625000000, -22.296875000000, -46.851562500000, 1490870850
-0.103027343750, -1.111328125000, 0.288574218750, -32.890625000000, -22.296875000000, -46.851562500000, 1490870850
0.082763671875, -0.876220703125, 0.171386718750, -87.507812500000, -12.617187500000, -48.835937500000, 1490870850
0.082763671875, -0.876220703125, 0.171386718750, -87.507812500000, -12.617187500000, -48.835937500000, 1490870850
0.082763671875, -0.876220703125, 0.171386718750, -87.507812500000, -12.617187500000, -48.835937500000, 1490870850
0.008544921875, -0.668945312500, 0.068847656250, -90.625000000000, -1.757812500000, -46.515625000000, 1490870850
-0.276611328125, -1.028564453125, 0.063476562500, 30.734375000000, 6.164062500000, 2.773437500000, 1490870850
-0.059326171875, -0.805664062500, 0.254882812500, 138.265625000000, -188.101562500000, 28.109375000000, 1490870850
-0.059326171875, -0.805664062500, 0.254882812500, 138.265625000000, -188.101562500000, 28.109375000000, 1490870850
-0.059326171875, -0.805664062500, 0.254882812500, 138.265625000000, -188.101562500000, 28.109375000000, 1490870850
-0.059326171875, -0.805664062500, 0.254882812500, 138.265625000000, -188.101562500000, 28.109375000000, 1490870850
-0.059326171875, -0.805664062500, 0.254882812500, 138.265625000000, -188.101562500000, 28.109375000000, 1490870850
-0.059326171875, -0.805664062500, 0.254882812500, 138.265625000000, -188.101562500000, 28.109375000000, 1490870850
-0.059326171875, -0.805664062500, 0.254882812500, 121.007812500000, -226.671875000000, 28.414062500000, 1490870850
-0.023193359375, -1.001953125000, 0.483886718750, 45.328125000000, -56.765625000000, 2.710937500000, 1490870850
-0.023193359375, -1.001953125000, 0.483886718750, 45.328125000000, -56.765625000000, 2.710937500000, 1490870850
-0.023193359375, -1.001953125000, 0.483886718750, 45.328125000000, -56.765625000000, 2.710937500000, 1490870850
-0.023193359375, -1.001953125000, 0.483886718750, 45.328125000000, -56.765625000000, 2.710937500000, 1490870850
-0.023193359375, -1.001953125000, 0.483886718750, 45.328125000000, -56.765625000000, 2.710937500000, 1490870850
-0.023193359375, -1.001953125000, 0.483886718750, 45.328125000000, -56.765625000000, 2.710937500000, 1490870850
-0.023193359375, -1.001953125000, 0.483886718750, 45.328125000000, -56.765625000000, 2.710937500000, 1490870850
-0.145507812500, -0.890136718750, 0.121826171875, -4.898437500000, -31.921875000000, 4.093750000000, 1490870850
-0.145507812500, -0.890136718750, 0.121826171875, -4.898437500000, -31.921875000000, 4.093750000000, 1490870850
-0.145507812500, -0.890136718750, 0.121826171875, -4.898437500000, -31.921875000000, 4.093750000000, 1490870850
-0.145507812500, -0.890136718750, 0.121826171875, -4.898437500000, -31.921875000000, 4.093750000000, 1490870850
-0.041503906250, -0.938720703125, 0.335693359375, 10.210937500000, -22.421875000000, 7.281250000000, 1490870850
-0.041503906250, -0.938720703125, 0.335693359375, 10.210937500000, -22.421875000000, 7.281250000000, 1490870850
-0.041503906250, -0.938720703125, 0.335693359375, 10.210937500000, -22.421875000000, 7.281250000000, 1490870850
-0.159179687500, -0.942626953125, 0.318115234375, 1.398437500000, 10.531250000000, 8.398437500000, 1490870850
-0.159179687500, -0.942626953125, 0.318115234375, 1.398437500000, 10.531250000000, 8.398437500000, 1490870850
-0.159179687500, -0.942626953125, 0.318115234375, 1.398437500000, 10.531250000000, 8.398437500000, 1490870850
-0.138916015625, -0.870361328125, 0.176757812500, 3.859375000000, 25.062500000000, 6.656250000000, 1490870850
-0.138916015625, -0.870361328125, 0.176757812500, 3.859375000000, 25.062500000000, 6.656250000000, 1490870850
-0.138916015625, -0.870361328125, 0.176757812500, 3.859375000000, 25.062500000000, 6.656250000000, 1490870850
-0.201904296875, -0.990478515625, 0.186767578125, 5.789062500000, 24.601562500000, 3.093750000000, 1490870850
-0.201904296875, -0.990478515625, 0.186767578125, 5.789062500000, 24.601562500000, 3.093750000000, 1490870850
-0.201904296875, -0.990478515625, 0.186767578125, 5.789062500000, 24.601562500000, 3.093750000000, 1490870850
-0.201904296875, -0.990478515625, 0.186767578125, 5.789062500000, 24.601562500000, 3.093750000000, 1490870850
-0.235839843750, -1.125732421875, 0.226318359375, -8.359375000000, 28.085937500000, 6.609375000000, 1490870850
-0.235839843750, -1.125732421875, 0.226318359375, -8.359375000000, 28.085937500000, 6.609375000000, 1490870850
-0.235839843750, -1.125732421875, 0.226318359375, -8.359375000000, 28.085937500000, 6.609375000000, 1490870850
-0.037841796875, -1.263671875000, 0.380371093750, 3.351562500000, -47.695312500000, 10.757812500000, 1490870850
-0.037841796875, -1.263671875000, 0.380371093750, 3.351562500000, -47.695312500000, 10.757812500000, 1490870850
-0.037841796875, -1.263671875000, 0.380371093750, 3.351562500000, -47.695312500000, 10.757812500000, 1490870850
0.050537109375, -1.132324218750, 0.315917968750, -54.445312500000, 25.140625000000, 11.539062500000, 1490870850
0.050537109375, -1.132324218750, 0.315917968750, -54.445312500000, 25.140625000000, 11.539062500000, 1490870850
0.050537109375, -1.132324218750, 0.315917968750, -54.445312500000, 25.140625000000, 11.539062500000, 1490870850
0.158203125000, -0.719970703125, 0.151855468750, -57.210937500000, 62.414062500000, 24.148437500000, 1490870850
0.158203125000, -0.719970703125, 0.151855468750, -57.210937500000, 62.414062500000, 24.148437500000, 1490870850
0.158203125000, -0.719970703125, 0.151855468750, -57.210937500000, 62.414062500000, 24.148437500000, 1490870850
0.158203125000, -0.719970703125, 0.151855468750, -57.210937500000, 62.414062500000, 24.148437500000, 1490870850
0.209960937500, -0.783447265625, 0.069824218750, -62.484375000000, 72.562500000000, 19.031250000000, 1490870850
0.209960937500, -0.783447265625, 0.069824218750, -62.484375000000, 72.562500000000, 19.031250000000, 1490870850
0.127441406250, -0.930175781250, -0.012451171875, -12.750000000000, 11.421875000000, 17.546875000000, 1490870850
0.127441406250, -0.930175781250, -0.012451171875, -12.750000000000, 11.421875000000, 17.546875000000, 1490870850
0.127441406250, -0.930175781250, -0.012451171875, -12.750000000000, 11.421875000000, 17.546875000000, 1490870850
0.127441406250, -0.930175781250, -0.012451171875, -12.750000000000, 11.421875000000, 17.546875000000, 1490870850
-0.014160156250, -1.017089843750, 0.015380859375, 13.343750000000, 31.960937500000, 18.976562500000, 1490870850
-0.014160156250, -1.017089843750, 0.015380859375, 13.343750000000, 31.960937500000, 18.976562500000, 1490870850
-0.026123046875, -0.981201171875, 0.145507812500, 88.507812500000, 104.203125000000, 12.429687500000, 1490870850
-0.026123046875, -0.981201171875, 0.145507812500, 88.507812500000, 104.203125000000, 12.429687500000, 1490870850
-0.026123046875, -0.981201171875, 0.145507812500, 88.507812500000, 104.203125000000, 12.429687500000, 1490870850
-0.026123046875, -0.981201171875, 0.145507812500, 88.507812500000, 104.203125000000, 12.429687500000, 1490870850
0.060058593750, -0.999511718750, 0.200927734375, 99.937500000000, -13.562500000000, 13.570312500000, 1490870850
0.060058593750, -0.999511718750, 0.200927734375, 99.937500000000, -13.562500000000, 13.570312500000, 1490870851
0.060058593750, -0.999511718750, 0.200927734375, 99.937500000000, -13.562500000000, 13.570312500000, 1490870851
0.060058593750, -0.999511718750, 0.200927734375, 99.937500000000, -13.562500000000, 13.570312500000, 1490870851
0.070800781250, -0.977783203125, 0.578857421875, 36.148437500000, 37.062500000000, 1.679687500000, 1490870851
0.070800781250, -0.977783203125, 0.578857421875, 36.148437500000, 37.062500000000, 1.679687500000, 1490870851
0.070800781250, -0.977783203125, 0.578857421875, 36.148437500000, 37.062500000000, 1.679687500000, 1490870851
0.099609375000, -0.736572265625, 0.265380859375, -32.429687500000, 57.539062500000, 2.007812500000, 1490870851
0.099609375000, -0.736572265625, 0.265380859375, -32.429687500000, 57.539062500000, 2.007812500000, 1490870851
-0.002685546875, -0.914062500000, 0.057861328125, -24.281250000000, 16.757812500000, 13.250000000000, 1490870851
-0.002685546875, -0.914062500000, 0.057861328125, -24.281250000000, 16.757812500000, 13.250000000000, 1490870851
-0.002685546875, -0.914062500000, 0.057861328125, -24.281250000000, 16.757812500000, 13.250000000000, 1490870851
-0.002685546875, -0.914062500000, 0.057861328125, -24.281250000000, 16.757812500000, 13.250000000000, 1490870851
-0.002685546875, -0.914062500000, 0.057861328125, -24.281250000000, 16.757812500000, 13.250000000000, 1490870851
0.166992187500, -0.958740234375, 0.150146484375, 11.882812500000, 19.656250000000, -3.460937500000, 1490870851
0.166992187500, -0.958740234375, 0.150146484375, 11.882812500000, 19.656250000000, -3.460937500000, 1490870851
0.166992187500, -0.958740234375, 0.150146484375, 11.882812500000, 19.656250000000, -3.460937500000, 1490870851
0.257568359375, -1.108154296875, 0.196289062500, 16.007812500000, 43.828125000000, -5.632812500000, 1490870851
0.257568359375, -1.108154296875, 0.196289062500, 16.007812500000, 43.828125000000, -5.632812500000, 1490870851
0.257568359375, -1.108154296875, 0.196289062500, 16.007812500000, 43.828125000000, -5.632812500000, 1490870851
-0.081054687500, -1.222656250000, 0.236083984375, 14.101562500000, 49.507812500000, -14.992187500000, 1490870851
-0.081054687500, -1.222656250000, 0.236083984375, 14.101562500000, 49.507812500000, -14.992187500000, 1490870851
-0.081054687500, -1.222656250000, 0.236083984375, 14.101562500000, 49.507812500000, -14.992187500000, 1490870851
-0.203613281250, -1.187255859375, 0.278564453125, -31.351562500000, -16.304687500000, -50.226562500000, 1490870851
-0.203613281250, -1.187255859375, 0.278564453125, -31.351562500000, -16.304687500000, -50.226562500000, 1490870851
-0.203613281250, -1.187255859375, 0.278564453125, -31.351562500000, -16.304687500000, -50.226562500000, 1490870851
-0.203613281250, -1.187255859375, 0.278564453125, -31.351562500000, -16.304687500000, -50.226562500000, 1490870851
0.089111328125, -1.182617187500, 0.276367187500, -63.664062500000, 12.007812500000, -48.992187500000, 1490870851
0.089111328125, -1.182617187500, 0.276367187500, -63.664062500000, 12.007812500000, -48.992187500000, 1490870851
0.089111328125, -1.182617187500, 0.276367187500, -63.664062500000, 12.007812500000, -48.992187500000, 1490870851
0.125488281250, -0.889648437500, 0.041015625000, -76.195312500000, -0.664062500000, -35.742187500000, 1490870851
0.125488281250, -0.889648437500, 0.041015625000, -76.195312500000, -0.664062500000, -35.742187500000, 1490870851
0.125488281250, -0.889648437500, 0.041015625000, -76.195312500000, -0.664062500000, -35.742187500000, 1490870851
0.024658203125, -0.770019531250, -0.039550781250, -66.304687500000, 36.921875000000, -39.242187500000, 1490870851
0.024658203125, -0.770019531250, -0.039550781250, -66.304687500000, 36.921875000000, -39.242187500000, 1490870851
0.024658203125, -0.770019531250, -0.039550781250, -66.304687500000, 36.921875000000, -39.242187500000, 1490870851
-0.037597656250, -1.064941406250, 0.065185546875, -45.625000000000, 8.406250000000, -13.218750000000, 1490870851
-0.037597656250, -1.064941406250, 0.065185546875, -45.625000000000, 8.406250000000, -13.218750000000, 1490870851
-0.037597656250, -1.064941406250, 0.065185546875, -45.625000000000, 8.406250000000, -13.218750000000, 1490870851
-0.037597656250, -1.064941406250, 0.065185546875, -45.625000000000, 8.406250000000, -13.218750000000, 1490870851
-0.079101562500, -1.057128906250, 0.012451171875, -12.664062500000, 29.953125000000, -3.531250000000, 1490870851
-0.079101562500, -1.057128906250, 0.012451171875, -12.664062500000, 29.953125000000, -3.531250000000, 1490870851
-0.197998046875, -1.018554687500, 0.107421875000, 34.218750000000, -9.625000000000, 1.031250000000, 1490870851
-0.197998046875, -1.018554687500, 0.107421875000, 34.218750000000, -9.625000000000, 1.031250000000, 1490870851
-0.197998046875, -1.018554687500, 0.107421875000, 34.218750000000, -9.625000000000, 1.031250000000, 1490870851
-0.197998046875, -1.018554687500, 0.107421875000, 34.218750000000, -9.625000000000, 1.031250000000, 1490870851
-0.116943359375, -0.844482421875, 0.279052734375, 44.039062500000, -5.343750000000, 10.460937500000, 1490870851
-0.116943359375, -0.844482421875, 0.279052734375, 44.039062500000, -5.343750000000, 10.460937500000, 1490870851
-0.116943359375, -0.844482421875, 0.279052734375, 44.039062500000, -5.343750000000, 10.460937500000, 1490870851
-0.050292968750, -0.927734375000, 0.184082031250, 18.828125000000, 10.351562500000, 8.617187500000, 1490870851
-0.050292968750, -0.927734375000, 0.184082031250, 18.828125000000, 10.351562500000, 8.617187500000, 1490870851
-0.050292968750, -0.927734375000, 0.184082031250, 18.828125000000, 10.351562500000, 8.617187500000, 1490870851
-0.050292968750, -0.927734375000, 0.184082031250, 18.828125000000, 10.351562500000, 8.617187500000, 1490870851
-0.070800781250, -1.002929687500, 0.168945312500, 9.210937500000, -2.515625000000, -0.757812500000, 1490870851
-0.070800781250, -1.002929687500, 0.168945312500, 9.210937500000, -2.515625000000, -0.757812500000, 1490870851
-0.070800781250, -1.002929687500, 0.168945312500, 9.210937500000, -2.515625000000, -0.757812500000, 1490870851
-0.104980468750, -0.929199218750, 0.228515625000, 22.210937500000, 28.812500000000, -3.210937500000, 1490870851
-0.104980468750, -0.929199218750, 0.228515625000, 22.210937500000, 28.812500000000, -3.210937500000, 1490870851
-0.104980468750, -0.929199218750, 0.228515625000, 22.210937500000, 28.812500000000, -3.210937500000, 1490870851
-0.061767578125, -0.924804687500, 0.255859375000, 26.601562500000, 42.546875000000, 2.210937500000, 1490870851
-0.061767578125, -0.924804687500, 0.255859375000, 26.601562500000, 42.546875000000, 2.210937500000, 1490870851
-0.061767578125, -0.924804687500, 0.255859375000, 26.601562500000, 42.546875000000, 2.210937500000, 1490870851
-0.195556640625, -0.882324218750, 0.322753906250, 15.046875000000, 32.101562500000, 6.203125000000, 1490870851
-0.245605468750, -1.083496093750, 0.184326171875, -40.992187500000, 31.625000000000, -2.476562500000, 1490870851
-0.180664062500, -1.066406250000, 0.203857421875, -13.351562500000, -34.531250000000, 4.187500000000, 1490870852
-0.213623046875, -1.086181640625, 0.177490234375, -13.351562500000, -34.531250000000, 4.187500000000, 1490870852
-0.213623046875, -1.086181640625, 0.177490234375, -13.351562500000, -34.531250000000, 4.187500000000, 1490870852
-0.213623046875, -1.086181640625, 0.177490234375, -13.351562500000, -34.531250000000, 4.187500000000, 1490870852
-0.213623046875, -1.086181640625, 0.177490234375, -13.351562500000, -34.531250000000, 4.187500000000, 1490870852
-0.022216796875, -1.123291015625, 0.303955078125, -12.078125000000, -1.476562500000, 17.492187500000, 1490870852
-0.022216796875, -1.123291015625, 0.303955078125, -12.078125000000, -1.476562500000, 17.492187500000, 1490870852
-0.022216796875, -1.123291015625, 0.303955078125, -12.078125000000, -1.476562500000, 17.492187500000, 1490870852
-0.022216796875, -1.123291015625, 0.303955078125, -12.078125000000, -1.476562500000, 17.492187500000, 1490870852
-0.022216796875, -1.123291015625, 0.303955078125, -12.078125000000, -1.476562500000, 17.492187500000, 1490870852
-0.022216796875, -1.123291015625, 0.303955078125, -12.078125000000, -1.476562500000, 17.492187500000, 1490870852
-0.004882812500, -0.784179687500, 0.109130859375, -55.250000000000, 43.523437500000, 19.078125000000, 1490870852
-0.004882812500, -0.784179687500, 0.109130859375, -55.250000000000, 43.523437500000, 19.078125000000, 1490870852
-0.004882812500, -0.784179687500, 0.109130859375, -55.250000000000, 43.523437500000, 19.078125000000, 1490870852
-0.004882812500, -0.784179687500, 0.109130859375, -55.250000000000, 43.523437500000, 19.078125000000, 1490870852
0.041992187500, -0.811279296875, 0.054687500000, -63.859375000000, 36.796875000000, 12.750000000000, 1490870852
0.041992187500, -0.811279296875, 0.054687500000, -63.859375000000, 36.796875000000, 12.750000000000, 1490870852
0.041992187500, -0.811279296875, 0.054687500000, -63.859375000000, 36.796875000000, 12.750000000000, 1490870852
0.096191406250, -0.873779296875, 0.131103515625, -33.601562500000, 57.156250000000, 0.632812500000, 1490870852
0.096191406250, -0.873779296875, 0.131103515625, -33.601562500000, 57.156250000000, 0.632812500000, 1490870852
0.096191406250, -0.873779296875, 0.131103515625, -33.601562500000, 57.156250000000, 0.632812500000, 1490870852
0.042968750000, -0.976806640625, 0.128417968750, 0.078125000000, 53.625000000000, 5.437500000000, 1490870852
0.042968750000, -0.976806640625, 0.128417968750, 0.078125000000, 53.625000000000, 5.437500000000, 1490870852
0.042968750000, -0.976806640625, 0.128417968750, 0.078125000000, 53.625000000000, 5.437500000000, 1490870852
-0.084472656250, -0.995605468750, 0.113037109375, 60.468750000000, 130.265625000000, 14.414062500000, 1490870852
-0.084472656250, -0.995605468750, 0.113037109375, 60.468750000000, 130.265625000000, 14.414062500000, 1490870852
-0.084472656250, -0.995605468750, 0.113037109375, 60.468750000000, 130.265625000000, 14.414062500000, 1490870852
-0.084472656250, -0.995605468750, 0.113037109375, 60.468750000000, 130.265625000000, 14.414062500000, 1490870852
-0.143066406250, -0.943115234375, 0.281005859375, 76.718750000000, -3.914062500000, 16.257812500000, 1490870852
-0.143066406250, -0.943115234375, 0.281005859375, 76.718750000000, -3.914062500000, 16.257812500000, 1490870852
-0.143066406250, -0.943115234375, 0.281005859375, 76.718750000000, -3.914062500000, 16.257812500000, 1490870852
-0.049072265625, -0.854980468750, 0.375976562500, 23.710937500000, 13.367187500000, -2.484375000000, 1490870852
-0.049072265625, -0.854980468750, 0.375976562500, 23.710937500000, 13.367187500000, -2.484375000000, 1490870852
-0.049072265625, -0.854980468750, 0.375976562500, 23.710937500000, 13.367187500000, -2.484375000000, 1490870852
-0.067626953125, -0.888916015625, 0.276611328125, -17.093750000000, 34.953125000000, -19.859375000000, 1490870852
-0.067626953125, -0.888916015625, 0.276611328125, -17.093750000000, 34.953125000000, -19.859375000000, 1490870852
-0.067626953125, -0.888916015625, 0.276611328125, -17.093750000000, 34.953125000000, -19.859375000000, 1490870852
0.029296875000, -0.937011718750, 0.209472656250, -8.148437500000, 25.523437500000, -19.937500000000, 1490870852
0.029296875000, -0.937011718750, 0.209472656250, -8.148437500000, 25.523437500000, -19.937500000000, 1490870852
0.029296875000, -0.937011718750, 0.209472656250, -8.148437500000, 25.523437500000, -19.937500000000, 1490870852
-0.022949218750, -1.024414062500, 0.185791015625, 3.265625000000, 18.492187500000, -17.507812500000, 1490870852
-0.037841796875, -1.076660156250, 0.269531250000, -7.593750000000, 41.445312500000, -9.375000000000, 1490870852
-0.037841796875, -1.076660156250, 0.269531250000, -7.593750000000, 41.445312500000, -9.375000000000, 1490870852
-0.037841796875, -1.076660156250, 0.269531250000, -7.593750000000, 41.445312500000, -9.375000000000, 1490870852
-0.037841796875, -1.076660156250, 0.269531250000, -7.593750000000, 41.445312500000, -9.375000000000, 1490870852
-0.142578125000, -1.029541015625, 0.125000000000, -2.273437500000, 53.070312500000, -4.656250000000, 1490870852
-0.142578125000, -1.029541015625, 0.125000000000, -2.273437500000, 53.070312500000, -4.656250000000, 1490870852
-0.142578125000, -1.029541015625, 0.125000000000, -2.273437500000, 53.070312500000, -4.656250000000, 1490870852
-0.142578125000, -1.029541015625, 0.125000000000, -2.273437500000, 53.070312500000, -4.656250000000, 1490870852
-0.248046875000, -1.051269531250, 0.234863281250, 14.382812500000, 7.000000000000, -2.710937500000, 1490870852
-0.248046875000, -1.051269531250, 0.234863281250, 14.382812500000, 7.000000000000, -2.710937500000, 1490870852
-0.248046875000, -1.051269531250, 0.234863281250, 14.382812500000, 7.000000000000, -2.710937500000, 1490870852
-0.248046875000, -1.051269531250, 0.234863281250, 14.382812500000, 7.000000000000, -2.710937500000, 1490870852
-0.248046875000, -1.051269531250, 0.234863281250, 14.382812500000, 7.000000000000, -2.710937500000, 1490870852
-0.239990234375, -1.070800781250, 0.434570312500, -50.593750000000, -42.343750000000, -15.312500000000, 1490870852
-0.239990234375, -1.070800781250, 0.434570312500, -50.593750000000, -42.343750000000, -15.312500000000, 1490870852
-0.239990234375, -1.070800781250, 0.434570312500, -50.593750000000, -42.343750000000, -15.312500000000, 1490870852
-0.250488281250, -1.130859375000, 0.253662109375, -85.351562500000, 3.960937500000, -28.109375000000, 1490870852
-0.250488281250, -1.130859375000, 0.253662109375, -85.351562500000, 3.960937500000, -28.109375000000, 1490870852
-0.250488281250, -1.130859375000, 0.253662109375, -85.351562500000, 3.960937500000, -28.109375000000, 1490870852
-0.258789062500, -0.813964843750, 0.015869140625, -46.921875000000, 54.218750000000, -42.687500000000, 1490870852
-0.258789062500, -0.813964843750, 0.015869140625, -46.921875000000, 54.218750000000, -42.687500000000, 1490870852
-0.258789062500, -0.813964843750, 0.015869140625, -46.921875000000, 54.218750000000, -42.687500000000, 1490870852
-0.089355468750, -0.785888671875, 0.031494140625, -29.796875000000, -9.171875000000, -20.406250000000, 1490870852
-0.089355468750, -0.785888671875, 0.031494140625, -29.796875000000, -9.171875000000, -20.406250000000, 1490870852
-0.089355468750, -0.785888671875, 0.031494140625, -29.796875000000, -9.171875000000, -20.406250000000, 1490870852
-0.089355468750, -0.785888671875, 0.031494140625, -29.796875000000, -9.171875000000, -20.406250000000, 1490870852
-0.155273437500, -0.849365234375, 0.053710937500, 14.203125000000, -26.414062500000, -6.015625000000, 1490870852
-0.155273437500, -0.849365234375, 0.053710937500, 14.203125000000, -26.414062500000, -6.015625000000, 1490870852
-0.155273437500, -0.849365234375, 0.053710937500, 14.203125000000, -26.414062500000, -6.015625000000, 1490870852
-0.327148437500, -1.093750000000, 0.257568359375, 9.406250000000, -45.484375000000, -5.875000000000, 1490870852
-0.327148437500, -1.093750000000, 0.257568359375, 9.406250000000, -45.484375000000, -5.875000000000, 1490870853
-0.327148437500, -1.093750000000, 0.257568359375, 9.406250000000, -45.484375000000, -5.875000000000, 1490870853
-0.278076171875, -1.149902343750, 0.254394531250, 11.125000000000, -21.929687500000, -5.851562500000, 1490870853
-0.278076171875, -1.149902343750, 0.254394531250, 11.125000000000, -21.929687500000, -5.851562500000, 1490870853
-0.046630859375, -0.887451171875, 0.160888671875, 71.101562500000, -43.617187500000, 1.289062500000, 1490870853
-0.046630859375, -0.887451171875, 0.160888671875, 71.101562500000, -43.617187500000, 1.289062500000, 1490870853
-0.046630859375, -0.887451171875, 0.160888671875, 71.101562500000, -43.617187500000, 1.289062500000, 1490870853
-0.101806640625, -0.808349609375, 0.360839843750, 40.429687500000, 9.742187500000, -0.007812500000, 1490870853
-0.101806640625, -0.808349609375, 0.360839843750, 40.429687500000, 9.742187500000, -0.007812500000, 1490870853
-0.101806640625, -0.808349609375, 0.360839843750, 40.429687500000, 9.742187500000, -0.007812500000, 1490870853
-0.167480468750, -0.788818359375, 0.240234375000, -19.609375000000, -23.367187500000, -3.421875000000, 1490870853
-0.170898437500, -0.882568359375, 0.156982421875, -24.015625000000, -17.640625000000, -5.460937500000, 1490870853
-0.170898437500, -0.882568359375, 0.156982421875, -24.015625000000, -17.640625000000, -5.460937500000, 1490870853
-0.170898437500, -0.882568359375, 0.156982421875, -24.015625000000, -17.640625000000, -5.460937500000, 1490870853
-0.170898437500, -0.882568359375, 0.156982421875, -24.015625000000, -17.640625000000, -5.460937500000, 1490870853
-0.270019531250, -0.862792968750, 0.155029296875, -0.210937500000, 5.398437500000, -6.265625000000, 1490870853
-0.270019531250, -0.862792968750, 0.155029296875, -0.210937500000, 5.398437500000, -6.265625000000, 1490870853
-0.270019531250, -0.862792968750, 0.155029296875, -0.210937500000, 5.398437500000, -6.265625000000, 1490870853
-0.162109375000, -0.886962890625, 0.275878906250, 8.804687500000, -4.953125000000, -2.343750000000, 1490870853
-0.162109375000, -0.886962890625, 0.275878906250, 8.804687500000, -4.953125000000, -2.343750000000, 1490870853
-0.162109375000, -0.886962890625, 0.275878906250, 8.804687500000, -4.953125000000, -2.343750000000, 1490870853
-0.162109375000, -0.886962890625, 0.275878906250, 8.804687500000, -4.953125000000, -2.343750000000, 1490870853
