ACC_X,ACC_Y,ACC_Z,G_X,G_Y,G_Z,Unix Time
-0.260498046875, 0.196533203125, 0.982421875000, -3.992187500000, -0.812500000000, -4.828125000000, 1490870538
-0.260498046875, 0.196533203125, 0.982421875000, -3.992187500000, -0.812500000000, -4.828125000000, 1490870538
-0.260498046875, 0.196533203125, 0.982421875000, -3.992187500000, -0.812500000000, -4.828125000000, 1490870538
-0.163330078125, 0.206054687500, 0.932128906250, -4.976562500000, 0.750000000000, -6.226562500000, 1490870538
-0.163330078125, 0.206054687500, 0.932128906250, -4.976562500000, 0.750000000000, -6.226562500000, 1490870538
-0.181884765625, 0.213623046875, 1.015380859375, -1.671875000000, -0.929687500000, -4.710937500000, 1490870538
-0.181884765625, 0.213623046875, 1.015380859375, -1.671875000000, -0.929687500000, -4.710937500000, 1490870538
-0.181884765625, 0.213623046875, 1.015380859375, -1.671875000000, -0.929687500000, -4.710937500000, 1490870538
-0.181884765625, 0.213623046875, 1.015380859375, -1.671875000000, -0.929687500000, -4.710937500000, 1490870538
-0.181884765625, 0.213623046875, 1.015380859375, -1.671875000000, -0.929687500000, -4.710937500000, 1490870538
-0.174316406250, 0.203857421875, 1.091796875000, -4.468750000000, 0.523437500000, -3.546875000000, 1490870538
-0.174316406250, 0.203857421875, 1.091796875000, -4.468750000000, 0.523437500000, -3.546875000000, 1490870538
-0.174316406250, 0.203857421875, 1.091796875000, -4.468750000000, 0.523437500000, -3.546875000000, 1490870538
-0.269287109375, 0.195800781250, 0.996582031250, -3.179687500000, -0.718750000000, -3.085937500000, 1490870538
-0.269287109375, 0.195800781250, 0.996582031250, -3.179687500000, -0.718750000000, -3.085937500000, 1490870538
-0.269287109375, 0.195800781250, 0.996582031250, -3.179687500000, -0.718750000000, -3.085937500000, 1490870538
-0.227783203125, 0.144775390625, 0.932617187500, -6.101562500000, -0.320312500000, -6.171875000000, 1490870538
-0.227783203125, 0.144775390625, 0.932617187500, -6.101562500000, -0.320312500000, -6.171875000000, 1490870538
-0.227783203125, 0.144775390625, 0.932617187500, -6.101562500000, -0.320312500000, -6.171875000000, 1490870538
-0.118652343750, 0.202880859375, 0.931640625000, -3.937500000000, 2.218750000000, -4.875000000000, 1490870538
-0.321533203125, 0.194335937500, 1.082519531250, 0.109375000000, 2.062500000000, -3.125000000000, 1490870538
-0.321533203125, 0.194335937500, 1.082519531250, 0.109375000000, 2.062500000000, -3.125000000000, 1490870538
-0.321533203125, 0.194335937500, 1.082519531250, 0.109375000000, 2.062500000000, -3.125000000000, 1490870538
-0.321533203125, 0.194335937500, 1.082519531250, 0.109375000000, 2.062500000000, -3.125000000000, 1490870538
-0.321533203125, 0.194335937500, 1.082519531250, 0.109375000000, 2.062500000000, -3.125000000000, 1490870538
-0.261474609375, 0.206298828125, 1.005859375000, -4.531250000000, -2.109375000000, -3.218750000000, 1490870538
-0.261474609375, 0.206298828125, 1.005859375000, -4.531250000000, -2.109375000000, -3.218750000000, 1490870538
-0.261474609375, 0.206298828125, 1.005859375000, -4.531250000000, -2.109375000000, -3.218750000000, 1490870538
-0.261474609375, 0.206298828125, 1.005859375000, -4.531250000000, -2.109375000000, -3.218750000000, 1490870538
-0.272460937500, 0.195068359375, 1.011230468750, -3.882812500000, -0.281250000000, -3.757812500000, 1490870538
-0.272460937500, 0.195068359375, 1.011230468750, -3.882812500000, -0.281250000000, -3.757812500000, 1490870538
-0.272460937500, 0.195068359375, 1.011230468750, -3.882812500000, -0.281250000000, -3.757812500000, 1490870538
-0.211425781250, 0.215576171875, 1.028320312500, -4.281250000000, 0.117187500000, -3.632812500000, 1490870538
-0.211425781250, 0.215576171875, 1.028320312500, -4.281250000000, 0.117187500000, -3.632812500000, 1490870538
-0.211425781250, 0.215576171875, 1.028320312500, -4.281250000000, 0.117187500000, -3.632812500000, 1490870538
-0.253906250000, 0.195312500000, 0.982910156250, -4.015625000000, -2.937500000000, -3.734375000000, 1490870538
-0.269531250000, 0.138671875000, 1.007324218750, -1.867187500000, -0.320312500000, -4.859375000000, 1490870538
-0.269531250000, 0.138671875000, 1.007324218750, -1.867187500000, -0.320312500000, -4.859375000000, 1490870538
-0.269531250000, 0.138671875000, 1.007324218750, -1.867187500000, -0.320312500000, -4.859375000000, 1490870538
-0.236572265625, 0.212890625000, 0.979248046875, -3.976562500000, -2.164062500000, -1.398437500000, 1490870538
-0.236572265625, 0.212890625000, 0.979248046875, -3.976562500000, -2.164062500000, -1.398437500000, 1490870538
-0.236572265625, 0.212890625000, 0.979248046875, -3.976562500000, -2.164062500000, -1.398437500000, 1490870538
-0.277587890625, 0.057617187500, 1.009033203125, -1.507812500000, -2.093750000000, -6.734375000000, 1490870538
-0.277587890625, 0.057617187500, 1.009033203125, -1.507812500000, -2.093750000000, -6.734375000000, 1490870538
-0.277587890625, 0.057617187500, 1.009033203125, -1.507812500000, -2.093750000000, -6.734375000000, 1490870538
-0.208740234375, 0.129882812500, 1.022705078125, -3.085937500000, -0.726562500000, -4.031250000000, 1490870538
-0.208740234375, 0.129882812500, 1.022705078125, -3.085937500000, -0.726562500000, -4.031250000000, 1490870538
-0.208740234375, 0.129882812500, 1.022705078125, -3.085937500000, -0.726562500000, -4.031250000000, 1490870538
-0.208740234375, 0.129882812500, 1.022705078125, -3.085937500000, -0.726562500000, -4.031250000000, 1490870538
-0.243164062500, 0.175292968750, 1.019775390625, -1.312500000000, -2.703125000000, -2.773437500000, 1490870538
-0.243164062500, 0.175292968750, 1.019775390625, -1.312500000000, -2.703125000000, -2.773437500000, 1490870538
-0.243164062500, 0.175292968750, 1.019775390625, -1.312500000000, -2.703125000000, -2.773437500000, 1490870538
-0.261962890625, 0.251953125000, 0.908935546875, -3.156250000000, 0.804687500000, -3.156250000000, 1490870538
-0.261962890625, 0.251953125000, 0.908935546875, -3.156250000000, 0.804687500000, -3.156250000000, 1490870538
-0.261962890625, 0.251953125000, 0.908935546875, -3.156250000000, 0.804687500000, -3.156250000000, 1490870538
-0.263916015625, 0.154785156250, 1.017089843750, -6.031250000000, -0.796875000000, -6.187500000000, 1490870538
-0.263916015625, 0.154785156250, 1.017089843750, -6.031250000000, -0.796875000000, -6.187500000000, 1490870538
-0.263916015625, 0.154785156250, 1.017089843750, -6.031250000000, -0.796875000000, -6.187500000000, 1490870538
-0.184082031250, 0.171630859375, 0.962646484375, -6.484375000000, 0.023437500000, -3.773437500000, 1490870538
-0.184082031250, 0.171630859375, 0.962646484375, -6.484375000000, 0.023437500000, -3.773437500000, 1490870538
-0.184082031250, 0.171630859375, 0.962646484375, -6.484375000000, 0.023437500000, -3.773437500000, 1490870538
-0.184082031250, 0.171630859375, 0.962646484375, -6.484375000000, 0.023437500000, -3.773437500000, 1490870538
-0.229980468750, 0.119384765625, 1.022216796875, -4.648437500000, 0.796875000000, -4.968750000000, 1490870538
-0.229980468750, 0.119384765625, 1.022216796875, -4.648437500000, 0.796875000000, -4.968750000000, 1490870538
-0.229980468750, 0.119384765625, 1.022216796875, -4.648437500000, 0.796875000000, -4.968750000000, 1490870538
-0.252929687500, 0.185058593750, 0.929443359375, -6.406250000000, 2.710937500000, -4.835937500000, 1490870539
-0.252929687500, 0.185058593750, 0.929443359375, -6.406250000000, 2.710937500000, -4.835937500000, 1490870539
-0.252929687500, 0.185058593750, 0.929443359375, -6.406250000000, 2.710937500000, -4.835937500000, 1490870539
-0.330078125000, 0.197021484375, 1.015869140625, -0.453125000000, 0.335937500000, -1.296875000000, 1490870539
-0.330078125000, 0.197021484375, 1.015869140625, -0.453125000000, 0.335937500000, -1.296875000000, 1490870539
-0.326904296875, 0.168212890625, 1.030761718750, 0.554687500000, -1.117187500000, -3.820312500000, 1490870539
-0.326904296875, 0.168212890625, 1.030761718750, 0.554687500000, -1.117187500000, -3.820312500000, 1490870539
-0.326904296875, 0.168212890625, 1.030761718750, 0.554687500000, -1.117187500000, -3.820312500000, 1490870539
-0.315673828125, 0.205078125000, 0.924072265625, -3.093750000000, 0.179687500000, -4.531250000000, 1490870539
-0.315673828125, 0.205078125000, 0.924072265625, -3.093750000000, 0.179687500000, -4.531250000000, 1490870539
-0.315673828125, 0.205078125000, 0.924072265625, -3.093750000000, 0.179687500000, -4.531250000000, 1490870539
-0.315673828125, 0.205078125000, 0.924072265625, -3.093750000000, 0.179687500000, -4.531250000000, 1490870539
-0.315673828125, 0.205078125000, 0.924072265625, -3.093750000000, 0.179687500000, -4.531250000000, 1490870539
-0.191406250000, 0.161865234375, 1.068359375000, -3.117187500000, -2.578125000000, -6.984375000000, 1490870539
-0.191406250000, 0.161865234375, 1.068359375000, -3.117187500000, -2.578125000000, -6.984375000000, 1490870539
-0.191406250000, 0.161865234375, 1.068359375000, -3.117187500000, -2.578125000000, -6.984375000000, 1490870539
-0.316162109375, 0.114990234375, 1.062744140625, -1.632812500000, 0.117187500000, -5.664062500000, 1490870539
-0.316162109375, 0.114990234375, 1.062744140625, -1.632812500000, 0.117187500000, -5.664062500000, 1490870539
-0.316162109375, 0.114990234375, 1.062744140625, -1.632812500000, 0.117187500000, -5.664062500000, 1490870539
-0.266113281250, 0.181152343750, 1.016357421875, -4.960937500000, -2.453125000000, -4.851562500000, 1490870539
-0.266113281250, 0.181152343750, 1.016357421875, -4.960937500000, -2.453125000000, -4.851562500000, 1490870539
-0.266113281250, 0.181152343750, 1.016357421875, -4.960937500000, -2.453125000000, -4.851562500000, 1490870539
-0.266113281250, 0.181152343750, 1.016357421875, -4.960937500000, -2.453125000000, -4.851562500000, 1490870539
-0.224609375000, 0.218261718750, 0.964111328125, -1.812500000000, 0.726562500000, -4.179687500000, 1490870539
-0.224609375000, 0.218261718750, 0.964111328125, -1.812500000000, 0.726562500000, -4.179687500000, 1490870539
-0.224609375000, 0.218261718750, 0.964111328125, -1.812500000000, 0.726562500000, -4.179687500000, 1490870539
-0.259765625000, 0.159667968750, 0.969726562500, -2.312500000000, -2.257812500000, -1.546875000000, 1490870539
-0.259765625000, 0.159667968750, 0.969726562500, -2.312500000000, -2.257812500000, -1.546875000000, 1490870539
-0.259765625000, 0.159667968750, 0.969726562500, -2.312500000000, -2.257812500000, -1.546875000000, 1490870539
-0.227050781250, 0.205810546875, 0.980224609375, -1.796875000000, 0.476562500000, -4.875000000000, 1490870539
-0.227050781250, 0.205810546875, 0.980224609375, -1.796875000000, 0.476562500000, -4.875000000000, 1490870539
-0.227050781250, 0.205810546875, 0.980224609375, -1.796875000000, 0.476562500000, -4.875000000000, 1490870539
-0.159667968750, 0.162353515625, 0.993164062500, -3.851562500000, -2.320312500000, -3.968750000000, 1490870539
-0.159667968750, 0.162353515625, 0.993164062500, -3.851562500000, -2.320312500000, -3.968750000000, 1490870539
-0.159667968750, 0.162353515625, 0.993164062500, -3.851562500000, -2.320312500000, -3.968750000000, 1490870539
-0.159667968750, 0.162353515625, 0.993164062500, -3.851562500000, -2.320312500000, -3.968750000000, 1490870539
-0.170654296875, 0.203369140625, 1.015136718750, -1.773437500000, 0.187500000000, -3.257812500000, 1490870539
-0.170654296875, 0.203369140625, 1.015136718750, -1.773437500000, 0.187500000000, -3.257812500000, 1490870539
-0.170654296875, 0.203369140625, 1.015136718750, -1.773437500000, 0.187500000000, -3.257812500000, 1490870539
-0.263427734375, 0.121093750000, 1.031250000000, -4.125000000000, -0.726562500000, -4.726562500000, 1490870539
-0.263427734375, 0.121093750000, 1.031250000000, -4.125000000000, -0.726562500000, -4.726562500000, 1490870539
-0.263427734375, 0.121093750000, 1.031250000000, -4.125000000000, -0.726562500000, -4.726562500000, 1490870539
-0.214843750000, 0.217529296875, 0.978515625000, -4.773437500000, 0.609375000000, -3.289062500000, 1490870539
-0.214843750000, 0.217529296875, 0.978515625000, -4.773437500000, 0.609375000000, -3.289062500000, 1490870539
-0.214843750000, 0.217529296875, 0.978515625000, -4.773437500000, 0.609375000000, -3.289062500000, 1490870539
-0.324218750000, 0.119384765625, 0.972900390625, -6.554687500000, -1.000000000000, -3.492187500000, 1490870539
-0.324218750000, 0.119384765625, 0.972900390625, -6.554687500000, -1.000000000000, -3.492187500000, 1490870539
-0.324218750000, 0.119384765625, 0.972900390625, -6.554687500000, -1.000000000000, -3.492187500000, 1490870539
-0.324218750000, 0.119384765625, 0.972900390625, -6.554687500000, -1.000000000000, -3.492187500000, 1490870539
-0.342773437500, 0.277832031250, 0.969726562500, 0.601562500000, -2.421875000000, -4.023437500000, 1490870539
-0.342773437500, 0.277832031250, 0.969726562500, 0.601562500000, -2.421875000000, -4.023437500000, 1490870539
-0.342773437500, 0.277832031250, 0.969726562500, 0.601562500000, -2.421875000000, -4.023437500000, 1490870539
-0.258544921875, 0.118164062500, 0.958984375000, 0.601562500000, -2.093750000000, -4.859375000000, 1490870539
-0.258544921875, 0.118164062500, 0.958984375000, 0.601562500000, -2.093750000000, -4.859375000000, 1490870539
-0.258544921875, 0.118164062500, 0.958984375000, 0.601562500000, -2.093750000000, -4.859375000000, 1490870539
-0.336425781250, 0.176269531250, 0.982177734375, -3.398437500000, -0.953125000000, -6.828125000000, 1490870539
-0.336425781250, 0.176269531250, 0.982177734375, -3.398437500000, -0.953125000000, -6.828125000000, 1490870539
-0.336425781250, 0.176269531250, 0.982177734375, -3.398437500000, -0.953125000000, -6.828125000000, 1490870539
-0.315429687500, 0.188720703125, 0.991455078125, -4.984375000000, 0.804687500000, -3.242187500000, 1490870539
-0.315429687500, 0.188720703125, 0.991455078125, -4.984375000000, 0.804687500000, -3.242187500000, 1490870539
-0.315429687500, 0.188720703125, 0.991455078125, -4.984375000000, 0.804687500000, -3.242187500000, 1490870539
-0.315429687500, 0.188720703125, 0.991455078125, -4.984375000000, 0.804687500000, -3.242187500000, 1490870539
-0.169433593750, 0.150878906250, 1.023193359375, -4.375000000000, -2.140625000000, -3.351562500000, 1490870539
-0.169433593750, 0.150878906250, 1.023193359375, -4.375000000000, -2.140625000000, -3.351562500000, 1490870539
-0.169433593750, 0.150878906250, 1.023193359375, -4.375000000000, -2.140625000000, -3.351562500000, 1490870539
-0.223876953125, 0.143066406250, 1.017578125000, -3.101562500000, -0.703125000000, -3.882812500000, 1490870539
-0.223876953125, 0.143066406250, 1.017578125000, -3.101562500000, -0.703125000000, -3.882812500000, 1490870539
-0.223876953125, 0.143066406250, 1.017578125000, -3.101562500000, -0.703125000000, -3.882812500000, 1490870539
-0.261230468750, 0.191406250000, 0.920410156250, -3.398437500000, -0.437500000000, -4.734375000000, 1490870540
-0.261230468750, 0.191406250000, 0.920410156250, -3.398437500000, -0.437500000000, -4.734375000000, 1490870540
-0.261230468750, 0.191406250000, 0.920410156250, -3.398437500000, -0.437500000000, -4.734375000000, 1490870540
-0.259521484375, 0.192138671875, 0.970214843750, -1.468750000000, -0.429687500000, -4.789062500000, 1490870540
-0.259521484375, 0.192138671875, 0.970214843750, -1.468750000000, -0.429687500000, -4.789062500000, 1490870540
-0.259521484375, 0.192138671875, 0.970214843750, -1.468750000000, -0.429687500000, -4.789062500000, 1490870540
-0.259521484375, 0.192138671875, 0.970214843750, -1.468750000000, -0.429687500000, -4.789062500000, 1490870540
-0.246093750000, 0.114257812500, 0.994873046875, -6.039062500000, -0.328125000000, -1.867187500000, 1490870540
-0.246093750000, 0.114257812500, 0.994873046875, -6.039062500000, -0.328125000000, -1.867187500000, 1490870540
-0.246093750000, 0.114257812500, 0.994873046875, -6.039062500000, -0.328125000000, -1.867187500000, 1490870540
-0.186279296875, 0.168701171875, 0.975830078125, -3.546875000000, -0.171875000000, -1.898437500000, 1490870540
-0.186279296875, 0.168701171875, 0.975830078125, -3.546875000000, -0.171875000000, -1.898437500000, 1490870540
-0.186279296875, 0.168701171875, 0.975830078125, -3.546875000000, -0.171875000000, -1.898437500000, 1490870540
-0.233642578125, 0.178710937500, 1.001464843750, -6.031250000000, 0.000000000000, -3.281250000000, 1490870540
-0.233642578125, 0.178710937500, 1.001464843750, -6.031250000000, 0.000000000000, -3.281250000000, 1490870540
-0.233642578125, 0.178710937500, 1.001464843750, -6.031250000000, 0.000000000000, -3.281250000000, 1490870540
-0.232421875000, 0.147216796875, 1.076171875000, -3.148437500000, 2.507812500000, -4.539062500000, 1490870540
-0.232421875000, 0.147216796875, 1.076171875000, -3.148437500000, 2.507812500000, -4.539062500000, 1490870540
-0.232421875000, 0.147216796875, 1.076171875000, -3.148437500000, 2.507812500000, -4.539062500000, 1490870540
-0.232421875000, 0.147216796875, 1.076171875000, -3.148437500000, 2.507812500000, -4.539062500000, 1490870540
-0.274902343750, 0.170898437500, 1.020507812500, -3.679687500000, 2.843750000000, -3.468750000000, 1490870540
-0.274902343750, 0.170898437500, 1.020507812500, -3.679687500000, 2.843750000000, -3.468750000000, 1490870540
-0.274902343750, 0.170898437500, 1.020507812500, -3.679687500000, 2.843750000000, -3.468750000000, 1490870540
-0.184570312500, 0.195556640625, 0.930664062500, -6.578125000000, -0.585937500000, -6.468750000000, 1490870540
-0.184570312500, 0.195556640625, 0.930664062500, -6.578125000000, -0.585937500000, -6.468750000000, 1490870540
-0.184570312500, 0.195556640625, 0.930664062500, -6.578125000000, -0.585937500000, -6.468750000000, 1490870540
-0.170654296875, 0.223388671875, 0.918701171875, -7.421875000000, -0.085937500000, 0.078125000000, 1490870540
-0.170654296875, 0.223388671875, 0.918701171875, -7.421875000000, -0.085937500000, 0.078125000000, 1490870540
-0.170654296875, 0.223388671875, 0.918701171875, -7.421875000000, -0.085937500000, 0.078125000000, 1490870540
-0.307861328125, 0.195800781250, 0.967529296875, -4.015625000000, 8.343750000000, -1.906250000000, 1490870540
-0.307861328125, 0.195800781250, 0.967529296875, -4.015625000000, 8.343750000000, -1.906250000000, 1490870540
-0.307861328125, 0.195800781250, 0.967529296875, -4.015625000000, 8.343750000000, -1.906250000000, 1490870540
-0.307861328125, 0.195800781250, 0.967529296875, -4.015625000000, 8.343750000000, -1.906250000000, 1490870540
-0.318359375000, 0.094482421875, 1.028320312500, -1.468750000000, 5.390625000000, -2.164062500000, 1490870540
-0.318359375000, 0.094482421875, 1.028320312500, -1.468750000000, 5.390625000000, -2.164062500000, 1490870540
-0.318359375000, 0.094482421875, 1.028320312500, -1.468750000000, 5.390625000000, -2.164062500000, 1490870540
-0.301757812500, 0.158447265625, 0.871826171875, -1.656250000000, 2.726562500000, 0.757812500000, 1490870540
-0.301757812500, 0.158447265625, 0.871826171875, -1.656250000000, 2.726562500000, 0.757812500000, 1490870540
-0.301757812500, 0.158447265625, 0.871826171875, -1.656250000000, 2.726562500000, 0.757812500000, 1490870540
-0.228759765625, 0.259521484375, 0.897949218750, 1.906250000000, 12.070312500000, -6.773437500000, 1490870540
-0.228759765625, 0.259521484375, 0.897949218750, 1.906250000000, 12.070312500000, -6.773437500000, 1490870540
-0.228759765625, 0.259521484375, 0.897949218750, 1.906250000000, 12.070312500000, -6.773437500000, 1490870540
-0.305419921875, 0.100585937500, 1.017333984375, 24.679687500000, 7.906250000000, 8.906250000000, 1490870540
-0.305419921875, 0.100585937500, 1.017333984375, 24.679687500000, 7.906250000000, 8.906250000000, 1490870540
-0.305419921875, 0.100585937500, 1.017333984375, 24.679687500000, 7.906250000000, 8.906250000000, 1490870540
-0.305419921875, 0.100585937500, 1.017333984375, 24.679687500000, 7.906250000000, 8.906250000000, 1490870540
-0.316406250000, -0.038574218750, 1.335449218750, -31.578125000000, 0.781250000000, -6.875000000000, 1490870540
-0.316406250000, -0.038574218750, 1.335449218750, -31.578125000000, 0.781250000000, -6.875000000000, 1490870540
-0.316406250000, -0.038574218750, 1.335449218750, -31.578125000000, 0.781250000000, -6.875000000000, 1490870540
0.002197265625, 0.275634765625, 0.907226562500, -77.960937500000, -0.085937500000, 11.656250000000, 1490870540
0.002197265625, 0.275634765625, 0.907226562500, -77.960937500000, -0.085937500000, 11.656250000000, 1490870540
0.002197265625, 0.275634765625, 0.907226562500, -77.960937500000, -0.085937500000, 11.656250000000, 1490870540
-0.190429687500, 0.359375000000, 0.816162109375, -2.921875000000, 26.281250000000, 32.906250000000, 1490870540
-0.190429687500, 0.359375000000, 0.816162109375, -2.921875000000, 26.281250000000, 32.906250000000, 1490870540
-0.190429687500, 0.359375000000, 0.816162109375, -2.921875000000, 26.281250000000, 32.906250000000, 1490870540
-0.321533203125, 0.136962890625, 0.981933593750, 14.328125000000, -5.421875000000, 6.664062500000, 1490870540
-0.321533203125, 0.136962890625, 0.981933593750, 14.328125000000, -5.421875000000, 6.664062500000, 1490870540
-0.321533203125, 0.136962890625, 0.981933593750, 14.328125000000, -5.421875000000, 6.664062500000, 1490870540
-0.321533203125, 0.136962890625, 0.981933593750, 14.328125000000, -5.421875000000, 6.664062500000, 1490870540
-0.197998046875, 0.070556640625, 1.112792968750, 6.070312500000, 24.843750000000, 14.398437500000, 1490870540
-0.197998046875, 0.070556640625, 1.112792968750, 6.070312500000, 24.843750000000, 14.398437500000, 1490870540
-0.121826171875, 0.234619140625, 1.029052734375, -26.101562500000, 50.984375000000, 7.796875000000, 1490870540
-0.121826171875, 0.234619140625, 1.029052734375, -26.101562500000, 50.984375000000, 7.796875000000, 1490870540
-0.121826171875, 0.234619140625, 1.029052734375, -26.101562500000, 50.984375000000, 7.796875000000, 1490870540
-0.121826171875, 0.234619140625, 1.029052734375, -26.101562500000, 50.984375000000, 7.796875000000, 1490870540
-0.223144531250, 0.217529296875, 0.974365234375, -24.164062500000, 79.773437500000, 15.835937500000, 1490870540
-0.223144531250, 0.217529296875, 0.974365234375, -24.164062500000, 79.773437500000, 15.835937500000, 1490870541
-0.223144531250, 0.217529296875, 0.974365234375, -24.164062500000, 79.773437500000, 15.835937500000, 1490870541
-0.422607421875, 0.336425781250, 0.957275390625, -25.882812500000, 96.601562500000, 33.945312500000, 1490870541
-0.422607421875, 0.336425781250, 0.957275390625, -25.882812500000, 96.601562500000, 33.945312500000, 1490870541
-0.422607421875, 0.336425781250, 0.957275390625, -25.882812500000, 96.601562500000, 33.945312500000, 1490870541
-0.422607421875, 0.336425781250, 0.957275390625, -25.882812500000, 96.601562500000, 33.945312500000, 1490870541
-0.286376953125, 0.158447265625, 1.010742187500, -15.046875000000, 95.125000000000, 29.015625000000, 1490870541
-0.286376953125, 0.158447265625, 1.010742187500, -15.046875000000, 95.125000000000, 29.015625000000, 1490870541
-0.286376953125, 0.158447265625, 1.010742187500, -15.046875000000, 95.125000000000, 29.015625000000, 1490870541
-0.481689453125, 0.200683593750, 0.822265625000, -15.132812500000, 136.257812500000, 42.953125000000, 1490870541
-0.481689453125, 0.200683593750, 0.822265625000, -15.132812500000, 136.257812500000, 42.953125000000, 1490870541
-0.481689453125, 0.200683593750, 0.822265625000, -15.132812500000, 136.257812500000, 42.953125000000, 1490870541
-0.622802734375, 0.266357421875, 0.633789062500, -6.398437500000, 94.054687500000, 89.859375000000, 1490870541
-0.622802734375, 0.266357421875, 0.633789062500, -6.398437500000, 94.054687500000, 89.859375000000, 1490870541
-0.622802734375, 0.266357421875, 0.633789062500, -6.398437500000, 94.054687500000, 89.859375000000, 1490870541
-0.648681640625, 0.158691406250, 0.575195312500, 6.875000000000, 32.117187500000, 101.632812500000, 1490870541
-0.648681640625, 0.158691406250, 0.575195312500, 6.875000000000, 32.117187500000, 101.632812500000, 1490870541
-0.648681640625, 0.158691406250, 0.575195312500, 6.875000000000, 32.117187500000, 101.632812500000, 1490870541
-0.648681640625, 0.158691406250, 0.575195312500, 6.875000000000, 32.117187500000, 101.632812500000, 1490870541
-0.762451171875, -0.026123046875, 0.498535156250, 27.468750000000, 58.804687500000, 119.250000000000, 1490870541
-0.762451171875, -0.026123046875, 0.498535156250, 27.468750000000, 58.804687500000, 119.250000000000, 1490870541
-0.762451171875, -0.026123046875, 0.498535156250, 27.468750000000, 58.804687500000, 119.250000000000, 1490870541
-0.754882812500, 0.020996093750, 0.466796875000, 9.656250000000, 65.828125000000, 99.226562500000, 1490870541
-0.754882812500, 0.020996093750, 0.466796875000, 9.656250000000, 65.828125000000, 99.226562500000, 1490870541
-0.754882812500, 0.020996093750, 0.466796875000, 9.656250000000, 65.828125000000, 99.226562500000, 1490870541
-0.634521484375, -0.173828125000, 0.416259765625, 45.343750000000, 116.492187500000, 104.390625000000, 1490870541
-0.634521484375, -0.173828125000, 0.416259765625, 45.343750000000, 116.492187500000, 104.390625000000, 1490870541
-0.634521484375, -0.173828125000, 0.416259765625, 45.343750000000, 116.492187500000, 104.390625000000, 1490870541
-1.092529296875, -0.341064453125, 0.310058593750, 52.796875000000, 220.304687500000, 57.500000000000, 1490870541
-1.092529296875, -0.341064453125, 0.310058593750, 52.796875000000, 220.304687500000, 57.500000000000, 1490870541
-1.092529296875, -0.341064453125, 0.310058593750, 52.796875000000, 220.304687500000, 57.500000000000, 1490870541
-1.092529296875, -0.341064453125, 0.310058593750, 52.796875000000, 220.304687500000, 57.500000000000, 1490870541
-0.752197265625, -0.437988281250, 0.122314453125, 37.492187500000, 198.304687500000, 60.515625000000, 1490870541
-0.752197265625, -0.437988281250, 0.122314453125, 37.492187500000, 198.304687500000, 60.515625000000, 1490870541
-0.752197265625, -0.437988281250, 0.122314453125, 37.492187500000, 198.304687500000, 60.515625000000, 1490870541
-0.762451171875, -0.426269531250, 0.152832031250, 69.312500000000, 253.992187500000, 57.710937500000, 1490870541
-0.762451171875, -0.426269531250, 0.152832031250, 69.312500000000, 253.992187500000, 57.710937500000, 1490870541
-0.616699218750, -0.509521484375, -0.137451171875, 12.796875000000, 253.992187500000, 57.375000000000, 1490870541
-0.616699218750, -0.509521484375, -0.137451171875, 12.796875000000, 253.992187500000, 57.375000000000, 1490870541
-0.616699218750, -0.509521484375, -0.137451171875, 12.796875000000, 253.992187500000, 57.375000000000, 1490870541
-0.616699218750, -0.509521484375, -0.137451171875, 12.796875000000, 253.992187500000, 57.375000000000, 1490870541
-0.474121093750, -0.511230468750, -0.529785156250, 52.570312500000, 253.992187500000, -12.250000000000, 1490870541
-0.474121093750, -0.511230468750, -0.529785156250, 52.570312500000, 253.992187500000, -12.250000000000, 1490870541
-0.474121093750, -0.511230468750, -0.529785156250, 52.570312500000, 253.992187500000, -12.250000000000, 1490870541
-0.474121093750, -0.511230468750, -0.529785156250, 52.570312500000, 253.992187500000, -12.250000000000, 1490870541
0.012695312500, -0.464599609375, -1.160888671875, 195.109375000000, 253.992187500000, -68.750000000000, 1490870541
0.012695312500, -0.464599609375, -1.160888671875, 195.109375000000, 253.992187500000, -68.750000000000, 1490870541
0.012695312500, -0.464599609375, -1.160888671875, 195.109375000000, 253.992187500000, -68.750000000000, 1490870541
-0.146728515625, -0.091308593750, -0.604492187500, -30.492187500000, 221.046875000000, -66.546875000000, 1490870541
-0.146728515625, -0.091308593750, -0.604492187500, -30.492187500000, 221.046875000000, -66.546875000000, 1490870541
0.081054687500, -0.039306640625, -0.002197265625, -227.867187500000, -248.859375000000, -124.906250000000, 1490870541
1.985351562500, -2.364501953125, -2.030273437500, 253.992187500000, -256.000000000000, 157.898437500000, 1490870541
1.985351562500, -2.364501953125, -2.030273437500, 253.992187500000, -256.000000000000, 157.898437500000, 1490870541
1.985351562500, -2.364501953125, -2.030273437500, 253.992187500000, -256.000000000000, 157.898437500000, 1490870541
1.985351562500, -2.364501953125, -2.030273437500, 253.992187500000, -256.000000000000, 251.562500000000, 1490870541
-0.221679687500, 0.144287109375, 0.067871093750, -85.359375000000, 150.062500000000, -19.984375000000, 1490870541
-0.221679687500, 0.144287109375, 0.067871093750, -85.359375000000, 150.062500000000, -19.984375000000, 1490870541
-0.221679687500, 0.144287109375, 0.067871093750, -85.359375000000, 150.062500000000, -19.984375000000, 1490870541
-0.221679687500, 0.144287109375, 0.067871093750, -85.359375000000, 150.062500000000, -19.984375000000, 1490870541
-0.221679687500, 0.144287109375, 0.067871093750, -85.359375000000, 150.062500000000, -19.984375000000, 1490870541
-0.604736328125, -0.310546875000, -0.370361328125, -35.812500000000, -112.445312500000, 32.601562500000, 1490870541
-0.604736328125, -0.310546875000, -0.370361328125, -35.812500000000, -112.445312500000, 32.601562500000, 1490870541
-0.604736328125, -0.310546875000, -0.370361328125, -35.812500000000, -112.445312500000, 32.601562500000, 1490870541
-0.604736328125, -0.310546875000, -0.370361328125, -35.812500000000, -112.445312500000, 32.601562500000, 1490870541
-0.337890625000, -0.099365234375, -0.743896484375, 12.414062500000, -61.523437500000, -44.734375000000, 1490870541
-0.337890625000, -0.099365234375, -0.743896484375, 12.414062500000, -61.523437500000, -44.734375000000, 1490870541
-0.337890625000, -0.099365234375, -0.743896484375, 12.414062500000, -61.523437500000, -44.734375000000, 1490870541
-0.109130859375, -0.143066406250, -1.021728515625, -31.296875000000, 3.890625000000, 25.523437500000, 1490870542
-0.109130859375, -0.143066406250, -1.021728515625, -31.296875000000, 3.890625000000, 25.523437500000, 1490870542
-0.109130859375, -0.143066406250, -1.021728515625, -31.296875000000, 3.890625000000, 25.523437500000, 1490870542
-0.109130859375, -0.143066406250, -1.021728515625, -31.296875000000, 3.890625000000, 25.523437500000, 1490870542
-0.114746093750, 0.025390625000, -1.025634765625, -10.851562500000, 11.601562500000, 7.140625000000, 1490870542
-0.114746093750, 0.025390625000, -1.025634765625, -10.851562500000, 11.601562500000, 7.140625000000, 1490870542
-0.114746093750, 0.025390625000, -1.025634765625, -10.851562500000, 11.601562500000, 7.140625000000, 1490870542
-0.200195312500, 0.028076171875, -0.911132812500, -10.445312500000, 6.687500000000, -6.398437500000, 1490870542
-0.200195312500, 0.028076171875, -0.911132812500, -10.445312500000, 6.687500000000, -6.398437500000, 1490870542
-0.200195312500, 0.028076171875, -0.911132812500, -10.445312500000, 6.687500000000, -6.398437500000, 1490870542
-0.140380859375, -0.091796875000, -1.034667968750, -3.867187500000, 6.125000000000, -6.250000000000, 1490870542
-0.140380859375, -0.091796875000, -1.034667968750, -3.867187500000, 6.125000000000, -6.250000000000, 1490870542
-0.140380859375, -0.091796875000, -1.034667968750, -3.867187500000, 6.125000000000, -6.250000000000, 1490870542
-0.138183593750, 0.014648437500, -1.001708984375, -4.070312500000, -1.062500000000, 8.671875000000, 1490870542
-0.138183593750, 0.014648437500, -1.001708984375, -4.070312500000, -1.062500000000, 8.671875000000, 1490870542
-0.138183593750, 0.014648437500, -1.001708984375, -4.070312500000, -1.062500000000, 8.671875000000, 1490870542
-0.138183593750, 0.014648437500, -1.001708984375, -4.070312500000, -1.062500000000, 8.671875000000, 1490870542
-0.112548828125, 0.028076171875, -1.028564453125, -5.101562500000, -1.625000000000, -3.609375000000, 1490870542
-0.112548828125, 0.028076171875, -1.028564453125, -5.101562500000, -1.625000000000, -3.609375000000, 1490870542
-0.112548828125, 0.028076171875, -1.028564453125, -5.101562500000, -1.625000000000, -3.609375000000, 1490870542
-0.178710937500, 0.004638671875, -0.908935546875, -1.273437500000, 0.476562500000, -6.390625000000, 1490870542
-0.178710937500, 0.004638671875, -0.908935546875, -1.273437500000, 0.476562500000, -6.390625000000, 1490870542
-0.178710937500, 0.004638671875, -0.908935546875, -1.273437500000, 0.476562500000, -6.390625000000, 1490870542
-0.193603515625, -0.086914062500, -0.921142578125, 0.203125000000, -2.953125000000, -3.320312500000, 1490870542
-0.193603515625, -0.086914062500, -0.921142578125, 0.203125000000, -2.953125000000, -3.320312500000, 1490870542
-0.193603515625, -0.086914062500, -0.921142578125, 0.203125000000, -2.953125000000, -3.320312500000, 1490870542
-0.104003906250, 0.020263671875, -0.908691406250, -3.421875000000, -7.992187500000, -2.062500000000, 1490870542
-0.104003906250, 0.020263671875, -0.908691406250, -3.421875000000, -7.992187500000, -2.062500000000, 1490870542
-0.104003906250, 0.020263671875, -0.908691406250, -3.421875000000, -7.992187500000, -2.062500000000, 1490870542
-0.104003906250, 0.020263671875, -0.908691406250, -3.421875000000, -7.992187500000, -2.062500000000, 1490870542
-0.120117187500, -0.071044921875, -1.024414062500, -1.156250000000, -3.187500000000, 0.390625000000, 1490870542
-0.120117187500, -0.071044921875, -1.024414062500, -1.156250000000, -3.187500000000, 0.390625000000, 1490870542
-0.120117187500, -0.071044921875, -1.024414062500, -1.156250000000, -3.187500000000, 0.390625000000, 1490870542
-0.166015625000, -0.130615234375, -0.913574218750, -1.062500000000, 0.046875000000, 1.031250000000, 1490870542
-0.166015625000, -0.130615234375, -0.913574218750, -1.062500000000, 0.046875000000, 1.031250000000, 1490870542
-0.166015625000, -0.130615234375, -0.913574218750, -1.062500000000, 0.046875000000, 1.031250000000, 1490870542
-0.218750000000, 0.018554687500, -1.026367187500, 0.929687500000, -0.210937500000, 1.406250000000, 1490870542
-0.218750000000, 0.018554687500, -1.026367187500, 0.929687500000, -0.210937500000, 1.406250000000, 1490870542
-0.218750000000, 0.018554687500, -1.026367187500, 0.929687500000, -0.210937500000, 1.406250000000, 1490870542
-0.151367187500, -0.045166015625, -1.024169921875, -4.476562500000, 2.171875000000, -1.992187500000, 1490870542
-0.186035156250, 0.001464843750, -0.868652343750, -3.085937500000, 0.906250000000, -1.445312500000, 1490870542
-0.186035156250, 0.001464843750, -0.868652343750, -3.085937500000, 0.906250000000, -1.445312500000, 1490870542
-0.186035156250, 0.001464843750, -0.868652343750, -3.085937500000, 0.906250000000, -1.445312500000, 1490870542
-0.186035156250, 0.001464843750, -0.868652343750, -3.085937500000, 0.906250000000, -1.445312500000, 1490870542
-0.165771484375, -0.014648437500, -0.914794921875, -4.218750000000, -0.640625000000, -3.406250000000, 1490870542
-0.165771484375, -0.014648437500, -0.914794921875, -4.218750000000, -0.640625000000, -3.406250000000, 1490870542
-0.165771484375, -0.014648437500, -0.914794921875, -4.218750000000, -0.640625000000, -3.406250000000, 1490870542
-0.165771484375, -0.014648437500, -0.914794921875, -4.218750000000, -0.640625000000, -3.406250000000, 1490870542
-0.165771484375, -0.014648437500, -0.914794921875, -1.890625000000, 1.101562500000, -6.085937500000, 1490870542
-0.175048828125, -0.090576171875, -0.982421875000, -3.375000000000, 2.625000000000, -4.375000000000, 1490870542
-0.175048828125, -0.090576171875, -0.982421875000, -3.375000000000, 2.625000000000, -4.375000000000, 1490870542
-0.175048828125, -0.090576171875, -0.982421875000, -3.375000000000, 2.625000000000, -4.375000000000, 1490870542
-0.259277343750, 0.062500000000, -1.030761718750, -4.445312500000, -0.320312500000, -3.257812500000, 1490870542
-0.259277343750, 0.062500000000, -1.030761718750, -4.445312500000, -0.320312500000, -3.257812500000, 1490870542
-0.259277343750, 0.062500000000, -1.030761718750, -4.445312500000, -0.320312500000, -3.257812500000, 1490870542
-0.259277343750, 0.062500000000, -1.030761718750, -4.445312500000, -0.320312500000, -3.257812500000, 1490870542
-0.109130859375, -0.082275390625, -0.995605468750, -1.265625000000, 0.859375000000, -4.273437500000, 1490870542
-0.109130859375, -0.082275390625, -0.995605468750, -1.265625000000, 0.859375000000, -4.273437500000, 1490870542
-0.109130859375, -0.082275390625, -0.995605468750, -1.265625000000, 0.859375000000, -4.273437500000, 1490870542
-0.166748046875, 0.065673828125, -0.975830078125, -4.101562500000, 1.656250000000, -4.671875000000, 1490870542
-0.166748046875, 0.065673828125, -0.975830078125, -4.101562500000, 1.656250000000, -4.671875000000, 1490870542
-0.166748046875, 0.065673828125, -0.975830078125, -4.101562500000, 1.656250000000, -4.671875000000, 1490870542
-0.271240234375, -0.066894531250, -0.913085937500, -3.296875000000, 1.140625000000, -1.460937500000, 1490870542
-0.271240234375, -0.066894531250, -0.913085937500, -3.296875000000, 1.140625000000, -1.460937500000, 1490870542
-0.271240234375, -0.066894531250, -0.913085937500, -3.296875000000, 1.140625000000, -1.460937500000, 1490870542
-0.148925781250, -0.033447265625, -1.003906250000, -1.945312500000, 0.804687500000, -6.820312500000, 1490870542
-0.148925781250, -0.033447265625, -1.003906250000, -1.945312500000, 0.804687500000, -6.820312500000, 1490870542
-0.148925781250, -0.033447265625, -1.003906250000, -1.945312500000, 0.804687500000, -6.820312500000, 1490870543
-0.148925781250, -0.033447265625, -1.003906250000, -1.945312500000, 0.804687500000, -6.820312500000, 1490870543
-0.156982421875, -0.025390625000, -0.989257812500, -6.335937500000, 0.960937500000, -5.960937500000, 1490870543
-0.156982421875, -0.025390625000, -0.989257812500, -6.335937500000, 0.960937500000, -5.960937500000, 1490870543
-0.156982421875, -0.025390625000, -0.989257812500, -6.335937500000, 0.960937500000, -5.960937500000, 1490870543
-0.112548828125, 0.070068359375, -1.002197265625, -4.148437500000, -2.578125000000, -3.414062500000, 1490870543
-0.112548828125, 0.070068359375, -1.002197265625, -4.148437500000, -2.578125000000, -3.414062500000, 1490870543
-0.112548828125, 0.070068359375, -1.002197265625, -4.148437500000, -2.578125000000, -3.414062500000, 1490870543
-0.256835937500, 0.025146484375, -1.020507812500, -6.406250000000, -3.296875000000, -3.148437500000, 1490870543
-0.256835937500, 0.025146484375, -1.020507812500, -6.406250000000, -3.296875000000, -3.148437500000, 1490870543
-0.256835937500, 0.025146484375, -1.020507812500, -6.406250000000, -3.296875000000, -3.148437500000, 1490870543
-0.213867187500, -0.132324218750, -0.912841796875, -4.601562500000, -0.453125000000, -4.539062500000, 1490870543
-0.213867187500, -0.132324218750, -0.912841796875, -4.601562500000, -0.453125000000, -4.539062500000, 1490870543
-0.213867187500, -0.132324218750, -0.912841796875, -4.601562500000, -0.453125000000, -4.539062500000, 1490870543
-0.213867187500, -0.132324218750, -0.912841796875, -4.601562500000, -0.453125000000, -4.539062500000, 1490870543
-0.158447265625, -0.002197265625, -0.972656250000, -4.695312500000, -0.492187500000, -3.015625000000, 1490870543
-0.158447265625, -0.002197265625, -0.972656250000, -4.695312500000, -0.492187500000, -3.015625000000, 1490870543
-0.158447265625, -0.002197265625, -0.972656250000, -4.695312500000, -0.492187500000, -3.015625000000, 1490870543
-0.098876953125, -0.030761718750, -1.010253906250, -1.781250000000, 2.500000000000, -6.078125000000, 1490870543
-0.098876953125, -0.030761718750, -1.010253906250, -1.781250000000, 2.500000000000, -6.078125000000, 1490870543
-0.098876953125, -0.030761718750, -1.010253906250, -1.781250000000, 2.500000000000, -6.078125000000, 1490870543
