ACC_X,ACC_Y,ACC_Z,G_X,G_Y,G_Z,Unix Time
-0.160888671875, -0.822265625000, 0.234130859375, 18.257812500000, -22.914062500000, 6.703125000000, 1490870908
-0.160888671875, -0.822265625000, 0.234130859375, 18.257812500000, -22.914062500000, 6.703125000000, 1490870908
-0.160888671875, -0.822265625000, 0.234130859375, 18.257812500000, -22.914062500000, 6.703125000000, 1490870908
-0.156738281250, -1.010498046875, 0.178710937500, -12.796875000000, -0.070312500000, 6.500000000000, 1490870908
-0.156738281250, -1.010498046875, 0.178710937500, -12.796875000000, -0.070312500000, 6.500000000000, 1490870908
-0.156738281250, -1.010498046875, 0.178710937500, -12.796875000000, -0.070312500000, 6.500000000000, 1490870908
-0.226318359375, -1.241699218750, 0.272460937500, -19.062500000000, 22.304687500000, 6.804687500000, 1490870908
-0.361328125000, -1.096435546875, 0.181884765625, -14.109375000000, 11.773437500000, 8.625000000000, 1490870908
-0.230712890625, -1.266357421875, 0.241455078125, 12.679687500000, -45.382812500000, 6.445312500000, 1490870908
-0.230712890625, -1.266357421875, 0.241455078125, 12.679687500000, -45.382812500000, 6.445312500000, 1490870908
-0.075927734375, -1.058837890625, 0.401855468750, -17.500000000000, -41.007812500000, 14.453125000000, 1490870908
-0.075927734375, -1.058837890625, 0.401855468750, -17.500000000000, -41.007812500000, 14.453125000000, 1490870908
-0.075927734375, -1.058837890625, 0.401855468750, -17.500000000000, -41.007812500000, 14.453125000000, 1490870908
-0.075927734375, -1.058837890625, 0.401855468750, -17.500000000000, -41.007812500000, 14.453125000000, 1490870908
0.092529296875, -0.744628906250, 0.199951171875, -62.671875000000, 45.179687500000, 12.507812500000, 1490870908
0.092529296875, -0.744628906250, 0.199951171875, -62.671875000000, 45.179687500000, 12.507812500000, 1490870908
0.092529296875, -0.744628906250, 0.199951171875, -62.671875000000, 45.179687500000, 12.507812500000, 1490870908
0.092529296875, -0.744628906250, 0.199951171875, -62.671875000000, 45.179687500000, 12.507812500000, 1490870908
0.092529296875, -0.744628906250, 0.199951171875, -62.671875000000, 45.179687500000, 12.507812500000, 1490870908
0.083984375000, -0.798339843750, 0.200439453125, -83.273437500000, 33.062500000000, 24.718750000000, 1490870908
0.083984375000, -0.798339843750, 0.200439453125, -83.273437500000, 33.062500000000, 24.718750000000, 1490870908
0.083984375000, -0.798339843750, 0.200439453125, -83.273437500000, 33.062500000000, 24.718750000000, 1490870908
-0.058593750000, -1.041748046875, 0.150634765625, -78.976562500000, -54.585937500000, -31.695312500000, 1490870908
-0.058593750000, -1.041748046875, 0.150634765625, -78.976562500000, -54.585937500000, -31.695312500000, 1490870908
-0.058593750000, -1.041748046875, 0.150634765625, -78.976562500000, -54.585937500000, -31.695312500000, 1490870908
-0.058593750000, -1.041748046875, 0.150634765625, -78.976562500000, -54.585937500000, -31.695312500000, 1490870908
-0.072509765625, -1.071533203125, 0.146240234375, 28.312500000000, -19.015625000000, 11.914062500000, 1490870908
-0.072509765625, -1.071533203125, 0.146240234375, 28.312500000000, -19.015625000000, 11.914062500000, 1490870908
-0.072509765625, -1.071533203125, 0.146240234375, 28.312500000000, -19.015625000000, 11.914062500000, 1490870908
0.017333984375, -0.916015625000, 0.135253906250, 39.085937500000, 4.000000000000, 9.117187500000, 1490870908
0.017333984375, -0.916015625000, 0.135253906250, 39.085937500000, 4.000000000000, 9.117187500000, 1490870908
0.017333984375, -0.916015625000, 0.135253906250, 39.085937500000, 4.000000000000, 9.117187500000, 1490870908
0.082763671875, -0.787353515625, 0.178466796875, 100.132812500000, 126.406250000000, 30.757812500000, 1490870908
0.082763671875, -0.787353515625, 0.178466796875, 100.132812500000, 126.406250000000, 30.757812500000, 1490870908
0.082763671875, -0.787353515625, 0.178466796875, 100.132812500000, 126.406250000000, 30.757812500000, 1490870908
-0.093505859375, -0.894775390625, 0.404785156250, 93.570312500000, 19.828125000000, 17.898437500000, 1490870908
-0.093505859375, -0.894775390625, 0.404785156250, 93.570312500000, 19.828125000000, 17.898437500000, 1490870908
-0.093505859375, -0.894775390625, 0.404785156250, 93.570312500000, 19.828125000000, 17.898437500000, 1490870908
-0.093505859375, -0.894775390625, 0.404785156250, 93.570312500000, 19.828125000000, 17.898437500000, 1490870908
-0.098632812500, -1.011718750000, 0.367431640625, 46.390625000000, -51.351562500000, 2.429687500000, 1490870908
-0.098632812500, -1.011718750000, 0.367431640625, 46.390625000000, -51.351562500000, 2.429687500000, 1490870908
-0.098632812500, -1.011718750000, 0.367431640625, 46.390625000000, -51.351562500000, 2.429687500000, 1490870908
-0.057861328125, -0.888671875000, 0.318847656250, -14.968750000000, -4.312500000000, -13.656250000000, 1490870908
-0.057861328125, -0.888671875000, 0.318847656250, -14.968750000000, -4.312500000000, -13.656250000000, 1490870908
-0.057861328125, -0.888671875000, 0.318847656250, -14.968750000000, -4.312500000000, -13.656250000000, 1490870908
0.053466796875, -0.931152343750, 0.197021484375, -36.085937500000, 12.507812500000, -19.960937500000, 1490870908
0.053466796875, -0.931152343750, 0.197021484375, -36.085937500000, 12.507812500000, -19.960937500000, 1490870908
0.053466796875, -0.931152343750, 0.197021484375, -36.085937500000, 12.507812500000, -19.960937500000, 1490870908
0.192138671875, -1.173339843750, 0.272705078125, -15.945312500000, 32.148437500000, -6.070312500000, 1490870908
0.192138671875, -1.173339843750, 0.272705078125, -15.945312500000, 32.148437500000, -6.070312500000, 1490870908
0.192138671875, -1.173339843750, 0.272705078125, -15.945312500000, 32.148437500000, -6.070312500000, 1490870908
0.192138671875, -1.173339843750, 0.272705078125, -15.945312500000, 32.148437500000, -6.070312500000, 1490870908
-0.229736328125, -1.356201171875, 0.181884765625, -25.601562500000, 36.796875000000, -12.437500000000, 1490870908
-0.384521484375, -1.011474609375, 0.112304687500, -44.679687500000, 40.898437500000, -32.617187500000, 1490870908
-0.384521484375, -1.011474609375, 0.112304687500, -44.679687500000, 40.898437500000, -32.617187500000, 1490870908
-0.384521484375, -1.011474609375, 0.112304687500, -44.679687500000, 40.898437500000, -32.617187500000, 1490870908
-0.384521484375, -1.011474609375, 0.112304687500, -44.679687500000, 40.898437500000, -32.617187500000, 1490870908
-0.384521484375, -1.011474609375, 0.112304687500, -44.679687500000, 40.898437500000, -32.617187500000, 1490870908
-0.078613281250, -0.711914062500, -0.024169921875, -51.554687500000, -55.554687500000, -48.484375000000, 1490870908
-0.078613281250, -0.711914062500, -0.024169921875, -51.554687500000, -55.554687500000, -48.484375000000, 1490870908
-0.078613281250, -0.711914062500, -0.024169921875, -51.554687500000, -55.554687500000, -48.484375000000, 1490870908
-0.153808593750, -1.074951171875, -0.063232421875, -58.351562500000, -47.218750000000, -36.914062500000, 1490870909
-0.153808593750, -1.074951171875, -0.063232421875, -58.351562500000, -47.218750000000, -36.914062500000, 1490870909
-0.153808593750, -1.074951171875, -0.063232421875, -58.351562500000, -47.218750000000, -36.914062500000, 1490870909
-0.153808593750, -1.074951171875, -0.063232421875, -58.351562500000, -47.218750000000, -36.914062500000, 1490870909
-0.212890625000, -1.059814453125, 0.085693359375, -11.023437500000, -29.593750000000, -14.351562500000, 1490870909
-0.212890625000, -1.059814453125, 0.085693359375, -11.023437500000, -29.593750000000, -14.351562500000, 1490870909
-0.212890625000, -1.059814453125, 0.085693359375, -11.023437500000, -29.593750000000, -14.351562500000, 1490870909
0.021728515625, -0.973144531250, 0.031982421875, 42.851562500000, -32.828125000000, 3.515625000000, 1490870909
0.021728515625, -0.973144531250, 0.031982421875, 42.851562500000, -32.828125000000, 3.515625000000, 1490870909
0.021728515625, -0.973144531250, 0.031982421875, 42.851562500000, -32.828125000000, 3.515625000000, 1490870909
-0.142822265625, -0.781494140625, 0.361572265625, 69.460937500000, -71.617187500000, 11.414062500000, 1490870909
-0.142822265625, -0.781494140625, 0.361572265625, 69.460937500000, -71.617187500000, 11.414062500000, 1490870909
-0.142822265625, -0.781494140625, 0.361572265625, 69.460937500000, -71.617187500000, 11.414062500000, 1490870909
-0.169677734375, -0.885253906250, 0.230224609375, 16.460937500000, -33.367187500000, -3.000000000000, 1490870909
-0.169677734375, -0.885253906250, 0.230224609375, 16.460937500000, -33.367187500000, -3.000000000000, 1490870909
-0.169677734375, -0.885253906250, 0.230224609375, 16.460937500000, -33.367187500000, -3.000000000000, 1490870909
-0.169677734375, -0.885253906250, 0.230224609375, 16.460937500000, -33.367187500000, -3.000000000000, 1490870909
-0.131347656250, -0.850341796875, 0.162841796875, -23.765625000000, -47.273437500000, -4.828125000000, 1490870909
-0.131347656250, -0.850341796875, 0.162841796875, -23.765625000000, -47.273437500000, -4.828125000000, 1490870909
-0.131347656250, -0.850341796875, 0.162841796875, -23.765625000000, -47.273437500000, -4.828125000000, 1490870909
-0.159912109375, -0.879150390625, 0.191894531250, 2.960937500000, -44.687500000000, -0.875000000000, 1490870909
-0.159912109375, -0.879150390625, 0.191894531250, 2.960937500000, -44.687500000000, -0.875000000000, 1490870909
-0.159912109375, -0.879150390625, 0.191894531250, 2.960937500000, -44.687500000000, -0.875000000000, 1490870909
0.002929687500, -0.863769531250, 0.235107421875, 16.500000000000, -19.031250000000, 4.640625000000, 1490870909
0.002929687500, -0.863769531250, 0.235107421875, 16.500000000000, -19.031250000000, 4.640625000000, 1490870909
0.002929687500, -0.863769531250, 0.235107421875, 16.500000000000, -19.031250000000, 4.640625000000, 1490870909
-0.206787109375, -1.086181640625, 0.294677734375, -8.140625000000, 4.820312500000, 5.968750000000, 1490870909
-0.206787109375, -1.086181640625, 0.294677734375, -8.140625000000, 4.820312500000, 5.968750000000, 1490870909
-0.206787109375, -1.086181640625, 0.294677734375, -8.140625000000, 4.820312500000, 5.968750000000, 1490870909
-0.206787109375, -1.086181640625, 0.294677734375, -8.140625000000, 4.820312500000, 5.968750000000, 1490870909
-0.366455078125, -1.101074218750, 0.395019531250, -2.390625000000, 6.742187500000, 6.281250000000, 1490870909
-0.366455078125, -1.101074218750, 0.395019531250, -2.390625000000, 6.742187500000, 6.281250000000, 1490870909
-0.366455078125, -1.101074218750, 0.395019531250, -2.390625000000, 6.742187500000, 6.281250000000, 1490870909
-0.011718750000, -1.326904296875, 0.366699218750, 2.578125000000, -22.859375000000, 5.687500000000, 1490870909
-0.011718750000, -1.326904296875, 0.366699218750, 2.578125000000, -22.859375000000, 5.687500000000, 1490870909
-0.011718750000, -1.326904296875, 0.366699218750, 2.578125000000, -22.859375000000, 5.687500000000, 1490870909
0.135009765625, -0.991455078125, 0.286865234375, -47.367187500000, 21.953125000000, 13.093750000000, 1490870909
0.135009765625, -0.991455078125, 0.286865234375, -47.367187500000, 21.953125000000, 13.093750000000, 1490870909
0.135009765625, -0.991455078125, 0.286865234375, -47.367187500000, 21.953125000000, 13.093750000000, 1490870909
0.043701171875, -0.912353515625, 0.131347656250, -65.062500000000, 68.359375000000, 19.742187500000, 1490870909
0.043701171875, -0.912353515625, 0.131347656250, -65.062500000000, 68.359375000000, 19.742187500000, 1490870909
0.043701171875, -0.912353515625, 0.131347656250, -65.062500000000, 68.359375000000, 19.742187500000, 1490870909
0.043701171875, -0.912353515625, 0.131347656250, -65.062500000000, 68.359375000000, 19.742187500000, 1490870909
0.028564453125, -0.908447265625, 0.114013671875, -53.843750000000, 10.171875000000, -4.195312500000, 1490870909
0.028564453125, -0.908447265625, 0.114013671875, -53.843750000000, 10.171875000000, -4.195312500000, 1490870909
0.028564453125, -0.908447265625, 0.114013671875, -53.843750000000, 10.171875000000, -4.195312500000, 1490870909
0.003417968750, -0.932617187500, 0.077636718750, -18.945312500000, 17.968750000000, -11.054687500000, 1490870909
0.003417968750, -0.932617187500, 0.077636718750, -18.945312500000, 17.968750000000, -11.054687500000, 1490870909
0.003417968750, -0.932617187500, 0.077636718750, -18.945312500000, 17.968750000000, -11.054687500000, 1490870909
-0.142822265625, -0.929443359375, 0.025634765625, 5.648437500000, -1.320312500000, -2.296875000000, 1490870909
-0.142822265625, -0.929443359375, 0.025634765625, 5.648437500000, -1.320312500000, -2.296875000000, 1490870909
-0.044433593750, -0.905761718750, 0.107666015625, 107.921875000000, 114.789062500000, 8.585937500000, 1490870909
-0.044433593750, -0.905761718750, 0.107666015625, 107.921875000000, 114.789062500000, 8.585937500000, 1490870909
-0.044433593750, -0.905761718750, 0.107666015625, 107.921875000000, 114.789062500000, 8.585937500000, 1490870909
-0.044433593750, -0.905761718750, 0.107666015625, 107.921875000000, 114.789062500000, 8.585937500000, 1490870909
-0.049316406250, -0.811767578125, 0.374023437500, 141.031250000000, -92.406250000000, 18.375000000000, 1490870909
-0.049316406250, -0.811767578125, 0.374023437500, 141.031250000000, -92.406250000000, 18.375000000000, 1490870909
-0.049316406250, -0.811767578125, 0.374023437500, 141.031250000000, -92.406250000000, 18.375000000000, 1490870909
-0.049316406250, -0.811767578125, 0.374023437500, 141.031250000000, -92.406250000000, 18.375000000000, 1490870909
0.080078125000, -0.946533203125, 0.437011718750, -37.117187500000, 36.890625000000, -19.781250000000, 1490870909
0.080078125000, -0.946533203125, 0.437011718750, -37.117187500000, 36.890625000000, -19.781250000000, 1490870909
0.080078125000, -0.946533203125, 0.437011718750, -37.117187500000, 36.890625000000, -19.781250000000, 1490870909
-0.032226562500, -0.744384765625, 0.106201171875, -55.437500000000, 20.242187500000, -22.515625000000, 1490870909
-0.032226562500, -0.744384765625, 0.106201171875, -55.437500000000, 20.242187500000, -22.515625000000, 1490870909
0.011718750000, -1.025390625000, 0.153076171875, -0.804687500000, 12.367187500000, -9.453125000000, 1490870909
0.011718750000, -1.025390625000, 0.153076171875, -0.804687500000, 12.367187500000, -9.453125000000, 1490870909
0.011718750000, -1.025390625000, 0.153076171875, -0.804687500000, 12.367187500000, -9.453125000000, 1490870910
0.011718750000, -1.025390625000, 0.153076171875, -0.804687500000, 12.367187500000, -9.453125000000, 1490870910
0.011718750000, -1.025390625000, 0.153076171875, -0.804687500000, 12.367187500000, -9.453125000000, 1490870910
-0.135742187500, -1.284912109375, 0.246337890625, -7.773437500000, 58.578125000000, 6.593750000000, 1490870910
-0.135742187500, -1.284912109375, 0.246337890625, -7.773437500000, 58.578125000000, 6.593750000000, 1490870910
-0.135742187500, -1.284912109375, 0.246337890625, -7.773437500000, 58.578125000000, 6.593750000000, 1490870910
-0.458007812500, -1.524658203125, 0.311767578125, -47.328125000000, 42.000000000000, -13.171875000000, 1490870910
-0.458007812500, -1.524658203125, 0.311767578125, -47.328125000000, 42.000000000000, -13.171875000000, 1490870910
-0.458007812500, -1.524658203125, 0.311767578125, -47.328125000000, 42.000000000000, -13.171875000000, 1490870910
-0.458007812500, -1.524658203125, 0.311767578125, -47.328125000000, 42.000000000000, -13.171875000000, 1490870910
-0.458007812500, -1.524658203125, 0.311767578125, -47.328125000000, 42.000000000000, -13.171875000000, 1490870910
-0.149658203125, -0.800292968750, 0.020263671875, -49.093750000000, -42.937500000000, -41.406250000000, 1490870910
-0.149658203125, -0.800292968750, 0.020263671875, -49.093750000000, -42.937500000000, -41.406250000000, 1490870910
-0.149658203125, -0.800292968750, 0.020263671875, -49.093750000000, -42.937500000000, -41.406250000000, 1490870910
-0.149658203125, -0.800292968750, 0.020263671875, -49.093750000000, -42.937500000000, -41.406250000000, 1490870910
-0.149658203125, -0.800292968750, 0.020263671875, -49.093750000000, -42.937500000000, -41.406250000000, 1490870910
-0.013183593750, -0.925781250000, 0.080078125000, -71.617187500000, -35.601562500000, -41.312500000000, 1490870910
-0.013183593750, -0.925781250000, 0.080078125000, -71.617187500000, -35.601562500000, -41.312500000000, 1490870910
-0.013183593750, -0.925781250000, 0.080078125000, -71.617187500000, -35.601562500000, -41.312500000000, 1490870910
-0.110595703125, -1.016845703125, -0.031005859375, -29.851562500000, -64.382812500000, -17.492187500000, 1490870910
-0.110595703125, -1.016845703125, -0.031005859375, -29.851562500000, -64.382812500000, -17.492187500000, 1490870910
-0.110595703125, -1.016845703125, -0.031005859375, -29.851562500000, -64.382812500000, -17.492187500000, 1490870910
-0.320068359375, -1.059570312500, 0.086181640625, 10.710937500000, -50.765625000000, 2.117187500000, 1490870910
-0.320068359375, -1.059570312500, 0.086181640625, 10.710937500000, -50.765625000000, 2.117187500000, 1490870910
-0.320068359375, -1.059570312500, 0.086181640625, 10.710937500000, -50.765625000000, 2.117187500000, 1490870910
-0.027587890625, -1.091552734375, 0.231201171875, 102.726562500000, 25.570312500000, 2.453125000000, 1490870910
-0.027587890625, -1.091552734375, 0.231201171875, 102.726562500000, 25.570312500000, 2.453125000000, 1490870910
-0.027587890625, -1.091552734375, 0.231201171875, 102.726562500000, 25.570312500000, 2.453125000000, 1490870910
-0.027587890625, -1.091552734375, 0.231201171875, 102.726562500000, 25.570312500000, 2.453125000000, 1490870910
-0.297119140625, -0.925048828125, 0.568115234375, 37.062500000000, -61.398437500000, 3.890625000000, 1490870910
-0.297119140625, -0.925048828125, 0.568115234375, 37.062500000000, -61.398437500000, 3.890625000000, 1490870910
-0.297119140625, -0.925048828125, 0.568115234375, 37.062500000000, -61.398437500000, 3.890625000000, 1490870910
-0.105468750000, -0.804931640625, 0.201171875000, -38.179687500000, -20.226562500000, -10.101562500000, 1490870910
-0.105468750000, -0.804931640625, 0.201171875000, -38.179687500000, -20.226562500000, -10.101562500000, 1490870910
-0.105468750000, -0.804931640625, 0.201171875000, -38.179687500000, -20.226562500000, -10.101562500000, 1490870910
-0.124511718750, -0.613525390625, 0.204101562500, -7.570312500000, -39.890625000000, -8.679687500000, 1490870910
-0.124511718750, -0.613525390625, 0.204101562500, -7.570312500000, -39.890625000000, -8.679687500000, 1490870910
-0.124511718750, -0.613525390625, 0.204101562500, -7.570312500000, -39.890625000000, -8.679687500000, 1490870910
-0.149169921875, -0.790527343750, 0.275146484375, 30.039062500000, 2.921875000000, 1.062500000000, 1490870910
-0.149169921875, -0.790527343750, 0.275146484375, 30.039062500000, 2.921875000000, 1.062500000000, 1490870910
-0.149169921875, -0.790527343750, 0.275146484375, 30.039062500000, 2.921875000000, 1.062500000000, 1490870910
-0.149169921875, -0.790527343750, 0.275146484375, 30.039062500000, 2.921875000000, 1.062500000000, 1490870910
0.020751953125, -0.834960937500, 0.447265625000, 16.343750000000, 9.367187500000, 6.421875000000, 1490870910
0.020751953125, -0.834960937500, 0.447265625000, 16.343750000000, 9.367187500000, 6.421875000000, 1490870910
0.020751953125, -0.834960937500, 0.447265625000, 16.343750000000, 9.367187500000, 6.421875000000, 1490870910
-0.208007812500, -1.036132812500, 0.177978515625, -4.054687500000, 20.484375000000, 8.687500000000, 1490870910
-0.208007812500, -1.036132812500, 0.177978515625, -4.054687500000, 20.484375000000, 8.687500000000, 1490870910
-0.208007812500, -1.036132812500, 0.177978515625, -4.054687500000, 20.484375000000, 8.687500000000, 1490870910
-0.393798828125, -1.120849609375, 0.240722656250, 37.242187500000, -18.492187500000, 5.882812500000, 1490870910
-0.393798828125, -1.120849609375, 0.240722656250, 37.242187500000, -18.492187500000, 5.882812500000, 1490870910
-0.393798828125, -1.120849609375, 0.240722656250, 37.242187500000, -18.492187500000, 5.882812500000, 1490870910
0.101562500000, -1.210449218750, 0.625732421875, 4.468750000000, -9.195312500000, -3.656250000000, 1490870910
0.101562500000, -1.210449218750, 0.625732421875, 4.468750000000, -9.195312500000, -3.656250000000, 1490870910
0.101562500000, -1.210449218750, 0.625732421875, 4.468750000000, -9.195312500000, -3.656250000000, 1490870910
0.101562500000, -1.210449218750, 0.625732421875, 4.468750000000, -9.195312500000, -3.656250000000, 1490870910
0.270996093750, -0.470214843750, 0.207275390625, -38.179687500000, 85.156250000000, 20.328125000000, 1490870910
0.270996093750, -0.470214843750, 0.207275390625, -38.179687500000, 85.156250000000, 20.328125000000, 1490870910
0.270996093750, -0.470214843750, 0.207275390625, -38.179687500000, 85.156250000000, 20.328125000000, 1490870910
0.167968750000, -0.627197265625, 0.117919921875, -51.937500000000, 132.421875000000, 60.546875000000, 1490870910
0.167968750000, -0.627197265625, 0.117919921875, -51.937500000000, 132.421875000000, 60.546875000000, 1490870910
0.167968750000, -0.627197265625, 0.117919921875, -51.937500000000, 132.421875000000, 60.546875000000, 1490870910
0.477783203125, -1.105957031250, 0.201904296875, -22.601562500000, 88.015625000000, -10.070312500000, 1490870910
0.477783203125, -1.105957031250, 0.201904296875, -22.601562500000, 88.015625000000, -10.070312500000, 1490870910
0.477783203125, -1.105957031250, 0.201904296875, -22.601562500000, 88.015625000000, -10.070312500000, 1490870910
0.286376953125, -1.539306640625, -0.079101562500, -52.117187500000, -25.390625000000, 18.117187500000, 1490870910
0.286376953125, -1.539306640625, -0.079101562500, -52.117187500000, -25.390625000000, 18.117187500000, 1490870910
0.286376953125, -1.539306640625, -0.079101562500, -52.117187500000, -25.390625000000, 18.117187500000, 1490870910
0.286376953125, -1.539306640625, -0.079101562500, -52.117187500000, -25.390625000000, 18.117187500000, 1490870910
-0.044433593750, -1.395996093750, 0.218994140625, 74.625000000000, 81.265625000000, -25.492187500000, 1490870911
-0.044433593750, -1.395996093750, 0.218994140625, 74.625000000000, 81.265625000000, -25.492187500000, 1490870911
-0.044433593750, -1.395996093750, 0.218994140625, 74.625000000000, 81.265625000000, -25.492187500000, 1490870911
0.126220703125, -1.443847656250, 0.193359375000, 50.820312500000, 253.992187500000, -29.593750000000, 1490870911
0.126220703125, -1.443847656250, 0.193359375000, 50.820312500000, 253.992187500000, -29.593750000000, 1490870911
0.126220703125, -1.443847656250, 0.193359375000, 50.820312500000, 253.992187500000, -29.593750000000, 1490870911
-0.021728515625, -0.928222656250, 0.387451171875, 57.164062500000, 84.812500000000, 1.242187500000, 1490870911
-0.021728515625, -0.928222656250, 0.387451171875, 57.164062500000, 84.812500000000, 1.242187500000, 1490870911
-0.021728515625, -0.928222656250, 0.387451171875, 57.164062500000, 84.812500000000, 1.242187500000, 1490870911
0.012207031250, 0.003662109375, -0.017333984375, -112.921875000000, 121.750000000000, 6.015625000000, 1490870911
0.012207031250, 0.003662109375, -0.017333984375, -112.921875000000, 121.750000000000, 6.015625000000, 1490870911
0.012207031250, 0.003662109375, -0.017333984375, -112.921875000000, 121.750000000000, 6.015625000000, 1490870911
0.012207031250, 0.003662109375, -0.017333984375, -112.921875000000, 121.750000000000, 6.015625000000, 1490870911
0.083740234375, 0.032958984375, 0.093750000000, -130.148437500000, 144.148437500000, -13.468750000000, 1490870911
0.083740234375, 0.032958984375, 0.093750000000, -130.148437500000, 144.148437500000, -13.468750000000, 1490870911
-0.005371093750, 0.036132812500, 0.063476562500, -60.796875000000, 144.820312500000, 3.031250000000, 1490870911
-0.005371093750, 0.036132812500, 0.063476562500, -60.796875000000, 144.820312500000, 3.031250000000, 1490870911
-0.005371093750, 0.036132812500, 0.063476562500, -60.796875000000, 144.820312500000, 3.031250000000, 1490870911
-0.005371093750, 0.036132812500, 0.063476562500, -60.796875000000, 144.820312500000, 3.031250000000, 1490870911
-0.051513671875, -1.862304687500, -0.394775390625, -224.750000000000, -75.007812500000, -184.898437500000, 1490870911
-0.051513671875, -1.862304687500, -0.394775390625, -224.750000000000, -75.007812500000, -184.898437500000, 1490870911
-0.051513671875, -1.862304687500, -0.394775390625, -224.750000000000, -75.007812500000, -184.898437500000, 1490870911
-0.338134765625, -1.602539062500, 0.213378906250, 253.992187500000, -74.398437500000, 135.851562500000, 1490870911
-0.338134765625, -1.602539062500, 0.213378906250, 253.992187500000, -74.398437500000, 135.851562500000, 1490870911
-0.338134765625, -1.602539062500, 0.213378906250, 253.992187500000, -74.398437500000, 135.851562500000, 1490870911
-0.338134765625, -1.602539062500, 0.213378906250, 253.992187500000, -74.398437500000, 135.851562500000, 1490870911
-0.212646484375, -2.458984375000, 0.129882812500, -101.085937500000, 68.296875000000, -36.898437500000, 1490870911
-0.212646484375, -2.458984375000, 0.129882812500, -101.085937500000, 68.296875000000, -36.898437500000, 1490870911
-0.212646484375, -2.458984375000, 0.129882812500, -101.085937500000, 68.296875000000, -36.898437500000, 1490870911
-0.065185546875, -1.417236328125, 2.273681640625, 253.992187500000, -59.828125000000, 26.601562500000, 1490870911
-0.065185546875, -1.417236328125, 2.273681640625, 253.992187500000, -59.828125000000, 26.601562500000, 1490870911
-0.065185546875, -1.417236328125, 2.273681640625, 253.992187500000, -59.828125000000, 26.601562500000, 1490870911
0.187744140625, -0.923828125000, 0.187011718750, -211.867187500000, -38.218750000000, -10.437500000000, 1490870911
0.187744140625, -0.923828125000, 0.187011718750, -211.867187500000, -38.218750000000, -10.437500000000, 1490870911
0.187744140625, -0.923828125000, 0.187011718750, -211.867187500000, -38.218750000000, -10.437500000000, 1490870911
0.072021484375, -0.127197265625, 0.047851562500, -71.601562500000, 106.171875000000, 23.968750000000, 1490870911
0.072021484375, -0.127197265625, 0.047851562500, -71.601562500000, 106.171875000000, 23.968750000000, 1490870911
0.072021484375, -0.127197265625, 0.047851562500, -71.601562500000, 106.171875000000, 23.968750000000, 1490870911
0.072021484375, -0.127197265625, 0.047851562500, -71.601562500000, 106.171875000000, 23.968750000000, 1490870911
0.070800781250, 0.125244140625, 0.093505859375, -0.960937500000, 196.914062500000, 19.023437500000, 1490870911
0.070800781250, 0.125244140625, 0.093505859375, -0.960937500000, 196.914062500000, 19.023437500000, 1490870911
0.070800781250, 0.125244140625, 0.093505859375, -0.960937500000, 196.914062500000, 19.023437500000, 1490870911
-0.013427734375, 0.016357421875, 0.014160156250, -8.773437500000, 186.101562500000, -36.890625000000, 1490870911
-0.013427734375, 0.016357421875, 0.014160156250, -8.773437500000, 186.101562500000, -36.890625000000, 1490870911
-0.013427734375, 0.016357421875, 0.014160156250, -8.773437500000, 186.101562500000, -36.890625000000, 1490870911
0.322509765625, -2.165771484375, 0.110107421875, 215.976562500000, -256.000000000000, -56.859375000000, 1490870911
0.322509765625, -2.165771484375, 0.110107421875, 215.976562500000, -256.000000000000, -56.859375000000, 1490870911
0.322509765625, -2.165771484375, 0.110107421875, 215.976562500000, -256.000000000000, -56.859375000000, 1490870911
0.322509765625, -2.165771484375, 0.110107421875, 215.976562500000, -256.000000000000, -56.859375000000, 1490870911
0.322509765625, -2.165771484375, 0.110107421875, 215.976562500000, -256.000000000000, -56.859375000000, 1490870911
-0.564453125000, -1.823730468750, 0.478027343750, 253.992187500000, 253.992187500000, -19.390625000000, 1490870911
-0.564453125000, -1.823730468750, 0.478027343750, 253.992187500000, 253.992187500000, -19.390625000000, 1490870911
-0.564453125000, -1.823730468750, 0.478027343750, 253.992187500000, 253.992187500000, -19.390625000000, 1490870911
-0.564453125000, -1.823730468750, 0.478027343750, 253.992187500000, 253.992187500000, -19.390625000000, 1490870911
-0.564453125000, -1.823730468750, 0.478027343750, 253.992187500000, 253.992187500000, -19.390625000000, 1490870911
-0.295166015625, -1.140869140625, 0.666259765625, -158.101562500000, -230.632812500000, -61.765625000000, 1490870911
-0.295166015625, -1.140869140625, 0.666259765625, -158.101562500000, -230.632812500000, -61.765625000000, 1490870911
-0.295166015625, -1.140869140625, 0.666259765625, -158.101562500000, -230.632812500000, -61.765625000000, 1490870911
-0.079833984375, -0.384521484375, 0.059814453125, -161.250000000000, 177.781250000000, -45.914062500000, 1490870911
-0.079833984375, -0.384521484375, 0.059814453125, -161.250000000000, 177.781250000000, -45.914062500000, 1490870911
-0.079833984375, -0.384521484375, 0.059814453125, -161.250000000000, 177.781250000000, -45.914062500000, 1490870911
-0.004150390625, -0.007324218750, 0.071289062500, -94.375000000000, 253.992187500000, 21.140625000000, 1490870911
-0.004150390625, -0.007324218750, 0.071289062500, -94.375000000000, 253.992187500000, 21.140625000000, 1490870911
-0.004150390625, -0.007324218750, 0.071289062500, -94.375000000000, 253.992187500000, 21.140625000000, 1490870911
-0.004150390625, -0.007324218750, 0.071289062500, -94.375000000000, 253.992187500000, 21.140625000000, 1490870911
-0.002197265625, -0.012451171875, -0.031494140625, -78.718750000000, 179.015625000000, 31.875000000000, 1490870911
-0.002197265625, -0.012451171875, -0.031494140625, -78.718750000000, 179.015625000000, 31.875000000000, 1490870911
-0.002197265625, -0.012451171875, -0.031494140625, -78.718750000000, 179.015625000000, 31.875000000000, 1490870911
0.119140625000, -1.029296875000, -0.181884765625, -199.906250000000, -120.429687500000, -163.812500000000, 1490870912
0.119140625000, -1.029296875000, -0.181884765625, -199.906250000000, -120.429687500000, -163.812500000000, 1490870912
0.119140625000, -1.029296875000, -0.181884765625, -199.906250000000, -120.429687500000, -163.812500000000, 1490870912
-0.388183593750, -1.052490234375, 0.663574218750, 165.890625000000, -256.000000000000, -34.898437500000, 1490870912
-0.388183593750, -1.052490234375, 0.663574218750, 165.890625000000, -256.000000000000, -34.898437500000, 1490870912
-0.388183593750, -1.052490234375, 0.663574218750, 165.890625000000, -256.000000000000, -34.898437500000, 1490870912
-0.495361328125, -1.658935546875, 0.040527343750, -69.554687500000, -57.203125000000, 5.070312500000, 1490870912
-0.495361328125, -1.658935546875, 0.040527343750, -69.554687500000, -57.203125000000, 5.070312500000, 1490870912
-0.495361328125, -1.658935546875, 0.040527343750, -69.554687500000, -57.203125000000, 5.070312500000, 1490870912
-0.495361328125, -1.658935546875, 0.040527343750, -69.554687500000, -57.203125000000, 5.070312500000, 1490870912
0.104492187500, -1.204589843750, 3.439208984375, 253.992187500000, -68.773437500000, 69.492187500000, 1490870912
0.104492187500, -1.204589843750, 3.439208984375, 253.992187500000, -68.773437500000, 69.492187500000, 1490870912
0.104492187500, -1.204589843750, 3.439208984375, 253.992187500000, -68.773437500000, 69.492187500000, 1490870912
-0.018798828125, -0.658935546875, 0.111572265625, -214.804687500000, 92.492187500000, -6.726562500000, 1490870912
-0.018798828125, -0.658935546875, 0.111572265625, -214.804687500000, 92.492187500000, -6.726562500000, 1490870912
-0.018798828125, -0.658935546875, 0.111572265625, -214.804687500000, 92.492187500000, -6.726562500000, 1490870912
-0.000732421875, -0.083007812500, 0.081787109375, -146.796875000000, 161.804687500000, 5.195312500000, 1490870912
-0.000732421875, -0.083007812500, 0.081787109375, -146.796875000000, 161.804687500000, 5.195312500000, 1490870912
-0.000732421875, -0.083007812500, 0.081787109375, -146.796875000000, 161.804687500000, 5.195312500000, 1490870912
0.048095703125, -0.149169921875, 0.126220703125, 12.773437500000, 219.539062500000, 22.460937500000, 1490870912
0.048095703125, -0.149169921875, 0.126220703125, 12.773437500000, 219.539062500000, 22.460937500000, 1490870912
0.048095703125, -0.149169921875, 0.126220703125, 12.773437500000, 219.539062500000, 22.460937500000, 1490870912
0.048095703125, -0.149169921875, 0.126220703125, 12.773437500000, 219.539062500000, 22.460937500000, 1490870912
0.225830078125, -0.641357421875, 0.015625000000, -70.218750000000, 197.718750000000, -83.984375000000, 1490870912
0.225830078125, -0.641357421875, 0.015625000000, -70.218750000000, 197.718750000000, -83.984375000000, 1490870912
0.225830078125, -0.641357421875, 0.015625000000, -70.218750000000, 197.718750000000, -83.984375000000, 1490870912
1.017578125000, -1.924316406250, 0.206298828125, 13.710937500000, -149.992187500000, 158.289062500000, 1490870912
1.017578125000, -1.924316406250, 0.206298828125, 13.710937500000, -149.992187500000, 158.289062500000, 1490870912
1.017578125000, -1.924316406250, 0.206298828125, 13.710937500000, -149.992187500000, 158.289062500000, 1490870912
0.911132812500, -2.079101562500, 0.165283203125, -141.890625000000, -134.156250000000, 98.078125000000, 1490870912
0.911132812500, -2.079101562500, 0.165283203125, -141.890625000000, -134.156250000000, 98.078125000000, 1490870912
0.911132812500, -2.079101562500, 0.165283203125, -141.890625000000, -134.156250000000, 98.078125000000, 1490870912
-0.578125000000, -1.095214843750, -0.218505859375, 128.539062500000, 253.992187500000, -54.289062500000, 1490870912
-0.578125000000, -1.095214843750, -0.218505859375, 128.539062500000, 253.992187500000, -54.289062500000, 1490870912
-0.578125000000, -1.095214843750, -0.218505859375, 128.539062500000, 253.992187500000, -54.289062500000, 1490870912
-0.578125000000, -1.095214843750, -0.218505859375, 128.539062500000, 253.992187500000, -54.289062500000, 1490870912
-0.848876953125, -0.157226562500, 0.328857421875, 127.945312500000, 132.937500000000, 109.171875000000, 1490870912
-0.848876953125, -0.157226562500, 0.328857421875, 127.945312500000, 132.937500000000, 109.171875000000, 1490870912
-0.848876953125, -0.157226562500, 0.328857421875, 127.945312500000, 132.937500000000, 109.171875000000, 1490870912
-0.059326171875, -0.002197265625, 0.137207031250, -79.484375000000, 33.250000000000, -3.609375000000, 1490870912
-0.059326171875, -0.002197265625, 0.137207031250, -79.484375000000, 33.250000000000, -3.609375000000, 1490870912
-0.059326171875, -0.002197265625, 0.137207031250, -79.484375000000, 33.250000000000, -3.609375000000, 1490870912
-0.033203125000, 0.092529296875, 0.037109375000, -39.867187500000, 117.406250000000, 12.750000000000, 1490870912
-0.033203125000, 0.092529296875, 0.037109375000, -39.867187500000, 117.406250000000, 12.750000000000, 1490870912
-0.033203125000, 0.092529296875, 0.037109375000, -39.867187500000, 117.406250000000, 12.750000000000, 1490870912
-0.316650390625, -2.205078125000, -0.566894531250, -256.000000000000, -50.257812500000, -249.601562500000, 1490870912
-0.316650390625, -2.205078125000, -0.566894531250, -256.000000000000, -50.257812500000, -249.601562500000, 1490870912
-0.316650390625, -2.205078125000, -0.566894531250, -256.000000000000, -50.257812500000, -249.601562500000, 1490870912
-0.316650390625, -2.205078125000, -0.566894531250, -256.000000000000, -50.257812500000, -249.601562500000, 1490870912
-0.028076171875, -1.512451171875, 0.109619140625, 235.046875000000, 156.382812500000, 194.750000000000, 1490870912
-0.028076171875, -1.512451171875, 0.109619140625, 235.046875000000, 156.382812500000, 194.750000000000, 1490870912
-0.028076171875, -1.512451171875, 0.109619140625, 235.046875000000, 156.382812500000, 194.750000000000, 1490870912
0.415527343750, -2.401855468750, 0.172851562500, -55.000000000000, 219.664062500000, -11.078125000000, 1490870912
0.415527343750, -2.401855468750, 0.172851562500, -55.000000000000, 219.664062500000, -11.078125000000, 1490870912
0.415527343750, -2.401855468750, 0.172851562500, -55.000000000000, 219.664062500000, -11.078125000000, 1490870912
-0.291992187500, -1.174560546875, 0.188964843750, 155.328125000000, 67.898437500000, 32.898437500000, 1490870912
-0.291992187500, -1.174560546875, 0.188964843750, 155.328125000000, 67.898437500000, 32.898437500000, 1490870912
-0.291992187500, -1.174560546875, 0.188964843750, 155.328125000000, 67.898437500000, 32.898437500000, 1490870912
0.152587890625, -0.496826171875, 0.647460937500, -13.414062500000, 108.492187500000, -28.125000000000, 1490870912
0.152587890625, -0.496826171875, 0.647460937500, -13.414062500000, 108.492187500000, -28.125000000000, 1490870912
0.152587890625, -0.496826171875, 0.647460937500, -13.414062500000, 108.492187500000, -28.125000000000, 1490870912
0.152587890625, -0.496826171875, 0.647460937500, -13.414062500000, 108.492187500000, -28.125000000000, 1490870912
0.079589843750, -0.190917968750, 0.133789062500, -138.273437500000, 117.359375000000, -12.273437500000, 1490870912
0.079589843750, -0.190917968750, 0.133789062500, -138.273437500000, 117.359375000000, -12.273437500000, 1490870912
0.079589843750, -0.190917968750, 0.133789062500, -138.273437500000, 117.359375000000, -12.273437500000, 1490870912
0.197998046875, 0.020507812500, 0.143554687500, -99.593750000000, 126.179687500000, -1.156250000000, 1490870913
0.197998046875, 0.020507812500, 0.143554687500, -99.593750000000, 126.179687500000, -1.156250000000, 1490870913
0.197998046875, 0.020507812500, 0.143554687500, -99.593750000000, 126.179687500000, -1.156250000000, 1490870913
0.154541015625, -0.192138671875, 0.068603515625, -97.125000000000, 253.992187500000, -26.335937500000, 1490870913
0.154541015625, -0.192138671875, 0.068603515625, -97.125000000000, 253.992187500000, -26.335937500000, 1490870913
0.154541015625, -0.192138671875, 0.068603515625, -97.125000000000, 253.992187500000, -26.335937500000, 1490870913
1.016113281250, -2.172851562500, 0.113037109375, -53.179687500000, 146.789062500000, 71.617187500000, 1490870913
1.016113281250, -2.172851562500, 0.113037109375, -53.179687500000, 146.789062500000, 71.617187500000, 1490870913
1.016113281250, -2.172851562500, 0.113037109375, -53.179687500000, 146.789062500000, 71.617187500000, 1490870913
1.016113281250, -2.172851562500, 0.113037109375, -53.179687500000, 146.789062500000, 71.617187500000, 1490870913
0.492431640625, -2.071289062500, 0.031982421875, -78.320312500000, -135.843750000000, 79.156250000000, 1490870913
0.492431640625, -2.071289062500, 0.031982421875, -78.320312500000, -135.843750000000, 79.156250000000, 1490870913
0.492431640625, -2.071289062500, 0.031982421875, -78.320312500000, -135.843750000000, 79.156250000000, 1490870913
-0.761230468750, -1.955566406250, 0.804687500000, 183.750000000000, 137.687500000000, -57.390625000000, 1490870913
-0.761230468750, -1.955566406250, 0.804687500000, 183.750000000000, 137.687500000000, -57.390625000000, 1490870913
-0.761230468750, -1.955566406250, 0.804687500000, 183.750000000000, 137.687500000000, -57.390625000000, 1490870913
-0.690673828125, -1.278808593750, 0.798095703125, 175.007812500000, 253.992187500000, 115.882812500000, 1490870913
-0.690673828125, -1.278808593750, 0.798095703125, 175.007812500000, 253.992187500000, 115.882812500000, 1490870913
-0.690673828125, -1.278808593750, 0.798095703125, 175.007812500000, 253.992187500000, 115.882812500000, 1490870913
-0.072998046875, -0.574218750000, 0.163085937500, -191.945312500000, 12.031250000000, -43.734375000000, 1490870913
-0.072998046875, -0.574218750000, 0.163085937500, -191.945312500000, 12.031250000000, -43.734375000000, 1490870913
-0.072998046875, -0.574218750000, 0.163085937500, -191.945312500000, 12.031250000000, -43.734375000000, 1490870913
-0.072998046875, -0.574218750000, 0.163085937500, -191.945312500000, 12.031250000000, -43.734375000000, 1490870913
0.082519531250, -0.240234375000, 0.013671875000, -157.085937500000, 158.695312500000, -4.601562500000, 1490870913
0.082519531250, -0.240234375000, 0.013671875000, -157.085937500000, 158.695312500000, -4.601562500000, 1490870913
0.082519531250, -0.240234375000, 0.013671875000, -157.085937500000, 158.695312500000, -4.601562500000, 1490870913
0.010009765625, -0.066894531250, 0.080810546875, -116.023437500000, 226.351562500000, 54.757812500000, 1490870913
0.010009765625, -0.066894531250, 0.080810546875, -116.023437500000, 226.351562500000, 54.757812500000, 1490870913
0.010009765625, -0.066894531250, 0.080810546875, -116.023437500000, 226.351562500000, 54.757812500000, 1490870913
0.097167968750, -0.057617187500, 0.004882812500, -153.789062500000, 119.148437500000, 5.507812500000, 1490870913
0.097167968750, -0.057617187500, 0.004882812500, -153.789062500000, 119.148437500000, 5.507812500000, 1490870913
0.097167968750, -0.057617187500, 0.004882812500, -153.789062500000, 119.148437500000, 5.507812500000, 1490870913
-0.675781250000, -3.188232421875, 3.270996093750, -256.000000000000, -183.429687500000, -256.000000000000, 1490870913
-0.675781250000, -3.188232421875, 3.270996093750, -256.000000000000, -183.429687500000, -256.000000000000, 1490870913
-0.675781250000, -3.188232421875, 3.270996093750, -256.000000000000, -183.429687500000, -256.000000000000, 1490870913
-0.675781250000, -3.188232421875, 3.270996093750, -256.000000000000, -183.429687500000, -256.000000000000, 1490870913
-0.980712890625, -2.414550781250, 0.041503906250, 217.093750000000, 32.398437500000, 169.015625000000, 1490870913
-0.980712890625, -2.414550781250, 0.041503906250, 217.093750000000, 32.398437500000, 169.015625000000, 1490870913
-0.980712890625, -2.414550781250, 0.041503906250, 217.093750000000, 32.398437500000, 169.015625000000, 1490870913
-0.988769531250, -1.380859375000, 0.353759765625, 63.078125000000, -48.367187500000, 89.859375000000, 1490870913
-0.988769531250, -1.380859375000, 0.353759765625, 63.078125000000, -48.367187500000, 89.859375000000, 1490870913
-0.988769531250, -1.380859375000, 0.353759765625, 63.078125000000, -48.367187500000, 89.859375000000, 1490870913
-0.170166015625, -0.565429687500, 1.352294921875, 253.992187500000, -256.000000000000, 55.460937500000, 1490870913
-0.170166015625, -0.565429687500, 1.352294921875, 253.992187500000, -256.000000000000, 55.460937500000, 1490870913
-0.170166015625, -0.565429687500, 1.352294921875, 253.992187500000, -256.000000000000, 55.460937500000, 1490870913
-0.095947265625, -0.732421875000, 0.221679687500, -256.000000000000, -16.820312500000, 45.101562500000, 1490870913
-0.095947265625, -0.732421875000, 0.221679687500, -256.000000000000, -16.820312500000, 45.101562500000, 1490870913
-0.095947265625, -0.732421875000, 0.221679687500, -256.000000000000, -16.820312500000, 45.101562500000, 1490870913
0.034179687500, -0.057373046875, 0.082275390625, -174.421875000000, 233.875000000000, 19.796875000000, 1490870913
0.034179687500, -0.057373046875, 0.082275390625, -174.421875000000, 233.875000000000, 19.796875000000, 1490870913
0.034179687500, -0.057373046875, 0.082275390625, -174.421875000000, 233.875000000000, 19.796875000000, 1490870913
0.034179687500, -0.057373046875, 0.082275390625, -174.421875000000, 233.875000000000, 19.796875000000, 1490870913
-0.027832031250, 0.016357421875, 0.043701171875, -77.695312500000, 253.992187500000, -19.601562500000, 1490870913
-0.027832031250, 0.016357421875, 0.043701171875, -77.695312500000, 253.992187500000, -19.601562500000, 1490870913
-0.027832031250, 0.016357421875, 0.043701171875, -77.695312500000, 253.992187500000, -19.601562500000, 1490870913
0.038330078125, -0.257812500000, 0.025878906250, -16.601562500000, 169.265625000000, -31.101562500000, 1490870913
0.038330078125, -0.257812500000, 0.025878906250, -16.601562500000, 169.265625000000, -31.101562500000, 1490870913
0.038330078125, -0.257812500000, 0.025878906250, -16.601562500000, 169.265625000000, -31.101562500000, 1490870913
0.036376953125, -1.418212890625, 0.398925781250, -57.492187500000, -256.000000000000, -9.593750000000, 1490870913
0.036376953125, -1.418212890625, 0.398925781250, -57.492187500000, -256.000000000000, -9.593750000000, 1490870913
0.036376953125, -1.418212890625, 0.398925781250, -57.492187500000, -256.000000000000, -9.593750000000, 1490870913
0.036376953125, -1.418212890625, 0.398925781250, -57.492187500000, -256.000000000000, -9.593750000000, 1490870913
