ACC_X,ACC_Y,ACC_Z,G_X,G_Y,G_Z,Unix Time
0.156250000000, -0.938720703125, 0.449951171875, -6.367187500000, 2.648437500000, -3.304687500000, 1490935762
0.156250000000, -0.938720703125, 0.449951171875, -6.367187500000, 2.648437500000, -3.304687500000, 1490935762
0.156250000000, -0.938720703125, 0.449951171875, -6.367187500000, 2.648437500000, -3.304687500000, 1490935762
-0.015869140625, -0.895263671875, 0.432861328125, 5.023437500000, -2.304687500000, -5.328125000000, 1490935762
-0.015869140625, -0.895263671875, 0.432861328125, 5.023437500000, -2.304687500000, -5.328125000000, 1490935762
-0.015869140625, -0.895263671875, 0.432861328125, 5.023437500000, -2.304687500000, -5.328125000000, 1490935762
-0.015869140625, -0.895263671875, 0.432861328125, 5.023437500000, -2.304687500000, -5.328125000000, 1490935762
0.133056640625, -0.658691406250, 0.502441406250, 12.351562500000, -1.835937500000, -5.875000000000, 1490935762
0.133056640625, -0.658691406250, 0.502441406250, 12.351562500000, -1.835937500000, -5.875000000000, 1490935762
0.133056640625, -0.658691406250, 0.502441406250, 12.492187500000, -1.171875000000, -6.789062500000, 1490935762
0.143798828125, -0.550048828125, 0.521728515625, 28.812500000000, -7.289062500000, -6.429687500000, 1490935762
0.143798828125, -0.550048828125, 0.521728515625, 28.812500000000, -7.289062500000, -6.429687500000, 1490935762
0.143798828125, -0.550048828125, 0.521728515625, 28.812500000000, -7.289062500000, -6.429687500000, 1490935763
0.037597656250, -0.165039062500, 0.398437500000, 33.148437500000, -7.335937500000, -5.648437500000, 1490935763
0.037597656250, -0.165039062500, 0.398437500000, 33.148437500000, -7.335937500000, -5.648437500000, 1490935763
0.037597656250, -0.165039062500, 0.398437500000, 33.148437500000, -7.335937500000, -5.648437500000, 1490935763
0.086914062500, 0.016113281250, 0.208007812500, 62.945312500000, 2.328125000000, 9.375000000000, 1490935763
0.086914062500, 0.016113281250, 0.208007812500, 62.945312500000, 2.328125000000, 9.375000000000, 1490935763
0.086914062500, 0.016113281250, 0.208007812500, 62.945312500000, 2.328125000000, 9.375000000000, 1490935763
0.049804687500, -0.216064453125, 0.038818359375, 15.625000000000, 14.078125000000, 11.562500000000, 1490935763
-0.033935546875, -0.974609375000, 0.075927734375, -62.796875000000, 49.242187500000, -32.320312500000, 1490935763
-0.033935546875, -0.974609375000, 0.075927734375, -62.796875000000, 49.242187500000, -32.320312500000, 1490935763
-0.033935546875, -0.974609375000, 0.075927734375, -62.796875000000, 49.242187500000, -32.320312500000, 1490935763
-0.159423828125, -1.922363281250, 0.490234375000, 87.179687500000, 49.093750000000, -28.531250000000, 1490935763
-0.159423828125, -1.922363281250, 0.490234375000, 87.179687500000, 49.093750000000, -28.531250000000, 1490935763
0.290771484375, -2.950683593750, 1.055664062500, -82.390625000000, 57.382812500000, -7.539062500000, 1490935763
0.290771484375, -2.950683593750, 1.055664062500, -82.390625000000, 57.382812500000, -7.539062500000, 1490935763
0.290771484375, -2.950683593750, 1.055664062500, -82.390625000000, 57.382812500000, -7.539062500000, 1490935763
0.290771484375, -2.950683593750, 1.055664062500, -82.390625000000, 57.382812500000, -7.539062500000, 1490935763
0.367919921875, -3.098144531250, 1.013916015625, 3.039062500000, 12.656250000000, -6.390625000000, 1490935763
0.367919921875, -3.098144531250, 1.013916015625, 3.039062500000, 12.656250000000, -6.390625000000, 1490935763
0.367919921875, -3.098144531250, 1.013916015625, 3.039062500000, 12.656250000000, -6.390625000000, 1490935763
0.367919921875, -3.098144531250, 1.013916015625, 3.039062500000, 12.656250000000, -6.390625000000, 1490935763
0.155517578125, -2.181640625000, 0.955322265625, -74.742187500000, 6.882812500000, 2.531250000000, 1490935763
0.155517578125, -2.181640625000, 0.955322265625, -74.742187500000, 6.882812500000, 2.531250000000, 1490935763
0.155517578125, -2.181640625000, 0.955322265625, -74.742187500000, 6.882812500000, 2.531250000000, 1490935763
0.195312500000, -0.942626953125, 0.481933593750, -68.914062500000, 13.390625000000, -8.984375000000, 1490935763
0.195312500000, -0.942626953125, 0.481933593750, -68.914062500000, 13.390625000000, -8.984375000000, 1490935763
0.026855468750, 0.179687500000, 0.158691406250, 11.046875000000, 135.015625000000, -3.851562500000, 1490935763
0.026855468750, 0.179687500000, 0.158691406250, 11.046875000000, 135.015625000000, -3.851562500000, 1490935763
0.026855468750, 0.179687500000, 0.158691406250, 11.046875000000, 135.015625000000, -3.851562500000, 1490935763
0.026855468750, 0.179687500000, 0.158691406250, 11.046875000000, 135.015625000000, -3.851562500000, 1490935763
0.010498046875, 0.107421875000, -0.083007812500, -116.101562500000, 78.695312500000, -8.781250000000, 1490935763
0.010498046875, 0.107421875000, -0.083007812500, -116.101562500000, 78.695312500000, -8.781250000000, 1490935763
0.010498046875, 0.107421875000, -0.083007812500, -116.101562500000, 78.695312500000, -8.781250000000, 1490935763
0.010498046875, 0.107421875000, -0.083007812500, -116.101562500000, 78.695312500000, -8.781250000000, 1490935763
0.070800781250, 0.088623046875, 0.044189453125, -128.835937500000, 18.656250000000, -58.382812500000, 1490935763
0.070800781250, 0.088623046875, 0.044189453125, -128.835937500000, 18.656250000000, -58.382812500000, 1490935763
0.070800781250, 0.088623046875, 0.044189453125, -128.835937500000, 18.656250000000, -58.382812500000, 1490935763
0.079101562500, -0.021240234375, -0.006591796875, -108.367187500000, 32.242187500000, -51.242187500000, 1490935763
0.079101562500, -0.021240234375, -0.006591796875, -108.367187500000, 32.242187500000, -51.242187500000, 1490935763
-0.020019531250, 0.034912109375, -0.007812500000, -111.648437500000, 33.414062500000, -48.273437500000, 1490935763
-0.020019531250, 0.034912109375, -0.007812500000, -111.648437500000, 33.414062500000, -48.273437500000, 1490935763
-0.020019531250, 0.034912109375, -0.007812500000, -111.648437500000, 33.414062500000, -48.273437500000, 1490935763
0.000976562500, -0.090576171875, 0.012451171875, -48.492187500000, 129.640625000000, -41.273437500000, 1490935763
0.000976562500, -0.090576171875, 0.012451171875, -48.492187500000, 129.640625000000, -41.273437500000, 1490935763
0.000976562500, -0.090576171875, 0.012451171875, -48.492187500000, 129.640625000000, -41.273437500000, 1490935763
0.000976562500, -0.090576171875, 0.012451171875, -48.492187500000, 129.640625000000, -41.273437500000, 1490935763
0.000976562500, -0.090576171875, 0.012451171875, -48.492187500000, 129.640625000000, -41.273437500000, 1490935763
0.034423828125, 0.065429687500, 0.023193359375, -81.531250000000, 75.000000000000, -52.703125000000, 1490935763
0.034423828125, 0.065429687500, 0.023193359375, -81.531250000000, 75.000000000000, -52.703125000000, 1490935763
0.034423828125, 0.065429687500, 0.023193359375, -81.531250000000, 75.000000000000, -52.703125000000, 1490935763
-0.012451171875, 0.077636718750, 0.063964843750, -25.804687500000, 29.242187500000, -11.554687500000, 1490935763
-0.012451171875, 0.077636718750, 0.063964843750, -25.804687500000, 29.242187500000, -11.554687500000, 1490935763
-0.012451171875, 0.077636718750, 0.063964843750, -25.804687500000, 29.242187500000, -11.554687500000, 1490935763
0.029785156250, -0.036132812500, -0.024658203125, -14.171875000000, -6.007812500000, -23.687500000000, 1490935763
0.029785156250, -0.036132812500, -0.024658203125, -14.171875000000, -6.007812500000, -23.687500000000, 1490935763
-0.062988281250, -1.278564453125, -0.111572265625, -103.828125000000, -179.703125000000, -45.796875000000, 1490935763
-0.062988281250, -1.278564453125, -0.111572265625, -103.828125000000, -179.703125000000, -45.796875000000, 1490935763
0.140869140625, -4.058105468750, 0.300048828125, 253.992187500000, -77.929687500000, -159.937500000000, 1490935763
0.140869140625, -4.058105468750, 0.300048828125, 253.992187500000, -77.929687500000, -159.937500000000, 1490935763
0.140869140625, -4.058105468750, 0.300048828125, 253.992187500000, -77.929687500000, -159.937500000000, 1490935763
0.140869140625, -4.058105468750, 0.300048828125, 253.992187500000, -77.929687500000, -159.937500000000, 1490935763
0.206787109375, -2.349609375000, 1.240722656250, -256.000000000000, 73.546875000000, 23.851562500000, 1490935763
0.206787109375, -2.349609375000, 1.240722656250, -256.000000000000, 73.546875000000, 23.851562500000, 1490935763
0.206787109375, -2.349609375000, 1.240722656250, -256.000000000000, 73.546875000000, 23.851562500000, 1490935763
0.206787109375, -2.349609375000, 1.240722656250, -256.000000000000, 73.546875000000, 23.851562500000, 1490935763
0.206787109375, -2.349609375000, 1.240722656250, -256.000000000000, 73.546875000000, 23.851562500000, 1490935763
0.167480468750, -1.425537109375, 0.057861328125, 105.906250000000, 131.968750000000, 38.226562500000, 1490935763
0.167480468750, -1.425537109375, 0.057861328125, 105.906250000000, 131.968750000000, 38.226562500000, 1490935764
0.167480468750, -1.425537109375, 0.057861328125, 105.906250000000, 131.968750000000, 38.226562500000, 1490935764
-0.171875000000, -1.752929687500, 0.760742187500, 78.960937500000, -234.742187500000, 69.039062500000, 1490935764
-0.171875000000, -1.752929687500, 0.760742187500, 78.960937500000, -234.742187500000, 69.039062500000, 1490935764
0.077148437500, -1.083984375000, 0.378173828125, -21.476562500000, 31.320312500000, 1.726562500000, 1490935764
0.077148437500, -1.083984375000, 0.378173828125, -21.476562500000, 31.320312500000, 1.726562500000, 1490935764
0.077148437500, -1.083984375000, 0.378173828125, -21.476562500000, 31.320312500000, 1.726562500000, 1490935764
0.077148437500, -1.083984375000, 0.378173828125, -21.476562500000, 31.320312500000, 1.726562500000, 1490935764
0.077148437500, -1.083984375000, 0.378173828125, -21.476562500000, 31.320312500000, 1.726562500000, 1490935764
0.085693359375, -0.831054687500, 0.362304687500, -21.296875000000, -34.453125000000, 0.406250000000, 1490935764
0.085693359375, -0.831054687500, 0.362304687500, -21.296875000000, -34.453125000000, 0.406250000000, 1490935764
0.077392578125, -0.585449218750, 0.282958984375, -35.343750000000, 28.867187500000, 0.960937500000, 1490935764
0.077392578125, -0.585449218750, 0.282958984375, -35.343750000000, 28.867187500000, 0.960937500000, 1490935764
0.077392578125, -0.585449218750, 0.282958984375, -35.343750000000, 28.867187500000, 0.960937500000, 1490935764
0.077392578125, -0.585449218750, 0.282958984375, -35.343750000000, 28.867187500000, 0.960937500000, 1490935764
-0.074707031250, -0.454833984375, 0.159423828125, -29.437500000000, 11.140625000000, -16.179687500000, 1490935764
-0.074707031250, -0.454833984375, 0.159423828125, -29.437500000000, 11.140625000000, -16.179687500000, 1490935764
-0.074707031250, -0.454833984375, 0.159423828125, -29.437500000000, 11.140625000000, -16.179687500000, 1490935764
0.084228515625, -0.443603515625, 0.261718750000, -24.031250000000, -11.359375000000, -8.210937500000, 1490935764
0.084228515625, -0.443603515625, 0.261718750000, -24.031250000000, -11.359375000000, -8.210937500000, 1490935764
0.069091796875, -0.739013671875, 0.406982421875, -9.320312500000, -35.453125000000, -15.289062500000, 1490935764
0.069091796875, -0.739013671875, 0.406982421875, -9.320312500000, -35.453125000000, -15.289062500000, 1490935764
0.069091796875, -0.739013671875, 0.406982421875, -9.320312500000, -35.453125000000, -15.289062500000, 1490935764
0.069091796875, -0.739013671875, 0.406982421875, -9.320312500000, -35.453125000000, -15.289062500000, 1490935764
0.069091796875, -0.739013671875, 0.406982421875, 5.421875000000, -54.781250000000, -12.820312500000, 1490935764
0.118164062500, -0.904052734375, 0.614990234375, 10.984375000000, -39.046875000000, -19.664062500000, 1490935764
0.118164062500, -0.904052734375, 0.614990234375, 10.984375000000, -39.046875000000, -19.664062500000, 1490935764
0.118164062500, -0.904052734375, 0.614990234375, 10.984375000000, -39.046875000000, -19.664062500000, 1490935764
0.085937500000, -0.789306640625, 0.482421875000, 6.328125000000, -13.367187500000, 0.359375000000, 1490935764
0.085937500000, -0.789306640625, 0.482421875000, 6.328125000000, -13.367187500000, 0.359375000000, 1490935764
0.085937500000, -0.789306640625, 0.482421875000, 6.328125000000, -13.367187500000, 0.359375000000, 1490935764
0.085937500000, -0.789306640625, 0.482421875000, 6.328125000000, -13.367187500000, 0.359375000000, 1490935764
0.271728515625, -0.884765625000, 0.482421875000, 2.468750000000, -5.351562500000, 0.328125000000, 1490935764
0.271728515625, -0.884765625000, 0.482421875000, 2.468750000000, -5.351562500000, 0.328125000000, 1490935764
0.271728515625, -0.884765625000, 0.482421875000, 2.468750000000, -5.351562500000, 0.328125000000, 1490935764
0.135253906250, -0.809326171875, 0.575439453125, -2.242187500000, -8.828125000000, -6.921875000000, 1490935764
0.135253906250, -0.809326171875, 0.575439453125, -2.242187500000, -8.828125000000, -6.921875000000, 1490935764
0.135253906250, -0.809326171875, 0.575439453125, -2.242187500000, -8.828125000000, -6.921875000000, 1490935764
0.139404296875, -0.784423828125, 0.566650390625, -0.273437500000, -8.906250000000, -2.289062500000, 1490935764
0.139404296875, -0.784423828125, 0.566650390625, -0.273437500000, -8.906250000000, -2.289062500000, 1490935764
0.139404296875, -0.784423828125, 0.566650390625, -0.273437500000, -8.906250000000, -2.289062500000, 1490935764
0.053710937500, -0.792236328125, 0.423095703125, -3.453125000000, -3.125000000000, -3.484375000000, 1490935764
0.053710937500, -0.792236328125, 0.423095703125, -3.453125000000, -3.125000000000, -3.484375000000, 1490935764
0.053710937500, -0.792236328125, 0.423095703125, -3.453125000000, -3.125000000000, -3.484375000000, 1490935764
0.053710937500, -0.792236328125, 0.423095703125, -3.453125000000, -3.125000000000, -3.484375000000, 1490935764
0.110595703125, -0.894531250000, 0.527099609375, -2.171875000000, 4.015625000000, 0.234375000000, 1490935764
0.110595703125, -0.894531250000, 0.527099609375, -2.171875000000, 4.015625000000, 0.234375000000, 1490935764
0.110595703125, -0.894531250000, 0.527099609375, -2.171875000000, 4.015625000000, 0.234375000000, 1490935764
0.058349609375, -0.847167968750, 0.508300781250, -1.039062500000, 1.492187500000, -2.687500000000, 1490935764
0.090087890625, -0.804199218750, 0.537597656250, -6.070312500000, 5.156250000000, 2.117187500000, 1490935764
0.090087890625, -0.804199218750, 0.537597656250, -6.070312500000, 5.156250000000, 2.117187500000, 1490935764
0.090087890625, -0.804199218750, 0.537597656250, -6.070312500000, 5.156250000000, 2.117187500000, 1490935764
0.045654296875, -0.877685546875, 0.479736328125, -3.125000000000, 4.476562500000, 0.851562500000, 1490935764
0.045654296875, -0.877685546875, 0.479736328125, -3.125000000000, 4.476562500000, 0.851562500000, 1490935764
0.045654296875, -0.877685546875, 0.479736328125, -3.125000000000, 4.476562500000, 0.851562500000, 1490935764
0.045654296875, -0.877685546875, 0.479736328125, -3.125000000000, 4.476562500000, 0.851562500000, 1490935764
-0.007080078125, -0.793457031250, 0.516357421875, -2.835937500000, 6.375000000000, 0.960937500000, 1490935764
-0.007080078125, -0.793457031250, 0.516357421875, -2.835937500000, 6.375000000000, 0.960937500000, 1490935764
-0.007080078125, -0.793457031250, 0.516357421875, -2.835937500000, 6.375000000000, 0.960937500000, 1490935764
-0.007080078125, -0.793457031250, 0.516357421875, -2.835937500000, 6.375000000000, 0.960937500000, 1490935764
0.104248046875, -0.861328125000, 0.588378906250, -4.195312500000, 4.906250000000, -3.460937500000, 1490935764
0.104248046875, -0.861328125000, 0.588378906250, -4.195312500000, 4.906250000000, -3.460937500000, 1490935764
0.104248046875, -0.861328125000, 0.588378906250, -4.195312500000, 4.906250000000, -3.460937500000, 1490935764
0.104248046875, -0.861328125000, 0.588378906250, -4.195312500000, 4.906250000000, -3.460937500000, 1490935764
0.104003906250, -0.858154296875, 0.572265625000, -3.125000000000, -0.007812500000, -1.390625000000, 1490935764
0.104003906250, -0.858154296875, 0.572265625000, -3.125000000000, -0.007812500000, -1.390625000000, 1490935764
0.055908203125, -0.958984375000, 0.460693359375, -4.101562500000, 0.476562500000, -4.718750000000, 1490935765
0.055908203125, -0.958984375000, 0.460693359375, -4.101562500000, 0.476562500000, -4.718750000000, 1490935765
0.055908203125, -0.958984375000, 0.460693359375, -4.101562500000, 0.476562500000, -4.718750000000, 1490935765
0.055908203125, -0.958984375000, 0.460693359375, -4.101562500000, 0.476562500000, -4.718750000000, 1490935765
0.055908203125, -0.958984375000, 0.460693359375, -4.101562500000, 0.476562500000, -4.718750000000, 1490935765
