ACC_X,ACC_Y,ACC_Z,G_X,G_Y,G_Z,Unix Time
-0.269042968750, 0.549316406250, 0.789794921875, -4.765625000000, -0.671875000000, -3.031250000000, 1490936062
-0.269042968750, 0.549316406250, 0.789794921875, -4.765625000000, -0.671875000000, -3.031250000000, 1490936062
-0.269042968750, 0.549316406250, 0.789794921875, -4.765625000000, -0.671875000000, -3.031250000000, 1490936062
-0.269042968750, 0.549316406250, 0.789794921875, -4.765625000000, -0.671875000000, -3.031250000000, 1490936062
-0.269042968750, 0.549316406250, 0.789794921875, -4.765625000000, -0.671875000000, -3.031250000000, 1490936062
-0.269042968750, 0.549316406250, 0.789794921875, -4.765625000000, -0.671875000000, -3.031250000000, 1490936062
-0.269042968750, 0.549316406250, 0.789794921875, -4.765625000000, -0.671875000000, -3.031250000000, 1490936062
-0.269042968750, 0.549316406250, 0.789794921875, -4.765625000000, -0.671875000000, -3.031250000000, 1490936062
-0.269042968750, 0.549316406250, 0.789794921875, -4.765625000000, -0.671875000000, -3.031250000000, 1490936062
-0.269042968750, 0.549316406250, 0.789794921875, -4.765625000000, -0.671875000000, -3.031250000000, 1490936062
-0.269042968750, 0.549316406250, 0.789794921875, -4.765625000000, -0.671875000000, -3.031250000000, 1490936062
-0.117187500000, 0.487060546875, 0.739257812500, -3.531250000000, -2.328125000000, -6.140625000000, 1490936062
-0.117187500000, 0.487060546875, 0.739257812500, -3.531250000000, -2.328125000000, -6.140625000000, 1490936062
-0.117187500000, 0.487060546875, 0.739257812500, -3.531250000000, -2.328125000000, -6.140625000000, 1490936062
-0.117187500000, 0.487060546875, 0.739257812500, -3.531250000000, -2.328125000000, -6.140625000000, 1490936062
-0.117187500000, 0.487060546875, 0.739257812500, -3.531250000000, -2.328125000000, -6.140625000000, 1490936062
-0.117187500000, 0.487060546875, 0.739257812500, -3.531250000000, -2.328125000000, -6.140625000000, 1490936062
-0.180664062500, 0.573486328125, 0.842285156250, -7.601562500000, 0.078125000000, -3.210937500000, 1490936062
-0.180664062500, 0.573486328125, 0.842285156250, -7.601562500000, 0.078125000000, -3.210937500000, 1490936062
-0.180664062500, 0.573486328125, 0.842285156250, -7.601562500000, 0.078125000000, -3.210937500000, 1490936062
-0.180664062500, 0.573486328125, 0.842285156250, -7.601562500000, 0.078125000000, -3.210937500000, 1490936062
-0.143554687500, 0.535888671875, 0.842285156250, -6.546875000000, -3.828125000000, -5.093750000000, 1490936062
-0.143554687500, 0.535888671875, 0.842285156250, -6.546875000000, -3.828125000000, -5.093750000000, 1490936062
-0.143554687500, 0.535888671875, 0.842285156250, -6.546875000000, -3.828125000000, -5.093750000000, 1490936062
-0.143554687500, 0.535888671875, 0.842285156250, -6.546875000000, -3.828125000000, -5.093750000000, 1490936062
-0.168212890625, 0.479003906250, 0.875976562500, -1.781250000000, -0.828125000000, -4.507812500000, 1490936062
-0.153808593750, 0.566162109375, 0.812011718750, -8.453125000000, -1.640625000000, -4.328125000000, 1490936062
-0.153808593750, 0.566162109375, 0.812011718750, -8.453125000000, -1.640625000000, -4.328125000000, 1490936062
-0.153808593750, 0.566162109375, 0.812011718750, -8.453125000000, -1.640625000000, -4.328125000000, 1490936062
-0.153808593750, 0.566162109375, 0.812011718750, -8.453125000000, -1.640625000000, -4.328125000000, 1490936062
-0.153808593750, 0.566162109375, 0.812011718750, -8.453125000000, -1.640625000000, -4.328125000000, 1490936062
-0.201904296875, 0.480712890625, 0.905029296875, -6.601562500000, 0.742187500000, -1.968750000000, 1490936062
-0.201904296875, 0.480712890625, 0.905029296875, -6.601562500000, 0.742187500000, -1.968750000000, 1490936062
-0.201904296875, 0.480712890625, 0.905029296875, -6.601562500000, 0.742187500000, -1.968750000000, 1490936062
-0.201904296875, 0.480712890625, 0.905029296875, -6.601562500000, 0.742187500000, -1.968750000000, 1490936062
-0.201904296875, 0.480712890625, 0.905029296875, -6.601562500000, 0.742187500000, -1.968750000000, 1490936062
-0.117919921875, 0.603027343750, 0.809326171875, -2.343750000000, -0.796875000000, -4.140625000000, 1490936062
-0.117919921875, 0.603027343750, 0.809326171875, -2.343750000000, -0.796875000000, -4.140625000000, 1490936062
-0.117919921875, 0.603027343750, 0.809326171875, -2.343750000000, -0.796875000000, -4.140625000000, 1490936062
-0.117919921875, 0.603027343750, 0.809326171875, -2.343750000000, -0.796875000000, -4.140625000000, 1490936062
-0.118408203125, 0.489990234375, 0.873779296875, -4.945312500000, 0.375000000000, -2.453125000000, 1490936062
-0.177246093750, 0.641845703125, 0.870605468750, -4.195312500000, -0.164062500000, -4.648437500000, 1490936062
-0.177246093750, 0.641845703125, 0.870605468750, -4.195312500000, -0.164062500000, -4.648437500000, 1490936062
-0.177246093750, 0.641845703125, 0.870605468750, -4.195312500000, -0.164062500000, -4.648437500000, 1490936062
-0.177246093750, 0.641845703125, 0.870605468750, -4.195312500000, -0.164062500000, -4.648437500000, 1490936062
-0.177246093750, 0.641845703125, 0.870605468750, -4.195312500000, -0.164062500000, -4.648437500000, 1490936062
-0.177246093750, 0.641845703125, 0.870605468750, -4.195312500000, -0.164062500000, -4.648437500000, 1490936062
-0.177246093750, 0.641845703125, 0.870605468750, -4.195312500000, -0.164062500000, -4.648437500000, 1490936062
-0.163818359375, 0.533203125000, 0.794677734375, -1.781250000000, 2.820312500000, -2.882812500000, 1490936062
-0.182861328125, 0.480957031250, 0.816894531250, -4.953125000000, -0.710937500000, -6.226562500000, 1490936062
-0.182861328125, 0.480957031250, 0.816894531250, -4.953125000000, -0.710937500000, -6.226562500000, 1490936062
-0.182861328125, 0.480957031250, 0.816894531250, -4.953125000000, -0.710937500000, -6.226562500000, 1490936062
-0.182861328125, 0.480957031250, 0.816894531250, -4.953125000000, -0.710937500000, -6.226562500000, 1490936062
-0.182861328125, 0.480957031250, 0.816894531250, -4.953125000000, -0.710937500000, -6.226562500000, 1490936062
-0.182861328125, 0.480957031250, 0.816894531250, -4.953125000000, -0.710937500000, -6.226562500000, 1490936062
-0.182861328125, 0.480957031250, 0.816894531250, -4.953125000000, -0.710937500000, -6.226562500000, 1490936062
-0.170898437500, 0.564697265625, 0.909912109375, -4.171875000000, -0.890625000000, -4.476562500000, 1490936062
-0.208740234375, 0.559326171875, 0.903808593750, -1.992187500000, -2.257812500000, -1.164062500000, 1490936062
-0.208740234375, 0.559326171875, 0.903808593750, -1.992187500000, -2.257812500000, -1.164062500000, 1490936062
-0.208740234375, 0.559326171875, 0.903808593750, -1.992187500000, -2.257812500000, -1.164062500000, 1490936062
-0.208740234375, 0.559326171875, 0.903808593750, -1.992187500000, -2.257812500000, -1.164062500000, 1490936062
-0.208740234375, 0.559326171875, 0.903808593750, -1.992187500000, -2.257812500000, -1.164062500000, 1490936063
-0.208740234375, 0.559326171875, 0.903808593750, -1.992187500000, -2.257812500000, -1.164062500000, 1490936063
-0.223144531250, 0.575927734375, 0.802246093750, -3.203125000000, 0.867187500000, -3.117187500000, 1490936063
-0.223144531250, 0.575927734375, 0.802246093750, -3.203125000000, 0.867187500000, -3.117187500000, 1490936063
-0.223144531250, 0.575927734375, 0.802246093750, -3.203125000000, 0.867187500000, -3.117187500000, 1490936063
-0.208740234375, 0.549072265625, 0.819335937500, 0.914062500000, -0.507812500000, 0.031250000000, 1490936063
-0.208740234375, 0.549072265625, 0.819335937500, 0.914062500000, -0.507812500000, 0.031250000000, 1490936063
-0.208740234375, 0.549072265625, 0.819335937500, 0.914062500000, -0.507812500000, 0.031250000000, 1490936063
-0.266113281250, 0.589599609375, 0.903076171875, -5.640625000000, 0.625000000000, -2.632812500000, 1490936063
-0.163574218750, 0.559082031250, 0.880859375000, -4.921875000000, -2.039062500000, -1.968750000000, 1490936063
-0.163574218750, 0.559082031250, 0.880859375000, -4.921875000000, -2.039062500000, -1.968750000000, 1490936063
-0.163574218750, 0.559082031250, 0.880859375000, -4.921875000000, -2.039062500000, -1.968750000000, 1490936063
-0.163574218750, 0.559082031250, 0.880859375000, -4.921875000000, -2.039062500000, -1.968750000000, 1490936063
-0.163574218750, 0.559082031250, 0.880859375000, -4.921875000000, -2.039062500000, -1.968750000000, 1490936063
-0.163574218750, 0.559082031250, 0.880859375000, -4.921875000000, -2.039062500000, -1.968750000000, 1490936063
-0.163574218750, 0.559082031250, 0.880859375000, -4.921875000000, -2.039062500000, -1.968750000000, 1490936063
-0.259521484375, 0.557128906250, 0.882568359375, -3.164062500000, -2.765625000000, -4.265625000000, 1490936063
-0.178466796875, 0.593505859375, 0.883789062500, -4.843750000000, 0.039062500000, -4.687500000000, 1490936063
-0.178466796875, 0.593505859375, 0.883789062500, -4.843750000000, 0.039062500000, -4.687500000000, 1490936063
-0.178466796875, 0.593505859375, 0.883789062500, -4.843750000000, 0.039062500000, -4.687500000000, 1490936063
-0.178466796875, 0.593505859375, 0.883789062500, -4.843750000000, 0.039062500000, -4.687500000000, 1490936063
-0.178466796875, 0.593505859375, 0.883789062500, -4.843750000000, 0.039062500000, -4.687500000000, 1490936063
-0.178466796875, 0.593505859375, 0.883789062500, -4.843750000000, 0.039062500000, -4.687500000000, 1490936063
-0.178466796875, 0.593505859375, 0.883789062500, -4.843750000000, 0.039062500000, -4.687500000000, 1490936063
-0.178466796875, 0.593505859375, 0.883789062500, -4.843750000000, 0.039062500000, -4.687500000000, 1490936063
-0.165771484375, 0.524658203125, 0.877441406250, -4.726562500000, 0.750000000000, -3.195312500000, 1490936063
-0.165771484375, 0.524658203125, 0.877441406250, -4.726562500000, 0.750000000000, -3.195312500000, 1490936063
-0.165771484375, 0.524658203125, 0.877441406250, -4.726562500000, 0.750000000000, -3.195312500000, 1490936063
-0.165771484375, 0.524658203125, 0.877441406250, -4.726562500000, 0.750000000000, -3.195312500000, 1490936063
-0.165771484375, 0.524658203125, 0.877441406250, -4.726562500000, 0.750000000000, -3.195312500000, 1490936063
-0.165771484375, 0.524658203125, 0.877441406250, -4.726562500000, 0.750000000000, -3.195312500000, 1490936063
-0.169921875000, 0.523437500000, 0.903320312500, -3.156250000000, -2.335937500000, -4.265625000000, 1490936063
-0.170654296875, 0.501220703125, 0.878662109375, -3.695312500000, -2.250000000000, -0.398437500000, 1490936063
-0.170654296875, 0.501220703125, 0.878662109375, -3.695312500000, -2.250000000000, -0.398437500000, 1490936063
-0.170654296875, 0.501220703125, 0.878662109375, -3.695312500000, -2.250000000000, -0.398437500000, 1490936063
-0.170654296875, 0.501220703125, 0.878662109375, -3.695312500000, -2.250000000000, -0.398437500000, 1490936063
-0.208007812500, 0.545654296875, 0.798828125000, -4.968750000000, 2.937500000000, -4.851562500000, 1490936063
-0.208007812500, 0.545654296875, 0.798828125000, -4.968750000000, 2.937500000000, -4.851562500000, 1490936063
-0.208007812500, 0.545654296875, 0.798828125000, -4.968750000000, 2.937500000000, -4.851562500000, 1490936063
-0.208007812500, 0.545654296875, 0.798828125000, -4.968750000000, 2.937500000000, -4.851562500000, 1490936063
-0.208007812500, 0.545654296875, 0.798828125000, -4.968750000000, 2.937500000000, -4.851562500000, 1490936063
-0.208007812500, 0.545654296875, 0.798828125000, -4.968750000000, 2.937500000000, -4.851562500000, 1490936063
-0.271484375000, 0.556640625000, 0.799072265625, -4.601562500000, 0.726562500000, 0.476562500000, 1490936063
-0.271484375000, 0.556640625000, 0.799072265625, -4.601562500000, 0.726562500000, 0.476562500000, 1490936063
-0.271484375000, 0.556640625000, 0.799072265625, -4.601562500000, 0.726562500000, 0.476562500000, 1490936063
-0.271484375000, 0.556640625000, 0.799072265625, -4.601562500000, 0.726562500000, 0.476562500000, 1490936063
-0.271484375000, 0.556640625000, 0.799072265625, -4.601562500000, 0.726562500000, 0.476562500000, 1490936063
-0.200927734375, 0.576904296875, 0.792236328125, -3.976562500000, -2.429687500000, -1.296875000000, 1490936063
-0.160644531250, 0.484619140625, 0.867187500000, -6.453125000000, 0.867187500000, -1.085937500000, 1490936063
-0.160644531250, 0.484619140625, 0.867187500000, -6.453125000000, 0.867187500000, -1.085937500000, 1490936063
-0.160644531250, 0.484619140625, 0.867187500000, -6.453125000000, 0.867187500000, -1.085937500000, 1490936063
-0.160644531250, 0.484619140625, 0.867187500000, -6.453125000000, 0.867187500000, -1.085937500000, 1490936063
-0.160644531250, 0.484619140625, 0.867187500000, -6.453125000000, 0.867187500000, -1.085937500000, 1490936063
-0.160644531250, 0.484619140625, 0.867187500000, -6.453125000000, 0.867187500000, -1.085937500000, 1490936063
-0.250000000000, 0.476318359375, 0.898681640625, -4.953125000000, 0.039062500000, 0.289062500000, 1490936063
-0.250000000000, 0.476318359375, 0.898681640625, -4.953125000000, 0.039062500000, 0.289062500000, 1490936063
-0.121582031250, 0.567626953125, 0.805908203125, -6.140625000000, -2.117187500000, -3.148437500000, 1490936064
-0.207763671875, 0.427490234375, 0.906005859375, -4.101562500000, 0.742187500000, -1.187500000000, 1490936064
-0.207763671875, 0.427490234375, 0.906005859375, -4.101562500000, 0.742187500000, -1.187500000000, 1490936064
-0.207763671875, 0.427490234375, 0.906005859375, -4.101562500000, 0.742187500000, -1.187500000000, 1490936064
-0.123779296875, 0.552001953125, 0.806884765625, -4.375000000000, -2.460937500000, -4.437500000000, 1490936064
-0.123779296875, 0.552001953125, 0.806884765625, -4.375000000000, -2.460937500000, -4.437500000000, 1490936064
-0.123779296875, 0.552001953125, 0.806884765625, -4.375000000000, -2.460937500000, -4.437500000000, 1490936064
-0.123779296875, 0.552001953125, 0.806884765625, -4.375000000000, -2.460937500000, -4.437500000000, 1490936064
-0.123779296875, 0.552001953125, 0.806884765625, -4.375000000000, -2.460937500000, -4.437500000000, 1490936064
-0.123779296875, 0.552001953125, 0.806884765625, -4.375000000000, -2.460937500000, -4.437500000000, 1490936064
-0.123779296875, 0.552001953125, 0.806884765625, -4.375000000000, -2.460937500000, -4.437500000000, 1490936064
-0.123779296875, 0.552001953125, 0.806884765625, -4.375000000000, -2.460937500000, -4.437500000000, 1490936064
-0.194580078125, 0.490234375000, 0.841064453125, -4.945312500000, 0.734375000000, -1.304687500000, 1490936064
-0.194580078125, 0.490234375000, 0.841064453125, -4.945312500000, 0.734375000000, -1.304687500000, 1490936064
-0.194580078125, 0.490234375000, 0.841064453125, -4.945312500000, 0.734375000000, -1.304687500000, 1490936064
-0.194580078125, 0.490234375000, 0.841064453125, -4.945312500000, 0.734375000000, -1.304687500000, 1490936064
-0.194580078125, 0.490234375000, 0.841064453125, -4.945312500000, 0.734375000000, -1.304687500000, 1490936064
-0.203613281250, 0.565185546875, 0.795166015625, -4.820312500000, 0.156250000000, -1.976562500000, 1490936064
-0.203613281250, 0.565185546875, 0.795166015625, -4.820312500000, 0.156250000000, -1.976562500000, 1490936064
-0.203613281250, 0.565185546875, 0.795166015625, -4.820312500000, 0.156250000000, -1.976562500000, 1490936064
-0.203613281250, 0.565185546875, 0.795166015625, -4.820312500000, 0.156250000000, -1.976562500000, 1490936064
-0.203613281250, 0.565185546875, 0.795166015625, -4.820312500000, 0.156250000000, -1.976562500000, 1490936064
-0.203613281250, 0.565185546875, 0.795166015625, -4.820312500000, 0.156250000000, -1.976562500000, 1490936064
-0.203613281250, 0.565185546875, 0.795166015625, -4.820312500000, 0.156250000000, -1.976562500000, 1490936064
-0.037597656250, 0.539794921875, 0.891845703125, -4.031250000000, -0.875000000000, -2.984375000000, 1490936064
-0.107910156250, 0.512695312500, 0.876953125000, -1.562500000000, -0.664062500000, -1.156250000000, 1490936064
-0.107910156250, 0.512695312500, 0.876953125000, -1.562500000000, -0.664062500000, -1.156250000000, 1490936064
-0.107910156250, 0.512695312500, 0.876953125000, -1.562500000000, -0.664062500000, -1.156250000000, 1490936064
-0.107910156250, 0.512695312500, 0.876953125000, -1.562500000000, -0.664062500000, -1.156250000000, 1490936064
-0.107910156250, 0.512695312500, 0.876953125000, -1.562500000000, -0.664062500000, -1.156250000000, 1490936064
-0.107910156250, 0.512695312500, 0.876953125000, -1.562500000000, -0.664062500000, -1.156250000000, 1490936064
-0.107910156250, 0.512695312500, 0.876953125000, -1.562500000000, -0.664062500000, -1.156250000000, 1490936064
-0.107910156250, 0.512695312500, 0.876953125000, -1.562500000000, -0.664062500000, -1.156250000000, 1490936064
-0.107910156250, 0.512695312500, 0.876953125000, -1.562500000000, -0.664062500000, -1.156250000000, 1490936064
-0.252929687500, 0.542968750000, 0.892822265625, -1.007812500000, 3.843750000000, -0.671875000000, 1490936064
-0.252929687500, 0.542968750000, 0.892822265625, -1.007812500000, 3.843750000000, -0.671875000000, 1490936064
-0.176757812500, 0.473388671875, 0.793457031250, -3.140625000000, 3.710937500000, -4.125000000000, 1490936064
-0.157470703125, 0.495605468750, 0.827636718750, -6.132812500000, 2.578125000000, -1.351562500000, 1490936064
-0.186279296875, 0.533203125000, 0.887451171875, -6.578125000000, 2.867187500000, -3.414062500000, 1490936064
-0.186279296875, 0.533203125000, 0.887451171875, -6.578125000000, 2.867187500000, -3.414062500000, 1490936064
-0.217773437500, 0.640625000000, 0.782958984375, -3.781250000000, 2.390625000000, -4.109375000000, 1490936064
-0.217773437500, 0.640625000000, 0.782958984375, -3.781250000000, 2.390625000000, -4.109375000000, 1490936064
-0.217773437500, 0.640625000000, 0.782958984375, -3.781250000000, 2.390625000000, -4.109375000000, 1490936064
-0.217773437500, 0.640625000000, 0.782958984375, -3.781250000000, 2.390625000000, -4.109375000000, 1490936064
-0.217773437500, 0.640625000000, 0.782958984375, -3.781250000000, 2.390625000000, -4.109375000000, 1490936064
-0.171386718750, 0.625976562500, 0.901123046875, -4.890625000000, 1.234375000000, -4.875000000000, 1490936064
-0.171386718750, 0.625976562500, 0.901123046875, -4.890625000000, 1.234375000000, -4.875000000000, 1490936064
-0.171386718750, 0.625976562500, 0.901123046875, -4.890625000000, 1.234375000000, -4.875000000000, 1490936064
-0.171386718750, 0.625976562500, 0.901123046875, -4.890625000000, 1.234375000000, -4.875000000000, 1490936064
-0.171386718750, 0.625976562500, 0.901123046875, -4.890625000000, 1.234375000000, -4.875000000000, 1490936064
-0.171386718750, 0.625976562500, 0.901123046875, -4.890625000000, 1.234375000000, -4.875000000000, 1490936064
-0.252929687500, 0.631591796875, 0.860107421875, -4.531250000000, 0.070312500000, -1.625000000000, 1490936064
-0.274658203125, 0.576171875000, 0.863769531250, -3.257812500000, 1.531250000000, -0.906250000000, 1490936064
-0.274658203125, 0.576171875000, 0.863769531250, -3.257812500000, 1.531250000000, -0.906250000000, 1490936064
-0.274658203125, 0.576171875000, 0.863769531250, -3.257812500000, 1.531250000000, -0.906250000000, 1490936064
-0.274658203125, 0.576171875000, 0.863769531250, -3.257812500000, 1.531250000000, -0.906250000000, 1490936064
-0.274658203125, 0.576171875000, 0.863769531250, -3.257812500000, 1.531250000000, -0.906250000000, 1490936064
-0.274658203125, 0.576171875000, 0.863769531250, -3.257812500000, 1.531250000000, -0.906250000000, 1490936064
-0.274658203125, 0.576171875000, 0.863769531250, -3.257812500000, 1.531250000000, -0.906250000000, 1490936064
-0.208496093750, 0.522460937500, 0.879394531250, -1.281250000000, 0.539062500000, -2.132812500000, 1490936065
-0.058105468750, 0.531250000000, 0.829345703125, -3.007812500000, 2.164062500000, -1.601562500000, 1490936065
-0.058105468750, 0.531250000000, 0.829345703125, -3.007812500000, 2.164062500000, -1.601562500000, 1490936065
-0.105957031250, 0.492919921875, 0.737060546875, -0.859375000000, -18.093750000000, -7.554687500000, 1490936065
-0.105957031250, 0.492919921875, 0.737060546875, -0.859375000000, -18.093750000000, -7.554687500000, 1490936065
-0.105957031250, 0.492919921875, 0.737060546875, -0.859375000000, -18.093750000000, -7.554687500000, 1490936065
-0.105957031250, 0.492919921875, 0.737060546875, -0.859375000000, -18.093750000000, -7.554687500000, 1490936065
-0.105957031250, 0.492919921875, 0.737060546875, -0.859375000000, -18.093750000000, -7.554687500000, 1490936065
-0.105957031250, 0.492919921875, 0.737060546875, -0.859375000000, -18.093750000000, -7.554687500000, 1490936065
-0.105957031250, 0.492919921875, 0.737060546875, -0.859375000000, -18.093750000000, -7.554687500000, 1490936065
-0.105957031250, 0.492919921875, 0.737060546875, -0.859375000000, -18.093750000000, -7.554687500000, 1490936065
-0.173095703125, 0.557128906250, 0.877441406250, 0.468750000000, -12.390625000000, -0.593750000000, 1490936065
-0.060058593750, 0.574462890625, 0.718994140625, 7.671875000000, 4.523437500000, 10.023437500000, 1490936065
-0.060058593750, 0.574462890625, 0.718994140625, 7.671875000000, 4.523437500000, 10.023437500000, 1490936065
-0.060058593750, 0.574462890625, 0.718994140625, 7.671875000000, 4.523437500000, 10.023437500000, 1490936065
-0.060058593750, 0.574462890625, 0.718994140625, 7.671875000000, 4.523437500000, 10.023437500000, 1490936065
-0.124755859375, 0.664550781250, 0.889892578125, 5.210937500000, -4.984375000000, 8.085937500000, 1490936065
-0.124755859375, 0.664550781250, 0.889892578125, 5.210937500000, -4.984375000000, 8.085937500000, 1490936065
-0.124755859375, 0.664550781250, 0.889892578125, 5.210937500000, -4.984375000000, 8.085937500000, 1490936065
-0.124755859375, 0.664550781250, 0.889892578125, 5.210937500000, -4.984375000000, 8.085937500000, 1490936065
-0.124755859375, 0.664550781250, 0.889892578125, 5.210937500000, -4.984375000000, 8.085937500000, 1490936065
-0.171142578125, 0.545898437500, 0.847167968750, 38.804687500000, 21.078125000000, 17.250000000000, 1490936065
-0.171142578125, 0.545898437500, 0.847167968750, 38.804687500000, 21.078125000000, 17.250000000000, 1490936065
-0.171142578125, 0.545898437500, 0.847167968750, 38.804687500000, 21.078125000000, 17.250000000000, 1490936065
-0.337890625000, 0.561035156250, 0.911376953125, 78.109375000000, 37.007812500000, 23.726562500000, 1490936065
-0.337890625000, 0.561035156250, 0.911376953125, 78.109375000000, 37.007812500000, 23.726562500000, 1490936065
-0.337890625000, 0.561035156250, 0.911376953125, 78.109375000000, 37.007812500000, 23.726562500000, 1490936065
-0.337890625000, 0.561035156250, 0.911376953125, 78.109375000000, 37.007812500000, 23.726562500000, 1490936065
-0.342041015625, 0.311279296875, 1.051757812500, 95.390625000000, 16.609375000000, 32.468750000000, 1490936065
-0.342041015625, 0.311279296875, 1.051757812500, 95.390625000000, 16.609375000000, 32.468750000000, 1490936065
-0.342041015625, 0.311279296875, 1.051757812500, 95.390625000000, 16.609375000000, 32.468750000000, 1490936065
-0.342041015625, 0.311279296875, 1.051757812500, 95.390625000000, 16.609375000000, 32.468750000000, 1490936065
-0.342041015625, 0.311279296875, 1.051757812500, 95.390625000000, 16.609375000000, 32.468750000000, 1490936065
-0.342041015625, 0.311279296875, 1.051757812500, 95.390625000000, 16.609375000000, 32.468750000000, 1490936065
-0.342041015625, 0.311279296875, 1.051757812500, 95.390625000000, 16.609375000000, 32.468750000000, 1490936065
-0.234863281250, 0.336425781250, 1.040039062500, 73.671875000000, 30.484375000000, 32.242187500000, 1490936065
-0.234863281250, 0.336425781250, 1.040039062500, 73.671875000000, 30.484375000000, 32.242187500000, 1490936065
-0.234863281250, 0.336425781250, 1.040039062500, 73.671875000000, 30.484375000000, 32.242187500000, 1490936065
-0.234863281250, 0.336425781250, 1.040039062500, 73.671875000000, 30.484375000000, 32.242187500000, 1490936065
-0.234863281250, 0.336425781250, 1.040039062500, 73.671875000000, 30.484375000000, 32.242187500000, 1490936065
-0.281738281250, 0.266845703125, 1.008300781250, 75.367187500000, 32.312500000000, 38.539062500000, 1490936065
-0.281738281250, 0.266845703125, 1.008300781250, 75.367187500000, 32.312500000000, 38.539062500000, 1490936065
-0.281738281250, 0.266845703125, 1.008300781250, 75.367187500000, 32.312500000000, 38.539062500000, 1490936065
-0.281738281250, 0.266845703125, 1.008300781250, 75.367187500000, 32.312500000000, 38.539062500000, 1490936065
-0.316650390625, 0.178710937500, 1.001220703125, 69.765625000000, 35.437500000000, 32.835937500000, 1490936065
-0.367187500000, 0.056152343750, 0.960205078125, 73.523437500000, 27.906250000000, 37.234375000000, 1490936065
-0.367187500000, 0.056152343750, 0.960205078125, 73.523437500000, 27.906250000000, 37.234375000000, 1490936065
-0.367187500000, 0.056152343750, 0.960205078125, 73.523437500000, 27.906250000000, 37.234375000000, 1490936065
-0.367187500000, 0.056152343750, 0.960205078125, 73.523437500000, 27.906250000000, 37.234375000000, 1490936065
-0.367187500000, 0.056152343750, 0.960205078125, 73.523437500000, 27.906250000000, 37.234375000000, 1490936065
-0.333251953125, -0.331787109375, 1.015869140625, 63.804687500000, 27.000000000000, 40.968750000000, 1490936065
-0.333251953125, -0.331787109375, 1.015869140625, 63.804687500000, 27.000000000000, 40.968750000000, 1490936065
-0.333251953125, -0.331787109375, 1.015869140625, 63.804687500000, 27.000000000000, 40.968750000000, 1490936065
-0.333251953125, -0.331787109375, 1.015869140625, 63.804687500000, 27.000000000000, 40.968750000000, 1490936065
-0.333251953125, -0.331787109375, 1.015869140625, 63.804687500000, 27.000000000000, 40.968750000000, 1490936065
-0.333251953125, -0.331787109375, 1.015869140625, 63.804687500000, 27.000000000000, 40.968750000000, 1490936065
-0.333251953125, -0.331787109375, 1.015869140625, 63.804687500000, 27.000000000000, 40.968750000000, 1490936065
-0.340087890625, -0.453613281250, 0.789550781250, 31.156250000000, 40.585937500000, 27.796875000000, 1490936065
-0.340087890625, -0.453613281250, 0.789550781250, 31.156250000000, 40.585937500000, 27.796875000000, 1490936065
-0.340087890625, -0.453613281250, 0.789550781250, 31.156250000000, 40.585937500000, 27.796875000000, 1490936065
-0.340087890625, -0.453613281250, 0.789550781250, 31.156250000000, 40.585937500000, 27.796875000000, 1490936065
-0.340087890625, -0.453613281250, 0.789550781250, 31.156250000000, 40.585937500000, 27.796875000000, 1490936065
-0.358154296875, -0.322998046875, 0.650146484375, 49.085937500000, 41.085937500000, 32.320312500000, 1490936065
-0.428710937500, -0.347412109375, 0.733398437500, 49.085937500000, 41.085937500000, 32.320312500000, 1490936065
-0.428710937500, -0.347412109375, 0.733398437500, 49.085937500000, 41.085937500000, 32.320312500000, 1490936065
-0.428710937500, -0.347412109375, 0.733398437500, 49.085937500000, 41.085937500000, 32.320312500000, 1490936065
-0.428710937500, -0.347412109375, 0.733398437500, 49.085937500000, 41.085937500000, 32.320312500000, 1490936065
-0.429443359375, -0.441406250000, 0.712890625000, 22.789062500000, 49.531250000000, 14.773437500000, 1490936065
-0.429443359375, -0.441406250000, 0.712890625000, 22.789062500000, 49.531250000000, 14.773437500000, 1490936065
-0.429443359375, -0.441406250000, 0.712890625000, 22.789062500000, 49.531250000000, 14.773437500000, 1490936065
-0.545654296875, -0.529541015625, 0.623535156250, 15.875000000000, 86.070312500000, -3.562500000000, 1490936066
-0.633544921875, -0.497070312500, 0.530029296875, 20.109375000000, 45.414062500000, 45.070312500000, 1490936066
-0.667480468750, -0.568603515625, 0.568115234375, 28.703125000000, 27.226562500000, 47.445312500000, 1490936066
-0.693359375000, -0.627441406250, 0.499511718750, 27.710937500000, 17.414062500000, 42.039062500000, 1490936066
-0.693359375000, -0.627441406250, 0.499511718750, 27.710937500000, 17.414062500000, 42.039062500000, 1490936066
-0.693359375000, -0.627441406250, 0.499511718750, 27.710937500000, 17.414062500000, 42.039062500000, 1490936066
-0.693359375000, -0.627441406250, 0.499511718750, 27.710937500000, 17.414062500000, 42.039062500000, 1490936066
-0.693359375000, -0.627441406250, 0.499511718750, 27.710937500000, 17.414062500000, 42.039062500000, 1490936066
-0.693359375000, -0.627441406250, 0.499511718750, 27.710937500000, 17.414062500000, 42.039062500000, 1490936066
-0.693359375000, -0.627441406250, 0.499511718750, 27.710937500000, 17.414062500000, 42.039062500000, 1490936066
-0.741943359375, -0.629882812500, 0.482910156250, 12.664062500000, 3.187500000000, 41.117187500000, 1490936066
-0.741943359375, -0.629882812500, 0.482910156250, 12.664062500000, 3.187500000000, 41.117187500000, 1490936066
-0.741943359375, -0.629882812500, 0.482910156250, 12.664062500000, 3.187500000000, 41.117187500000, 1490936066
-0.741943359375, -0.629882812500, 0.482910156250, 12.664062500000, 3.187500000000, 41.117187500000, 1490936066
-0.741943359375, -0.629882812500, 0.482910156250, 12.664062500000, 3.187500000000, 41.117187500000, 1490936066
-0.741943359375, -0.629882812500, 0.482910156250, 12.664062500000, 3.187500000000, 41.117187500000, 1490936066
-0.748046875000, -0.643066406250, 0.414062500000, 32.968750000000, -31.171875000000, 23.257812500000, 1490936066
-0.682373046875, -0.601074218750, 0.473632812500, 32.968750000000, -31.171875000000, 23.257812500000, 1490936066
-0.682373046875, -0.601074218750, 0.473632812500, 32.968750000000, -31.171875000000, 23.257812500000, 1490936066
-0.682373046875, -0.601074218750, 0.473632812500, 32.968750000000, -31.171875000000, 23.257812500000, 1490936066
-0.682373046875, -0.601074218750, 0.473632812500, 32.968750000000, -31.171875000000, 23.257812500000, 1490936066
-0.682373046875, -0.601074218750, 0.473632812500, 32.968750000000, -31.171875000000, 23.257812500000, 1490936066
-0.682373046875, -0.601074218750, 0.473632812500, 32.968750000000, -31.171875000000, 23.257812500000, 1490936066
-0.514160156250, -0.681152343750, 0.458984375000, 30.734375000000, -32.656250000000, 33.148437500000, 1490936066
-0.514160156250, -0.681152343750, 0.458984375000, 30.734375000000, -32.656250000000, 33.148437500000, 1490936066
-0.514160156250, -0.681152343750, 0.458984375000, 30.734375000000, -32.656250000000, 33.148437500000, 1490936066
-0.514160156250, -0.681152343750, 0.458984375000, 30.734375000000, -32.656250000000, 33.148437500000, 1490936066
-0.514160156250, -0.681152343750, 0.458984375000, 30.734375000000, -32.656250000000, 33.148437500000, 1490936066
-0.518310546875, -0.762207031250, 0.486328125000, 28.421875000000, -36.367187500000, 29.937500000000, 1490936066
-0.518310546875, -0.762207031250, 0.486328125000, 28.421875000000, -36.367187500000, 29.937500000000, 1490936066
-0.518310546875, -0.762207031250, 0.486328125000, 28.421875000000, -36.367187500000, 29.937500000000, 1490936066
-0.518310546875, -0.762207031250, 0.486328125000, 28.421875000000, -36.367187500000, 29.937500000000, 1490936066
-0.309570312500, -0.813232421875, 0.511962890625, 23.992187500000, -39.585937500000, 28.765625000000, 1490936066
-0.309570312500, -0.813232421875, 0.511962890625, 23.992187500000, -39.585937500000, 28.765625000000, 1490936066
-0.309570312500, -0.813232421875, 0.511962890625, 23.992187500000, -39.585937500000, 28.765625000000, 1490936066
-0.309570312500, -0.813232421875, 0.511962890625, 23.992187500000, -39.585937500000, 28.765625000000, 1490936066
-0.309570312500, -0.813232421875, 0.511962890625, 23.992187500000, -39.585937500000, 28.765625000000, 1490936066
-0.309570312500, -0.813232421875, 0.511962890625, 23.992187500000, -39.585937500000, 28.765625000000, 1490936066
-0.292724609375, -0.746582031250, 0.496093750000, 25.195312500000, -36.343750000000, 26.203125000000, 1490936066
-0.292724609375, -0.746582031250, 0.496093750000, 25.195312500000, -36.343750000000, 26.203125000000, 1490936066
-0.292724609375, -0.746582031250, 0.496093750000, 25.195312500000, -36.343750000000, 26.203125000000, 1490936066
-0.292724609375, -0.746582031250, 0.496093750000, 25.195312500000, -36.343750000000, 26.203125000000, 1490936066
-0.212158203125, -0.888183593750, 0.487060546875, 18.617187500000, -28.031250000000, 31.320312500000, 1490936066
-0.212158203125, -0.888183593750, 0.487060546875, 18.617187500000, -28.031250000000, 31.320312500000, 1490936066
-0.212158203125, -0.888183593750, 0.487060546875, 18.617187500000, -28.031250000000, 31.320312500000, 1490936066
-0.323730468750, -0.791259765625, 0.498291015625, 15.085937500000, -30.804687500000, 33.601562500000, 1490936066
-0.188964843750, -0.905029296875, 0.539794921875, 18.195312500000, -19.414062500000, 19.859375000000, 1490936066
-0.119873046875, -0.858398437500, 0.399658203125, 13.617187500000, -4.687500000000, 12.398437500000, 1490936066
-0.119873046875, -0.858398437500, 0.399658203125, 13.617187500000, -4.687500000000, 12.398437500000, 1490936066
-0.119873046875, -0.858398437500, 0.399658203125, 13.617187500000, -4.687500000000, 12.398437500000, 1490936066
-0.119873046875, -0.858398437500, 0.399658203125, 13.617187500000, -4.687500000000, 12.398437500000, 1490936066
-0.119873046875, -0.858398437500, 0.399658203125, 13.617187500000, -4.687500000000, 12.398437500000, 1490936066
-0.119873046875, -0.858398437500, 0.399658203125, 13.617187500000, -4.687500000000, 12.398437500000, 1490936066
-0.119873046875, -0.858398437500, 0.399658203125, 13.617187500000, -4.687500000000, 12.398437500000, 1490936066
-0.119873046875, -0.858398437500, 0.399658203125, 13.617187500000, -4.687500000000, 12.398437500000, 1490936066
-0.099121093750, -0.850585937500, 0.380859375000, 20.437500000000, -28.203125000000, 7.742187500000, 1490936066
-0.099121093750, -0.850585937500, 0.380859375000, 20.437500000000, -28.203125000000, 7.742187500000, 1490936066
-0.099121093750, -0.850585937500, 0.380859375000, 20.437500000000, -28.203125000000, 7.742187500000, 1490936066
-0.099121093750, -0.850585937500, 0.380859375000, 20.437500000000, -28.203125000000, 7.742187500000, 1490936066
-0.099121093750, -0.850585937500, 0.380859375000, 20.437500000000, -28.203125000000, 7.742187500000, 1490936066
-0.099121093750, -0.850585937500, 0.380859375000, 20.437500000000, -28.203125000000, 7.742187500000, 1490936066
-0.099121093750, -0.850585937500, 0.380859375000, 20.437500000000, -28.203125000000, 7.742187500000, 1490936066
-0.032714843750, -0.892578125000, 0.401611328125, 16.218750000000, -32.679687500000, 2.617187500000, 1490936066
-0.032714843750, -0.892578125000, 0.401611328125, 16.218750000000, -32.679687500000, 2.617187500000, 1490936066
-0.032714843750, -0.892578125000, 0.401611328125, 16.218750000000, -32.679687500000, 2.617187500000, 1490936066
-0.032714843750, -0.892578125000, 0.401611328125, 16.218750000000, -32.679687500000, 2.617187500000, 1490936066
-0.032714843750, -0.892578125000, 0.401611328125, 16.218750000000, -32.679687500000, 2.617187500000, 1490936066
-0.032714843750, -0.892578125000, 0.401611328125, 16.218750000000, -32.679687500000, 2.617187500000, 1490936066
-0.045654296875, -0.891357421875, 0.377685546875, 14.703125000000, -41.687500000000, -1.359375000000, 1490936067
-0.075195312500, -0.940429687500, 0.399169921875, 11.976562500000, -44.664062500000, -12.476562500000, 1490936067
-0.075195312500, -0.940429687500, 0.399169921875, 11.976562500000, -44.664062500000, -12.476562500000, 1490936067
-0.075195312500, -0.940429687500, 0.399169921875, 11.976562500000, -44.664062500000, -12.476562500000, 1490936067
-0.075195312500, -0.940429687500, 0.399169921875, 11.976562500000, -44.664062500000, -12.476562500000, 1490936067
-0.075195312500, -0.940429687500, 0.399169921875, 11.976562500000, -44.664062500000, -12.476562500000, 1490936067
-0.075195312500, -0.940429687500, 0.399169921875, 11.976562500000, -44.664062500000, -12.476562500000, 1490936067
-0.075195312500, -0.940429687500, 0.399169921875, 11.976562500000, -44.664062500000, -12.476562500000, 1490936067
-0.075195312500, -0.940429687500, 0.399169921875, 11.976562500000, -44.664062500000, -12.476562500000, 1490936067
-0.075195312500, -0.940429687500, 0.399169921875, 11.976562500000, -44.664062500000, -12.476562500000, 1490936067
-0.053710937500, -0.930175781250, 0.411376953125, 9.226562500000, -37.257812500000, -16.554687500000, 1490936067
-0.053710937500, -0.930175781250, 0.411376953125, 9.226562500000, -37.257812500000, -16.554687500000, 1490936067
-0.053710937500, -0.930175781250, 0.411376953125, 9.226562500000, -37.257812500000, -16.554687500000, 1490936067
-0.053710937500, -0.930175781250, 0.411376953125, 9.226562500000, -37.257812500000, -16.554687500000, 1490936067
-0.053710937500, -0.930175781250, 0.411376953125, 9.226562500000, -37.257812500000, -16.554687500000, 1490936067
-0.053710937500, -0.930175781250, 0.411376953125, 9.226562500000, -37.257812500000, -16.554687500000, 1490936067
-0.110595703125, -0.949951171875, 0.364013671875, 6.398437500000, -26.414062500000, -17.757812500000, 1490936067
-0.198242187500, -0.933593750000, 0.414550781250, 9.515625000000, -28.937500000000, -19.164062500000, 1490936067
-0.198242187500, -0.933593750000, 0.414550781250, 9.515625000000, -28.937500000000, -19.164062500000, 1490936067
-0.198242187500, -0.933593750000, 0.414550781250, 13.148437500000, -25.210937500000, -22.101562500000, 1490936067
-0.075195312500, -0.942871093750, 0.434082031250, 6.109375000000, -12.257812500000, -17.765625000000, 1490936067
-0.075195312500, -0.942871093750, 0.434082031250, 6.109375000000, -12.257812500000, -17.765625000000, 1490936067
-0.075195312500, -0.942871093750, 0.434082031250, 6.109375000000, -12.257812500000, -17.765625000000, 1490936067
-0.075195312500, -0.942871093750, 0.434082031250, 6.109375000000, -12.257812500000, -17.765625000000, 1490936067
-0.075195312500, -0.942871093750, 0.434082031250, 6.109375000000, -12.257812500000, -17.765625000000, 1490936067
-0.088378906250, -0.865478515625, 0.386962890625, -2.210937500000, -1.515625000000, -11.531250000000, 1490936067
-0.088378906250, -0.865478515625, 0.386962890625, -2.210937500000, -1.515625000000, -11.531250000000, 1490936067
-0.088378906250, -0.865478515625, 0.386962890625, -2.210937500000, -1.515625000000, -11.531250000000, 1490936067
-0.088378906250, -0.865478515625, 0.386962890625, -2.210937500000, -1.515625000000, -11.531250000000, 1490936067
-0.070312500000, -0.851318359375, 0.376464843750, 3.500000000000, 0.203125000000, -5.203125000000, 1490936067
-0.070312500000, -0.851318359375, 0.376464843750, 3.500000000000, 0.203125000000, -5.203125000000, 1490936067
-0.070312500000, -0.851318359375, 0.376464843750, 3.500000000000, 0.203125000000, -5.203125000000, 1490936067
-0.090576171875, -0.989013671875, 0.374023437500, -14.140625000000, 41.382812500000, 11.414062500000, 1490936067
-0.061767578125, -1.020996093750, 0.309814453125, -3.789062500000, 20.921875000000, 16.101562500000, 1490936067
-0.061767578125, -1.020996093750, 0.309814453125, -3.789062500000, 20.921875000000, 16.101562500000, 1490936067
-0.061767578125, -1.020996093750, 0.309814453125, -3.789062500000, 20.921875000000, 16.101562500000, 1490936067
-0.061767578125, -1.020996093750, 0.309814453125, -3.789062500000, 20.921875000000, 16.101562500000, 1490936067
-0.061767578125, -1.020996093750, 0.309814453125, -3.789062500000, 20.921875000000, 16.101562500000, 1490936067
-0.061767578125, -1.020996093750, 0.309814453125, -3.789062500000, 20.921875000000, 16.101562500000, 1490936067
-0.141601562500, -0.900878906250, 0.368652343750, -8.882812500000, 3.375000000000, -0.812500000000, 1490936067
-0.141601562500, -0.900878906250, 0.368652343750, -8.882812500000, 3.375000000000, -0.812500000000, 1490936067
-0.132812500000, -0.849365234375, 0.387451171875, -2.562500000000, -6.328125000000, -1.390625000000, 1490936067
-0.132812500000, -0.849365234375, 0.387451171875, -2.562500000000, -6.328125000000, -1.390625000000, 1490936067
-0.132812500000, -0.849365234375, 0.387451171875, -2.562500000000, -6.328125000000, -1.390625000000, 1490936067
-0.132812500000, -0.849365234375, 0.387451171875, -2.562500000000, -6.328125000000, -1.390625000000, 1490936067
-0.132812500000, -0.849365234375, 0.387451171875, -2.562500000000, -6.328125000000, -1.390625000000, 1490936067
-0.132812500000, -0.849365234375, 0.387451171875, -2.562500000000, -6.328125000000, -1.390625000000, 1490936067
-0.132812500000, -0.849365234375, 0.387451171875, -2.562500000000, -6.328125000000, -1.390625000000, 1490936067
-0.132812500000, -0.849365234375, 0.387451171875, -2.562500000000, -6.328125000000, -1.390625000000, 1490936067
-0.049804687500, -0.853027343750, 0.294921875000, -6.312500000000, -8.578125000000, -1.835937500000, 1490936067
-0.049804687500, -0.853027343750, 0.294921875000, -6.312500000000, -8.578125000000, -1.835937500000, 1490936067
-0.049804687500, -0.853027343750, 0.294921875000, -6.312500000000, -8.578125000000, -1.835937500000, 1490936067
-0.049804687500, -0.853027343750, 0.294921875000, -6.312500000000, -8.578125000000, -1.835937500000, 1490936067
-0.049804687500, -0.853027343750, 0.294921875000, -6.312500000000, -8.578125000000, -1.835937500000, 1490936067
-0.049804687500, -0.853027343750, 0.294921875000, -6.312500000000, -8.578125000000, -1.835937500000, 1490936067
-0.117675781250, -0.865966796875, 0.373779296875, -6.023437500000, -8.406250000000, -3.921875000000, 1490936067
-0.037841796875, -0.902343750000, 0.367431640625, -5.132812500000, -4.078125000000, -1.648437500000, 1490936067
-0.054443359375, -0.920654296875, 0.370361328125, -8.468750000000, 2.367187500000, -5.000000000000, 1490936067
-0.054443359375, -0.920654296875, 0.370361328125, -8.468750000000, 2.367187500000, -5.000000000000, 1490936067
-0.054443359375, -0.920654296875, 0.370361328125, -8.468750000000, 2.367187500000, -5.000000000000, 1490936067
-0.096679687500, -0.864746093750, 0.428710937500, -1.570312500000, 2.468750000000, -0.421875000000, 1490936067
-0.096679687500, -0.864746093750, 0.428710937500, -1.570312500000, 2.468750000000, -0.421875000000, 1490936067
-0.096679687500, -0.864746093750, 0.428710937500, -1.570312500000, 2.468750000000, -0.421875000000, 1490936067
-0.096679687500, -0.864746093750, 0.428710937500, -1.570312500000, 2.468750000000, -0.421875000000, 1490936067
-0.096679687500, -0.864746093750, 0.428710937500, -1.570312500000, 2.468750000000, -0.421875000000, 1490936067
-0.096679687500, -0.864746093750, 0.428710937500, -1.570312500000, 2.468750000000, -0.421875000000, 1490936068
-0.096679687500, -0.864746093750, 0.428710937500, -1.570312500000, 2.468750000000, -0.421875000000, 1490936068
-0.096679687500, -0.864746093750, 0.428710937500, -1.570312500000, 2.468750000000, -0.421875000000, 1490936068
-0.140869140625, -0.860107421875, 0.411132812500, -5.343750000000, 1.562500000000, -3.390625000000, 1490936068
-0.105957031250, -0.900146484375, 0.411621093750, -5.421875000000, 3.484375000000, -3.203125000000, 1490936068
-0.105957031250, -0.900146484375, 0.411621093750, -5.421875000000, 3.484375000000, -3.203125000000, 1490936068
-0.105957031250, -0.900146484375, 0.411621093750, -5.421875000000, 3.484375000000, -3.203125000000, 1490936068
-0.105957031250, -0.900146484375, 0.411621093750, -5.421875000000, 3.484375000000, -3.203125000000, 1490936068
-0.105957031250, -0.900146484375, 0.411621093750, -5.421875000000, 3.484375000000, -3.203125000000, 1490936068
-0.105957031250, -0.900146484375, 0.411621093750, -5.421875000000, 3.484375000000, -3.203125000000, 1490936068
-0.135986328125, -0.922119140625, 0.361572265625, -5.484375000000, 6.515625000000, -6.625000000000, 1490936068
-0.135986328125, -0.922119140625, 0.361572265625, -5.484375000000, 6.515625000000, -6.625000000000, 1490936068
-0.146484375000, -0.900634765625, 0.346191406250, -6.523437500000, 3.742187500000, -6.351562500000, 1490936068
-0.146484375000, -0.900634765625, 0.346191406250, -6.523437500000, 3.742187500000, -6.351562500000, 1490936068
-0.146484375000, -0.900634765625, 0.346191406250, -6.523437500000, 3.742187500000, -6.351562500000, 1490936068
-0.146484375000, -0.900634765625, 0.346191406250, -6.523437500000, 3.742187500000, -6.351562500000, 1490936068
-0.147949218750, -0.862792968750, 0.291015625000, -3.601562500000, 3.648437500000, -6.093750000000, 1490936068
-0.147949218750, -0.862792968750, 0.291015625000, -3.601562500000, 3.648437500000, -6.093750000000, 1490936068
-0.147949218750, -0.862792968750, 0.291015625000, -3.601562500000, 3.648437500000, -6.093750000000, 1490936068
-0.147949218750, -0.862792968750, 0.291015625000, -3.601562500000, 3.648437500000, -6.093750000000, 1490936068
-0.147949218750, -0.862792968750, 0.291015625000, -3.601562500000, 3.648437500000, -6.093750000000, 1490936068
-0.097167968750, -0.851806640625, 0.357666015625, -6.406250000000, 4.945312500000, -8.398437500000, 1490936068
-0.132812500000, -0.918701171875, 0.437988281250, -4.296875000000, 4.164062500000, -4.140625000000, 1490936068
-0.114746093750, -0.955810546875, 0.374511718750, -2.289062500000, 2.750000000000, -3.406250000000, 1490936068
-0.114746093750, -0.955810546875, 0.374511718750, -2.289062500000, 2.750000000000, -3.406250000000, 1490936068
-0.170654296875, -0.874267578125, 0.366943359375, -1.367187500000, 2.000000000000, -2.523437500000, 1490936068
-0.132812500000, -0.932617187500, 0.450195312500, -1.828125000000, 1.445312500000, -1.820312500000, 1490936068
-0.132812500000, -0.932617187500, 0.450195312500, -1.828125000000, 1.445312500000, -1.820312500000, 1490936068
-0.132812500000, -0.932617187500, 0.450195312500, -1.828125000000, 1.445312500000, -1.820312500000, 1490936068
-0.132812500000, -0.932617187500, 0.450195312500, -1.828125000000, 1.445312500000, -1.820312500000, 1490936068
-0.132812500000, -0.932617187500, 0.450195312500, -1.828125000000, 1.445312500000, -1.820312500000, 1490936068
-0.132812500000, -0.932617187500, 0.450195312500, -1.828125000000, 1.445312500000, -1.820312500000, 1490936068
-0.132812500000, -0.932617187500, 0.450195312500, -1.828125000000, 1.445312500000, -1.820312500000, 1490936068
-0.116210937500, -0.844970703125, 0.405517578125, -4.421875000000, -0.023437500000, -1.343750000000, 1490936068
-0.116210937500, -0.844970703125, 0.405517578125, -4.421875000000, -0.023437500000, -1.343750000000, 1490936068
-0.116210937500, -0.844970703125, 0.405517578125, -4.421875000000, -0.023437500000, -1.343750000000, 1490936068
-0.116210937500, -0.844970703125, 0.405517578125, -4.421875000000, -0.023437500000, -1.343750000000, 1490936068
-0.116210937500, -0.844970703125, 0.405517578125, -4.421875000000, -0.023437500000, -1.343750000000, 1490936068
-0.116210937500, -0.844970703125, 0.405517578125, -4.421875000000, -0.023437500000, -1.343750000000, 1490936068
-0.207763671875, -0.845214843750, 0.449462890625, -1.992187500000, 0.023437500000, -2.125000000000, 1490936068
-0.207763671875, -0.845214843750, 0.449462890625, -1.992187500000, 0.023437500000, -2.125000000000, 1490936068
-0.207763671875, -0.845214843750, 0.449462890625, -1.992187500000, 0.023437500000, -2.125000000000, 1490936068
-0.130126953125, -0.939453125000, 0.307373046875, -6.109375000000, -0.601562500000, -1.546875000000, 1490936068
-0.130126953125, -0.939453125000, 0.307373046875, -6.109375000000, -0.601562500000, -1.546875000000, 1490936068
-0.130126953125, -0.939453125000, 0.307373046875, -6.109375000000, -0.601562500000, -1.546875000000, 1490936068
-0.130126953125, -0.939453125000, 0.307373046875, -6.109375000000, -0.601562500000, -1.546875000000, 1490936068
-0.130126953125, -0.939453125000, 0.307373046875, -6.109375000000, -0.601562500000, -1.546875000000, 1490936068
-0.130126953125, -0.939453125000, 0.307373046875, -6.109375000000, -0.601562500000, -1.546875000000, 1490936068
-0.130126953125, -0.939453125000, 0.307373046875, -6.109375000000, -0.601562500000, -1.546875000000, 1490936068
