ACC_X,ACC_Y,ACC_Z,G_X,G_Y,G_Z,Unix Time
-0.105957031250, -0.799072265625, 0.636718750000, -2.507812500000, -0.617187500000, -1.953125000000, 1490936441
-0.093261718750, -0.849609375000, 0.575683593750, 0.742187500000, 2.539062500000, -2.328125000000, 1490936442
0.026367187500, -0.881835937500, 0.516357421875, -6.570312500000, -1.414062500000, -6.515625000000, 1490936442
0.026367187500, -0.881835937500, 0.516357421875, -6.570312500000, -1.414062500000, -6.515625000000, 1490936442
-0.106689453125, -0.880126953125, 0.570068359375, 1.117187500000, 1.351562500000, -2.484375000000, 1490936442
-0.106689453125, -0.880126953125, 0.570068359375, 1.117187500000, 1.351562500000, -2.484375000000, 1490936442
-0.106689453125, -0.880126953125, 0.570068359375, 1.117187500000, 1.351562500000, -2.484375000000, 1490936442
-0.106689453125, -0.880126953125, 0.570068359375, 1.117187500000, 1.351562500000, -2.484375000000, 1490936442
-0.106689453125, -0.880126953125, 0.570068359375, 1.117187500000, 1.351562500000, -2.484375000000, 1490936442
-0.106689453125, -0.880126953125, 0.570068359375, 1.117187500000, 1.351562500000, -2.484375000000, 1490936442
-0.106689453125, -0.880126953125, 0.570068359375, 1.117187500000, 1.351562500000, -2.484375000000, 1490936442
-0.095703125000, -0.819335937500, 0.583984375000, -3.117187500000, -2.414062500000, -3.492187500000, 1490936442
-0.095703125000, -0.819335937500, 0.583984375000, -3.117187500000, -2.414062500000, -3.492187500000, 1490936442
-0.095703125000, -0.819335937500, 0.583984375000, -3.117187500000, -2.414062500000, -3.492187500000, 1490936442
-0.095703125000, -0.819335937500, 0.583984375000, -3.117187500000, -2.414062500000, -3.492187500000, 1490936442
-0.095703125000, -0.819335937500, 0.583984375000, -3.117187500000, -2.414062500000, -3.492187500000, 1490936442
-0.095703125000, -0.819335937500, 0.583984375000, -3.117187500000, -2.414062500000, -3.492187500000, 1490936442
-0.089843750000, -0.902343750000, 0.565673828125, -4.351562500000, 2.296875000000, -2.671875000000, 1490936442
-0.089843750000, -0.902343750000, 0.565673828125, -4.351562500000, 2.296875000000, -2.671875000000, 1490936442
-0.026855468750, -0.900878906250, 0.546875000000, -1.625000000000, -1.726562500000, -4.562500000000, 1490936442
-0.026855468750, -0.900878906250, 0.546875000000, -1.625000000000, -1.726562500000, -4.562500000000, 1490936442
-0.026855468750, -0.900878906250, 0.546875000000, -1.625000000000, -1.726562500000, -4.562500000000, 1490936442
-0.026855468750, -0.900878906250, 0.546875000000, -1.625000000000, -1.726562500000, -4.562500000000, 1490936442
-0.026855468750, -0.900878906250, 0.546875000000, -1.625000000000, -1.726562500000, -4.562500000000, 1490936442
-0.190673828125, -0.829345703125, 0.540283203125, -6.867187500000, -2.835937500000, -3.507812500000, 1490936442
-0.017089843750, -0.942138671875, 0.545166015625, -6.867187500000, -2.835937500000, -3.507812500000, 1490936442
-0.017089843750, -0.942138671875, 0.545166015625, -6.867187500000, -2.835937500000, -3.507812500000, 1490936442
-0.017089843750, -0.942138671875, 0.545166015625, -6.867187500000, -2.835937500000, -3.507812500000, 1490936442
-0.017089843750, -0.942138671875, 0.545166015625, -6.867187500000, -2.835937500000, -3.507812500000, 1490936442
-0.017089843750, -0.942138671875, 0.545166015625, -6.867187500000, -2.835937500000, -3.507812500000, 1490936442
-0.072021484375, -0.829345703125, 0.557128906250, -6.507812500000, -1.062500000000, -4.390625000000, 1490936442
-0.072021484375, -0.829345703125, 0.557128906250, -6.507812500000, -1.062500000000, -4.390625000000, 1490936442
-0.072021484375, -0.829345703125, 0.557128906250, -6.507812500000, -1.062500000000, -4.390625000000, 1490936442
-0.090332031250, -0.849365234375, 0.701660156250, -4.046875000000, -0.601562500000, -2.820312500000, 1490936442
-0.090332031250, -0.849365234375, 0.701660156250, -4.046875000000, -0.601562500000, -2.820312500000, 1490936442
-0.090332031250, -0.849365234375, 0.701660156250, -4.046875000000, -0.601562500000, -2.820312500000, 1490936442
-0.090332031250, -0.849365234375, 0.701660156250, -4.046875000000, -0.601562500000, -2.820312500000, 1490936442
-0.086181640625, -0.792724609375, 0.568847656250, -4.718750000000, 1.195312500000, -3.742187500000, 1490936442
-0.086181640625, -0.792724609375, 0.568847656250, -4.718750000000, 1.195312500000, -3.742187500000, 1490936442
-0.086181640625, -0.792724609375, 0.568847656250, -4.718750000000, 1.195312500000, -3.742187500000, 1490936442
-0.045410156250, -0.794677734375, 0.589111328125, -3.148437500000, 2.335937500000, -1.460937500000, 1490936442
-0.045410156250, -0.794677734375, 0.589111328125, -3.148437500000, 2.335937500000, -1.460937500000, 1490936442
-0.045410156250, -0.794677734375, 0.589111328125, -3.148437500000, 2.335937500000, -1.460937500000, 1490936442
-0.037109375000, -0.877929687500, 0.576171875000, -3.492187500000, -1.484375000000, -6.875000000000, 1490936442
-0.037109375000, -0.877929687500, 0.576171875000, -3.492187500000, -1.484375000000, -6.875000000000, 1490936442
-0.037109375000, -0.877929687500, 0.576171875000, -3.492187500000, -1.484375000000, -6.875000000000, 1490936442
-0.083007812500, -0.732910156250, 0.586425781250, -1.500000000000, 2.046875000000, -4.703125000000, 1490936442
-0.083007812500, -0.732910156250, 0.586425781250, -1.500000000000, 2.046875000000, -4.703125000000, 1490936442
-0.083007812500, -0.732910156250, 0.586425781250, -1.500000000000, 2.046875000000, -4.703125000000, 1490936442
-0.083007812500, -0.732910156250, 0.586425781250, -1.500000000000, 2.046875000000, -4.703125000000, 1490936442
-0.126220703125, -0.807373046875, 0.536376953125, -6.507812500000, 0.468750000000, -6.570312500000, 1490936442
-0.126220703125, -0.807373046875, 0.536376953125, -6.507812500000, 0.468750000000, -6.570312500000, 1490936442
-0.126220703125, -0.807373046875, 0.536376953125, -6.507812500000, 0.468750000000, -6.570312500000, 1490936442
-0.126220703125, -0.807373046875, 0.536376953125, -6.507812500000, 0.468750000000, -6.570312500000, 1490936442
-0.126220703125, -0.807373046875, 0.536376953125, -6.507812500000, 0.468750000000, -6.570312500000, 1490936442
-0.102050781250, -0.819335937500, 0.625976562500, -4.664062500000, -2.539062500000, -3.203125000000, 1490936442
-0.102050781250, -0.819335937500, 0.625976562500, -4.664062500000, -2.539062500000, -3.203125000000, 1490936442
-0.102050781250, -0.819335937500, 0.625976562500, -4.664062500000, -2.539062500000, -3.203125000000, 1490936442
-0.102050781250, -0.819335937500, 0.625976562500, -4.664062500000, -2.539062500000, -3.203125000000, 1490936442
0.012695312500, -0.833496093750, 0.535156250000, -4.101562500000, -2.515625000000, -3.953125000000, 1490936442
0.012695312500, -0.833496093750, 0.535156250000, -4.101562500000, -2.515625000000, -3.953125000000, 1490936442
0.012695312500, -0.833496093750, 0.535156250000, -4.101562500000, -2.515625000000, -3.953125000000, 1490936442
0.012695312500, -0.833496093750, 0.535156250000, -4.101562500000, -2.515625000000, -3.953125000000, 1490936442
-0.139160156250, -0.835449218750, 0.589111328125, -4.945312500000, 2.070312500000, -3.875000000000, 1490936442
-0.139160156250, -0.835449218750, 0.589111328125, -4.945312500000, 2.070312500000, -3.875000000000, 1490936442
-0.139160156250, -0.835449218750, 0.589111328125, -4.945312500000, 2.070312500000, -3.875000000000, 1490936442
-0.195068359375, -0.879394531250, 0.538574218750, -4.375000000000, 0.976562500000, -1.773437500000, 1490936442
-0.195068359375, -0.879394531250, 0.538574218750, -4.375000000000, 0.976562500000, -1.773437500000, 1490936442
-0.195068359375, -0.879394531250, 0.538574218750, -4.375000000000, 0.976562500000, -1.773437500000, 1490936442
-0.092041015625, -0.811767578125, 0.563476562500, -4.695312500000, -0.132812500000, -4.828125000000, 1490936443
-0.092041015625, -0.811767578125, 0.563476562500, -4.695312500000, -0.132812500000, -4.828125000000, 1490936443
-0.072998046875, -0.800048828125, 0.490478515625, -4.039062500000, 0.890625000000, -1.960937500000, 1490936443
-0.130126953125, -0.905273437500, 0.488037109375, -1.210937500000, 0.507812500000, -2.718750000000, 1490936443
-0.130126953125, -0.905273437500, 0.488037109375, -1.210937500000, 0.507812500000, -2.718750000000, 1490936443
-0.130126953125, -0.905273437500, 0.488037109375, -1.210937500000, 0.507812500000, -2.718750000000, 1490936443
-0.040283203125, -0.944824218750, 0.585449218750, -4.968750000000, 0.414062500000, -1.671875000000, 1490936443
-0.056884765625, -0.806640625000, 0.593994140625, -0.789062500000, 3.929687500000, -3.421875000000, 1490936443
-0.056884765625, -0.806640625000, 0.593994140625, -0.789062500000, 3.929687500000, -3.421875000000, 1490936443
-0.111572265625, -0.855224609375, 0.533447265625, -2.382812500000, -0.023437500000, -4.570312500000, 1490936443
-0.083740234375, -0.809326171875, 0.544433593750, -2.117187500000, 1.101562500000, -1.617187500000, 1490936443
-0.083740234375, -0.809326171875, 0.544433593750, -2.117187500000, 1.101562500000, -1.617187500000, 1490936443
-0.083740234375, -0.809326171875, 0.544433593750, -2.117187500000, 1.101562500000, -1.617187500000, 1490936443
-0.083740234375, -0.809326171875, 0.544433593750, -2.117187500000, 1.101562500000, -1.617187500000, 1490936443
-0.083740234375, -0.809326171875, 0.544433593750, -2.117187500000, 1.101562500000, -1.617187500000, 1490936443
-0.083740234375, -0.809326171875, 0.544433593750, -2.117187500000, 1.101562500000, -1.617187500000, 1490936443
-0.083740234375, -0.809326171875, 0.544433593750, -2.117187500000, 1.101562500000, -1.617187500000, 1490936443
-0.040039062500, -0.847412109375, 0.633544921875, -3.328125000000, 0.203125000000, -4.757812500000, 1490936443
-0.040039062500, -0.847412109375, 0.633544921875, -3.328125000000, 0.203125000000, -4.757812500000, 1490936443
-0.040039062500, -0.847412109375, 0.633544921875, -3.328125000000, 0.203125000000, -4.757812500000, 1490936443
-0.040039062500, -0.847412109375, 0.633544921875, -3.328125000000, 0.203125000000, -4.757812500000, 1490936443
-0.061279296875, -0.840087890625, 0.554931640625, -3.507812500000, 0.703125000000, -4.757812500000, 1490936443
-0.061279296875, -0.840087890625, 0.554931640625, -3.507812500000, 0.703125000000, -4.757812500000, 1490936443
-0.061279296875, -0.840087890625, 0.554931640625, -3.507812500000, 0.703125000000, -4.757812500000, 1490936443
-0.149902343750, -0.792724609375, 0.532226562500, -4.257812500000, -2.492187500000, -4.234375000000, 1490936443
-0.096923828125, -0.967773437500, 0.587158203125, -2.484375000000, -0.273437500000, -2.875000000000, 1490936443
-0.096923828125, -0.967773437500, 0.587158203125, -2.484375000000, -0.273437500000, -2.875000000000, 1490936443
-0.096923828125, -0.967773437500, 0.587158203125, -2.484375000000, -0.273437500000, -2.875000000000, 1490936443
-0.096923828125, -0.967773437500, 0.587158203125, -1.351562500000, 2.179687500000, -1.703125000000, 1490936443
-0.145996093750, -0.803710937500, 0.491699218750, -4.171875000000, 2.164062500000, -3.062500000000, 1490936443
-0.145996093750, -0.803710937500, 0.491699218750, -4.171875000000, 2.164062500000, -3.062500000000, 1490936443
-0.145996093750, -0.803710937500, 0.491699218750, -4.171875000000, 2.164062500000, -3.062500000000, 1490936443
-0.145996093750, -0.803710937500, 0.491699218750, -4.171875000000, 2.164062500000, -3.062500000000, 1490936443
-0.145996093750, -0.803710937500, 0.491699218750, -4.171875000000, 2.164062500000, -3.062500000000, 1490936443
-0.145996093750, -0.803710937500, 0.491699218750, -4.171875000000, 2.164062500000, -3.062500000000, 1490936443
0.003173828125, -0.784423828125, 0.565429687500, -4.421875000000, -0.562500000000, -4.523437500000, 1490936443
0.003173828125, -0.784423828125, 0.565429687500, -4.421875000000, -0.562500000000, -4.523437500000, 1490936443
0.003173828125, -0.784423828125, 0.565429687500, -4.421875000000, -0.562500000000, -4.523437500000, 1490936443
-0.095458984375, -0.808837890625, 0.489257812500, -2.335937500000, 2.406250000000, -1.132812500000, 1490936443
0.024414062500, -0.808837890625, 0.496093750000, -4.312500000000, -1.164062500000, -1.390625000000, 1490936443
0.024414062500, -0.808837890625, 0.496093750000, -4.312500000000, -1.164062500000, -1.390625000000, 1490936443
0.024414062500, -0.808837890625, 0.496093750000, -4.312500000000, -1.164062500000, -1.390625000000, 1490936443
0.024414062500, -0.808837890625, 0.496093750000, -4.312500000000, -1.164062500000, -1.390625000000, 1490936443
-0.079345703125, -0.806152343750, 0.485595703125, -4.257812500000, -0.539062500000, -4.093750000000, 1490936443
-0.058105468750, -0.804931640625, 0.569580078125, 0.390625000000, 0.351562500000, 0.265625000000, 1490936443
-0.058105468750, -0.804931640625, 0.569580078125, 0.390625000000, 0.351562500000, 0.265625000000, 1490936443
-0.058105468750, -0.804931640625, 0.569580078125, 0.390625000000, 0.351562500000, 0.265625000000, 1490936443
-0.058105468750, -0.804931640625, 0.569580078125, 0.390625000000, 0.351562500000, 0.265625000000, 1490936443
-0.058105468750, -0.804931640625, 0.569580078125, 0.390625000000, 0.351562500000, 0.265625000000, 1490936443
-0.036865234375, -0.881591796875, 0.566650390625, -2.757812500000, 2.226562500000, -2.390625000000, 1490936443
-0.135009765625, -0.848876953125, 0.589843750000, 0.242187500000, 0.468750000000, -1.937500000000, 1490936443
-0.135009765625, -0.848876953125, 0.589843750000, 0.242187500000, 0.468750000000, -1.937500000000, 1490936443
-0.135009765625, -0.848876953125, 0.589843750000, 0.242187500000, 0.468750000000, -1.937500000000, 1490936443
-0.132812500000, -0.904052734375, 0.648925781250, -5.000000000000, -0.484375000000, 0.281250000000, 1490936443
-0.132812500000, -0.904052734375, 0.648925781250, -5.000000000000, -0.484375000000, 0.281250000000, 1490936443
-0.132812500000, -0.904052734375, 0.648925781250, -5.000000000000, -0.484375000000, 0.281250000000, 1490936443
-0.132812500000, -0.904052734375, 0.648925781250, -5.000000000000, -0.484375000000, 0.281250000000, 1490936443
-0.132812500000, -0.904052734375, 0.648925781250, -5.000000000000, -0.484375000000, 0.281250000000, 1490936443
-0.132812500000, -0.904052734375, 0.648925781250, -5.000000000000, -0.484375000000, 0.281250000000, 1490936443
-0.132812500000, -0.904052734375, 0.648925781250, -5.000000000000, -0.484375000000, 0.281250000000, 1490936443
-0.062500000000, -0.805175781250, 0.576171875000, -4.492187500000, 1.234375000000, 0.179687500000, 1490936444
-0.062500000000, -0.805175781250, 0.576171875000, -4.492187500000, 1.234375000000, 0.179687500000, 1490936444
-0.062500000000, -0.805175781250, 0.576171875000, -4.492187500000, 1.234375000000, 0.179687500000, 1490936444
-0.062500000000, -0.805175781250, 0.576171875000, -4.492187500000, 1.234375000000, 0.179687500000, 1490936444
-0.062500000000, -0.805175781250, 0.576171875000, -4.492187500000, 1.234375000000, 0.179687500000, 1490936444
-0.062500000000, -0.805175781250, 0.576171875000, -4.492187500000, 1.234375000000, 0.179687500000, 1490936444
-0.062500000000, -0.805175781250, 0.576171875000, -4.492187500000, 1.234375000000, 0.179687500000, 1490936444
-0.033691406250, -0.940185546875, 0.532958984375, -3.578125000000, 2.351562500000, 0.000000000000, 1490936444
-0.033691406250, -0.940185546875, 0.532958984375, -3.578125000000, 2.351562500000, 0.000000000000, 1490936444
-0.033691406250, -0.940185546875, 0.532958984375, -3.578125000000, 2.351562500000, 0.000000000000, 1490936444
-0.045898437500, -0.869384765625, 0.582519531250, -2.000000000000, 1.218750000000, -2.257812500000, 1490936444
-0.045898437500, -0.869384765625, 0.582519531250, -2.000000000000, 1.218750000000, -2.257812500000, 1490936444
-0.045898437500, -0.869384765625, 0.582519531250, -2.000000000000, 1.218750000000, -2.257812500000, 1490936444
-0.045898437500, -0.869384765625, 0.582519531250, -2.000000000000, 1.218750000000, -2.257812500000, 1490936444
0.021728515625, -0.837402343750, 0.490478515625, -4.507812500000, -0.023437500000, 0.656250000000, 1490936444
0.021728515625, -0.837402343750, 0.490478515625, -4.507812500000, -0.023437500000, 0.656250000000, 1490936444
0.021728515625, -0.837402343750, 0.490478515625, -4.507812500000, -0.023437500000, 0.656250000000, 1490936444
0.021728515625, -0.837402343750, 0.490478515625, -4.507812500000, -0.023437500000, 0.656250000000, 1490936444
0.021728515625, -0.837402343750, 0.490478515625, -4.507812500000, -0.023437500000, 0.656250000000, 1490936444
-0.070556640625, -0.902832031250, 0.489257812500, -2.906250000000, 1.187500000000, -0.789062500000, 1490936444
0.014892578125, -0.941894531250, 0.588623046875, -2.804687500000, 2.718750000000, 0.406250000000, 1490936444
0.014892578125, -0.941894531250, 0.588623046875, -2.804687500000, 2.718750000000, 0.406250000000, 1490936444
0.014892578125, -0.941894531250, 0.588623046875, -2.804687500000, 2.718750000000, 0.406250000000, 1490936444
0.014648437500, -0.859375000000, 0.641601562500, -1.046875000000, 0.585937500000, -2.085937500000, 1490936444
0.014648437500, -0.859375000000, 0.641601562500, -1.046875000000, 0.585937500000, -2.085937500000, 1490936444
0.014648437500, -0.859375000000, 0.641601562500, -1.046875000000, 0.585937500000, -2.085937500000, 1490936444
-0.147460937500, -0.793212890625, 0.539062500000, -4.492187500000, -1.007812500000, -4.679687500000, 1490936444
-0.147460937500, -0.793212890625, 0.539062500000, -4.492187500000, -1.007812500000, -4.679687500000, 1490936444
-0.147460937500, -0.793212890625, 0.539062500000, -4.492187500000, -1.007812500000, -4.679687500000, 1490936444
-0.042724609375, -0.879638671875, 0.562500000000, -3.789062500000, -0.890625000000, -1.460937500000, 1490936444
-0.042724609375, -0.879638671875, 0.562500000000, -3.789062500000, -0.890625000000, -1.460937500000, 1490936444
-0.042724609375, -0.879638671875, 0.562500000000, -3.789062500000, -0.890625000000, -1.460937500000, 1490936444
-0.042724609375, -0.879638671875, 0.562500000000, -3.789062500000, -0.890625000000, -1.460937500000, 1490936444
0.015136718750, -0.946044921875, 0.495361328125, 4.234375000000, 2.429687500000, 2.781250000000, 1490936444
-0.084472656250, -0.894287109375, 0.456787109375, -4.265625000000, -0.843750000000, -1.250000000000, 1490936444
-0.084472656250, -0.894287109375, 0.456787109375, -4.265625000000, -0.843750000000, -1.250000000000, 1490936444
-0.001953125000, -0.900146484375, 0.516357421875, -3.250000000000, -1.054687500000, -3.054687500000, 1490936444
-0.071289062500, -0.895996093750, 0.485107421875, -4.882812500000, 0.289062500000, -1.148437500000, 1490936444
-0.071289062500, -0.895996093750, 0.485107421875, -4.882812500000, 0.289062500000, -1.148437500000, 1490936444
-0.071289062500, -0.895996093750, 0.485107421875, -4.882812500000, 0.289062500000, -1.148437500000, 1490936444
-0.071289062500, -0.895996093750, 0.485107421875, -4.882812500000, 0.289062500000, -1.148437500000, 1490936444
-0.071289062500, -0.895996093750, 0.485107421875, -4.882812500000, 0.289062500000, -1.148437500000, 1490936444
-0.071289062500, -0.895996093750, 0.485107421875, -4.882812500000, 0.289062500000, -1.148437500000, 1490936444
-0.070800781250, -0.799804687500, 0.485351562500, -1.992187500000, 0.554687500000, -0.242187500000, 1490936444
0.000976562500, -0.903076171875, 0.501953125000, -1.312500000000, 0.742187500000, -2.992187500000, 1490936444
0.000976562500, -0.903076171875, 0.501953125000, -1.312500000000, 0.742187500000, -2.992187500000, 1490936444
0.000976562500, -0.903076171875, 0.501953125000, -1.312500000000, 0.742187500000, -2.992187500000, 1490936444
0.000976562500, -0.903076171875, 0.501953125000, -1.312500000000, 0.742187500000, -2.992187500000, 1490936444
0.000976562500, -0.903076171875, 0.501953125000, -1.312500000000, 0.742187500000, -2.992187500000, 1490936444
-0.031250000000, -0.798339843750, 0.470214843750, -1.187500000000, -0.156250000000, -2.843750000000, 1490936444
-0.031250000000, -0.798339843750, 0.470214843750, -1.187500000000, -0.156250000000, -2.843750000000, 1490936444
-0.031250000000, -0.798339843750, 0.470214843750, -1.187500000000, -0.156250000000, -2.843750000000, 1490936444
-0.035156250000, -0.795654296875, 0.516113281250, -1.953125000000, 0.539062500000, -1.156250000000, 1490936444
-0.035156250000, -0.795654296875, 0.516113281250, -1.953125000000, 0.539062500000, -1.156250000000, 1490936444
-0.035156250000, -0.795654296875, 0.516113281250, -1.953125000000, 0.539062500000, -1.156250000000, 1490936444
-0.033447265625, -0.798339843750, 0.494384765625, -4.593750000000, 2.804687500000, -3.109375000000, 1490936444
-0.033447265625, -0.798339843750, 0.494384765625, -4.593750000000, 2.804687500000, -3.109375000000, 1490936444
-0.033447265625, -0.798339843750, 0.494384765625, -4.593750000000, 2.804687500000, -3.109375000000, 1490936444
-0.033447265625, -0.798339843750, 0.494384765625, -4.593750000000, 2.804687500000, -3.109375000000, 1490936444
-0.033447265625, -0.798339843750, 0.494384765625, -4.593750000000, 2.804687500000, -3.109375000000, 1490936444
-0.037597656250, -0.884521484375, 0.575195312500, -2.000000000000, 2.093750000000, -4.125000000000, 1490936444
-0.037597656250, -0.884521484375, 0.575195312500, -2.000000000000, 2.093750000000, -4.125000000000, 1490936444
-0.037597656250, -0.884521484375, 0.575195312500, -2.000000000000, 2.093750000000, -4.125000000000, 1490936444
-0.051513671875, -0.803955078125, 0.513183593750, -4.960937500000, -1.796875000000, -3.273437500000, 1490936444
-0.148193359375, -0.940917968750, 0.487548828125, -1.585937500000, 0.023437500000, -4.429687500000, 1490936444
-0.148193359375, -0.940917968750, 0.487548828125, -1.585937500000, 0.023437500000, -4.429687500000, 1490936444
-0.148193359375, -0.940917968750, 0.487548828125, -1.585937500000, 0.023437500000, -4.429687500000, 1490936444
-0.148193359375, -0.940917968750, 0.487548828125, -1.585937500000, 0.023437500000, -4.429687500000, 1490936444
0.031250000000, -0.791015625000, 0.592773437500, -5.125000000000, -4.093750000000, -4.804687500000, 1490936444
-0.083984375000, -0.821289062500, 0.575195312500, 2.531250000000, 0.312500000000, -4.562500000000, 1490936445
-0.083984375000, -0.821289062500, 0.575195312500, 2.531250000000, 0.312500000000, -4.562500000000, 1490936445
-0.083984375000, -0.821289062500, 0.575195312500, 2.531250000000, 0.312500000000, -4.562500000000, 1490936445
-0.083984375000, -0.821289062500, 0.575195312500, 2.531250000000, 0.312500000000, -4.562500000000, 1490936445
-0.083984375000, -0.821289062500, 0.575195312500, 2.531250000000, 0.312500000000, -4.562500000000, 1490936445
-0.083984375000, -0.821289062500, 0.575195312500, 2.531250000000, 0.312500000000, -4.562500000000, 1490936445
-0.090576171875, -0.961914062500, 0.475341796875, -5.921875000000, 0.109375000000, -1.953125000000, 1490936445
-0.090576171875, -0.961914062500, 0.475341796875, -5.921875000000, 0.109375000000, -1.953125000000, 1490936445
-0.090576171875, -0.961914062500, 0.475341796875, -5.921875000000, 0.109375000000, -1.953125000000, 1490936445
-0.072509765625, -0.948486328125, 0.486328125000, -6.593750000000, 0.953125000000, -1.789062500000, 1490936445
-0.072509765625, -0.948486328125, 0.486328125000, -6.593750000000, 0.953125000000, -1.789062500000, 1490936445
0.029785156250, -0.857910156250, 0.472412109375, -6.117187500000, -0.804687500000, -2.710937500000, 1490936445
-0.090332031250, -0.727783203125, 0.533203125000, -0.093750000000, -2.632812500000, -4.226562500000, 1490936445
0.023925781250, -0.946289062500, 0.562988281250, 0.101562500000, -0.835937500000, -4.796875000000, 1490936445
0.023925781250, -0.946289062500, 0.562988281250, 0.101562500000, -0.835937500000, -4.796875000000, 1490936445
0.023925781250, -0.946289062500, 0.562988281250, 0.101562500000, -0.835937500000, -4.796875000000, 1490936445
-0.146484375000, -0.885986328125, 0.576660156250, -0.562500000000, -4.265625000000, -4.070312500000, 1490936445
-0.146484375000, -0.885986328125, 0.576660156250, -0.562500000000, -4.265625000000, -4.070312500000, 1490936445
-0.146484375000, -0.885986328125, 0.576660156250, -0.562500000000, -4.265625000000, -4.070312500000, 1490936445
-0.146484375000, -0.885986328125, 0.576660156250, -0.562500000000, -4.265625000000, -4.070312500000, 1490936445
-0.146484375000, -0.885986328125, 0.576660156250, -0.562500000000, -4.265625000000, -4.070312500000, 1490936445
-0.146484375000, -0.885986328125, 0.576660156250, -0.562500000000, -4.265625000000, -4.070312500000, 1490936445
0.011230468750, -0.829833984375, 0.473388671875, 0.914062500000, -7.390625000000, -8.296875000000, 1490936445
-0.029785156250, -0.802490234375, 0.436767578125, 5.132812500000, -8.656250000000, -5.046875000000, 1490936445
-0.029785156250, -0.802490234375, 0.436767578125, 5.132812500000, -8.656250000000, -5.046875000000, 1490936445
-0.029785156250, -0.802490234375, 0.436767578125, 5.132812500000, -8.656250000000, -5.046875000000, 1490936445
-0.029785156250, -0.802490234375, 0.436767578125, 5.132812500000, -8.656250000000, -5.046875000000, 1490936445
-0.037109375000, -0.787841796875, 0.576660156250, 14.156250000000, -6.625000000000, -6.445312500000, 1490936445
-0.037109375000, -0.787841796875, 0.576660156250, 14.156250000000, -6.625000000000, -6.445312500000, 1490936445
-0.037109375000, -0.787841796875, 0.576660156250, 14.156250000000, -6.625000000000, -6.445312500000, 1490936445
-0.037109375000, -0.787841796875, 0.576660156250, 14.156250000000, -6.625000000000, -6.445312500000, 1490936445
-0.037109375000, -0.787841796875, 0.576660156250, 14.156250000000, -6.625000000000, -6.445312500000, 1490936445
0.011230468750, -0.684814453125, 0.418212890625, 25.882812500000, -4.085937500000, -1.101562500000, 1490936445
0.011230468750, -0.684814453125, 0.418212890625, 25.882812500000, -4.085937500000, -1.101562500000, 1490936445
0.011230468750, -0.684814453125, 0.418212890625, 25.882812500000, -4.085937500000, -1.101562500000, 1490936445
-0.004638671875, -0.819091796875, 0.429443359375, 41.242187500000, -1.007812500000, 2.890625000000, 1490936445
-0.004638671875, -0.819091796875, 0.429443359375, 41.242187500000, -1.007812500000, 2.890625000000, 1490936445
-0.004638671875, -0.819091796875, 0.429443359375, 41.242187500000, -1.007812500000, 2.890625000000, 1490936445
0.089355468750, -0.706542968750, 0.438476562500, 77.093750000000, 3.328125000000, 5.906250000000, 1490936445
0.012695312500, -0.671875000000, 0.254638671875, 104.585937500000, -10.367187500000, 13.921875000000, 1490936445
0.012695312500, -0.671875000000, 0.254638671875, 104.585937500000, -10.367187500000, 13.921875000000, 1490936445
0.001953125000, -0.676269531250, 0.123291015625, 106.742187500000, -9.078125000000, 12.132812500000, 1490936445
0.024414062500, -0.604736328125, 0.103515625000, 104.476562500000, -3.773437500000, 7.500000000000, 1490936445
0.024414062500, -0.604736328125, 0.103515625000, 104.476562500000, -3.773437500000, 7.500000000000, 1490936445
0.024414062500, -0.604736328125, 0.103515625000, 104.476562500000, -3.773437500000, 7.500000000000, 1490936445
0.024414062500, -0.604736328125, 0.103515625000, 104.476562500000, -3.773437500000, 7.500000000000, 1490936445
0.024414062500, -0.604736328125, 0.103515625000, 104.476562500000, -3.773437500000, 7.500000000000, 1490936445
0.089355468750, -0.697509765625, 0.059814453125, 72.601562500000, 23.820312500000, -23.257812500000, 1490936445
0.089355468750, -0.697509765625, 0.059814453125, 72.601562500000, 23.820312500000, -23.257812500000, 1490936445
0.089355468750, -0.697509765625, 0.059814453125, 72.601562500000, 23.820312500000, -23.257812500000, 1490936445
0.089355468750, -0.697509765625, 0.059814453125, 72.601562500000, 23.820312500000, -23.257812500000, 1490936445
0.089355468750, -0.697509765625, 0.059814453125, 72.601562500000, 23.820312500000, -23.257812500000, 1490936445
-0.020019531250, -0.724609375000, 0.034423828125, 59.023437500000, 42.500000000000, -37.664062500000, 1490936445
-0.072509765625, -0.753173828125, 0.062500000000, 40.703125000000, 76.289062500000, -62.140625000000, 1490936445
-0.072509765625, -0.753173828125, 0.062500000000, 40.703125000000, 76.289062500000, -62.140625000000, 1490936445
-0.072509765625, -0.753173828125, 0.062500000000, 40.703125000000, 76.289062500000, -62.140625000000, 1490936445
-0.072509765625, -0.753173828125, 0.062500000000, 40.703125000000, 76.289062500000, -62.140625000000, 1490936445
-0.071044921875, -0.821044921875, 0.198242187500, 60.523437500000, 57.070312500000, 13.851562500000, 1490936445
-0.071044921875, -0.821044921875, 0.198242187500, 60.523437500000, 57.070312500000, 13.851562500000, 1490936445
-0.071044921875, -0.821044921875, 0.198242187500, 60.523437500000, 57.070312500000, 13.851562500000, 1490936445
-0.071044921875, -0.821044921875, 0.198242187500, 60.523437500000, 57.070312500000, 13.851562500000, 1490936445
-0.257080078125, -0.982177734375, 0.077148437500, 37.773437500000, 56.781250000000, -0.539062500000, 1490936445
-0.257080078125, -0.982177734375, 0.077148437500, 37.773437500000, 56.781250000000, -0.539062500000, 1490936445
-0.257080078125, -0.982177734375, 0.077148437500, 37.773437500000, 56.781250000000, -0.539062500000, 1490936445
-0.257080078125, -0.982177734375, 0.077148437500, 37.773437500000, 56.781250000000, -0.539062500000, 1490936445
-0.257080078125, -0.982177734375, 0.077148437500, 37.773437500000, 56.781250000000, -0.539062500000, 1490936445
-0.242675781250, -1.105957031250, 0.034423828125, 16.890625000000, 14.187500000000, -57.898437500000, 1490936446
-0.242675781250, -1.105957031250, 0.034423828125, 16.890625000000, 14.187500000000, -57.898437500000, 1490936446
-0.242675781250, -1.105957031250, 0.034423828125, 16.890625000000, 14.187500000000, -57.898437500000, 1490936446
-0.442871093750, -1.175292968750, 0.095214843750, -66.250000000000, -15.195312500000, -75.046875000000, 1490936446
-0.442871093750, -1.175292968750, 0.095214843750, -66.250000000000, -15.195312500000, -75.046875000000, 1490936446
-0.442871093750, -1.175292968750, 0.095214843750, -66.250000000000, -15.195312500000, -75.046875000000, 1490936446
-0.442871093750, -1.175292968750, 0.095214843750, -66.250000000000, -15.195312500000, -75.046875000000, 1490936446
-0.442871093750, -1.175292968750, 0.095214843750, -66.250000000000, -15.195312500000, -75.046875000000, 1490936446
-0.635253906250, -1.268798828125, 0.141357421875, -144.656250000000, 21.593750000000, -103.976562500000, 1490936446
-0.563964843750, -1.367187500000, 0.115234375000, -183.031250000000, 52.179687500000, -85.921875000000, 1490936446
-0.563964843750, -1.367187500000, 0.115234375000, -183.031250000000, 52.179687500000, -85.921875000000, 1490936446
-0.563964843750, -1.367187500000, 0.115234375000, -183.031250000000, 52.179687500000, -85.921875000000, 1490936446
-0.563964843750, -1.367187500000, 0.115234375000, -183.031250000000, 52.179687500000, -85.921875000000, 1490936446
-0.536132812500, -1.311523437500, 0.194335937500, -170.953125000000, 253.992187500000, -42.992187500000, 1490936446
-0.536132812500, -1.311523437500, 0.194335937500, -170.953125000000, 253.992187500000, -42.992187500000, 1490936446
-0.536132812500, -1.311523437500, 0.194335937500, -170.953125000000, 253.992187500000, -42.992187500000, 1490936446
-0.536132812500, -1.311523437500, 0.194335937500, -170.953125000000, 253.992187500000, -42.992187500000, 1490936446
-0.536132812500, -1.311523437500, 0.194335937500, -170.953125000000, 253.992187500000, -42.992187500000, 1490936446
-0.420166015625, -1.262451171875, 0.135498046875, -52.468750000000, 32.820312500000, -67.101562500000, 1490936446
-0.420166015625, -1.262451171875, 0.135498046875, -52.468750000000, 32.820312500000, -67.101562500000, 1490936446
-0.420166015625, -1.262451171875, 0.135498046875, -52.468750000000, 32.820312500000, -67.101562500000, 1490936446
-0.420166015625, -1.262451171875, 0.135498046875, -52.468750000000, 32.820312500000, -67.101562500000, 1490936446
-0.409912109375, -1.163574218750, 0.076171875000, -42.187500000000, 28.445312500000, -27.460937500000, 1490936446
-0.409912109375, -1.163574218750, 0.076171875000, -42.187500000000, 28.445312500000, -27.460937500000, 1490936446
-0.409912109375, -1.163574218750, 0.076171875000, -42.187500000000, 28.445312500000, -27.460937500000, 1490936446
-0.409912109375, -1.163574218750, 0.076171875000, -42.187500000000, 28.445312500000, -27.460937500000, 1490936446
-0.585205078125, -1.243896484375, 0.090820312500, 95.101562500000, 24.031250000000, 68.757812500000, 1490936446
-0.585205078125, -1.243896484375, 0.090820312500, 95.101562500000, 24.031250000000, 68.757812500000, 1490936446
-0.585205078125, -1.243896484375, 0.090820312500, 95.101562500000, 24.031250000000, 68.757812500000, 1490936446
-0.585205078125, -1.243896484375, 0.090820312500, 95.101562500000, 24.031250000000, 68.757812500000, 1490936446
-0.585205078125, -1.243896484375, 0.090820312500, 95.101562500000, 24.031250000000, 68.757812500000, 1490936446
-0.546630859375, -1.464599609375, 0.068847656250, 152.257812500000, -81.867187500000, 90.500000000000, 1490936446
-0.546630859375, -1.464599609375, 0.068847656250, 152.257812500000, -81.867187500000, 90.500000000000, 1490936446
-0.546630859375, -1.464599609375, 0.068847656250, 152.257812500000, -81.867187500000, 90.500000000000, 1490936446
-0.583984375000, -1.369384765625, 0.027343750000, 202.351562500000, -222.679687500000, 87.617187500000, 1490936446
-0.583984375000, -1.369384765625, 0.027343750000, 202.351562500000, -222.679687500000, 87.617187500000, 1490936446
-0.583984375000, -1.369384765625, 0.027343750000, 202.351562500000, -222.679687500000, 87.617187500000, 1490936446
-0.463623046875, -1.482421875000, 0.335205078125, 234.625000000000, -256.000000000000, 40.039062500000, 1490936446
-0.463623046875, -1.482421875000, 0.335205078125, 234.625000000000, -256.000000000000, 40.039062500000, 1490936446
-0.463623046875, -1.482421875000, 0.335205078125, 234.625000000000, -256.000000000000, 40.039062500000, 1490936446
-0.463623046875, -1.482421875000, 0.335205078125, 234.625000000000, -256.000000000000, 40.039062500000, 1490936446
-0.323486328125, -1.394287109375, 0.220947265625, 253.992187500000, -256.000000000000, 42.078125000000, 1490936446
-0.345703125000, -1.158935546875, 0.182861328125, 34.343750000000, 9.187500000000, 44.687500000000, 1490936446
-0.345703125000, -1.158935546875, 0.182861328125, 34.343750000000, 9.187500000000, 44.687500000000, 1490936446
-0.345703125000, -1.158935546875, 0.182861328125, 34.343750000000, 9.187500000000, 44.687500000000, 1490936446
-0.345703125000, -1.158935546875, 0.182861328125, 34.343750000000, 9.187500000000, 44.687500000000, 1490936446
-0.345703125000, -1.158935546875, 0.182861328125, 34.343750000000, 9.187500000000, 44.687500000000, 1490936446
-0.309326171875, -1.140380859375, 0.240966796875, 33.218750000000, 82.859375000000, 59.757812500000, 1490936446
-0.173828125000, -0.848388671875, 0.113281250000, -119.320312500000, 209.140625000000, 67.289062500000, 1490936446
-0.173828125000, -0.848388671875, 0.113281250000, -119.320312500000, 209.140625000000, 67.289062500000, 1490936446
-0.173828125000, -0.848388671875, 0.113281250000, -119.320312500000, 209.140625000000, 67.289062500000, 1490936446
-0.173828125000, -0.848388671875, 0.113281250000, -119.320312500000, 209.140625000000, 67.289062500000, 1490936446
-0.172363281250, -0.812744140625, 0.082275390625, -142.265625000000, 164.570312500000, 49.257812500000, 1490936446
-0.331298828125, -0.736572265625, 0.146240234375, -89.554687500000, 91.000000000000, 44.570312500000, 1490936446
-0.331298828125, -0.736572265625, 0.146240234375, -89.554687500000, 91.000000000000, 44.570312500000, 1490936446
-0.331298828125, -0.736572265625, 0.146240234375, -89.554687500000, 91.000000000000, 44.570312500000, 1490936446
-0.331298828125, -0.736572265625, 0.146240234375, -89.554687500000, 91.000000000000, 44.570312500000, 1490936446
-0.294189453125, -0.778564453125, 0.140869140625, -78.218750000000, -5.648437500000, 15.484375000000, 1490936446
-0.294189453125, -0.778564453125, 0.140869140625, -78.218750000000, -5.648437500000, 15.484375000000, 1490936446
-0.294189453125, -0.778564453125, 0.140869140625, -78.218750000000, -5.648437500000, 15.484375000000, 1490936446
-0.174804687500, -0.770751953125, 0.116210937500, -72.015625000000, -65.265625000000, -13.937500000000, 1490936446
-0.174804687500, -0.770751953125, 0.116210937500, -72.015625000000, -65.265625000000, -13.937500000000, 1490936446
-0.174804687500, -0.770751953125, 0.116210937500, -72.015625000000, -65.265625000000, -13.937500000000, 1490936446
-0.241699218750, -0.724365234375, 0.118164062500, -77.023437500000, -68.140625000000, -18.679687500000, 1490936446
-0.280761718750, -0.791015625000, 0.107421875000, -104.843750000000, -25.382812500000, -37.109375000000, 1490936446
-0.280761718750, -0.791015625000, 0.107421875000, -97.617187500000, -3.031250000000, -40.023437500000, 1490936447
-0.254882812500, -0.877197265625, 0.197998046875, -83.796875000000, 14.648437500000, -30.664062500000, 1490936447
-0.254882812500, -0.877197265625, 0.197998046875, -83.796875000000, 14.648437500000, -30.664062500000, 1490936447
-0.254882812500, -0.877197265625, 0.197998046875, -83.796875000000, 14.648437500000, -30.664062500000, 1490936447
-0.254882812500, -0.877197265625, 0.197998046875, -83.796875000000, 14.648437500000, -30.664062500000, 1490936447
0.125976562500, -0.932861328125, 0.312744140625, -7.960937500000, -20.515625000000, 85.523437500000, 1490936447
0.125976562500, -0.932861328125, 0.312744140625, -7.960937500000, -20.515625000000, 85.523437500000, 1490936447
0.125976562500, -0.932861328125, 0.312744140625, -7.960937500000, -20.515625000000, 85.523437500000, 1490936447
0.125976562500, -0.932861328125, 0.312744140625, -7.960937500000, -20.515625000000, 85.523437500000, 1490936447
0.125976562500, -0.932861328125, 0.312744140625, -7.960937500000, -20.515625000000, 85.523437500000, 1490936447
0.125976562500, -0.932861328125, 0.312744140625, -7.960937500000, -20.515625000000, 85.523437500000, 1490936447
0.125976562500, -0.932861328125, 0.312744140625, -7.960937500000, -20.515625000000, 85.523437500000, 1490936447
0.283691406250, -0.760498046875, 0.204345703125, -20.929687500000, -41.054687500000, 25.250000000000, 1490936447
0.283691406250, -0.760498046875, 0.204345703125, -20.929687500000, -41.054687500000, 25.250000000000, 1490936447
0.283691406250, -0.760498046875, 0.204345703125, -20.929687500000, -41.054687500000, 25.250000000000, 1490936447
0.283691406250, -0.760498046875, 0.204345703125, -20.929687500000, -41.054687500000, 25.250000000000, 1490936447
0.283691406250, -0.760498046875, 0.204345703125, -20.929687500000, -41.054687500000, 25.250000000000, 1490936447
0.283691406250, -0.760498046875, 0.204345703125, -20.929687500000, -41.054687500000, 25.250000000000, 1490936447
0.087890625000, -0.934082031250, 0.635986328125, 61.609375000000, -71.359375000000, 46.523437500000, 1490936447
0.087890625000, -0.934082031250, 0.635986328125, 61.609375000000, -71.359375000000, 46.523437500000, 1490936447
0.087890625000, -0.934082031250, 0.635986328125, 61.609375000000, -71.359375000000, 46.523437500000, 1490936447
-0.531250000000, -0.944091796875, 1.894531250000, 233.648437500000, -7.460937500000, 84.859375000000, 1490936447
0.252197265625, -0.941406250000, 0.270263671875, -180.875000000000, -58.671875000000, -15.500000000000, 1490936447
0.124511718750, -0.986572265625, 0.307861328125, -142.195312500000, -38.000000000000, -5.054687500000, 1490936447
0.124511718750, -0.986572265625, 0.307861328125, -142.195312500000, -38.000000000000, -5.054687500000, 1490936447
0.124511718750, -0.986572265625, 0.307861328125, -142.195312500000, -38.000000000000, -5.054687500000, 1490936447
0.124511718750, -0.986572265625, 0.307861328125, -142.195312500000, -38.000000000000, -5.054687500000, 1490936447
0.090820312500, -0.801757812500, 0.331542968750, -25.679687500000, 45.250000000000, 12.726562500000, 1490936447
-0.003662109375, -0.887939453125, 0.486572265625, -54.585937500000, 17.609375000000, 2.671875000000, 1490936447
0.059570312500, -0.877441406250, 0.478271484375, -56.148437500000, 8.312500000000, 0.710937500000, 1490936447
0.059570312500, -0.877441406250, 0.478271484375, -56.148437500000, 8.312500000000, 0.710937500000, 1490936447
0.059570312500, -0.877441406250, 0.478271484375, -56.148437500000, 8.312500000000, 0.710937500000, 1490936447
0.059570312500, -0.877441406250, 0.478271484375, -56.148437500000, 8.312500000000, 0.710937500000, 1490936447
0.059570312500, -0.877441406250, 0.478271484375, -56.148437500000, 8.312500000000, 0.710937500000, 1490936447
0.062255859375, -0.829589843750, 0.475097656250, -50.257812500000, 5.171875000000, -4.171875000000, 1490936447
0.095947265625, -0.840087890625, 0.527587890625, -33.382812500000, 13.046875000000, -2.156250000000, 1490936447
0.095947265625, -0.840087890625, 0.527587890625, -33.382812500000, 13.046875000000, -2.156250000000, 1490936447
0.095947265625, -0.840087890625, 0.527587890625, -33.382812500000, 13.046875000000, -2.156250000000, 1490936447
0.095947265625, -0.840087890625, 0.527587890625, -33.382812500000, 13.046875000000, -2.156250000000, 1490936447
0.065185546875, -0.849121093750, 0.581054687500, -19.070312500000, 16.101562500000, 0.945312500000, 1490936447
0.065185546875, -0.849121093750, 0.581054687500, -19.070312500000, 16.101562500000, 0.945312500000, 1490936447
0.065185546875, -0.849121093750, 0.581054687500, -19.070312500000, 16.101562500000, 0.945312500000, 1490936447
-0.017089843750, -0.789306640625, 0.632080078125, -24.429687500000, 14.140625000000, -2.671875000000, 1490936447
-0.017089843750, -0.789306640625, 0.632080078125, -24.429687500000, 14.140625000000, -2.671875000000, 1490936447
-0.017089843750, -0.789306640625, 0.632080078125, -24.429687500000, 14.140625000000, -2.671875000000, 1490936447
0.123535156250, -0.815429687500, 0.572265625000, -22.148437500000, 3.585937500000, -1.890625000000, 1490936447
0.123535156250, -0.815429687500, 0.572265625000, -22.148437500000, 3.585937500000, -1.890625000000, 1490936447
0.123535156250, -0.815429687500, 0.572265625000, -22.148437500000, 3.585937500000, -1.890625000000, 1490936447
-0.010253906250, -0.884521484375, 0.636962890625, 0.796875000000, 8.789062500000, -3.468750000000, 1490936447
-0.010253906250, -0.884521484375, 0.636962890625, 0.796875000000, 8.789062500000, -3.468750000000, 1490936447
-0.010253906250, -0.884521484375, 0.636962890625, 0.796875000000, 8.789062500000, -3.468750000000, 1490936447
-0.010253906250, -0.884521484375, 0.636962890625, 0.796875000000, 8.789062500000, -3.468750000000, 1490936447
0.092773437500, -0.732177734375, 0.711669921875, -7.796875000000, 9.351562500000, -6.195312500000, 1490936447
0.092773437500, -0.732177734375, 0.711669921875, -7.796875000000, 9.351562500000, -6.195312500000, 1490936447
0.092773437500, -0.732177734375, 0.711669921875, -7.796875000000, 9.351562500000, -6.195312500000, 1490936447
