ACC_X,ACC_Y,ACC_Z,G_X,G_Y,G_Z,Unix Time
-0.000732421875, -0.776855468750, 0.689453125000, -1.195312500000, 0.617187500000, 0.656250000000, 1490936395
-0.000732421875, -0.776855468750, 0.689453125000, -1.195312500000, 0.617187500000, 0.656250000000, 1490936395
-0.000732421875, -0.776855468750, 0.689453125000, -1.195312500000, 0.617187500000, 0.656250000000, 1490936395
0.083496093750, -0.790283203125, 0.617675781250, -3.039062500000, -2.570312500000, -3.484375000000, 1490936395
0.083496093750, -0.790283203125, 0.617675781250, -4.187500000000, -2.789062500000, 0.367187500000, 1490936395
-0.064697265625, -0.741210937500, 0.639648437500, -4.187500000000, -2.789062500000, 0.367187500000, 1490936395
-0.064697265625, -0.741210937500, 0.639648437500, -4.187500000000, -2.789062500000, 0.367187500000, 1490936395
-0.064697265625, -0.741210937500, 0.639648437500, -4.187500000000, -2.789062500000, 0.367187500000, 1490936395
-0.064697265625, -0.741210937500, 0.639648437500, -4.187500000000, -2.789062500000, 0.367187500000, 1490936395
-0.064697265625, -0.741210937500, 0.639648437500, -4.187500000000, -2.789062500000, 0.367187500000, 1490936395
-0.019042968750, -0.743164062500, 0.700439453125, -6.328125000000, -0.429687500000, -1.359375000000, 1490936395
-0.047363281250, -0.784667968750, 0.623535156250, 0.539062500000, 0.304687500000, -1.679687500000, 1490936395
-0.047363281250, -0.784667968750, 0.623535156250, 0.539062500000, 0.304687500000, -1.679687500000, 1490936395
-0.047363281250, -0.784667968750, 0.623535156250, 0.539062500000, 0.304687500000, -1.679687500000, 1490936395
-0.047363281250, -0.784667968750, 0.623535156250, 0.539062500000, 0.304687500000, -1.679687500000, 1490936395
-0.047363281250, -0.784667968750, 0.623535156250, 0.539062500000, 0.304687500000, -1.679687500000, 1490936395
-0.047363281250, -0.784667968750, 0.623535156250, 0.539062500000, 0.304687500000, -1.679687500000, 1490936395
-0.010009765625, -0.740478515625, 0.713378906250, -1.109375000000, 0.203125000000, -2.937500000000, 1490936395
-0.010009765625, -0.740478515625, 0.713378906250, -1.109375000000, 0.203125000000, -2.937500000000, 1490936396
-0.010009765625, -0.740478515625, 0.713378906250, -1.109375000000, 0.203125000000, -2.937500000000, 1490936396
-0.010009765625, -0.740478515625, 0.713378906250, -1.109375000000, 0.203125000000, -2.937500000000, 1490936396
-0.010009765625, -0.740478515625, 0.713378906250, -1.109375000000, 0.203125000000, -2.937500000000, 1490936396
0.063964843750, -0.729003906250, 0.650634765625, -6.062500000000, -2.812500000000, -4.343750000000, 1490936396
0.063964843750, -0.729003906250, 0.650634765625, -6.062500000000, -2.812500000000, -4.343750000000, 1490936396
0.063964843750, -0.729003906250, 0.650634765625, -6.062500000000, -2.812500000000, -4.343750000000, 1490936396
0.063964843750, -0.729003906250, 0.650634765625, -6.062500000000, -2.812500000000, -4.343750000000, 1490936396
-0.024414062500, -0.810058593750, 0.629150390625, -2.484375000000, 0.453125000000, -4.843750000000, 1490936396
-0.024414062500, -0.810058593750, 0.629150390625, -2.484375000000, 0.453125000000, -4.843750000000, 1490936396
-0.024414062500, -0.810058593750, 0.629150390625, -2.484375000000, 0.453125000000, -4.843750000000, 1490936396
-0.024414062500, -0.810058593750, 0.629150390625, -2.484375000000, 0.453125000000, -4.843750000000, 1490936396
-0.024414062500, -0.810058593750, 0.629150390625, -2.484375000000, 0.453125000000, -4.843750000000, 1490936396
-0.024414062500, -0.810058593750, 0.629150390625, -2.484375000000, 0.453125000000, -4.843750000000, 1490936396
-0.021484375000, -0.818603515625, 0.607177734375, -3.281250000000, 0.960937500000, -4.210937500000, 1490936396
-0.021484375000, -0.818603515625, 0.607177734375, -3.281250000000, 0.960937500000, -4.210937500000, 1490936396
-0.021484375000, -0.818603515625, 0.607177734375, -3.281250000000, 0.960937500000, -4.210937500000, 1490936396
-0.021484375000, -0.818603515625, 0.607177734375, -3.281250000000, 0.960937500000, -4.210937500000, 1490936396
-0.021484375000, -0.818603515625, 0.607177734375, -3.281250000000, 0.960937500000, -4.210937500000, 1490936396
-0.021484375000, -0.818603515625, 0.607177734375, -3.281250000000, 0.960937500000, -4.210937500000, 1490936396
0.082763671875, -0.829345703125, 0.690185546875, -4.062500000000, 2.117187500000, -2.890625000000, 1490936396
0.082763671875, -0.829345703125, 0.690185546875, -4.062500000000, 2.117187500000, -2.890625000000, 1490936396
-0.084472656250, -0.830566406250, 0.705078125000, -6.507812500000, -0.023437500000, -1.492187500000, 1490936396
-0.084472656250, -0.830566406250, 0.705078125000, -6.507812500000, -0.023437500000, -1.492187500000, 1490936396
-0.084472656250, -0.830566406250, 0.705078125000, -6.507812500000, -0.023437500000, -1.492187500000, 1490936396
-0.084472656250, -0.830566406250, 0.705078125000, -6.507812500000, -0.023437500000, -1.492187500000, 1490936396
-0.020019531250, -0.838623046875, 0.631591796875, -4.593750000000, -2.117187500000, -4.023437500000, 1490936396
-0.020019531250, -0.838623046875, 0.631591796875, -4.593750000000, -2.117187500000, -4.023437500000, 1490936396
-0.020019531250, -0.838623046875, 0.631591796875, -4.593750000000, -2.117187500000, -4.023437500000, 1490936396
-0.020019531250, -0.838623046875, 0.631591796875, -4.593750000000, -2.117187500000, -4.023437500000, 1490936396
0.072509765625, -0.730712890625, 0.651855468750, -5.921875000000, 0.992187500000, -1.976562500000, 1490936396
0.072509765625, -0.730712890625, 0.651855468750, -5.921875000000, 0.992187500000, -1.976562500000, 1490936396
0.072509765625, -0.730712890625, 0.651855468750, -5.921875000000, 0.992187500000, -1.976562500000, 1490936396
0.072509765625, -0.730712890625, 0.651855468750, -5.921875000000, 0.992187500000, -1.976562500000, 1490936396
0.072509765625, -0.730712890625, 0.651855468750, -5.921875000000, 0.992187500000, -1.976562500000, 1490936396
0.072509765625, -0.730712890625, 0.651855468750, -5.921875000000, 0.992187500000, -1.976562500000, 1490936396
0.072509765625, -0.730712890625, 0.651855468750, -5.921875000000, 0.992187500000, -1.976562500000, 1490936396
-0.036376953125, -0.798583984375, 0.706542968750, -3.773437500000, -0.406250000000, -3.039062500000, 1490936396
0.078125000000, -0.809082031250, 0.618164062500, -3.773437500000, -0.406250000000, -3.039062500000, 1490936396
0.078125000000, -0.809082031250, 0.618164062500, -3.773437500000, -0.406250000000, -3.039062500000, 1490936396
0.078125000000, -0.809082031250, 0.618164062500, -3.773437500000, -0.406250000000, -3.039062500000, 1490936396
0.078125000000, -0.809082031250, 0.618164062500, -3.773437500000, -0.406250000000, -3.039062500000, 1490936396
0.078125000000, -0.809082031250, 0.618164062500, -3.773437500000, -0.406250000000, -3.039062500000, 1490936396
0.068115234375, -0.788330078125, 0.640380859375, -3.335937500000, -0.625000000000, -2.867187500000, 1490936396
0.068115234375, -0.788330078125, 0.640380859375, -3.335937500000, -0.625000000000, -2.867187500000, 1490936396
0.068115234375, -0.788330078125, 0.640380859375, -3.335937500000, -0.625000000000, -2.867187500000, 1490936396
0.079345703125, -0.898925781250, 0.540039062500, -3.539062500000, -2.234375000000, 0.671875000000, 1490936396
0.079345703125, -0.898925781250, 0.540039062500, -3.539062500000, -2.234375000000, 0.671875000000, 1490936396
0.079345703125, -0.898925781250, 0.540039062500, -3.539062500000, -2.234375000000, 0.671875000000, 1490936396
0.079345703125, -0.898925781250, 0.540039062500, -3.539062500000, -2.234375000000, 0.671875000000, 1490936396
0.079345703125, -0.898925781250, 0.540039062500, -3.539062500000, -2.234375000000, 0.671875000000, 1490936396
0.079345703125, -0.898925781250, 0.540039062500, -3.539062500000, -2.234375000000, 0.671875000000, 1490936396
0.079345703125, -0.898925781250, 0.540039062500, -3.539062500000, -2.234375000000, 0.671875000000, 1490936396
-0.010986328125, -0.782470703125, 0.615722656250, -4.382812500000, 0.773437500000, -3.281250000000, 1490936396
-0.010986328125, -0.782470703125, 0.615722656250, -4.382812500000, 0.773437500000, -3.281250000000, 1490936396
-0.010986328125, -0.782470703125, 0.615722656250, -4.382812500000, 0.773437500000, -3.281250000000, 1490936396
-0.010986328125, -0.782470703125, 0.615722656250, -4.382812500000, 0.773437500000, -3.281250000000, 1490936396
-0.010986328125, -0.782470703125, 0.615722656250, -4.382812500000, 0.773437500000, -3.281250000000, 1490936396
-0.010986328125, -0.782470703125, 0.615722656250, -4.382812500000, 0.773437500000, -3.281250000000, 1490936396
-0.010986328125, -0.782470703125, 0.615722656250, -4.382812500000, 0.773437500000, -3.281250000000, 1490936396
-0.066406250000, -0.740478515625, 0.640625000000, -4.492187500000, 0.359375000000, -1.820312500000, 1490936396
-0.066406250000, -0.740478515625, 0.640625000000, -4.492187500000, 0.359375000000, -1.820312500000, 1490936396
-0.066406250000, -0.740478515625, 0.640625000000, -4.492187500000, 0.359375000000, -1.820312500000, 1490936396
-0.064697265625, -0.736572265625, 0.667724609375, -2.437500000000, 0.343750000000, -5.500000000000, 1490936396
-0.064697265625, -0.736572265625, 0.667724609375, -2.437500000000, 0.343750000000, -5.500000000000, 1490936396
-0.064697265625, -0.736572265625, 0.667724609375, -2.437500000000, 0.343750000000, -5.500000000000, 1490936396
-0.026611328125, -0.795166015625, 0.637695312500, -3.101562500000, 2.781250000000, -4.968750000000, 1490936397
0.008056640625, -0.792968750000, 0.589843750000, -1.289062500000, 1.515625000000, -1.265625000000, 1490936397
0.008056640625, -0.792968750000, 0.589843750000, -1.289062500000, 1.515625000000, -1.265625000000, 1490936397
0.006103515625, -0.813964843750, 0.649169921875, -8.382812500000, -2.460937500000, -3.953125000000, 1490936397
0.049072265625, -0.746337890625, 0.586914062500, -4.328125000000, 0.750000000000, -6.632812500000, 1490936397
0.049072265625, -0.746337890625, 0.586914062500, -4.328125000000, 0.750000000000, -6.632812500000, 1490936397
0.049072265625, -0.746337890625, 0.586914062500, -4.328125000000, 0.750000000000, -6.632812500000, 1490936397
0.049072265625, -0.746337890625, 0.586914062500, -4.328125000000, 0.750000000000, -6.632812500000, 1490936397
0.011962890625, -0.830078125000, 0.710693359375, -5.656250000000, -4.242187500000, -6.289062500000, 1490936397
-0.016845703125, -0.659667968750, 0.700195312500, -5.656250000000, -4.242187500000, -6.289062500000, 1490936397
-0.016845703125, -0.659667968750, 0.700195312500, -5.656250000000, -4.242187500000, -6.289062500000, 1490936397
-0.016845703125, -0.659667968750, 0.700195312500, -5.656250000000, -4.242187500000, -6.289062500000, 1490936397
-0.016845703125, -0.659667968750, 0.700195312500, -5.656250000000, -4.242187500000, -6.289062500000, 1490936397
0.014404296875, -0.733398437500, 0.611328125000, -2.820312500000, 2.601562500000, -3.234375000000, 1490936397
0.014404296875, -0.733398437500, 0.611328125000, -2.820312500000, 2.601562500000, -3.234375000000, 1490936397
0.014404296875, -0.733398437500, 0.611328125000, -2.820312500000, 2.601562500000, -3.234375000000, 1490936397
-0.063232421875, -0.816406250000, 0.638916015625, -6.578125000000, 0.539062500000, -6.242187500000, 1490936397
-0.063232421875, -0.816406250000, 0.638916015625, -6.578125000000, 0.539062500000, -6.242187500000, 1490936397
-0.063232421875, -0.816406250000, 0.638916015625, -6.578125000000, 0.539062500000, -6.242187500000, 1490936397
0.029541015625, -0.752441406250, 0.636718750000, -1.898437500000, -2.703125000000, -6.039062500000, 1490936397
-0.005126953125, -0.814208984375, 0.634765625000, -1.593750000000, -1.359375000000, -6.179687500000, 1490936397
-0.005126953125, -0.814208984375, 0.634765625000, -1.593750000000, -1.359375000000, -6.179687500000, 1490936397
-0.005126953125, -0.814208984375, 0.634765625000, -1.593750000000, -1.359375000000, -6.179687500000, 1490936397
-0.020019531250, -0.728271484375, 0.611083984375, -4.757812500000, 0.835937500000, -6.234375000000, 1490936397
0.021484375000, -0.838134765625, 0.661132812500, -4.757812500000, 0.835937500000, -6.234375000000, 1490936397
0.021484375000, -0.838134765625, 0.661132812500, -4.757812500000, 0.835937500000, -6.234375000000, 1490936397
0.021484375000, -0.838134765625, 0.661132812500, -4.757812500000, 0.835937500000, -6.234375000000, 1490936397
0.021484375000, -0.838134765625, 0.661132812500, -4.757812500000, 0.835937500000, -6.234375000000, 1490936397
0.021484375000, -0.838134765625, 0.661132812500, -4.757812500000, 0.835937500000, -6.234375000000, 1490936397
0.006591796875, -0.878906250000, 0.534667968750, -3.906250000000, 0.187500000000, -2.695312500000, 1490936397
0.006591796875, -0.878906250000, 0.534667968750, -3.906250000000, 0.187500000000, -2.695312500000, 1490936397
0.006591796875, -0.878906250000, 0.534667968750, -3.906250000000, 0.187500000000, -2.695312500000, 1490936397
0.006591796875, -0.878906250000, 0.534667968750, -3.906250000000, 0.187500000000, -2.695312500000, 1490936397
0.083251953125, -0.780517578125, 0.613525390625, -2.859375000000, -0.132812500000, -2.750000000000, 1490936397
0.083251953125, -0.780517578125, 0.613525390625, -2.859375000000, -0.132812500000, -2.750000000000, 1490936397
0.083251953125, -0.780517578125, 0.613525390625, -2.859375000000, -0.132812500000, -2.750000000000, 1490936397
0.031250000000, -0.811523437500, 0.613769531250, -1.578125000000, 0.992187500000, -4.445312500000, 1490936397
0.031250000000, -0.811523437500, 0.613769531250, -1.578125000000, 0.992187500000, -4.445312500000, 1490936397
0.031250000000, -0.811523437500, 0.613769531250, -1.578125000000, 0.992187500000, -4.445312500000, 1490936397
-0.088623046875, -0.840087890625, 0.709960937500, -4.687500000000, 4.140625000000, -1.109375000000, 1490936397
0.084472656250, -0.673583984375, 0.639160156250, -6.726562500000, -0.515625000000, -8.468750000000, 1490936397
0.084472656250, -0.673583984375, 0.639160156250, -6.726562500000, -0.515625000000, -8.468750000000, 1490936397
0.084472656250, -0.673583984375, 0.639160156250, -6.726562500000, -0.515625000000, -8.468750000000, 1490936397
0.084472656250, -0.673583984375, 0.639160156250, -6.726562500000, -0.515625000000, -8.468750000000, 1490936397
0.084472656250, -0.673583984375, 0.639160156250, -6.726562500000, -0.515625000000, -8.468750000000, 1490936397
0.084472656250, -0.673583984375, 0.639160156250, -6.726562500000, -0.515625000000, -8.468750000000, 1490936397
-0.012451171875, -0.783935546875, 0.751220703125, -1.015625000000, -0.265625000000, -1.343750000000, 1490936397
-0.012451171875, -0.783935546875, 0.751220703125, -1.015625000000, -0.265625000000, -1.343750000000, 1490936397
-0.012451171875, -0.783935546875, 0.751220703125, -1.015625000000, -0.265625000000, -1.343750000000, 1490936397
-0.012451171875, -0.783935546875, 0.751220703125, -1.015625000000, -0.265625000000, -1.343750000000, 1490936397
-0.012451171875, -0.783935546875, 0.751220703125, -1.015625000000, -0.265625000000, -1.343750000000, 1490936397
-0.032714843750, -0.827148437500, 0.621093750000, -3.804687500000, 2.539062500000, -1.703125000000, 1490936397
-0.032714843750, -0.827148437500, 0.621093750000, -3.804687500000, 2.539062500000, -1.703125000000, 1490936397
-0.032714843750, -0.827148437500, 0.621093750000, -3.804687500000, 2.539062500000, -1.703125000000, 1490936397
0.018798828125, -0.740722656250, 0.557861328125, -3.476562500000, -0.320312500000, -3.171875000000, 1490936397
0.018798828125, -0.740722656250, 0.557861328125, -3.476562500000, -0.320312500000, -3.171875000000, 1490936397
0.018798828125, -0.740722656250, 0.557861328125, -3.476562500000, -0.320312500000, -3.171875000000, 1490936397
0.018798828125, -0.740722656250, 0.557861328125, -3.476562500000, -0.320312500000, -3.171875000000, 1490936397
0.018798828125, -0.740722656250, 0.557861328125, -3.476562500000, -0.320312500000, -3.171875000000, 1490936397
-0.001708984375, -0.842773437500, 0.604492187500, -1.250000000000, -0.531250000000, -3.718750000000, 1490936397
-0.001708984375, -0.842773437500, 0.604492187500, -1.250000000000, -0.531250000000, -3.718750000000, 1490936397
-0.001708984375, -0.842773437500, 0.604492187500, -1.250000000000, -0.531250000000, -3.718750000000, 1490936397
-0.028076171875, -0.725830078125, 0.650634765625, -1.468750000000, -0.023437500000, -5.171875000000, 1490936397
-0.028076171875, -0.725830078125, 0.650634765625, -1.468750000000, -0.023437500000, -5.171875000000, 1490936397
-0.028076171875, -0.725830078125, 0.650634765625, -1.468750000000, -0.023437500000, -5.171875000000, 1490936397
-0.028076171875, -0.725830078125, 0.650634765625, -1.468750000000, -0.023437500000, -5.171875000000, 1490936397
-0.072509765625, -0.731201171875, 0.606933593750, -1.695312500000, 2.351562500000, -4.539062500000, 1490936398
-0.072509765625, -0.731201171875, 0.606933593750, -1.695312500000, 2.351562500000, -4.539062500000, 1490936398
-0.001464843750, -0.771728515625, 0.643798828125, -2.406250000000, 1.734375000000, -4.257812500000, 1490936398
-0.084960937500, -0.905517578125, 0.540527343750, -1.421875000000, 2.007812500000, -3.156250000000, 1490936398
-0.084960937500, -0.905517578125, 0.540527343750, -1.421875000000, 2.007812500000, -3.156250000000, 1490936398
-0.084960937500, -0.905517578125, 0.540527343750, -1.421875000000, 2.007812500000, -3.156250000000, 1490936398
-0.084960937500, -0.905517578125, 0.540527343750, -1.421875000000, 2.007812500000, -3.156250000000, 1490936398
-0.084960937500, -0.905517578125, 0.540527343750, -1.421875000000, 2.007812500000, -3.156250000000, 1490936398
-0.084960937500, -0.905517578125, 0.540527343750, -1.421875000000, 2.007812500000, -3.156250000000, 1490936398
-0.002685546875, -0.840087890625, 0.616699218750, 1.101562500000, 2.929687500000, -2.242187500000, 1490936398
-0.002685546875, -0.840087890625, 0.616699218750, 1.101562500000, 2.929687500000, -2.242187500000, 1490936398
-0.002685546875, -0.840087890625, 0.616699218750, 1.101562500000, 2.929687500000, -2.242187500000, 1490936398
-0.002685546875, -0.840087890625, 0.616699218750, 1.101562500000, 2.929687500000, -2.242187500000, 1490936398
-0.002685546875, -0.840087890625, 0.616699218750, 1.101562500000, 2.929687500000, -2.242187500000, 1490936398
0.090332031250, -0.820068359375, 0.597412109375, 0.226562500000, 0.023437500000, -2.132812500000, 1490936398
0.090332031250, -0.820068359375, 0.597412109375, 0.226562500000, 0.023437500000, -2.132812500000, 1490936398
0.090332031250, -0.820068359375, 0.597412109375, 0.226562500000, 0.023437500000, -2.132812500000, 1490936398
0.090332031250, -0.820068359375, 0.597412109375, 0.226562500000, 0.023437500000, -2.132812500000, 1490936398
0.090332031250, -0.820068359375, 0.597412109375, 0.226562500000, 0.023437500000, -2.132812500000, 1490936398
-0.062744140625, -0.737548828125, 0.657714843750, -0.640625000000, 0.687500000000, -2.921875000000, 1490936398
-0.063720703125, -0.783203125000, 0.612548828125, -1.578125000000, -0.125000000000, -2.976562500000, 1490936398
-0.063720703125, -0.783203125000, 0.612548828125, -1.578125000000, -0.125000000000, -2.976562500000, 1490936398
-0.063720703125, -0.783203125000, 0.612548828125, -1.578125000000, -0.125000000000, -2.976562500000, 1490936398
-0.063720703125, -0.783203125000, 0.612548828125, -1.578125000000, -0.125000000000, -2.976562500000, 1490936398
-0.003417968750, -0.876220703125, 0.637451171875, 0.375000000000, -2.632812500000, -1.843750000000, 1490936398
-0.003417968750, -0.876220703125, 0.637451171875, 0.375000000000, -2.632812500000, -1.843750000000, 1490936398
-0.003417968750, -0.876220703125, 0.637451171875, 0.375000000000, -2.632812500000, -1.843750000000, 1490936398
-0.003417968750, -0.876220703125, 0.637451171875, 0.375000000000, -2.632812500000, -1.843750000000, 1490936398
0.024902343750, -0.793945312500, 0.602294921875, -2.437500000000, -2.671875000000, -1.343750000000, 1490936398
-0.025146484375, -0.837158203125, 0.624267578125, -2.484375000000, 2.734375000000, -4.085937500000, 1490936398
-0.025146484375, -0.837158203125, 0.624267578125, -2.484375000000, 2.734375000000, -4.085937500000, 1490936398
-0.025146484375, -0.837158203125, 0.624267578125, -2.484375000000, 2.734375000000, -4.085937500000, 1490936398
-0.025146484375, -0.837158203125, 0.624267578125, -2.484375000000, 2.734375000000, -4.085937500000, 1490936398
-0.033935546875, -0.841796875000, 0.648681640625, -4.289062500000, 2.523437500000, -5.164062500000, 1490936398
-0.043212890625, -0.894531250000, 0.690917968750, -4.757812500000, -0.250000000000, -1.320312500000, 1490936398
-0.043212890625, -0.894531250000, 0.690917968750, -4.757812500000, -0.250000000000, -1.320312500000, 1490936398
-0.043212890625, -0.894531250000, 0.690917968750, -4.757812500000, -0.250000000000, -1.320312500000, 1490936398
-0.043212890625, -0.894531250000, 0.690917968750, -4.757812500000, -0.250000000000, -1.320312500000, 1490936398
0.080810546875, -0.808837890625, 0.585205078125, -3.281250000000, 1.632812500000, -1.179687500000, 1490936398
0.080810546875, -0.808837890625, 0.585205078125, -3.281250000000, 1.632812500000, -1.179687500000, 1490936398
0.080810546875, -0.808837890625, 0.585205078125, -3.281250000000, 1.632812500000, -1.179687500000, 1490936398
0.063232421875, -0.809082031250, 0.622802734375, -1.640625000000, 1.000000000000, -2.203125000000, 1490936398
0.063232421875, -0.809082031250, 0.622802734375, -1.640625000000, 1.000000000000, -2.203125000000, 1490936398
0.063232421875, -0.809082031250, 0.622802734375, -1.640625000000, 1.000000000000, -2.203125000000, 1490936398
0.063232421875, -0.809082031250, 0.622802734375, -1.640625000000, 1.000000000000, -2.203125000000, 1490936398
-0.134765625000, -0.829101562500, 0.605712890625, -2.164062500000, 1.281250000000, 0.359375000000, 1490936398
-0.134765625000, -0.829101562500, 0.605712890625, -2.164062500000, 1.281250000000, 0.359375000000, 1490936398
-0.134765625000, -0.829101562500, 0.605712890625, -2.164062500000, 1.281250000000, 0.359375000000, 1490936398
-0.125976562500, -0.835449218750, 0.607421875000, 14.429687500000, -0.140625000000, 0.375000000000, 1490936398
-0.125976562500, -0.835449218750, 0.607421875000, 14.429687500000, -0.140625000000, 0.375000000000, 1490936398
-0.125976562500, -0.835449218750, 0.607421875000, 14.429687500000, -0.140625000000, 0.375000000000, 1490936398
-0.125976562500, -0.835449218750, 0.607421875000, 14.429687500000, -0.140625000000, 0.375000000000, 1490936398
0.025634765625, -0.634033203125, 0.540039062500, 15.359375000000, -0.835937500000, 0.296875000000, 1490936398
0.025634765625, -0.634033203125, 0.540039062500, 15.359375000000, -0.835937500000, 0.296875000000, 1490936398
0.025634765625, -0.634033203125, 0.540039062500, 15.359375000000, -0.835937500000, 0.296875000000, 1490936398
0.025634765625, -0.634033203125, 0.540039062500, 15.359375000000, -0.835937500000, 0.296875000000, 1490936398
0.025634765625, -0.634033203125, 0.540039062500, 15.359375000000, -0.835937500000, 0.296875000000, 1490936398
0.090087890625, -0.246337890625, 0.465576171875, 8.000000000000, 4.453125000000, -0.203125000000, 1490936398
0.090087890625, -0.246337890625, 0.465576171875, 8.000000000000, 4.453125000000, -0.203125000000, 1490936398
0.090087890625, -0.246337890625, 0.465576171875, 8.000000000000, 4.453125000000, -0.203125000000, 1490936398
0.090087890625, -0.246337890625, 0.465576171875, 8.000000000000, 4.453125000000, -0.203125000000, 1490936398
0.064697265625, -0.052001953125, 0.215820312500, 35.812500000000, 2.851562500000, 19.406250000000, 1490936398
0.064697265625, -0.052001953125, 0.215820312500, 35.812500000000, 2.851562500000, 19.406250000000, 1490936398
0.064697265625, -0.052001953125, 0.215820312500, 35.812500000000, 2.851562500000, 19.406250000000, 1490936398
-0.091064453125, -0.219970703125, 0.180908203125, 5.007812500000, 72.367187500000, 13.468750000000, 1490936398
-0.091064453125, -0.219970703125, 0.180908203125, 5.007812500000, 72.367187500000, 13.468750000000, 1490936398
-0.091064453125, -0.219970703125, 0.180908203125, 5.007812500000, 72.367187500000, 13.468750000000, 1490936398
-0.388671875000, -1.294189453125, 1.022216796875, 129.945312500000, -144.304687500000, 35.156250000000, 1490936398
-0.388671875000, -1.294189453125, 1.022216796875, 129.945312500000, -144.304687500000, 35.156250000000, 1490936398
-0.388671875000, -1.294189453125, 1.022216796875, 129.945312500000, -144.304687500000, 35.156250000000, 1490936398
-0.388671875000, -1.294189453125, 1.022216796875, 129.945312500000, -144.304687500000, 35.156250000000, 1490936398
-0.018310546875, -1.084716796875, 0.908447265625, 20.398437500000, 37.992187500000, -29.609375000000, 1490936399
-0.000244140625, -2.495361328125, 1.587646484375, -93.320312500000, 22.195312500000, -23.671875000000, 1490936399
-0.092529296875, -2.359130859375, 1.513427734375, -11.234375000000, 18.734375000000, 17.367187500000, 1490936399
-0.092529296875, -2.359130859375, 1.513427734375, -11.234375000000, 18.734375000000, 17.367187500000, 1490936399
-0.092529296875, -2.359130859375, 1.513427734375, -11.234375000000, 18.734375000000, 17.367187500000, 1490936399
-0.250244140625, -1.817871093750, 1.445068359375, -92.148437500000, -16.773437500000, -13.781250000000, 1490936399
-0.250244140625, -1.817871093750, 1.445068359375, -92.148437500000, -16.773437500000, -13.781250000000, 1490936399
-0.250244140625, -1.817871093750, 1.445068359375, -92.148437500000, -16.773437500000, -13.781250000000, 1490936399
-0.250244140625, -1.817871093750, 1.445068359375, -92.148437500000, -16.773437500000, -13.781250000000, 1490936399
-0.250244140625, -1.817871093750, 1.445068359375, -92.148437500000, -16.773437500000, -13.781250000000, 1490936399
0.063232421875, 0.165039062500, 0.164550781250, 52.312500000000, 112.921875000000, 51.726562500000, 1490936399
0.063232421875, 0.165039062500, 0.164550781250, 52.312500000000, 112.921875000000, 51.726562500000, 1490936399
0.063232421875, 0.165039062500, 0.164550781250, 52.312500000000, 112.921875000000, 51.726562500000, 1490936399
0.063232421875, 0.165039062500, 0.164550781250, 52.312500000000, 112.921875000000, 51.726562500000, 1490936399
0.063232421875, 0.165039062500, 0.164550781250, 52.312500000000, 112.921875000000, 51.726562500000, 1490936399
0.063232421875, 0.165039062500, 0.164550781250, 52.312500000000, 112.921875000000, 51.726562500000, 1490936399
-0.015625000000, 0.146972656250, 0.008300781250, -119.539062500000, 148.382812500000, -38.687500000000, 1490936399
-0.015625000000, 0.146972656250, 0.008300781250, -119.539062500000, 148.382812500000, -38.687500000000, 1490936399
-0.015625000000, 0.146972656250, 0.008300781250, -119.539062500000, 148.382812500000, -38.687500000000, 1490936399
-0.015625000000, 0.146972656250, 0.008300781250, -119.539062500000, 148.382812500000, -38.687500000000, 1490936399
-0.015625000000, 0.146972656250, 0.008300781250, -119.539062500000, 148.382812500000, -38.687500000000, 1490936399
-0.029296875000, -0.134277343750, 0.065673828125, -128.515625000000, 88.742187500000, -74.250000000000, 1490936399
-0.003662109375, -0.181152343750, -0.024658203125, -121.671875000000, 84.351562500000, -90.593750000000, 1490936399
-0.003662109375, -0.181152343750, -0.024658203125, -121.671875000000, 84.351562500000, -90.593750000000, 1490936399
0.041259765625, -0.055419921875, 0.022460937500, -124.101562500000, 77.328125000000, -84.250000000000, 1490936399
0.041259765625, -0.055419921875, 0.022460937500, -124.101562500000, 77.328125000000, -84.250000000000, 1490936399
0.041259765625, -0.055419921875, 0.022460937500, -124.101562500000, 77.328125000000, -84.250000000000, 1490936399
0.041259765625, -0.055419921875, 0.022460937500, -124.101562500000, 77.328125000000, -84.250000000000, 1490936399
0.041259765625, -0.055419921875, 0.022460937500, -124.101562500000, 77.328125000000, -84.250000000000, 1490936399
0.064453125000, -0.008789062500, 0.091796875000, -0.359375000000, 79.273437500000, -7.039062500000, 1490936399
0.064453125000, -0.008789062500, 0.091796875000, -0.359375000000, 79.273437500000, -7.039062500000, 1490936399
0.064453125000, -0.008789062500, 0.091796875000, -0.359375000000, 79.273437500000, -7.039062500000, 1490936399
0.064453125000, -0.008789062500, 0.091796875000, -0.359375000000, 79.273437500000, -7.039062500000, 1490936399
0.064453125000, -0.008789062500, 0.091796875000, -0.359375000000, 79.273437500000, -7.039062500000, 1490936399
0.146484375000, 0.142578125000, 0.000244140625, -25.507812500000, 37.179687500000, -13.625000000000, 1490936399
0.146484375000, 0.142578125000, 0.000244140625, -25.507812500000, 37.179687500000, -13.625000000000, 1490936399
-0.027587890625, 0.072265625000, 0.074951171875, -35.375000000000, 35.109375000000, -19.601562500000, 1490936399
-0.027587890625, 0.072265625000, 0.074951171875, -35.375000000000, 35.109375000000, -19.601562500000, 1490936399
-0.027587890625, 0.072265625000, 0.074951171875, -35.375000000000, 35.109375000000, -19.601562500000, 1490936399
-0.027587890625, 0.072265625000, 0.074951171875, -35.375000000000, 35.109375000000, -19.601562500000, 1490936399
-0.027587890625, 0.072265625000, 0.074951171875, -35.375000000000, 35.109375000000, -19.601562500000, 1490936399
0.075927734375, -0.041259765625, -0.082275390625, -30.171875000000, 5.015625000000, -11.953125000000, 1490936399
0.075927734375, -0.041259765625, -0.082275390625, -30.171875000000, 5.015625000000, -11.953125000000, 1490936399
0.075927734375, -0.041259765625, -0.082275390625, -30.171875000000, 5.015625000000, -11.953125000000, 1490936399
-0.235107421875, -1.789794921875, 1.190185546875, 253.992187500000, -147.828125000000, 161.625000000000, 1490936399
-0.821044921875, -4.336425781250, 0.961181640625, 253.992187500000, -147.828125000000, 161.625000000000, 1490936399
-0.821044921875, -4.336425781250, 0.961181640625, 253.992187500000, -147.828125000000, 161.625000000000, 1490936399
-0.821044921875, -4.336425781250, 0.961181640625, 253.992187500000, -147.828125000000, 161.625000000000, 1490936399
-0.821044921875, -4.336425781250, 0.961181640625, 253.992187500000, -147.828125000000, 161.625000000000, 1490936399
-0.821044921875, -4.336425781250, 0.961181640625, 253.992187500000, -147.828125000000, 161.625000000000, 1490936399
-0.821044921875, -4.336425781250, 0.961181640625, 253.992187500000, -147.828125000000, 161.625000000000, 1490936399
-0.088378906250, -1.466064453125, 0.301269531250, 156.164062500000, 36.203125000000, 64.890625000000, 1490936399
-0.088378906250, -1.466064453125, 0.301269531250, 156.164062500000, 36.203125000000, 64.890625000000, 1490936399
-0.088378906250, -1.466064453125, 0.301269531250, 156.164062500000, 36.203125000000, 64.890625000000, 1490936399
-0.088378906250, -1.466064453125, 0.301269531250, 156.164062500000, 36.203125000000, 64.890625000000, 1490936399
-0.088378906250, -1.466064453125, 0.301269531250, 156.164062500000, 36.203125000000, 64.890625000000, 1490936399
-0.335693359375, -1.570312500000, 1.353515625000, 253.992187500000, -205.210937500000, 21.921875000000, 1490936399
-0.335693359375, -1.570312500000, 1.353515625000, 253.992187500000, -205.210937500000, 21.921875000000, 1490936399
-0.335693359375, -1.570312500000, 1.353515625000, 253.992187500000, -205.210937500000, 21.921875000000, 1490936399
-0.335693359375, -1.570312500000, 1.353515625000, 253.992187500000, -205.210937500000, 21.921875000000, 1490936399
-0.108154296875, -1.121093750000, 0.489990234375, -34.492187500000, -7.312500000000, -40.070312500000, 1490936399
-0.108154296875, -1.121093750000, 0.489990234375, -34.492187500000, -7.312500000000, -40.070312500000, 1490936399
-0.067382812500, -0.852050781250, 0.536132812500, 6.734375000000, -18.984375000000, 4.664062500000, 1490936399
-0.067382812500, -0.852050781250, 0.536132812500, 6.734375000000, -18.984375000000, 4.664062500000, 1490936399
-0.067382812500, -0.852050781250, 0.536132812500, 6.734375000000, -18.984375000000, 4.664062500000, 1490936400
-0.067382812500, -0.852050781250, 0.536132812500, 6.734375000000, -18.984375000000, 4.664062500000, 1490936400
0.087402343750, -0.838378906250, 0.492431640625, -35.031250000000, 6.992187500000, -3.062500000000, 1490936400
-0.058837890625, -0.706542968750, 0.336425781250, -68.820312500000, 1.539062500000, -12.812500000000, 1490936400
-0.058837890625, -0.706542968750, 0.336425781250, -68.820312500000, 1.539062500000, -12.812500000000, 1490936400
-0.156494140625, -0.607666015625, 0.257568359375, -51.304687500000, -14.812500000000, -14.117187500000, 1490936400
-0.156494140625, -0.607666015625, 0.257568359375, -51.304687500000, -14.812500000000, -14.117187500000, 1490936400
-0.156494140625, -0.607666015625, 0.257568359375, -51.304687500000, -14.812500000000, -14.117187500000, 1490936400
-0.156494140625, -0.607666015625, 0.257568359375, -51.304687500000, -14.812500000000, -14.117187500000, 1490936400
0.011474609375, -0.458251953125, 0.399902343750, -40.976562500000, -23.546875000000, -16.593750000000, 1490936400
0.011474609375, -0.458251953125, 0.399902343750, -40.976562500000, -23.546875000000, -16.593750000000, 1490936400
0.011474609375, -0.458251953125, 0.399902343750, -40.976562500000, -23.546875000000, -16.593750000000, 1490936400
-0.002685546875, -0.596435546875, 0.524902343750, -19.226562500000, -0.757812500000, -5.453125000000, 1490936400
-0.002685546875, -0.596435546875, 0.524902343750, -19.226562500000, -0.757812500000, -5.453125000000, 1490936400
-0.002685546875, -0.596435546875, 0.524902343750, -19.226562500000, -0.757812500000, -5.453125000000, 1490936400
-0.002685546875, -0.596435546875, 0.524902343750, -19.226562500000, -0.757812500000, -5.453125000000, 1490936400
0.017089843750, -0.564941406250, 0.437500000000, -28.968750000000, 4.257812500000, -0.070312500000, 1490936400
-0.103759765625, -0.632324218750, 0.549316406250, -35.328125000000, -9.359375000000, -10.164062500000, 1490936400
-0.103759765625, -0.632324218750, 0.549316406250, -35.328125000000, -9.359375000000, -10.164062500000, 1490936400
-0.103759765625, -0.632324218750, 0.549316406250, -35.328125000000, -9.359375000000, -10.164062500000, 1490936400
-0.052490234375, -0.733886718750, 0.787841796875, -10.445312500000, -0.718750000000, -4.484375000000, 1490936400
-0.052490234375, -0.733886718750, 0.787841796875, -10.445312500000, -0.718750000000, -4.484375000000, 1490936400
-0.052490234375, -0.733886718750, 0.787841796875, -10.445312500000, -0.718750000000, -4.484375000000, 1490936400
-0.052490234375, -0.733886718750, 0.787841796875, -10.445312500000, -0.718750000000, -4.484375000000, 1490936400
-0.050292968750, -0.856933593750, 0.832519531250, -9.757812500000, 2.250000000000, -12.265625000000, 1490936400
-0.050292968750, -0.856933593750, 0.832519531250, -9.757812500000, 2.250000000000, -12.265625000000, 1490936400
-0.050292968750, -0.856933593750, 0.832519531250, -9.757812500000, 2.250000000000, -12.265625000000, 1490936400
-0.050292968750, -0.856933593750, 0.832519531250, -9.757812500000, 2.250000000000, -12.265625000000, 1490936400
-0.050292968750, -0.856933593750, 0.832519531250, -9.757812500000, 2.250000000000, -12.265625000000, 1490936400
-0.032958984375, -0.787597656250, 0.885253906250, -10.828125000000, -4.140625000000, 8.226562500000, 1490936400
-0.032958984375, -0.787597656250, 0.885253906250, -10.828125000000, -4.140625000000, 8.226562500000, 1490936400
-0.032958984375, -0.787597656250, 0.885253906250, -10.828125000000, -4.140625000000, 8.226562500000, 1490936400
0.024414062500, -0.781005859375, 0.680664062500, 0.343750000000, -3.585937500000, -0.390625000000, 1490936400
-0.053710937500, -0.729980468750, 0.683349609375, 3.921875000000, 1.187500000000, 5.468750000000, 1490936400
-0.053710937500, -0.729980468750, 0.683349609375, 3.921875000000, 1.187500000000, 5.468750000000, 1490936400
-0.053710937500, -0.729980468750, 0.683349609375, 3.921875000000, 1.187500000000, 5.468750000000, 1490936400
-0.053710937500, -0.729980468750, 0.683349609375, 3.921875000000, 1.187500000000, 5.468750000000, 1490936400
-0.052246093750, -0.662109375000, 0.716796875000, -4.273437500000, 0.203125000000, 1.031250000000, 1490936400
-0.052246093750, -0.662109375000, 0.716796875000, -4.273437500000, 0.203125000000, 1.031250000000, 1490936400
-0.052246093750, -0.662109375000, 0.716796875000, -4.273437500000, 0.203125000000, 1.031250000000, 1490936400
-0.089355468750, -0.731689453125, 0.776367187500, 10.250000000000, 6.351562500000, 10.640625000000, 1490936400
-0.089355468750, -0.731689453125, 0.776367187500, 10.250000000000, 6.351562500000, 10.640625000000, 1490936400
-0.089355468750, -0.731689453125, 0.776367187500, 10.250000000000, 6.351562500000, 10.640625000000, 1490936400
-0.089355468750, -0.731689453125, 0.776367187500, 10.250000000000, 6.351562500000, 10.640625000000, 1490936400
-0.089355468750, -0.731689453125, 0.776367187500, 10.250000000000, 6.351562500000, 10.640625000000, 1490936400
-0.066162109375, -0.763427734375, 0.622802734375, -1.375000000000, 4.570312500000, 3.750000000000, 1490936400
-0.066162109375, -0.763427734375, 0.622802734375, -1.375000000000, 4.570312500000, 3.750000000000, 1490936400
-0.066162109375, -0.763427734375, 0.622802734375, -1.375000000000, 4.570312500000, 3.750000000000, 1490936400
