ACC_X,ACC_Y,ACC_Z,G_X,G_Y,G_Z,Unix Time
-0.021728515625, -0.827148437500, 0.563232421875, -4.984375000000, -2.078125000000, -4.773437500000, 1490936458
-0.040039062500, -0.800781250000, 0.551025390625, -1.687500000000, 0.703125000000, -4.656250000000, 1490936458
-0.040039062500, -0.800781250000, 0.551025390625, -1.687500000000, 0.703125000000, -4.656250000000, 1490936458
-0.130371093750, -0.843505859375, 0.533691406250, -6.007812500000, -2.578125000000, -6.546875000000, 1490936458
-0.130371093750, -0.843505859375, 0.533691406250, -6.007812500000, -2.578125000000, -6.546875000000, 1490936458
-0.130371093750, -0.843505859375, 0.533691406250, -6.007812500000, -2.578125000000, -6.546875000000, 1490936458
-0.130371093750, -0.843505859375, 0.533691406250, -6.007812500000, -2.578125000000, -6.546875000000, 1490936458
-0.130371093750, -0.843505859375, 0.533691406250, -6.007812500000, -2.578125000000, -6.546875000000, 1490936458
-0.130371093750, -0.843505859375, 0.533691406250, -6.007812500000, -2.578125000000, -6.546875000000, 1490936458
-0.130371093750, -0.843505859375, 0.533691406250, -6.007812500000, -2.578125000000, -6.546875000000, 1490936458
-0.153564453125, -0.828369140625, 0.585937500000, -4.320312500000, -1.210937500000, -6.914062500000, 1490936458
-0.153564453125, -0.828369140625, 0.585937500000, -4.320312500000, -1.210937500000, -6.914062500000, 1490936458
-0.153564453125, -0.828369140625, 0.585937500000, -4.320312500000, -1.210937500000, -6.914062500000, 1490936458
-0.090087890625, -0.718994140625, 0.569580078125, -4.328125000000, -2.726562500000, -1.390625000000, 1490936458
-0.090087890625, -0.718994140625, 0.569580078125, -4.328125000000, -2.726562500000, -1.390625000000, 1490936458
-0.090087890625, -0.718994140625, 0.569580078125, -4.328125000000, -2.726562500000, -1.390625000000, 1490936458
0.015136718750, -0.835205078125, 0.480712890625, -4.734375000000, -2.468750000000, -6.250000000000, 1490936458
0.015136718750, -0.835205078125, 0.480712890625, -4.734375000000, -2.468750000000, -6.250000000000, 1490936458
0.015136718750, -0.835205078125, 0.480712890625, -4.734375000000, -2.468750000000, -6.250000000000, 1490936458
0.015136718750, -0.835205078125, 0.480712890625, -4.734375000000, -2.468750000000, -6.250000000000, 1490936458
0.030029296875, -0.785888671875, 0.627685546875, -3.750000000000, -3.804687500000, -5.867187500000, 1490936458
0.030029296875, -0.785888671875, 0.627685546875, -3.750000000000, -3.804687500000, -5.867187500000, 1490936458
0.030029296875, -0.785888671875, 0.627685546875, -3.750000000000, -3.804687500000, -5.867187500000, 1490936458
0.030029296875, -0.785888671875, 0.627685546875, -3.750000000000, -3.804687500000, -5.867187500000, 1490936458
-0.010986328125, -0.950927734375, 0.570068359375, 2.796875000000, 0.554687500000, -3.664062500000, 1490936458
-0.010986328125, -0.950927734375, 0.570068359375, 2.796875000000, 0.554687500000, -3.664062500000, 1490936458
-0.010986328125, -0.950927734375, 0.570068359375, 2.796875000000, 0.554687500000, -3.664062500000, 1490936458
0.019775390625, -0.886474609375, 0.480957031250, -4.320312500000, -2.062500000000, -6.335937500000, 1490936458
0.019775390625, -0.886474609375, 0.480957031250, -4.320312500000, -2.062500000000, -6.335937500000, 1490936458
0.019775390625, -0.886474609375, 0.480957031250, -4.320312500000, -2.062500000000, -6.335937500000, 1490936458
0.019775390625, -0.886474609375, 0.480957031250, -4.320312500000, -2.062500000000, -6.335937500000, 1490936458
0.019775390625, -0.886474609375, 0.480957031250, -4.320312500000, -2.062500000000, -6.335937500000, 1490936458
-0.062988281250, -0.951660156250, 0.513427734375, -1.718750000000, -0.593750000000, -3.375000000000, 1490936458
-0.062988281250, -0.951660156250, 0.513427734375, -1.718750000000, -0.593750000000, -3.375000000000, 1490936458
-0.062988281250, -0.951660156250, 0.513427734375, -1.718750000000, -0.593750000000, -3.375000000000, 1490936458
-0.062988281250, -0.951660156250, 0.513427734375, -1.718750000000, -0.593750000000, -3.375000000000, 1490936458
-0.062744140625, -0.821289062500, 0.632080078125, -1.453125000000, -2.406250000000, -3.195312500000, 1490936458
-0.062744140625, -0.821289062500, 0.632080078125, -1.453125000000, -2.406250000000, -3.195312500000, 1490936458
-0.062744140625, -0.821289062500, 0.632080078125, -1.453125000000, -2.406250000000, -3.195312500000, 1490936458
-0.083007812500, -0.870605468750, 0.538330078125, -4.078125000000, -2.218750000000, -3.156250000000, 1490936458
-0.070068359375, -0.730712890625, 0.586425781250, -4.039062500000, 0.929687500000, -4.781250000000, 1490936458
-0.070068359375, -0.730712890625, 0.586425781250, -4.039062500000, 0.929687500000, -4.781250000000, 1490936458
-0.070068359375, -0.730712890625, 0.586425781250, -4.039062500000, 0.929687500000, -4.781250000000, 1490936458
-0.092529296875, -0.798583984375, 0.582519531250, -5.289062500000, -2.101562500000, -2.562500000000, 1490936458
-0.092529296875, -0.798583984375, 0.582519531250, -5.289062500000, -2.101562500000, -2.562500000000, 1490936458
-0.092529296875, -0.798583984375, 0.582519531250, -5.289062500000, -2.101562500000, -2.562500000000, 1490936458
-0.092529296875, -0.798583984375, 0.582519531250, -5.289062500000, -2.101562500000, -2.562500000000, 1490936458
-0.092529296875, -0.798583984375, 0.582519531250, -5.289062500000, -2.101562500000, -2.562500000000, 1490936458
-0.092529296875, -0.798583984375, 0.582519531250, -5.289062500000, -2.101562500000, -2.562500000000, 1490936458
-0.017822265625, -0.863525390625, 0.613037109375, -3.101562500000, -2.281250000000, -1.882812500000, 1490936458
-0.017822265625, -0.863525390625, 0.613037109375, -3.101562500000, -2.281250000000, -1.882812500000, 1490936458
-0.017822265625, -0.863525390625, 0.613037109375, -3.101562500000, -2.281250000000, -1.882812500000, 1490936458
-0.016601562500, -0.806884765625, 0.551269531250, -1.789062500000, 0.820312500000, -6.062500000000, 1490936458
-0.016601562500, -0.806884765625, 0.551269531250, -1.789062500000, 0.820312500000, -6.062500000000, 1490936458
-0.016601562500, -0.806884765625, 0.551269531250, -1.789062500000, 0.820312500000, -6.062500000000, 1490936458
0.066650390625, -0.785156250000, 0.484619140625, -3.304687500000, -2.640625000000, -6.648437500000, 1490936458
0.066650390625, -0.785156250000, 0.484619140625, -3.304687500000, -2.640625000000, -6.648437500000, 1490936458
0.066650390625, -0.785156250000, 0.484619140625, -3.304687500000, -2.640625000000, -6.648437500000, 1490936458
-0.079345703125, -0.916259765625, 0.541015625000, -4.242187500000, -4.390625000000, -3.664062500000, 1490936458
-0.079345703125, -0.916259765625, 0.541015625000, -4.242187500000, -4.390625000000, -3.664062500000, 1490936458
-0.079345703125, -0.916259765625, 0.541015625000, -4.242187500000, -4.390625000000, -3.664062500000, 1490936458
-0.079345703125, -0.916259765625, 0.541015625000, -4.242187500000, -4.390625000000, -3.664062500000, 1490936458
-0.086181640625, -0.884521484375, 0.654052734375, -6.015625000000, 0.101562500000, -3.523437500000, 1490936458
-0.086181640625, -0.884521484375, 0.654052734375, -6.015625000000, 0.101562500000, -3.523437500000, 1490936458
-0.086181640625, -0.884521484375, 0.654052734375, -6.015625000000, 0.101562500000, -3.523437500000, 1490936458
-0.066650390625, -0.811523437500, 0.530761718750, -1.296875000000, -2.023437500000, -2.609375000000, 1490936458
-0.066650390625, -0.811523437500, 0.530761718750, -1.296875000000, -2.023437500000, -2.609375000000, 1490936458
-0.066650390625, -0.811523437500, 0.530761718750, -1.296875000000, -2.023437500000, -2.609375000000, 1490936459
-0.027099609375, -0.877685546875, 0.627197265625, -3.289062500000, -0.437500000000, -1.359375000000, 1490936459
-0.072021484375, -0.792480468750, 0.583984375000, -3.289062500000, -0.437500000000, -1.359375000000, 1490936459
-0.072021484375, -0.792480468750, 0.583984375000, -3.289062500000, -0.437500000000, -1.359375000000, 1490936459
-0.072021484375, -0.792480468750, 0.583984375000, -3.289062500000, -0.437500000000, -1.359375000000, 1490936459
-0.072021484375, -0.792480468750, 0.583984375000, -3.289062500000, -0.437500000000, -1.359375000000, 1490936459
0.073486328125, -0.906005859375, 0.548339843750, -3.390625000000, 0.187500000000, -1.812500000000, 1490936459
0.073486328125, -0.906005859375, 0.548339843750, -3.390625000000, 0.187500000000, -1.812500000000, 1490936459
0.073486328125, -0.906005859375, 0.548339843750, -3.390625000000, 0.187500000000, -1.812500000000, 1490936459
0.073486328125, -0.906005859375, 0.548339843750, -3.390625000000, 0.187500000000, -1.812500000000, 1490936459
0.073486328125, -0.906005859375, 0.548339843750, -3.390625000000, 0.187500000000, -1.812500000000, 1490936459
-0.061767578125, -0.900146484375, 0.536376953125, -1.898437500000, -2.578125000000, -2.289062500000, 1490936459
-0.061767578125, -0.900146484375, 0.536376953125, -1.898437500000, -2.578125000000, -2.289062500000, 1490936459
-0.061767578125, -0.900146484375, 0.536376953125, -1.898437500000, -2.578125000000, -2.289062500000, 1490936459
-0.081787109375, -0.807373046875, 0.520996093750, -4.820312500000, -0.570312500000, -2.812500000000, 1490936459
-0.081787109375, -0.807373046875, 0.520996093750, -4.820312500000, -0.570312500000, -2.812500000000, 1490936459
-0.081787109375, -0.807373046875, 0.520996093750, -4.820312500000, -0.570312500000, -2.812500000000, 1490936459
0.007080078125, -0.729980468750, 0.536621093750, -1.812500000000, 0.468750000000, -2.734375000000, 1490936459
-0.041503906250, -0.743896484375, 0.592041015625, -1.421875000000, -0.945312500000, -2.593750000000, 1490936459
-0.041503906250, -0.743896484375, 0.592041015625, -1.421875000000, -0.945312500000, -2.593750000000, 1490936459
-0.041503906250, -0.743896484375, 0.592041015625, -1.421875000000, -0.945312500000, -2.593750000000, 1490936459
-0.007080078125, -0.883056640625, 0.534179687500, -1.187500000000, -0.984375000000, -3.554687500000, 1490936459
-0.007080078125, -0.883056640625, 0.534179687500, -1.187500000000, -0.984375000000, -3.554687500000, 1490936459
-0.007080078125, -0.883056640625, 0.534179687500, -1.187500000000, -0.984375000000, -3.554687500000, 1490936459
-0.007080078125, -0.883056640625, 0.534179687500, -1.187500000000, -0.984375000000, -3.554687500000, 1490936459
-0.066650390625, -0.747558593750, 0.489990234375, -4.164062500000, -0.132812500000, -2.882812500000, 1490936459
-0.030029296875, -0.899902343750, 0.572509765625, -1.015625000000, -0.320312500000, 0.117187500000, 1490936459
-0.030029296875, -0.899902343750, 0.572509765625, -1.015625000000, -0.320312500000, 0.117187500000, 1490936459
-0.030029296875, -0.899902343750, 0.572509765625, -1.015625000000, -0.320312500000, 0.117187500000, 1490936459
0.001953125000, -0.818115234375, 0.557373046875, -1.921875000000, -0.140625000000, -2.890625000000, 1490936459
-0.103027343750, -0.842773437500, 0.585693359375, -1.273437500000, 1.625000000000, -2.546875000000, 1490936459
-0.103027343750, -0.842773437500, 0.585693359375, -1.273437500000, 1.625000000000, -2.546875000000, 1490936459
-0.103027343750, -0.842773437500, 0.585693359375, -1.273437500000, 1.625000000000, -2.546875000000, 1490936459
-0.103027343750, -0.842773437500, 0.585693359375, -1.273437500000, 1.625000000000, -2.546875000000, 1490936459
-0.063476562500, -0.945556640625, 0.488281250000, -3.820312500000, -3.492187500000, -3.484375000000, 1490936459
-0.063476562500, -0.945556640625, 0.488281250000, -3.820312500000, -3.492187500000, -3.484375000000, 1490936459
0.046630859375, -0.897460937500, 0.586669921875, -8.625000000000, -1.570312500000, -3.484375000000, 1490936459
0.046630859375, -0.897460937500, 0.586669921875, -8.625000000000, -1.570312500000, -3.484375000000, 1490936459
0.046630859375, -0.897460937500, 0.586669921875, -8.625000000000, -1.570312500000, -3.484375000000, 1490936459
0.046630859375, -0.897460937500, 0.586669921875, -8.625000000000, -1.570312500000, -3.484375000000, 1490936459
-0.098388671875, -0.852050781250, 0.581054687500, -0.906250000000, 2.093750000000, -3.976562500000, 1490936459
-0.098388671875, -0.852050781250, 0.581054687500, -0.906250000000, 2.093750000000, -3.976562500000, 1490936459
-0.098388671875, -0.852050781250, 0.581054687500, -0.906250000000, 2.093750000000, -3.976562500000, 1490936459
-0.068359375000, -0.961181640625, 0.578857421875, -5.070312500000, -1.125000000000, -4.617187500000, 1490936459
-0.068359375000, -0.961181640625, 0.578857421875, -5.070312500000, -1.125000000000, -4.617187500000, 1490936459
-0.068359375000, -0.961181640625, 0.578857421875, -5.070312500000, -1.125000000000, -4.617187500000, 1490936459
-0.068359375000, -0.961181640625, 0.578857421875, -5.070312500000, -1.125000000000, -4.617187500000, 1490936459
0.015136718750, -0.804199218750, 0.490234375000, -2.437500000000, 0.179687500000, -4.648437500000, 1490936459
-0.023193359375, -0.801757812500, 0.543212890625, -1.953125000000, -1.187500000000, -1.875000000000, 1490936459
-0.023193359375, -0.801757812500, 0.543212890625, -1.953125000000, -1.187500000000, -1.875000000000, 1490936459
-0.023193359375, -0.801757812500, 0.543212890625, -1.953125000000, -1.187500000000, -1.875000000000, 1490936459
-0.023193359375, -0.801757812500, 0.543212890625, -1.953125000000, -1.187500000000, -1.875000000000, 1490936459
0.019531250000, -0.888427734375, 0.484130859375, -3.546875000000, -2.734375000000, -4.093750000000, 1490936459
0.019531250000, -0.888427734375, 0.484130859375, -3.546875000000, -2.734375000000, -4.093750000000, 1490936459
0.019531250000, -0.888427734375, 0.484130859375, -3.546875000000, -2.734375000000, -4.093750000000, 1490936459
-0.017089843750, -0.885009765625, 0.536132812500, -1.304687500000, -2.117187500000, -3.851562500000, 1490936459
-0.017089843750, -0.885009765625, 0.536132812500, -1.304687500000, -2.117187500000, -3.851562500000, 1490936459
-0.017089843750, -0.885009765625, 0.536132812500, -1.304687500000, -2.117187500000, -3.851562500000, 1490936459
-0.017089843750, -0.885009765625, 0.536132812500, -1.304687500000, -2.117187500000, -3.851562500000, 1490936459
-0.017089843750, -0.885009765625, 0.536132812500, -1.304687500000, -2.117187500000, -3.851562500000, 1490936459
-0.012695312500, -0.821289062500, 0.497802734375, -1.601562500000, -4.460937500000, -6.117187500000, 1490936459
-0.012695312500, -0.821289062500, 0.497802734375, -1.601562500000, -4.460937500000, -6.117187500000, 1490936459
-0.012695312500, -0.821289062500, 0.497802734375, -1.601562500000, -4.460937500000, -6.117187500000, 1490936459
-0.048339843750, -0.887939453125, 0.586669921875, -2.242187500000, -2.468750000000, -6.984375000000, 1490936459
-0.011962890625, -0.790039062500, 0.536865234375, -2.695312500000, 2.445312500000, -4.742187500000, 1490936459
-0.011962890625, -0.790039062500, 0.536865234375, -2.695312500000, 2.445312500000, -4.742187500000, 1490936459
-0.011962890625, -0.790039062500, 0.536865234375, -2.695312500000, 2.445312500000, -4.742187500000, 1490936460
-0.011962890625, -0.790039062500, 0.536865234375, -2.695312500000, 2.445312500000, -4.742187500000, 1490936460
-0.011962890625, -0.790039062500, 0.536865234375, -2.695312500000, 2.445312500000, -4.742187500000, 1490936460
-0.084228515625, -0.853759765625, 0.534912109375, -6.140625000000, 2.859375000000, -3.414062500000, 1490936460
0.014892578125, -0.807373046875, 0.492187500000, -2.078125000000, -1.867187500000, -3.273437500000, 1490936460
0.014892578125, -0.807373046875, 0.492187500000, -2.078125000000, -1.867187500000, -3.273437500000, 1490936460
0.072509765625, -0.866943359375, 0.519775390625, -4.796875000000, -3.804687500000, -1.671875000000, 1490936460
0.072509765625, -0.866943359375, 0.519775390625, -4.796875000000, -3.804687500000, -1.671875000000, 1490936460
0.072509765625, -0.866943359375, 0.519775390625, -4.796875000000, -3.804687500000, -1.671875000000, 1490936460
0.072509765625, -0.866943359375, 0.519775390625, -4.796875000000, -3.804687500000, -1.671875000000, 1490936460
0.072509765625, -0.866943359375, 0.519775390625, -4.796875000000, -3.804687500000, -1.671875000000, 1490936460
0.072509765625, -0.866943359375, 0.519775390625, -4.796875000000, -3.804687500000, -1.671875000000, 1490936460
0.013183593750, -0.821289062500, 0.540527343750, -0.164062500000, 2.078125000000, -1.882812500000, 1490936460
-0.077392578125, -0.833740234375, 0.494384765625, -0.164062500000, 2.078125000000, -1.882812500000, 1490936460
-0.077392578125, -0.833740234375, 0.494384765625, -0.164062500000, 2.078125000000, -1.882812500000, 1490936460
-0.077392578125, -0.833740234375, 0.494384765625, -0.164062500000, 2.078125000000, -1.882812500000, 1490936460
-0.035888671875, -0.877197265625, 0.632812500000, -6.460937500000, -2.945312500000, -4.250000000000, 1490936460
-0.035888671875, -0.877197265625, 0.632812500000, -6.460937500000, -2.945312500000, -4.250000000000, 1490936460
-0.035888671875, -0.877197265625, 0.632812500000, -6.460937500000, -2.945312500000, -4.250000000000, 1490936460
-0.035888671875, -0.877197265625, 0.632812500000, -6.460937500000, -2.945312500000, -4.250000000000, 1490936460
0.016845703125, -0.850830078125, 0.490234375000, -1.195312500000, 0.031250000000, -4.679687500000, 1490936460
0.016845703125, -0.850830078125, 0.490234375000, -1.195312500000, 0.031250000000, -4.679687500000, 1490936460
-0.050048828125, -0.944335937500, 0.582031250000, -4.335937500000, -0.210937500000, -2.687500000000, 1490936460
-0.050048828125, -0.944335937500, 0.582031250000, -4.335937500000, -0.210937500000, -2.687500000000, 1490936460
-0.050048828125, -0.944335937500, 0.582031250000, -4.335937500000, -0.210937500000, -2.687500000000, 1490936460
-0.050048828125, -0.944335937500, 0.582031250000, -4.335937500000, -0.210937500000, -2.687500000000, 1490936460
-0.019287109375, -0.873535156250, 0.537109375000, -1.687500000000, -0.609375000000, -3.140625000000, 1490936460
-0.019287109375, -0.873535156250, 0.537109375000, -1.687500000000, -0.609375000000, -3.140625000000, 1490936460
-0.019287109375, -0.873535156250, 0.537109375000, -1.687500000000, -0.609375000000, -3.140625000000, 1490936460
-0.019287109375, -0.873535156250, 0.537109375000, -4.437500000000, -0.843750000000, -1.945312500000, 1490936460
0.077148437500, -0.885009765625, 0.572265625000, -3.773437500000, 1.078125000000, -3.125000000000, 1490936460
0.077148437500, -0.885009765625, 0.572265625000, -3.773437500000, 1.078125000000, -3.125000000000, 1490936460
0.077148437500, -0.885009765625, 0.572265625000, -3.773437500000, 1.078125000000, -3.125000000000, 1490936460
0.074951171875, -0.826171875000, 0.476074218750, -4.296875000000, 2.507812500000, -2.945312500000, 1490936460
0.074951171875, -0.826171875000, 0.476074218750, -4.296875000000, 2.507812500000, -2.945312500000, 1490936460
0.074951171875, -0.826171875000, 0.476074218750, -4.296875000000, 2.507812500000, -2.945312500000, 1490936460
0.074951171875, -0.826171875000, 0.476074218750, -4.296875000000, 2.507812500000, -2.945312500000, 1490936460
-0.093505859375, -0.827148437500, 0.524169921875, 0.718750000000, 0.546875000000, -4.781250000000, 1490936460
-0.045166015625, -0.947021484375, 0.474853515625, 0.718750000000, 0.546875000000, -4.781250000000, 1490936460
-0.045166015625, -0.947021484375, 0.474853515625, 0.718750000000, 0.546875000000, -4.781250000000, 1490936460
-0.045166015625, -0.947021484375, 0.474853515625, 0.718750000000, 0.546875000000, -4.781250000000, 1490936460
-0.045166015625, -0.947021484375, 0.474853515625, 0.718750000000, 0.546875000000, -4.781250000000, 1490936460
-0.154052734375, -0.876953125000, 0.498046875000, 0.914062500000, -0.226562500000, -1.257812500000, 1490936460
-0.154052734375, -0.876953125000, 0.498046875000, 0.914062500000, -0.226562500000, -1.257812500000, 1490936460
-0.154052734375, -0.876953125000, 0.498046875000, 0.914062500000, -0.226562500000, -1.257812500000, 1490936460
-0.154052734375, -0.876953125000, 0.498046875000, 0.914062500000, -0.226562500000, -1.257812500000, 1490936460
0.008300781250, -0.843261718750, 0.544433593750, 3.101562500000, 6.000000000000, -0.773437500000, 1490936460
0.008300781250, -0.843261718750, 0.544433593750, 3.101562500000, 6.000000000000, -0.773437500000, 1490936460
0.008300781250, -0.843261718750, 0.544433593750, 3.101562500000, 6.000000000000, -0.773437500000, 1490936460
0.065429687500, -0.893066406250, 0.480712890625, 0.210937500000, 2.828125000000, -4.289062500000, 1490936460
-0.056152343750, -0.896484375000, 0.580566406250, 2.906250000000, 1.617187500000, -2.757812500000, 1490936460
-0.056152343750, -0.896484375000, 0.580566406250, 2.906250000000, 1.617187500000, -2.757812500000, 1490936460
-0.056152343750, -0.896484375000, 0.580566406250, 2.906250000000, 1.617187500000, -2.757812500000, 1490936460
-0.056152343750, -0.896484375000, 0.580566406250, 2.906250000000, 1.617187500000, -2.757812500000, 1490936460
-0.056152343750, -0.896484375000, 0.580566406250, 2.906250000000, 1.617187500000, -2.757812500000, 1490936460
-0.056152343750, -0.896484375000, 0.580566406250, 2.906250000000, 1.617187500000, -2.757812500000, 1490936460
-0.090332031250, -0.942382812500, 0.471679687500, 3.257812500000, 2.687500000000, -4.906250000000, 1490936460
-0.090332031250, -0.942382812500, 0.471679687500, 3.257812500000, 2.687500000000, -4.906250000000, 1490936460
-0.090332031250, -0.942382812500, 0.471679687500, 3.257812500000, 2.687500000000, -4.906250000000, 1490936460
-0.090332031250, -0.942382812500, 0.471679687500, 3.257812500000, 2.687500000000, -4.906250000000, 1490936460
-0.090332031250, -0.942382812500, 0.471679687500, 3.257812500000, 2.687500000000, -4.906250000000, 1490936460
-0.090332031250, -0.942382812500, 0.471679687500, 3.257812500000, 2.687500000000, -4.906250000000, 1490936460
-0.011718750000, -0.880615234375, 0.510009765625, 4.054687500000, 4.203125000000, -3.359375000000, 1490936460
0.078613281250, -0.888183593750, 0.425292968750, 9.671875000000, -0.312500000000, -1.898437500000, 1490936460
0.078613281250, -0.888183593750, 0.425292968750, 9.671875000000, -0.312500000000, -1.898437500000, 1490936460
0.078613281250, -0.888183593750, 0.425292968750, 9.671875000000, -0.312500000000, -1.898437500000, 1490936460
0.078613281250, -0.888183593750, 0.425292968750, 9.671875000000, -0.312500000000, -1.898437500000, 1490936460
0.078613281250, -0.888183593750, 0.425292968750, 9.671875000000, -0.312500000000, -1.898437500000, 1490936460
0.003173828125, -0.800781250000, 0.515380859375, 21.421875000000, -1.617187500000, -1.929687500000, 1490936460
0.003173828125, -0.800781250000, 0.515380859375, 21.421875000000, -1.617187500000, -1.929687500000, 1490936460
0.003173828125, -0.800781250000, 0.515380859375, 21.421875000000, -1.617187500000, -1.929687500000, 1490936460
0.003173828125, -0.800781250000, 0.515380859375, 21.421875000000, -1.617187500000, -1.929687500000, 1490936460
-0.019042968750, -0.837890625000, 0.435058593750, 46.414062500000, -11.921875000000, -3.007812500000, 1490936461
-0.019042968750, -0.837890625000, 0.435058593750, 46.414062500000, -11.921875000000, -3.007812500000, 1490936461
-0.019042968750, -0.837890625000, 0.435058593750, 46.414062500000, -11.921875000000, -3.007812500000, 1490936461
-0.019042968750, -0.837890625000, 0.435058593750, 46.414062500000, -11.921875000000, -3.007812500000, 1490936461
-0.019042968750, -0.837890625000, 0.435058593750, 46.414062500000, -11.921875000000, -3.007812500000, 1490936461
-0.019042968750, -0.837890625000, 0.435058593750, 46.414062500000, -11.921875000000, -3.007812500000, 1490936461
0.142578125000, -0.661132812500, 0.274169921875, 81.226562500000, -17.718750000000, 2.289062500000, 1490936461
0.142578125000, -0.661132812500, 0.274169921875, 81.226562500000, -17.718750000000, 2.289062500000, 1490936461
0.142578125000, -0.661132812500, 0.274169921875, 81.226562500000, -17.718750000000, 2.289062500000, 1490936461
0.142578125000, -0.661132812500, 0.274169921875, 81.226562500000, -17.718750000000, 2.289062500000, 1490936461
0.142578125000, -0.661132812500, 0.274169921875, 81.226562500000, -17.718750000000, 2.289062500000, 1490936461
0.142578125000, -0.661132812500, 0.274169921875, 81.226562500000, -17.718750000000, 2.289062500000, 1490936461
0.142578125000, -0.661132812500, 0.274169921875, 81.226562500000, -17.718750000000, 2.289062500000, 1490936461
0.067138671875, -0.709716796875, 0.210693359375, 96.796875000000, -16.515625000000, -0.015625000000, 1490936461
0.067138671875, -0.709716796875, 0.210693359375, 96.796875000000, -16.515625000000, -0.015625000000, 1490936461
0.067138671875, -0.709716796875, 0.210693359375, 96.796875000000, -16.515625000000, -0.015625000000, 1490936461
-0.011474609375, -0.602783203125, 0.140136718750, 100.148437500000, 17.742187500000, 3.484375000000, 1490936461
-0.011474609375, -0.602783203125, 0.140136718750, 100.148437500000, 17.742187500000, 3.484375000000, 1490936461
-0.011474609375, -0.602783203125, 0.140136718750, 100.148437500000, 17.742187500000, 3.484375000000, 1490936461
-0.071289062500, -0.730468750000, 0.093750000000, 107.453125000000, -3.968750000000, -46.070312500000, 1490936461
-0.071289062500, -0.730468750000, 0.093750000000, 107.453125000000, -3.968750000000, -46.070312500000, 1490936461
-0.071289062500, -0.730468750000, 0.093750000000, 107.453125000000, -3.968750000000, -46.070312500000, 1490936461
-0.062744140625, -0.718261718750, 0.066894531250, 73.476562500000, 14.875000000000, -56.882812500000, 1490936461
-0.062744140625, -0.718261718750, 0.066894531250, 73.476562500000, 14.875000000000, -56.882812500000, 1490936461
-0.062744140625, -0.718261718750, 0.066894531250, 73.476562500000, 14.875000000000, -56.882812500000, 1490936461
-0.160400390625, -0.728515625000, 0.139160156250, 54.945312500000, -95.968750000000, -65.617187500000, 1490936461
-0.160400390625, -0.728515625000, 0.139160156250, 54.945312500000, -95.968750000000, -65.617187500000, 1490936461
-0.160400390625, -0.728515625000, 0.139160156250, 54.945312500000, -95.968750000000, -65.617187500000, 1490936461
-0.160400390625, -0.728515625000, 0.139160156250, 54.945312500000, -95.968750000000, -65.617187500000, 1490936461
-0.236816406250, -0.721679687500, 0.085693359375, -28.562500000000, -19.484375000000, -50.257812500000, 1490936461
-0.236816406250, -0.721679687500, 0.085693359375, -28.562500000000, -19.484375000000, -50.257812500000, 1490936461
-0.236816406250, -0.721679687500, 0.085693359375, -28.562500000000, -19.484375000000, -50.257812500000, 1490936461
-0.236816406250, -0.721679687500, 0.085693359375, -28.562500000000, -19.484375000000, -50.257812500000, 1490936461
-0.236816406250, -0.721679687500, 0.085693359375, -28.562500000000, -19.484375000000, -50.257812500000, 1490936461
-0.236816406250, -0.721679687500, 0.085693359375, -28.562500000000, -19.484375000000, -50.257812500000, 1490936461
-0.236816406250, -0.721679687500, 0.085693359375, -28.562500000000, -19.484375000000, -50.257812500000, 1490936461
-0.303710937500, -1.010253906250, -0.024169921875, -21.351562500000, 42.820312500000, -58.968750000000, 1490936461
-0.303710937500, -1.010253906250, -0.024169921875, -21.351562500000, 42.820312500000, -58.968750000000, 1490936461
-0.303710937500, -1.010253906250, -0.024169921875, -21.351562500000, 42.820312500000, -58.968750000000, 1490936461
-0.454345703125, -1.076660156250, -0.025390625000, -127.679687500000, 45.203125000000, -59.210937500000, 1490936461
-0.454345703125, -1.076660156250, -0.025390625000, -127.679687500000, 45.203125000000, -59.210937500000, 1490936461
-0.454345703125, -1.076660156250, -0.025390625000, -127.679687500000, 45.203125000000, -59.210937500000, 1490936461
-0.432617187500, -1.159423828125, 0.089355468750, -117.359375000000, 73.406250000000, -65.445312500000, 1490936461
-0.432617187500, -1.159423828125, 0.089355468750, -117.359375000000, 73.406250000000, -65.445312500000, 1490936461
-0.432617187500, -1.159423828125, 0.089355468750, -117.359375000000, 73.406250000000, -65.445312500000, 1490936461
-0.410888671875, -1.176025390625, 0.137451171875, -166.289062500000, 226.273437500000, -54.000000000000, 1490936461
-0.410888671875, -1.176025390625, 0.137451171875, -166.289062500000, 226.273437500000, -54.000000000000, 1490936461
-0.410888671875, -1.176025390625, 0.137451171875, -166.289062500000, 226.273437500000, -54.000000000000, 1490936461
-0.410888671875, -1.176025390625, 0.137451171875, -166.289062500000, 226.273437500000, -54.000000000000, 1490936461
-0.497070312500, -1.190185546875, 0.087646484375, -73.882812500000, 51.578125000000, -35.500000000000, 1490936461
-0.497070312500, -1.190185546875, 0.087646484375, -73.882812500000, 51.578125000000, -35.500000000000, 1490936461
-0.497070312500, -1.190185546875, 0.087646484375, -73.882812500000, 51.578125000000, -35.500000000000, 1490936461
-0.497070312500, -1.190185546875, 0.087646484375, -73.882812500000, 51.578125000000, -35.500000000000, 1490936461
-0.509765625000, -1.061767578125, -0.077636718750, 3.562500000000, 27.585937500000, 11.828125000000, 1490936461
-0.509765625000, -1.061767578125, -0.077636718750, 3.562500000000, 27.585937500000, 11.828125000000, 1490936461
-0.509765625000, -1.061767578125, -0.077636718750, 3.562500000000, 27.585937500000, 11.828125000000, 1490936461
-0.509765625000, -1.061767578125, -0.077636718750, 3.562500000000, 27.585937500000, 11.828125000000, 1490936461
-0.509765625000, -1.061767578125, -0.077636718750, 3.562500000000, 27.585937500000, 11.828125000000, 1490936461
-0.509765625000, -1.061767578125, -0.077636718750, 3.562500000000, 27.585937500000, 11.828125000000, 1490936461
-0.511474609375, -1.077880859375, -0.085693359375, 52.750000000000, 8.625000000000, 71.351562500000, 1490936461
-0.503173828125, -1.094970703125, 0.010498046875, 104.835937500000, 3.640625000000, 108.656250000000, 1490936461
-0.503173828125, -1.094970703125, 0.010498046875, 104.835937500000, 3.640625000000, 108.656250000000, 1490936461
-0.503173828125, -1.094970703125, 0.010498046875, 104.835937500000, 3.640625000000, 108.656250000000, 1490936461
-0.503173828125, -1.094970703125, 0.010498046875, 104.835937500000, 3.640625000000, 108.656250000000, 1490936461
-0.503173828125, -1.094970703125, 0.010498046875, 104.835937500000, 3.640625000000, 108.656250000000, 1490936461
-0.531250000000, -1.506591796875, 0.082275390625, 163.648437500000, -49.132812500000, 119.406250000000, 1490936462
-0.531250000000, -1.506591796875, 0.082275390625, 163.648437500000, -49.132812500000, 119.406250000000, 1490936462
-0.531250000000, -1.506591796875, 0.082275390625, 163.648437500000, -49.132812500000, 119.406250000000, 1490936462
-0.540527343750, -1.430175781250, 0.084960937500, 206.578125000000, -93.093750000000, 105.773437500000, 1490936462
-0.540527343750, -1.430175781250, 0.084960937500, 206.578125000000, -93.093750000000, 105.773437500000, 1490936462
-0.540527343750, -1.430175781250, 0.084960937500, 206.578125000000, -93.093750000000, 105.773437500000, 1490936462
-0.592041015625, -1.292968750000, 0.052490234375, 198.757812500000, -110.570312500000, 104.406250000000, 1490936462
-0.592041015625, -1.292968750000, 0.052490234375, 198.757812500000, -110.570312500000, 104.406250000000, 1490936462
-0.592041015625, -1.292968750000, 0.052490234375, 198.757812500000, -110.570312500000, 104.406250000000, 1490936462
-0.312988281250, -1.122802734375, 0.278808593750, 113.312500000000, -256.000000000000, 23.734375000000, 1490936462
-0.312988281250, -1.122802734375, 0.278808593750, 113.312500000000, -256.000000000000, 23.734375000000, 1490936462
-0.312988281250, -1.122802734375, 0.278808593750, 113.312500000000, -256.000000000000, 23.734375000000, 1490936462
-0.312988281250, -1.122802734375, 0.278808593750, 113.312500000000, -256.000000000000, 23.734375000000, 1490936462
-0.321044921875, -1.168212890625, 0.178955078125, 165.945312500000, -256.000000000000, 48.406250000000, 1490936462
-0.321044921875, -1.168212890625, 0.178955078125, 165.945312500000, -256.000000000000, 48.406250000000, 1490936462
-0.321044921875, -1.168212890625, 0.178955078125, 165.945312500000, -256.000000000000, 48.406250000000, 1490936462
-0.473144531250, -1.036865234375, 0.218750000000, -82.406250000000, 72.609375000000, 77.992187500000, 1490936462
-0.473144531250, -1.036865234375, 0.218750000000, -82.406250000000, 72.609375000000, 77.992187500000, 1490936462
-0.473144531250, -1.036865234375, 0.218750000000, -82.406250000000, 72.609375000000, 77.992187500000, 1490936462
-0.416259765625, -1.044433593750, 0.039550781250, -158.570312500000, 109.500000000000, 65.171875000000, 1490936462
-0.416259765625, -1.044433593750, 0.039550781250, -158.570312500000, 109.500000000000, 65.171875000000, 1490936462
-0.416259765625, -1.044433593750, 0.039550781250, -158.570312500000, 109.500000000000, 65.171875000000, 1490936462
-0.416259765625, -1.044433593750, 0.039550781250, -158.570312500000, 109.500000000000, 65.171875000000, 1490936462
-0.416259765625, -1.044433593750, 0.039550781250, -158.570312500000, 109.500000000000, 65.171875000000, 1490936462
-0.455322265625, -1.024414062500, -0.002685546875, -226.015625000000, 107.593750000000, 23.031250000000, 1490936462
-0.455322265625, -1.024414062500, -0.002685546875, -226.015625000000, 107.593750000000, 23.031250000000, 1490936462
-0.455322265625, -1.024414062500, -0.002685546875, -226.015625000000, 107.593750000000, 23.031250000000, 1490936462
-0.455322265625, -1.024414062500, -0.002685546875, -226.015625000000, 107.593750000000, 23.031250000000, 1490936462
-0.350097656250, -1.066162109375, 0.102294921875, -163.039062500000, 28.781250000000, -3.718750000000, 1490936462
-0.350097656250, -1.066162109375, 0.102294921875, -163.039062500000, 28.781250000000, -3.718750000000, 1490936462
-0.350097656250, -1.066162109375, 0.102294921875, -163.039062500000, 28.781250000000, -3.718750000000, 1490936462
-0.350097656250, -1.066162109375, 0.102294921875, -163.039062500000, 28.781250000000, -3.718750000000, 1490936462
-0.241210937500, -0.855957031250, 0.138427734375, -152.656250000000, 3.281250000000, -47.804687500000, 1490936462
-0.241210937500, -0.855957031250, 0.138427734375, -152.656250000000, 3.281250000000, -47.804687500000, 1490936462
-0.241210937500, -0.855957031250, 0.138427734375, -152.656250000000, 3.281250000000, -47.804687500000, 1490936462
-0.241210937500, -0.855957031250, 0.138427734375, -152.656250000000, 3.281250000000, -47.804687500000, 1490936462
-0.241210937500, -0.855957031250, 0.138427734375, -152.656250000000, 3.281250000000, -47.804687500000, 1490936462
-0.241210937500, -0.855957031250, 0.138427734375, -152.656250000000, 3.281250000000, -47.804687500000, 1490936462
-0.241210937500, -0.855957031250, 0.138427734375, -152.656250000000, 3.281250000000, -47.804687500000, 1490936462
-0.062744140625, -0.741455078125, 0.211669921875, -118.265625000000, -81.820312500000, 68.125000000000, 1490936462
-0.062744140625, -0.741455078125, 0.211669921875, -118.265625000000, -81.820312500000, 68.125000000000, 1490936462
-0.062744140625, -0.741455078125, 0.211669921875, -118.265625000000, -81.820312500000, 68.125000000000, 1490936462
0.132080078125, -0.830078125000, 0.220703125000, -42.796875000000, -165.562500000000, 65.664062500000, 1490936462
0.132080078125, -0.830078125000, 0.220703125000, -42.796875000000, -165.562500000000, 65.664062500000, 1490936462
0.132080078125, -0.830078125000, 0.220703125000, -42.796875000000, -165.562500000000, 65.664062500000, 1490936462
0.132080078125, -0.830078125000, 0.220703125000, -42.796875000000, -165.562500000000, 65.664062500000, 1490936462
0.132080078125, -0.830078125000, 0.220703125000, -42.796875000000, -165.562500000000, 65.664062500000, 1490936462
0.334228515625, -0.682617187500, 0.249267578125, 38.132812500000, -139.500000000000, 47.476562500000, 1490936462
0.334228515625, -0.682617187500, 0.249267578125, 38.132812500000, -139.500000000000, 47.476562500000, 1490936462
0.334228515625, -0.682617187500, 0.249267578125, 38.132812500000, -139.500000000000, 47.476562500000, 1490936462
0.334228515625, -0.682617187500, 0.249267578125, 38.132812500000, -139.500000000000, 47.476562500000, 1490936462
0.334228515625, -0.682617187500, 0.249267578125, 38.132812500000, -139.500000000000, 47.476562500000, 1490936462
0.328857421875, -0.508300781250, 0.208251953125, 56.640625000000, 64.757812500000, 66.460937500000, 1490936462
0.328857421875, -0.508300781250, 0.208251953125, 56.640625000000, 64.757812500000, 66.460937500000, 1490936462
0.328857421875, -0.508300781250, 0.208251953125, 56.640625000000, 64.757812500000, 66.460937500000, 1490936462
0.226074218750, -0.646484375000, 0.160644531250, 89.507812500000, 141.648437500000, 57.609375000000, 1490936462
0.226074218750, -0.646484375000, 0.160644531250, 89.507812500000, 141.648437500000, 57.609375000000, 1490936462
0.226074218750, -0.646484375000, 0.160644531250, 89.507812500000, 141.648437500000, 57.609375000000, 1490936462
0.245605468750, -0.882080078125, 0.134521484375, 33.585937500000, 92.914062500000, 31.539062500000, 1490936462
0.245605468750, -0.882080078125, 0.134521484375, 33.585937500000, 92.914062500000, 31.539062500000, 1490936462
0.245605468750, -0.882080078125, 0.134521484375, 33.585937500000, 92.914062500000, 31.539062500000, 1490936462
0.160156250000, -0.782958984375, 0.195800781250, 3.148437500000, 59.437500000000, 29.945312500000, 1490936462
0.047851562500, -1.474365234375, -0.270507812500, -33.929687500000, -11.476562500000, -69.789062500000, 1490936463
-0.117919921875, -0.846191406250, 0.207763671875, -157.632812500000, 253.992187500000, -74.796875000000, 1490936463
-0.117919921875, -0.846191406250, 0.207763671875, -157.632812500000, 253.992187500000, -74.796875000000, 1490936463
-0.092773437500, -0.743164062500, 0.682861328125, 100.179687500000, 108.632812500000, 4.796875000000, 1490936463
-0.092773437500, -0.743164062500, 0.682861328125, 100.179687500000, 108.632812500000, 4.796875000000, 1490936463
-0.092773437500, -0.743164062500, 0.682861328125, 100.179687500000, 108.632812500000, 4.796875000000, 1490936463
-0.092773437500, -0.743164062500, 0.682861328125, 100.179687500000, 108.632812500000, 4.796875000000, 1490936463
-0.092773437500, -0.743164062500, 0.682861328125, 100.179687500000, 108.632812500000, 4.796875000000, 1490936463
-0.092773437500, -0.743164062500, 0.682861328125, 100.179687500000, 108.632812500000, 4.796875000000, 1490936463
-0.092773437500, -0.743164062500, 0.682861328125, 100.179687500000, 108.632812500000, 4.796875000000, 1490936463
-0.128662109375, -0.964355468750, 0.767822265625, -129.718750000000, 129.000000000000, 7.390625000000, 1490936463
-0.170654296875, -0.807617187500, 0.446533203125, -107.757812500000, 96.859375000000, -37.320312500000, 1490936463
-0.170654296875, -0.807617187500, 0.446533203125, -107.757812500000, 96.859375000000, -37.320312500000, 1490936463
-0.170654296875, -0.807617187500, 0.446533203125, -107.757812500000, 96.859375000000, -37.320312500000, 1490936463
-0.170654296875, -0.807617187500, 0.446533203125, -107.757812500000, 96.859375000000, -37.320312500000, 1490936463
-0.170654296875, -0.807617187500, 0.446533203125, -107.757812500000, 96.859375000000, -37.320312500000, 1490936463
-0.170654296875, -0.807617187500, 0.446533203125, -107.757812500000, 96.859375000000, -37.320312500000, 1490936463
-0.269531250000, -0.786132812500, 0.527832031250, 5.851562500000, -40.875000000000, -23.289062500000, 1490936463
-0.269531250000, -0.786132812500, 0.527832031250, 5.851562500000, -40.875000000000, -23.289062500000, 1490936463
-0.269531250000, -0.786132812500, 0.527832031250, 5.851562500000, -40.875000000000, -23.289062500000, 1490936463
-0.269531250000, -0.786132812500, 0.527832031250, 5.851562500000, -40.875000000000, -23.289062500000, 1490936463
-0.168701171875, -0.813232421875, 0.469238281250, -17.414062500000, -5.492187500000, -7.070312500000, 1490936463
-0.168701171875, -0.813232421875, 0.469238281250, -17.414062500000, -5.492187500000, -7.070312500000, 1490936463
-0.168701171875, -0.813232421875, 0.469238281250, -17.414062500000, -5.492187500000, -7.070312500000, 1490936463
-0.168701171875, -0.813232421875, 0.469238281250, -17.414062500000, -5.492187500000, -7.070312500000, 1490936463
-0.168701171875, -0.813232421875, 0.469238281250, -17.414062500000, -5.492187500000, -7.070312500000, 1490936463
-0.261230468750, -0.744140625000, 0.534912109375, -12.210937500000, -6.500000000000, -3.296875000000, 1490936463
-0.261230468750, -0.744140625000, 0.534912109375, -12.210937500000, -6.500000000000, -3.296875000000, 1490936463
-0.261230468750, -0.744140625000, 0.534912109375, -12.210937500000, -6.500000000000, -3.296875000000, 1490936463
-0.261230468750, -0.744140625000, 0.534912109375, -12.210937500000, -6.500000000000, -3.296875000000, 1490936463
-0.212646484375, -0.785644531250, 0.477050781250, -12.562500000000, -3.085937500000, -6.148437500000, 1490936463
-0.212646484375, -0.785644531250, 0.477050781250, -12.562500000000, -3.085937500000, -6.148437500000, 1490936463
-0.212646484375, -0.785644531250, 0.477050781250, -12.562500000000, -3.085937500000, -6.148437500000, 1490936463
-0.220214843750, -0.755126953125, 0.584716796875, -16.148437500000, -1.875000000000, -5.812500000000, 1490936463
-0.270996093750, -0.806640625000, 0.486083984375, -16.148437500000, -1.875000000000, -5.812500000000, 1490936463
-0.270996093750, -0.806640625000, 0.486083984375, -16.148437500000, -1.875000000000, -5.812500000000, 1490936463
-0.270996093750, -0.806640625000, 0.486083984375, -16.148437500000, -1.875000000000, -5.812500000000, 1490936463
-0.270996093750, -0.806640625000, 0.486083984375, -16.148437500000, -1.875000000000, -5.812500000000, 1490936463
-0.270996093750, -0.806640625000, 0.486083984375, -16.148437500000, -1.875000000000, -5.812500000000, 1490936463
-0.270996093750, -0.806640625000, 0.486083984375, -16.148437500000, -1.875000000000, -5.812500000000, 1490936463
-0.175292968750, -0.756103515625, 0.492919921875, -8.757812500000, 3.273437500000, -3.632812500000, 1490936463
-0.175292968750, -0.756103515625, 0.492919921875, -8.757812500000, 3.273437500000, -3.632812500000, 1490936463
-0.175292968750, -0.756103515625, 0.492919921875, -8.757812500000, 3.273437500000, -3.632812500000, 1490936463
-0.175292968750, -0.756103515625, 0.492919921875, -8.757812500000, 3.273437500000, -3.632812500000, 1490936463
-0.238037109375, -0.820556640625, 0.656250000000, -8.078125000000, 4.710937500000, -3.156250000000, 1490936463
-0.245361328125, -0.757568359375, 0.532958984375, -4.718750000000, 1.234375000000, -3.929687500000, 1490936463
-0.245361328125, -0.757568359375, 0.532958984375, -4.718750000000, 1.234375000000, -3.929687500000, 1490936463
-0.245361328125, -0.757568359375, 0.532958984375, -4.718750000000, 1.234375000000, -3.929687500000, 1490936463
-0.245361328125, -0.757568359375, 0.532958984375, -4.718750000000, 1.234375000000, -3.929687500000, 1490936463
-0.264160156250, -0.785156250000, 0.606689453125, -6.140625000000, -0.710937500000, -6.734375000000, 1490936463
-0.264160156250, -0.785156250000, 0.606689453125, -6.140625000000, -0.710937500000, -6.734375000000, 1490936463
-0.264160156250, -0.785156250000, 0.606689453125, -6.140625000000, -0.710937500000, -6.734375000000, 1490936463
-0.264160156250, -0.785156250000, 0.606689453125, -6.140625000000, -0.710937500000, -6.734375000000, 1490936463
-0.267578125000, -0.842041015625, 0.648925781250, -8.968750000000, -6.976562500000, -8.453125000000, 1490936463
-0.267578125000, -0.842041015625, 0.648925781250, -8.968750000000, -6.976562500000, -8.453125000000, 1490936463
-0.267578125000, -0.842041015625, 0.648925781250, -8.968750000000, -6.976562500000, -8.453125000000, 1490936463
