ACC_X,ACC_Y,ACC_Z,G_X,G_Y,G_Z,Unix Time
-0.082031250000, -0.348632812500, 0.322021484375, -7.226562500000, 13.921875000000, 0.625000000000, 1490935595
0.002441406250, -0.267333984375, 0.252441406250, -16.851562500000, 11.820312500000, -1.242187500000, 1490935595
-0.015869140625, -0.180419921875, 0.115478515625, -24.804687500000, 23.093750000000, -4.992187500000, 1490935595
-0.095703125000, -0.392822265625, -0.008300781250, -42.804687500000, 11.906250000000, -22.937500000000, 1490935595
-0.095703125000, -0.392822265625, -0.008300781250, -42.804687500000, 11.906250000000, -22.937500000000, 1490935595
-0.095703125000, -0.392822265625, -0.008300781250, -42.804687500000, 11.906250000000, -22.937500000000, 1490935595
-0.095703125000, -0.392822265625, -0.008300781250, -42.804687500000, 11.906250000000, -22.937500000000, 1490935595
-0.095703125000, -0.392822265625, -0.008300781250, -42.804687500000, 11.906250000000, -22.937500000000, 1490935595
-0.763427734375, -1.348144531250, 0.739990234375, -5.312500000000, -36.953125000000, -111.140625000000, 1490935595
-0.031738281250, -1.183105468750, 0.413330078125, -28.320312500000, -5.320312500000, -45.039062500000, 1490935595
-0.031738281250, -1.183105468750, 0.413330078125, -28.320312500000, -5.320312500000, -45.039062500000, 1490935595
-0.031738281250, -1.183105468750, 0.413330078125, -28.320312500000, -5.320312500000, -45.039062500000, 1490935595
-0.031738281250, -1.183105468750, 0.413330078125, -28.320312500000, -5.320312500000, -45.039062500000, 1490935595
-0.031738281250, -1.183105468750, 0.413330078125, -28.320312500000, -5.320312500000, -45.039062500000, 1490935595
-0.031738281250, -1.183105468750, 0.413330078125, -28.320312500000, -5.320312500000, -45.039062500000, 1490935595
-1.052734375000, -1.895996093750, 1.006835937500, 15.625000000000, -3.609375000000, 6.906250000000, 1490935595
-1.052734375000, -1.895996093750, 1.006835937500, 15.625000000000, -3.609375000000, 6.906250000000, 1490935595
-1.052734375000, -1.895996093750, 1.006835937500, 15.625000000000, -3.609375000000, 6.906250000000, 1490935595
-1.052734375000, -1.895996093750, 1.006835937500, 15.625000000000, -3.609375000000, 6.906250000000, 1490935595
-0.772216796875, -1.345458984375, 0.599853515625, 13.835937500000, -63.492187500000, -10.320312500000, 1490935596
-0.772216796875, -1.345458984375, 0.599853515625, 13.835937500000, -63.492187500000, -10.320312500000, 1490935596
-0.259765625000, -0.686279296875, 0.472656250000, 29.132812500000, -80.703125000000, -7.203125000000, 1490935596
-0.259765625000, -0.686279296875, 0.472656250000, 29.132812500000, -80.703125000000, -7.203125000000, 1490935596
-0.259765625000, -0.686279296875, 0.472656250000, 29.132812500000, -80.703125000000, -7.203125000000, 1490935596
-0.259765625000, -0.686279296875, 0.472656250000, 29.132812500000, -80.703125000000, -7.203125000000, 1490935596
0.075683593750, -0.333740234375, 0.250244140625, -12.445312500000, -19.085937500000, 7.164062500000, 1490935596
0.075683593750, -0.333740234375, 0.250244140625, -12.445312500000, -19.085937500000, 7.164062500000, 1490935596
0.075683593750, -0.333740234375, 0.250244140625, -12.445312500000, -19.085937500000, 7.164062500000, 1490935596
-0.079101562500, -0.060058593750, 0.000732421875, -29.179687500000, -23.250000000000, 10.554687500000, 1490935596
-0.079101562500, -0.060058593750, 0.000732421875, -29.179687500000, -23.250000000000, 10.554687500000, 1490935596
-0.079101562500, -0.060058593750, 0.000732421875, -29.179687500000, -23.250000000000, 10.554687500000, 1490935596
-0.079101562500, -0.060058593750, 0.000732421875, -29.179687500000, -23.250000000000, 10.554687500000, 1490935596
0.001464843750, -0.191650390625, 0.068603515625, -38.671875000000, -18.937500000000, -4.609375000000, 1490935596
0.001464843750, -0.191650390625, 0.068603515625, -38.671875000000, -18.937500000000, -4.609375000000, 1490935596
0.001464843750, -0.191650390625, 0.068603515625, -38.671875000000, -18.937500000000, -4.609375000000, 1490935596
0.188232421875, -0.772949218750, 0.160888671875, -35.148437500000, 69.992187500000, 20.898437500000, 1490935596
0.188232421875, -0.772949218750, 0.160888671875, -35.148437500000, 69.992187500000, 20.898437500000, 1490935596
0.188232421875, -0.772949218750, 0.160888671875, -35.148437500000, 69.992187500000, 20.898437500000, 1490935596
0.229980468750, -1.522705078125, 0.279541015625, -25.382812500000, 127.367187500000, 53.117187500000, 1490935596
-0.386718750000, -1.724853515625, 1.120361328125, 53.757812500000, -46.515625000000, -18.265625000000, 1490935596
-0.386718750000, -1.724853515625, 1.120361328125, 53.757812500000, -46.515625000000, -18.265625000000, 1490935596
-0.386718750000, -1.724853515625, 1.120361328125, 53.757812500000, -46.515625000000, -18.265625000000, 1490935596
-0.386718750000, -1.724853515625, 1.120361328125, 53.757812500000, -46.515625000000, -18.265625000000, 1490935596
-0.386718750000, -1.724853515625, 1.120361328125, 53.757812500000, -46.515625000000, -18.265625000000, 1490935596
0.140136718750, -1.606689453125, 1.097656250000, 3.898437500000, -68.656250000000, -43.335937500000, 1490935596
0.140136718750, -1.606689453125, 1.097656250000, 3.898437500000, -68.656250000000, -43.335937500000, 1490935596
-0.107910156250, -0.707275390625, 0.531005859375, -15.078125000000, 103.000000000000, 13.453125000000, 1490935596
-0.107910156250, -0.707275390625, 0.531005859375, -15.078125000000, 103.000000000000, 13.453125000000, 1490935596
-0.107910156250, -0.707275390625, 0.531005859375, -15.078125000000, 103.000000000000, 13.453125000000, 1490935596
-0.107910156250, -0.707275390625, 0.531005859375, -15.078125000000, 103.000000000000, 13.453125000000, 1490935596
-0.107910156250, -0.707275390625, 0.531005859375, -15.078125000000, 103.000000000000, 13.453125000000, 1490935596
0.000244140625, -0.314453125000, 0.216308593750, -33.945312500000, 55.914062500000, 5.718750000000, 1490935596
0.000244140625, -0.314453125000, 0.216308593750, -33.945312500000, 55.914062500000, 5.718750000000, 1490935596
0.000244140625, -0.314453125000, 0.216308593750, -33.945312500000, 55.914062500000, 5.718750000000, 1490935596
-0.092773437500, -0.132568359375, 0.072998046875, -42.281250000000, 26.109375000000, 9.031250000000, 1490935596
-0.092773437500, -0.132568359375, 0.072998046875, -42.281250000000, 26.109375000000, 9.031250000000, 1490935596
-0.027343750000, 0.011474609375, -0.063232421875, -40.000000000000, -30.656250000000, -13.718750000000, 1490935596
-0.027343750000, 0.011474609375, -0.063232421875, -40.000000000000, -30.656250000000, -13.718750000000, 1490935596
-0.160888671875, -0.565673828125, 0.018066406250, -26.492187500000, 22.500000000000, -14.890625000000, 1490935596
-0.160888671875, -0.565673828125, 0.018066406250, -26.492187500000, 22.500000000000, -14.890625000000, 1490935596
-0.160888671875, -0.565673828125, 0.018066406250, -26.492187500000, 22.500000000000, -14.890625000000, 1490935596
-0.092041015625, -1.809814453125, 1.311523437500, -46.671875000000, -135.140625000000, -112.335937500000, 1490935596
-0.092041015625, -1.809814453125, 1.311523437500, -46.671875000000, -135.140625000000, -112.335937500000, 1490935596
-0.092041015625, -1.809814453125, 1.311523437500, -46.671875000000, -135.140625000000, -112.335937500000, 1490935596
-0.092041015625, -1.809814453125, 1.311523437500, -46.671875000000, -135.140625000000, -112.335937500000, 1490935596
-0.092041015625, -1.809814453125, 1.311523437500, -46.671875000000, -135.140625000000, -112.335937500000, 1490935596
-0.092041015625, -1.809814453125, 1.311523437500, -46.671875000000, -135.140625000000, -112.335937500000, 1490935596
-0.485351562500, -2.029052734375, 0.840820312500, -81.453125000000, 210.406250000000, -11.718750000000, 1490935596
-0.789550781250, -1.677978515625, 0.583740234375, -9.515625000000, 69.898437500000, 52.695312500000, 1490935596
-0.789550781250, -1.677978515625, 0.583740234375, -9.515625000000, 69.898437500000, 52.695312500000, 1490935596
-0.789550781250, -1.677978515625, 0.583740234375, -9.515625000000, 69.898437500000, 52.695312500000, 1490935596
-0.270751953125, -1.061767578125, 0.812988281250, 23.804687500000, -21.710937500000, -1.437500000000, 1490935596
-0.270751953125, -1.061767578125, 0.812988281250, 23.804687500000, -21.710937500000, -1.437500000000, 1490935596
-0.270751953125, -1.061767578125, 0.812988281250, 23.804687500000, -21.710937500000, -1.437500000000, 1490935596
-0.142578125000, -0.681152343750, 0.555175781250, -6.703125000000, -31.515625000000, 17.031250000000, 1490935596
-0.142578125000, -0.681152343750, 0.555175781250, -6.703125000000, -31.515625000000, 17.031250000000, 1490935596
-0.142578125000, -0.681152343750, 0.555175781250, -6.703125000000, -31.515625000000, 17.031250000000, 1490935596
-0.088867187500, -0.340087890625, 0.173095703125, -22.625000000000, -9.109375000000, 14.656250000000, 1490935596
-0.088867187500, -0.340087890625, 0.173095703125, -22.625000000000, -9.109375000000, 14.656250000000, 1490935596
-0.088867187500, -0.340087890625, 0.173095703125, -22.625000000000, -9.109375000000, 14.656250000000, 1490935596
-0.019531250000, -0.141601562500, 0.021972656250, -19.492187500000, 6.054687500000, 4.453125000000, 1490935596
-0.019531250000, -0.141601562500, 0.021972656250, -19.492187500000, 6.054687500000, 4.453125000000, 1490935596
-0.019531250000, -0.141601562500, 0.021972656250, -19.492187500000, 6.054687500000, 4.453125000000, 1490935596
-0.019531250000, -0.141601562500, 0.021972656250, -19.492187500000, 6.054687500000, 4.453125000000, 1490935596
-0.016113281250, -0.186279296875, 0.140380859375, -33.460937500000, 67.843750000000, -0.617187500000, 1490935596
-0.016113281250, -0.186279296875, 0.140380859375, -33.460937500000, 67.843750000000, -0.617187500000, 1490935596
-0.016113281250, -0.186279296875, 0.140380859375, -33.460937500000, 67.843750000000, -0.617187500000, 1490935596
0.096923828125, -0.115966796875, 0.231689453125, -3.109375000000, 100.937500000000, 18.000000000000, 1490935597
0.096923828125, -0.115966796875, 0.231689453125, -3.109375000000, 100.937500000000, 18.000000000000, 1490935597
-0.446533203125, -1.424072265625, 0.979736328125, 82.851562500000, -81.343750000000, 70.664062500000, 1490935597
-0.446533203125, -1.424072265625, 0.979736328125, 82.851562500000, -81.343750000000, 70.664062500000, 1490935597
-0.446533203125, -1.424072265625, 0.979736328125, 82.851562500000, -81.343750000000, 70.664062500000, 1490935597
-0.446533203125, -1.424072265625, 0.979736328125, 82.851562500000, -81.343750000000, 70.664062500000, 1490935597
-0.199462890625, -2.310058593750, 1.249511718750, 110.625000000000, 2.695312500000, -29.562500000000, 1490935597
-0.199462890625, -2.310058593750, 1.249511718750, 110.625000000000, 2.695312500000, -29.562500000000, 1490935597
-0.199462890625, -2.310058593750, 1.249511718750, 110.625000000000, 2.695312500000, -29.562500000000, 1490935597
-0.199462890625, -2.310058593750, 1.249511718750, 110.625000000000, 2.695312500000, -29.562500000000, 1490935597
0.163818359375, -1.764648437500, 0.883056640625, 0.125000000000, 97.593750000000, -25.835937500000, 1490935597
0.163818359375, -1.764648437500, 0.883056640625, 0.125000000000, 97.593750000000, -25.835937500000, 1490935597
0.163818359375, -1.764648437500, 0.883056640625, 0.125000000000, 97.593750000000, -25.835937500000, 1490935597
0.155761718750, -1.207763671875, 0.761718750000, -14.484375000000, 58.390625000000, -12.492187500000, 1490935597
0.155761718750, -1.207763671875, 0.761718750000, -14.484375000000, 58.390625000000, -12.492187500000, 1490935597
0.155761718750, -1.207763671875, 0.761718750000, -14.484375000000, 58.390625000000, -12.492187500000, 1490935597
-0.088378906250, -0.830078125000, 0.444091796875, -11.445312500000, 102.390625000000, 10.757812500000, 1490935597
-0.088378906250, -0.830078125000, 0.444091796875, -11.445312500000, 102.390625000000, 10.757812500000, 1490935597
-0.088378906250, -0.830078125000, 0.444091796875, -11.445312500000, 102.390625000000, 10.757812500000, 1490935597
0.051269531250, -0.592041015625, 0.284667968750, -8.617187500000, 69.687500000000, 9.937500000000, 1490935597
-0.143554687500, -0.116699218750, -0.065185546875, -85.539062500000, 63.429687500000, 14.898437500000, 1490935597
-0.143554687500, -0.116699218750, -0.065185546875, -85.539062500000, 63.429687500000, 14.898437500000, 1490935597
-0.143554687500, -0.116699218750, -0.065185546875, -85.539062500000, 63.429687500000, 14.898437500000, 1490935597
-0.143554687500, -0.116699218750, -0.065185546875, -85.539062500000, 63.429687500000, 14.898437500000, 1490935597
-0.143554687500, -0.116699218750, -0.065185546875, -85.539062500000, 63.429687500000, 14.898437500000, 1490935597
-0.143554687500, -0.116699218750, -0.065185546875, -85.539062500000, 63.429687500000, 14.898437500000, 1490935597
-0.051757812500, -0.094726562500, 0.000732421875, -30.781250000000, 7.820312500000, 1.984375000000, 1490935597
-0.051757812500, -0.094726562500, 0.000732421875, -30.781250000000, 7.820312500000, 1.984375000000, 1490935597
-0.051757812500, -0.094726562500, 0.000732421875, -30.781250000000, 7.820312500000, 1.984375000000, 1490935597
-0.234619140625, -0.839111328125, 0.041015625000, 10.437500000000, 41.976562500000, -37.484375000000, 1490935597
-0.234619140625, -0.839111328125, 0.041015625000, 10.437500000000, 41.976562500000, -37.484375000000, 1490935597
-0.234619140625, -0.839111328125, 0.041015625000, 10.437500000000, 41.976562500000, -37.484375000000, 1490935597
-0.257324218750, -1.589355468750, 0.859619140625, -64.484375000000, -29.656250000000, -30.078125000000, 1490935597
-0.257324218750, -1.589355468750, 0.859619140625, -64.484375000000, -29.656250000000, -30.078125000000, 1490935597
-0.257324218750, -1.589355468750, 0.859619140625, -64.484375000000, -29.656250000000, -30.078125000000, 1490935597
-0.257324218750, -1.589355468750, 0.859619140625, -64.484375000000, -29.656250000000, -30.078125000000, 1490935597
-0.719726562500, -1.901611328125, 0.889648437500, -8.203125000000, 149.875000000000, 35.906250000000, 1490935597
-0.719726562500, -1.901611328125, 0.889648437500, -8.203125000000, 149.875000000000, 35.906250000000, 1490935597
-0.451171875000, -1.064697265625, 0.744628906250, 50.250000000000, -20.820312500000, 30.523437500000, 1490935597
-0.078125000000, -0.557373046875, 0.417236328125, -13.484375000000, 9.890625000000, 18.671875000000, 1490935597
-0.078125000000, -0.557373046875, 0.417236328125, -13.484375000000, 9.890625000000, 18.671875000000, 1490935597
-0.078125000000, -0.557373046875, 0.417236328125, -19.109375000000, 13.796875000000, 20.156250000000, 1490935597
-0.130615234375, -0.294189453125, 0.166259765625, -16.218750000000, -3.242187500000, 22.679687500000, 1490935597
-0.130615234375, -0.294189453125, 0.166259765625, -16.218750000000, -3.242187500000, 22.679687500000, 1490935597
-0.130615234375, -0.294189453125, 0.166259765625, -16.218750000000, -3.242187500000, 22.679687500000, 1490935597
-0.130615234375, -0.294189453125, 0.166259765625, -16.218750000000, -3.242187500000, 22.679687500000, 1490935597
0.025146484375, -0.198730468750, 0.088867187500, -10.992187500000, 6.703125000000, 24.257812500000, 1490935597
0.025146484375, -0.198730468750, 0.088867187500, -10.992187500000, 6.703125000000, 24.257812500000, 1490935597
0.025146484375, -0.198730468750, 0.088867187500, -10.992187500000, 6.703125000000, 24.257812500000, 1490935597
0.025146484375, -0.198730468750, 0.088867187500, -10.992187500000, 6.703125000000, 24.257812500000, 1490935597
0.013916015625, -0.200683593750, 0.142089843750, -19.890625000000, 34.585937500000, 27.187500000000, 1490935597
0.013916015625, -0.200683593750, 0.142089843750, -19.890625000000, 34.585937500000, 27.187500000000, 1490935597
0.013916015625, -0.200683593750, 0.142089843750, -19.890625000000, 34.585937500000, 27.187500000000, 1490935597
0.013916015625, -0.200683593750, 0.142089843750, -19.890625000000, 34.585937500000, 27.187500000000, 1490935597
-0.001220703125, -0.110107421875, 0.089599609375, -27.671875000000, 46.546875000000, 26.734375000000, 1490935597
0.600097656250, -1.335937500000, 1.010253906250, -1.218750000000, 104.789062500000, 155.523437500000, 1490935597
0.600097656250, -1.335937500000, 1.010253906250, -1.218750000000, 104.789062500000, 155.523437500000, 1490935597
0.600097656250, -1.335937500000, 1.010253906250, -1.218750000000, 104.789062500000, 155.523437500000, 1490935597
0.600097656250, -1.335937500000, 1.010253906250, -1.218750000000, 104.789062500000, 155.523437500000, 1490935597
-0.315917968750, -1.867675781250, 0.770507812500, 104.179687500000, 159.046875000000, 85.742187500000, 1490935597
-0.496337890625, -1.665039062500, 0.860107421875, 104.179687500000, 159.046875000000, 85.742187500000, 1490935597
-0.496337890625, -1.665039062500, 0.860107421875, 104.179687500000, 159.046875000000, 85.742187500000, 1490935597
0.492431640625, -1.511474609375, 0.873779296875, -48.679687500000, 60.015625000000, 34.875000000000, 1490935597
0.492431640625, -1.511474609375, 0.873779296875, -48.679687500000, 60.015625000000, 34.875000000000, 1490935598
0.492431640625, -1.511474609375, 0.873779296875, -48.679687500000, 60.015625000000, 34.875000000000, 1490935598
0.492431640625, -1.511474609375, 0.873779296875, -48.679687500000, 60.015625000000, 34.875000000000, 1490935598
0.492431640625, -1.511474609375, 0.873779296875, -48.679687500000, 60.015625000000, 34.875000000000, 1490935598
0.492431640625, -1.511474609375, 0.873779296875, -48.679687500000, 60.015625000000, 34.875000000000, 1490935598
-0.154052734375, -1.105224609375, 0.448242187500, 5.867187500000, 144.507812500000, 35.445312500000, 1490935598
-0.154052734375, -1.105224609375, 0.448242187500, 5.867187500000, 144.507812500000, 35.445312500000, 1490935598
-0.154052734375, -1.105224609375, 0.448242187500, 5.867187500000, 144.507812500000, 35.445312500000, 1490935598
-0.092773437500, -0.744628906250, 0.508789062500, 4.859375000000, 95.992187500000, 8.906250000000, 1490935598
-0.092773437500, -0.744628906250, 0.508789062500, 4.859375000000, 95.992187500000, 8.906250000000, 1490935598
0.034179687500, -0.143554687500, 0.145263671875, -19.687500000000, 134.054687500000, 8.710937500000, 1490935598
0.034179687500, -0.143554687500, 0.145263671875, -19.687500000000, 134.054687500000, 8.710937500000, 1490935598
0.034179687500, -0.143554687500, 0.145263671875, -19.687500000000, 134.054687500000, 8.710937500000, 1490935598
0.034179687500, -0.143554687500, 0.145263671875, -19.687500000000, 134.054687500000, 8.710937500000, 1490935598
0.034179687500, -0.143554687500, 0.145263671875, -19.687500000000, 134.054687500000, 8.710937500000, 1490935598
-0.002929687500, -0.277099609375, 0.081542968750, -36.507812500000, 94.015625000000, -9.898437500000, 1490935598
-0.002929687500, -0.277099609375, 0.081542968750, -36.507812500000, 94.015625000000, -9.898437500000, 1490935598
-0.002929687500, -0.277099609375, 0.081542968750, -36.507812500000, 94.015625000000, -9.898437500000, 1490935598
-0.022216796875, -0.295898437500, 0.062011718750, -65.757812500000, 16.289062500000, 7.171875000000, 1490935598
-0.022216796875, -0.295898437500, 0.062011718750, -65.757812500000, 16.289062500000, 7.171875000000, 1490935598
-0.022216796875, -0.295898437500, 0.062011718750, -65.757812500000, 16.289062500000, 7.171875000000, 1490935598
-0.482421875000, -1.166992187500, 1.387939453125, 162.437500000000, -73.906250000000, 60.382812500000, 1490935598
-0.482421875000, -1.166992187500, 1.387939453125, 162.437500000000, -73.906250000000, 60.382812500000, 1490935598
-0.482421875000, -1.166992187500, 1.387939453125, 162.437500000000, -73.906250000000, 60.382812500000, 1490935598
-0.482421875000, -1.166992187500, 1.387939453125, 162.437500000000, -73.906250000000, 60.382812500000, 1490935598
-0.140136718750, -1.620605468750, 0.212890625000, -47.523437500000, 89.523437500000, -40.789062500000, 1490935598
-0.140136718750, -1.620605468750, 0.212890625000, -47.523437500000, 89.523437500000, -40.789062500000, 1490935598
-0.140136718750, -1.620605468750, 0.212890625000, -47.523437500000, 89.523437500000, -40.789062500000, 1490935598
-0.285888671875, -1.750488281250, 1.236328125000, 132.351562500000, 69.757812500000, 62.468750000000, 1490935598
-0.285888671875, -1.750488281250, 1.236328125000, 132.351562500000, 69.757812500000, 62.468750000000, 1490935598
-0.191406250000, -1.567626953125, 0.591796875000, -71.195312500000, 99.140625000000, 21.875000000000, 1490935598
-0.191406250000, -1.567626953125, 0.591796875000, -71.195312500000, 99.140625000000, 21.875000000000, 1490935598
-0.036621093750, -0.773437500000, 0.465087890625, -28.468750000000, 58.070312500000, 18.992187500000, 1490935598
-0.036621093750, -0.773437500000, 0.465087890625, -28.468750000000, 58.070312500000, 18.992187500000, 1490935598
-0.036621093750, -0.773437500000, 0.465087890625, -28.468750000000, 58.070312500000, 18.992187500000, 1490935598
-0.036621093750, -0.773437500000, 0.465087890625, -28.468750000000, 58.070312500000, 18.992187500000, 1490935598
0.063232421875, -0.442138671875, 0.200195312500, -17.585937500000, 67.171875000000, 36.921875000000, 1490935598
0.063232421875, -0.442138671875, 0.200195312500, -17.585937500000, 67.171875000000, 36.921875000000, 1490935598
0.063232421875, -0.442138671875, 0.200195312500, -17.585937500000, 67.171875000000, 36.921875000000, 1490935598
0.017578125000, -0.295654296875, 0.136230468750, -17.539062500000, 52.164062500000, 44.875000000000, 1490935598
0.017578125000, -0.295654296875, 0.136230468750, -17.539062500000, 52.164062500000, 44.875000000000, 1490935598
0.017578125000, -0.295654296875, 0.136230468750, -17.539062500000, 52.164062500000, 44.875000000000, 1490935598
0.017578125000, -0.295654296875, 0.136230468750, -17.539062500000, 52.164062500000, 44.875000000000, 1490935598
-0.091064453125, -0.229003906250, 0.144531250000, -36.406250000000, 53.937500000000, 43.835937500000, 1490935598
-0.091064453125, -0.229003906250, 0.144531250000, -36.406250000000, 53.937500000000, 43.835937500000, 1490935598
0.176025390625, -0.500976562500, 0.125000000000, -32.078125000000, 77.757812500000, 57.898437500000, 1490935598
0.176025390625, -0.500976562500, 0.125000000000, -32.078125000000, 77.757812500000, 57.898437500000, 1490935598
0.176025390625, -0.500976562500, 0.125000000000, -32.078125000000, 77.757812500000, 57.898437500000, 1490935598
0.176025390625, -0.500976562500, 0.125000000000, -32.078125000000, 77.757812500000, 57.898437500000, 1490935598
0.176025390625, -0.500976562500, 0.125000000000, -32.078125000000, 77.757812500000, 57.898437500000, 1490935598
0.176025390625, -0.500976562500, 0.125000000000, -32.078125000000, 77.757812500000, 57.898437500000, 1490935598
0.316162109375, -1.035156250000, 0.892333984375, 74.992187500000, -51.078125000000, 148.500000000000, 1490935598
0.316162109375, -1.035156250000, 0.892333984375, 74.992187500000, -51.078125000000, 148.500000000000, 1490935598
0.316162109375, -1.035156250000, 0.892333984375, 74.992187500000, -51.078125000000, 148.500000000000, 1490935598
-0.518066406250, -1.880615234375, 0.630615234375, 6.703125000000, 32.054687500000, 10.632812500000, 1490935598
-0.518066406250, -1.880615234375, 0.630615234375, 6.703125000000, 32.054687500000, 10.632812500000, 1490935598
-0.518066406250, -1.880615234375, 0.630615234375, 6.703125000000, 32.054687500000, 10.632812500000, 1490935598
0.356933593750, -1.620361328125, 0.777099609375, -28.523437500000, 134.382812500000, -10.351562500000, 1490935598
0.356933593750, -1.620361328125, 0.777099609375, -28.523437500000, 134.382812500000, -10.351562500000, 1490935598
0.356933593750, -1.620361328125, 0.777099609375, -28.523437500000, 134.382812500000, -10.351562500000, 1490935598
0.356933593750, -1.620361328125, 0.777099609375, -28.523437500000, 134.382812500000, -10.351562500000, 1490935598
0.255126953125, -1.327392578125, 0.474121093750, -8.984375000000, 83.382812500000, -22.406250000000, 1490935598
0.255126953125, -1.327392578125, 0.474121093750, -8.984375000000, 83.382812500000, -22.406250000000, 1490935598
0.051513671875, -0.479003906250, 0.319335937500, -4.968750000000, 91.078125000000, -2.289062500000, 1490935598
0.051513671875, -0.479003906250, 0.319335937500, -4.968750000000, 91.078125000000, -2.289062500000, 1490935598
0.051513671875, -0.479003906250, 0.319335937500, -4.968750000000, 91.078125000000, -2.289062500000, 1490935598
0.051513671875, -0.479003906250, 0.319335937500, -4.968750000000, 91.078125000000, -2.289062500000, 1490935598
0.039794921875, -0.247802734375, 0.137451171875, -13.281250000000, 69.843750000000, -2.757812500000, 1490935598
0.039794921875, -0.247802734375, 0.137451171875, -13.281250000000, 69.843750000000, -2.757812500000, 1490935598
0.039794921875, -0.247802734375, 0.137451171875, -13.281250000000, 69.843750000000, -2.757812500000, 1490935598
-0.008789062500, -0.253417968750, 0.082763671875, -61.875000000000, 63.093750000000, 10.421875000000, 1490935599
-0.008789062500, -0.253417968750, 0.082763671875, -61.875000000000, 63.093750000000, 10.421875000000, 1490935599
-0.008789062500, -0.253417968750, 0.082763671875, -61.875000000000, 63.093750000000, 10.421875000000, 1490935599
-0.192626953125, -0.557373046875, -0.001220703125, -70.710937500000, 82.171875000000, -15.531250000000, 1490935599
-0.192626953125, -0.557373046875, -0.001220703125, -70.710937500000, 82.171875000000, -15.531250000000, 1490935599
-0.192626953125, -0.557373046875, -0.001220703125, -70.710937500000, 82.171875000000, -15.531250000000, 1490935599
-0.192626953125, -0.557373046875, -0.001220703125, -70.710937500000, 82.171875000000, -15.531250000000, 1490935599
-0.092285156250, -0.961914062500, 0.079589843750, -5.554687500000, 179.406250000000, 11.273437500000, 1490935599
-0.092285156250, -0.961914062500, 0.079589843750, -5.554687500000, 179.406250000000, 11.273437500000, 1490935599
-0.461669921875, -1.144775390625, 0.420166015625, 81.906250000000, 100.828125000000, 24.968750000000, 1490935599
-0.461669921875, -1.144775390625, 0.420166015625, 81.906250000000, 100.828125000000, 24.968750000000, 1490935599
-0.538818359375, -1.804687500000, 0.654785156250, -107.515625000000, 114.117187500000, -25.562500000000, 1490935599
-0.538818359375, -1.804687500000, 0.654785156250, -107.515625000000, 114.117187500000, -25.562500000000, 1490935599
-0.538818359375, -1.804687500000, 0.654785156250, -107.515625000000, 114.117187500000, -25.562500000000, 1490935599
-0.393310546875, -1.115722656250, 0.687744140625, -8.015625000000, -20.804687500000, -10.132812500000, 1490935599
-0.393310546875, -1.115722656250, 0.687744140625, -8.015625000000, -20.804687500000, -10.132812500000, 1490935599
-0.393310546875, -1.115722656250, 0.687744140625, -8.015625000000, -20.804687500000, -10.132812500000, 1490935599
-0.393310546875, -1.115722656250, 0.687744140625, -8.015625000000, -20.804687500000, -10.132812500000, 1490935599
-0.393310546875, -1.115722656250, 0.687744140625, -8.015625000000, -20.804687500000, -10.132812500000, 1490935599
-0.196044921875, -0.599365234375, 0.423583984375, -8.578125000000, -2.234375000000, 28.742187500000, 1490935599
-0.196044921875, -0.599365234375, 0.423583984375, -8.578125000000, -2.234375000000, 28.742187500000, 1490935599
-0.196044921875, -0.599365234375, 0.423583984375, -8.578125000000, -2.234375000000, 28.742187500000, 1490935599
-0.196044921875, -0.599365234375, 0.423583984375, -8.578125000000, -2.234375000000, 28.742187500000, 1490935599
-0.154541015625, -0.187500000000, 0.127685546875, -14.664062500000, -40.617187500000, 33.632812500000, 1490935599
-0.154541015625, -0.187500000000, 0.127685546875, -14.664062500000, -40.617187500000, 33.632812500000, 1490935599
-0.154541015625, -0.187500000000, 0.127685546875, -14.664062500000, -40.617187500000, 33.632812500000, 1490935599
-0.066406250000, -0.139160156250, 0.074707031250, -17.625000000000, -41.703125000000, 38.359375000000, 1490935599
-0.066406250000, -0.139160156250, 0.074707031250, -17.625000000000, -41.703125000000, 38.359375000000, 1490935599
-0.066406250000, -0.139160156250, 0.074707031250, -17.625000000000, -41.703125000000, 38.359375000000, 1490935599
0.017822265625, -0.100341796875, 0.075195312500, -59.617187500000, 1.640625000000, 36.093750000000, 1490935599
0.017822265625, -0.100341796875, 0.075195312500, -59.617187500000, 1.640625000000, 36.093750000000, 1490935599
0.017822265625, -0.100341796875, 0.075195312500, -59.617187500000, 1.640625000000, 36.093750000000, 1490935599
0.017822265625, -0.100341796875, 0.075195312500, -59.617187500000, 1.640625000000, 36.093750000000, 1490935599
0.523437500000, -1.518310546875, 0.276611328125, -124.500000000000, 191.835937500000, 74.593750000000, 1490935599
0.523437500000, -1.518310546875, 0.276611328125, -124.500000000000, 191.835937500000, 74.593750000000, 1490935599
0.750000000000, -2.087158203125, 0.219482421875, -50.195312500000, 253.992187500000, 131.976562500000, 1490935599
0.750000000000, -2.087158203125, 0.219482421875, -50.195312500000, 253.992187500000, 131.976562500000, 1490935599
