ACC_X,ACC_Y,ACC_Z,G_X,G_Y,G_Z,Unix Time
0.031494140625, -0.898437500000, 0.285400390625, -10.656250000000, -84.851562500000, -17.968750000000, 1490935674
0.001953125000, -0.957031250000, 0.363037109375, -8.546875000000, -60.179687500000, -13.289062500000, 1490935674
0.001953125000, -0.957031250000, 0.363037109375, -8.546875000000, -60.179687500000, -13.289062500000, 1490935674
0.001953125000, -0.957031250000, 0.363037109375, -8.546875000000, -60.179687500000, -13.289062500000, 1490935674
0.001953125000, -0.957031250000, 0.363037109375, -8.546875000000, -60.179687500000, -13.289062500000, 1490935674
0.014648437500, -1.141357421875, 0.340820312500, -5.226562500000, -46.414062500000, -8.828125000000, 1490935674
0.011962890625, -1.116210937500, 0.292724609375, -3.851562500000, -46.960937500000, 5.812500000000, 1490935674
0.011962890625, -1.116210937500, 0.292724609375, -3.851562500000, -46.960937500000, 5.812500000000, 1490935674
0.061035156250, -1.334960937500, 0.523925781250, -25.921875000000, -3.859375000000, 28.507812500000, 1490935674
0.061035156250, -1.334960937500, 0.523925781250, -25.921875000000, -3.859375000000, 28.507812500000, 1490935674
0.061035156250, -1.334960937500, 0.523925781250, -25.921875000000, -3.859375000000, 28.507812500000, 1490935674
0.061035156250, -1.334960937500, 0.523925781250, -25.921875000000, -3.859375000000, 28.507812500000, 1490935674
0.015625000000, -1.283691406250, 0.279785156250, -20.125000000000, 26.648437500000, 38.570312500000, 1490935674
0.015625000000, -1.283691406250, 0.279785156250, -20.125000000000, 26.648437500000, 38.570312500000, 1490935674
0.408447265625, -1.014160156250, 0.125244140625, 8.617187500000, 49.406250000000, 31.234375000000, 1490935674
0.408447265625, -1.014160156250, 0.125244140625, 8.617187500000, 49.406250000000, 31.234375000000, 1490935674
0.408447265625, -1.014160156250, 0.125244140625, 8.617187500000, 49.406250000000, 31.234375000000, 1490935674
0.408447265625, -1.014160156250, 0.125244140625, 8.617187500000, 49.406250000000, 31.234375000000, 1490935674
0.408447265625, -1.014160156250, 0.125244140625, 8.617187500000, 49.406250000000, 31.234375000000, 1490935674
0.466552734375, -0.920654296875, 0.107910156250, 5.289062500000, 60.820312500000, 31.914062500000, 1490935674
0.274414062500, -0.854980468750, 0.134521484375, 3.234375000000, 57.382812500000, 36.210937500000, 1490935675
0.274414062500, -0.854980468750, 0.134521484375, 3.234375000000, 57.382812500000, 36.210937500000, 1490935675
0.114990234375, -0.932128906250, 0.113769531250, 4.812500000000, 43.554687500000, 39.281250000000, 1490935675
0.171630859375, -0.778076171875, 0.182861328125, 4.914062500000, 70.562500000000, 10.195312500000, 1490935675
0.171630859375, -0.778076171875, 0.182861328125, 4.914062500000, 70.562500000000, 10.195312500000, 1490935675
0.171630859375, -0.778076171875, 0.182861328125, 4.914062500000, 70.562500000000, 10.195312500000, 1490935675
0.171630859375, -0.778076171875, 0.182861328125, 4.914062500000, 70.562500000000, 10.195312500000, 1490935675
0.171630859375, -0.778076171875, 0.182861328125, 4.914062500000, 70.562500000000, 10.195312500000, 1490935675
0.171630859375, -0.778076171875, 0.182861328125, 4.914062500000, 70.562500000000, 10.195312500000, 1490935675
0.171630859375, -0.778076171875, 0.182861328125, 4.914062500000, 70.562500000000, 10.195312500000, 1490935675
0.171630859375, -0.778076171875, 0.182861328125, 4.914062500000, 70.562500000000, 10.195312500000, 1490935675
0.171630859375, -0.778076171875, 0.182861328125, 4.914062500000, 70.562500000000, 10.195312500000, 1490935675
0.159667968750, -0.789550781250, 0.183105468750, 2.382812500000, 63.109375000000, 15.234375000000, 1490935675
0.159667968750, -0.789550781250, 0.183105468750, 2.382812500000, 63.109375000000, 15.234375000000, 1490935675
0.159667968750, -0.789550781250, 0.183105468750, 2.382812500000, 63.109375000000, 15.234375000000, 1490935675
0.161376953125, -0.781738281250, 0.270996093750, 1.437500000000, 58.851562500000, 16.476562500000, 1490935675
0.161376953125, -0.781738281250, 0.270996093750, 1.437500000000, 58.851562500000, 16.476562500000, 1490935675
0.161376953125, -0.781738281250, 0.270996093750, 1.437500000000, 58.851562500000, 16.476562500000, 1490935675
0.161376953125, -0.781738281250, 0.270996093750, 1.437500000000, 58.851562500000, 16.476562500000, 1490935675
0.161376953125, -0.781738281250, 0.270996093750, 1.437500000000, 58.851562500000, 16.476562500000, 1490935675
0.161376953125, -0.781738281250, 0.270996093750, 1.437500000000, 58.851562500000, 16.476562500000, 1490935675
0.280517578125, -0.950195312500, 0.243408203125, 3.882812500000, 42.960937500000, 11.570312500000, 1490935675
0.280517578125, -0.950195312500, 0.243408203125, 3.882812500000, 42.960937500000, 11.570312500000, 1490935675
0.219238281250, -1.394531250000, 0.243164062500, 2.671875000000, 47.632812500000, -30.203125000000, 1490935675
0.219238281250, -1.394531250000, 0.243164062500, 2.671875000000, 47.632812500000, -30.203125000000, 1490935675
0.219238281250, -1.394531250000, 0.243164062500, 2.671875000000, 47.632812500000, -30.203125000000, 1490935675
0.219238281250, -1.394531250000, 0.243164062500, 2.671875000000, 47.632812500000, -30.203125000000, 1490935675
-0.063720703125, -1.338378906250, 0.283447265625, 23.492187500000, -17.039062500000, -35.343750000000, 1490935675
-0.063720703125, -1.338378906250, 0.283447265625, 23.492187500000, -17.039062500000, -35.343750000000, 1490935675
-0.063720703125, -1.338378906250, 0.283447265625, 23.492187500000, -17.039062500000, -35.343750000000, 1490935675
-0.063720703125, -1.338378906250, 0.283447265625, 23.492187500000, -17.039062500000, -35.343750000000, 1490935675
-0.063720703125, -1.338378906250, 0.283447265625, 23.492187500000, -17.039062500000, -35.343750000000, 1490935675
-0.082763671875, -1.128173828125, 0.171630859375, 5.476562500000, -7.867187500000, -52.632812500000, 1490935675
-0.082763671875, -1.128173828125, 0.171630859375, 5.476562500000, -7.867187500000, -52.632812500000, 1490935675
-0.204101562500, -1.072998046875, -0.071289062500, -28.968750000000, 10.398437500000, -53.632812500000, 1490935675
-0.204101562500, -1.072998046875, -0.071289062500, -28.968750000000, 10.398437500000, -53.632812500000, 1490935675
-0.204101562500, -1.072998046875, -0.071289062500, -28.968750000000, 10.398437500000, -53.632812500000, 1490935675
-0.204833984375, -1.142822265625, 0.090820312500, 12.218750000000, -98.250000000000, -30.062500000000, 1490935675
-0.204833984375, -1.142822265625, 0.090820312500, 12.218750000000, -98.250000000000, -30.062500000000, 1490935675
-0.204833984375, -1.142822265625, 0.090820312500, 12.218750000000, -98.250000000000, -30.062500000000, 1490935675
-0.204833984375, -1.142822265625, 0.090820312500, 12.218750000000, -98.250000000000, -30.062500000000, 1490935675
-0.204833984375, -1.142822265625, 0.090820312500, 12.218750000000, -98.250000000000, -30.062500000000, 1490935675
-0.116210937500, -0.974853515625, 0.120605468750, 34.421875000000, -107.804687500000, -32.492187500000, 1490935675
-0.116210937500, -0.974853515625, 0.120605468750, 34.421875000000, -107.804687500000, -32.492187500000, 1490935675
-0.082763671875, -0.985351562500, 0.171386718750, 52.695312500000, -101.156250000000, -30.460937500000, 1490935675
-0.135986328125, -0.581542968750, 0.142578125000, -6.531250000000, -30.757812500000, -9.523437500000, 1490935675
-0.135986328125, -0.581542968750, 0.142578125000, -6.531250000000, -30.757812500000, -9.523437500000, 1490935675
-0.135986328125, -0.581542968750, 0.142578125000, -6.531250000000, -30.757812500000, -9.523437500000, 1490935675
-0.135986328125, -0.581542968750, 0.142578125000, -6.531250000000, -30.757812500000, -9.523437500000, 1490935675
-0.075683593750, -0.600830078125, 0.035400390625, -1.476562500000, -77.078125000000, -14.359375000000, 1490935675
-0.151855468750, -0.710937500000, 0.144042968750, -1.476562500000, -77.078125000000, -14.359375000000, 1490935675
-0.151855468750, -0.710937500000, 0.144042968750, -1.476562500000, -77.078125000000, -14.359375000000, 1490935675
-0.151855468750, -0.710937500000, 0.144042968750, -1.476562500000, -77.078125000000, -14.359375000000, 1490935675
-0.151855468750, -0.710937500000, 0.144042968750, -1.476562500000, -77.078125000000, -14.359375000000, 1490935675
-0.151855468750, -0.710937500000, 0.144042968750, -1.476562500000, -77.078125000000, -14.359375000000, 1490935675
0.021240234375, -0.686523437500, 0.198730468750, 5.421875000000, -83.632812500000, -18.273437500000, 1490935675
-0.039306640625, -0.686523437500, 0.237060546875, 2.632812500000, -75.804687500000, -13.898437500000, 1490935675
-0.039306640625, -0.686523437500, 0.237060546875, 2.632812500000, -75.804687500000, -13.898437500000, 1490935675
-0.039306640625, -0.686523437500, 0.237060546875, 2.632812500000, -75.804687500000, -13.898437500000, 1490935675
-0.026123046875, -0.685058593750, 0.234619140625, -8.601562500000, -64.250000000000, -15.585937500000, 1490935675
-0.017822265625, -1.200683593750, 0.504150390625, 2.367187500000, -66.828125000000, 7.414062500000, 1490935675
-0.017822265625, -1.200683593750, 0.504150390625, 2.367187500000, -66.828125000000, 7.414062500000, 1490935675
-0.017822265625, -1.200683593750, 0.504150390625, 2.367187500000, -66.828125000000, 7.414062500000, 1490935675
-0.017822265625, -1.200683593750, 0.504150390625, 2.367187500000, -66.828125000000, 7.414062500000, 1490935675
-0.017822265625, -1.200683593750, 0.504150390625, 2.367187500000, -66.828125000000, 7.414062500000, 1490935675
-0.017822265625, -1.200683593750, 0.504150390625, 2.367187500000, -66.828125000000, 7.414062500000, 1490935675
0.010498046875, -1.263916015625, 0.495849609375, -34.648437500000, -11.906250000000, 23.000000000000, 1490935676
0.010498046875, -1.263916015625, 0.495849609375, -34.648437500000, -11.906250000000, 23.000000000000, 1490935676
-0.137451171875, -1.331298828125, 0.342529296875, -26.843750000000, 9.250000000000, 23.203125000000, 1490935676
-0.137451171875, -1.331298828125, 0.342529296875, -26.843750000000, 9.250000000000, 23.203125000000, 1490935676
-0.124267578125, -1.384765625000, 0.269775390625, -23.351562500000, 2.226562500000, 21.554687500000, 1490935676
-0.088134765625, -1.345214843750, 0.202148437500, -13.187500000000, -8.554687500000, 22.757812500000, 1490935676
0.336181640625, -1.203613281250, 0.252441406250, 20.421875000000, 9.507812500000, 27.226562500000, 1490935676
0.336181640625, -1.203613281250, 0.252441406250, 20.421875000000, 9.507812500000, 27.226562500000, 1490935676
0.221435546875, -0.956298828125, 0.058105468750, -18.062500000000, 105.726562500000, 51.914062500000, 1490935676
0.221435546875, -0.956298828125, 0.058105468750, -18.062500000000, 105.726562500000, 51.914062500000, 1490935676
0.221435546875, -0.956298828125, 0.058105468750, -18.062500000000, 105.726562500000, 51.914062500000, 1490935676
0.221435546875, -0.956298828125, 0.058105468750, -18.062500000000, 105.726562500000, 51.914062500000, 1490935676
0.266113281250, -1.051025390625, -0.091796875000, -10.531250000000, 91.007812500000, 34.882812500000, 1490935676
0.266113281250, -1.051025390625, -0.091796875000, -10.531250000000, 91.007812500000, 34.882812500000, 1490935676
0.173583984375, -1.149658203125, -0.014648437500, -1.875000000000, 36.015625000000, 25.000000000000, 1490935676
0.173583984375, -1.149658203125, -0.014648437500, -1.875000000000, 36.015625000000, 25.000000000000, 1490935676
0.160888671875, -1.086669921875, 0.281250000000, 38.750000000000, 16.531250000000, 21.562500000000, 1490935676
0.160888671875, -1.086669921875, 0.281250000000, 38.750000000000, 16.531250000000, 21.562500000000, 1490935676
0.260986328125, -0.747070312500, 0.252929687500, -0.617187500000, 75.835937500000, 9.492187500000, 1490935676
0.134033203125, -0.674316406250, 0.219238281250, 2.101562500000, 52.570312500000, 13.546875000000, 1490935676
0.098144531250, -0.770751953125, 0.275390625000, 0.960937500000, 48.656250000000, 13.437500000000, 1490935676
0.098144531250, -0.770751953125, 0.275390625000, 0.960937500000, 48.656250000000, 13.437500000000, 1490935676
0.098144531250, -0.770751953125, 0.275390625000, 0.960937500000, 48.656250000000, 13.437500000000, 1490935676
0.098144531250, -0.770751953125, 0.275390625000, 0.960937500000, 48.656250000000, 13.437500000000, 1490935676
0.098144531250, -0.770751953125, 0.275390625000, 0.960937500000, 48.656250000000, 13.437500000000, 1490935676
0.098144531250, -0.770751953125, 0.275390625000, 0.960937500000, 48.656250000000, 13.437500000000, 1490935676
0.098144531250, -0.770751953125, 0.275390625000, 0.960937500000, 48.656250000000, 13.437500000000, 1490935676
0.059326171875, -0.772949218750, 0.283935546875, -2.117187500000, 48.812500000000, 11.929687500000, 1490935676
0.059326171875, -0.772949218750, 0.283935546875, -2.117187500000, 48.812500000000, 11.929687500000, 1490935676
0.059326171875, -0.772949218750, 0.283935546875, -2.117187500000, 48.812500000000, 11.929687500000, 1490935676
0.059326171875, -0.772949218750, 0.283935546875, -2.117187500000, 48.812500000000, 11.929687500000, 1490935676
0.059326171875, -0.772949218750, 0.283935546875, -2.117187500000, 48.812500000000, 11.929687500000, 1490935676
0.261230468750, -0.843994140625, 0.403564453125, -2.843750000000, 38.984375000000, 7.867187500000, 1490935676
0.261230468750, -0.843994140625, 0.403564453125, -2.843750000000, 38.984375000000, 7.867187500000, 1490935676
0.047607421875, -0.912841796875, 0.394775390625, -2.968750000000, 21.398437500000, 6.937500000000, 1490935676
0.047607421875, -0.912841796875, 0.394775390625, -2.968750000000, 21.398437500000, 6.937500000000, 1490935676
0.191406250000, -1.543212890625, 0.315185546875, -3.953125000000, 7.468750000000, -43.406250000000, 1490935676
0.023681640625, -1.522705078125, 0.386718750000, 11.265625000000, -29.273437500000, -50.218750000000, 1490935676
0.023681640625, -1.522705078125, 0.386718750000, 11.265625000000, -29.273437500000, -50.218750000000, 1490935676
0.023681640625, -1.522705078125, 0.386718750000, 11.265625000000, -29.273437500000, -50.218750000000, 1490935676
-0.184814453125, -1.196777343750, 0.250976562500, -11.757812500000, 10.828125000000, -59.906250000000, 1490935676
-0.184814453125, -1.196777343750, 0.250976562500, -11.757812500000, 10.828125000000, -59.906250000000, 1490935676
-0.184814453125, -1.196777343750, 0.250976562500, -11.757812500000, 10.828125000000, -59.906250000000, 1490935676
-0.184814453125, -1.196777343750, 0.250976562500, -11.757812500000, 10.828125000000, -59.906250000000, 1490935676
-0.184814453125, -1.196777343750, 0.250976562500, -11.757812500000, 10.828125000000, -59.906250000000, 1490935676
-0.184814453125, -1.196777343750, 0.250976562500, -11.757812500000, 10.828125000000, -59.906250000000, 1490935676
-0.184814453125, -1.196777343750, 0.250976562500, -11.757812500000, 10.828125000000, -59.906250000000, 1490935676
-0.184814453125, -1.196777343750, 0.250976562500, -11.757812500000, 10.828125000000, -59.906250000000, 1490935676
-0.158447265625, -1.012939453125, 0.085693359375, -15.632812500000, 0.484375000000, -62.117187500000, 1490935676
-0.158447265625, -1.012939453125, 0.085693359375, -15.632812500000, 0.484375000000, -62.117187500000, 1490935676
-0.131347656250, -0.932373046875, 0.215087890625, 54.718750000000, -117.328125000000, -25.835937500000, 1490935676
-0.005859375000, -0.934814453125, 0.171875000000, 53.929687500000, -115.210937500000, -17.804687500000, 1490935676
-0.005859375000, -0.934814453125, 0.171875000000, 53.929687500000, -115.210937500000, -17.804687500000, 1490935676
-0.005859375000, -0.934814453125, 0.171875000000, 53.929687500000, -115.210937500000, -17.804687500000, 1490935676
0.016601562500, -0.856445312500, 0.362792968750, -4.203125000000, -47.882812500000, -9.695312500000, 1490935676
0.016601562500, -0.856445312500, 0.362792968750, -4.203125000000, -47.882812500000, -9.695312500000, 1490935676
0.016601562500, -0.856445312500, 0.362792968750, -4.203125000000, -47.882812500000, -9.695312500000, 1490935676
0.016601562500, -0.856445312500, 0.362792968750, -4.203125000000, -47.882812500000, -9.695312500000, 1490935676
-0.115234375000, -0.881591796875, 0.269775390625, -15.703125000000, -35.625000000000, -17.039062500000, 1490935676
-0.115234375000, -0.881591796875, 0.269775390625, -15.703125000000, -35.625000000000, -17.039062500000, 1490935676
-0.115234375000, -0.881591796875, 0.269775390625, -15.703125000000, -35.625000000000, -17.039062500000, 1490935676
-0.115234375000, -0.881591796875, 0.269775390625, -15.703125000000, -35.625000000000, -17.039062500000, 1490935677
-0.115234375000, -0.881591796875, 0.269775390625, -15.703125000000, -35.625000000000, -17.039062500000, 1490935677
-0.042724609375, -0.718750000000, 0.112792968750, -20.453125000000, -40.390625000000, -15.328125000000, 1490935677
-0.018554687500, -0.537841796875, 0.223144531250, -4.531250000000, -71.070312500000, -14.703125000000, 1490935677
-0.018554687500, -0.537841796875, 0.223144531250, -4.531250000000, -71.070312500000, -14.703125000000, 1490935677
-0.018554687500, -0.537841796875, 0.223144531250, -4.531250000000, -71.070312500000, -14.703125000000, 1490935677
-0.018554687500, -0.537841796875, 0.223144531250, -4.531250000000, -71.070312500000, -14.703125000000, 1490935677
-0.018554687500, -0.537841796875, 0.223144531250, -4.531250000000, -71.070312500000, -14.703125000000, 1490935677
0.018310546875, -0.716552734375, 0.174072265625, -6.992187500000, -63.664062500000, -16.726562500000, 1490935677
-0.060302734375, -0.659423828125, 0.326416015625, -3.882812500000, -50.507812500000, -16.078125000000, 1490935677
-0.060302734375, -0.659423828125, 0.326416015625, -3.882812500000, -50.507812500000, -16.078125000000, 1490935677
-0.060302734375, -0.659423828125, 0.326416015625, -3.882812500000, -50.507812500000, -16.078125000000, 1490935677
-0.060302734375, -0.659423828125, 0.326416015625, -3.882812500000, -50.507812500000, -16.078125000000, 1490935677
-0.060302734375, -0.659423828125, 0.326416015625, -3.882812500000, -50.507812500000, -16.078125000000, 1490935677
-0.059082031250, -0.925537109375, 0.240722656250, 2.382812500000, -51.320312500000, -13.351562500000, 1490935677
-0.059082031250, -0.925537109375, 0.240722656250, 2.382812500000, -51.320312500000, -13.351562500000, 1490935677
-0.059082031250, -0.925537109375, 0.240722656250, 2.382812500000, -51.320312500000, -13.351562500000, 1490935677
-0.073242187500, -0.919677734375, 0.351074218750, 7.406250000000, -48.000000000000, -7.414062500000, 1490935677
-0.082763671875, -1.127929687500, 0.438720703125, 1.250000000000, -50.179687500000, 4.195312500000, 1490935677
-0.082763671875, -1.127929687500, 0.438720703125, 1.250000000000, -50.179687500000, 4.195312500000, 1490935677
-0.104980468750, -1.147216796875, 0.496337890625, -12.140625000000, -46.664062500000, 6.960937500000, 1490935677
0.288085937500, -1.230224609375, 0.460937500000, -19.218750000000, -32.015625000000, 21.257812500000, 1490935677
0.288085937500, -1.230224609375, 0.460937500000, -19.218750000000, -32.015625000000, 21.257812500000, 1490935677
0.288085937500, -1.230224609375, 0.460937500000, -19.218750000000, -32.015625000000, 21.257812500000, 1490935677
0.288085937500, -1.230224609375, 0.460937500000, -19.218750000000, -32.015625000000, 21.257812500000, 1490935677
0.288085937500, -1.230224609375, 0.460937500000, -19.218750000000, -32.015625000000, 21.257812500000, 1490935677
0.045166015625, -1.082031250000, 0.126464843750, -15.093750000000, 72.445312500000, 29.562500000000, 1490935677
0.045166015625, -1.082031250000, 0.126464843750, -15.093750000000, 72.445312500000, 29.562500000000, 1490935677
0.045166015625, -1.082031250000, 0.126464843750, -15.093750000000, 72.445312500000, 29.562500000000, 1490935677
0.099609375000, -0.978759765625, 0.062988281250, -28.914062500000, 29.726562500000, 9.828125000000, 1490935677
0.099609375000, -0.978759765625, 0.062988281250, -28.914062500000, 29.726562500000, 9.828125000000, 1490935677
0.099609375000, -0.978759765625, 0.062988281250, -28.914062500000, 29.726562500000, 9.828125000000, 1490935677
0.099609375000, -0.978759765625, 0.062988281250, -28.914062500000, 29.726562500000, 9.828125000000, 1490935677
0.099609375000, -0.978759765625, 0.062988281250, -28.914062500000, 29.726562500000, 9.828125000000, 1490935677
0.038085937500, -0.988769531250, -0.027099609375, -15.125000000000, 19.187500000000, 14.796875000000, 1490935677
0.127685546875, -0.943847656250, 0.320800781250, 7.492187500000, -0.929687500000, 11.078125000000, 1490935677
0.127685546875, -0.943847656250, 0.320800781250, 7.492187500000, -0.929687500000, 11.078125000000, 1490935677
0.127685546875, -0.943847656250, 0.320800781250, 7.492187500000, -0.929687500000, 11.078125000000, 1490935677
0.127685546875, -0.943847656250, 0.320800781250, 7.492187500000, -0.929687500000, 11.078125000000, 1490935677
0.127685546875, -0.943847656250, 0.320800781250, 7.492187500000, -0.929687500000, 11.078125000000, 1490935677
