ACC_X,ACC_Y,ACC_Z,G_X,G_Y,G_Z,Unix Time
0.121582031250, -0.922607421875, 0.152587890625, -4.984375000000, 4.929687500000, -3.593750000000, 1490689016
0.121582031250, -0.922607421875, 0.152587890625, -4.984375000000, 4.929687500000, -3.593750000000, 1490689016
0.121582031250, -0.922607421875, 0.152587890625, -4.984375000000, 4.929687500000, -3.593750000000, 1490689016
0.159179687500, -1.018798828125, 0.151855468750, -4.484375000000, -0.078125000000, -3.039062500000, 1490689016
0.159179687500, -1.018798828125, 0.151855468750, -4.484375000000, -0.078125000000, -3.039062500000, 1490689016
0.159179687500, -1.018798828125, 0.151855468750, -4.484375000000, -0.078125000000, -3.039062500000, 1490689016
0.164306640625, -1.062744140625, 0.152587890625, -1.601562500000, 4.250000000000, -1.898437500000, 1490689016
0.164306640625, -1.062744140625, 0.152587890625, -1.601562500000, 4.250000000000, -1.898437500000, 1490689016
0.164306640625, -1.062744140625, 0.152587890625, -1.601562500000, 4.250000000000, -1.898437500000, 1490689016
0.271240234375, -0.981201171875, 0.103515625000, -4.414062500000, 1.914062500000, -1.828125000000, 1490689016
0.271240234375, -0.981201171875, 0.103515625000, -4.414062500000, 1.914062500000, -1.828125000000, 1490689016
0.271240234375, -0.981201171875, 0.103515625000, -4.414062500000, 1.914062500000, -1.828125000000, 1490689016
0.271240234375, -0.981201171875, 0.103515625000, -4.414062500000, 1.914062500000, -1.828125000000, 1490689016
0.172607421875, -1.090576171875, 0.195800781250, -2.523437500000, -0.085937500000, -6.117187500000, 1490689016
0.172607421875, -1.090576171875, 0.195800781250, -2.523437500000, -0.085937500000, -6.117187500000, 1490689016
0.172607421875, -1.090576171875, 0.195800781250, -2.523437500000, -0.085937500000, -6.117187500000, 1490689016
0.146972656250, -0.983398437500, 0.137451171875, -4.445312500000, 4.289062500000, -3.125000000000, 1490689016
0.146972656250, -0.983398437500, 0.137451171875, -4.445312500000, 4.289062500000, -3.125000000000, 1490689016
0.146972656250, -0.983398437500, 0.137451171875, -4.445312500000, 4.289062500000, -3.125000000000, 1490689016
0.097167968750, -1.065917968750, 0.103515625000, -5.437500000000, 1.429687500000, -6.109375000000, 1490689016
0.097167968750, -1.065917968750, 0.103515625000, -5.437500000000, 1.429687500000, -6.109375000000, 1490689016
0.097167968750, -1.065917968750, 0.103515625000, -5.437500000000, 1.429687500000, -6.109375000000, 1490689016
0.148193359375, -0.984863281250, 0.093994140625, -4.765625000000, -2.015625000000, -6.242187500000, 1490689016
0.148193359375, -0.984863281250, 0.093994140625, -4.765625000000, -2.015625000000, -6.242187500000, 1490689016
0.148193359375, -0.984863281250, 0.093994140625, -4.765625000000, -2.015625000000, -6.242187500000, 1490689016
0.135253906250, -0.920898437500, 0.053466796875, -4.953125000000, 2.500000000000, -5.453125000000, 1490689016
0.135253906250, -0.920898437500, 0.053466796875, -4.953125000000, 2.500000000000, -5.453125000000, 1490689016
0.135253906250, -0.920898437500, 0.053466796875, -4.953125000000, 2.500000000000, -5.453125000000, 1490689016
0.147460937500, -1.046875000000, 0.148437500000, -3.023437500000, -2.132812500000, -1.867187500000, 1490689016
0.147460937500, -1.046875000000, 0.148437500000, -3.023437500000, -2.132812500000, -1.867187500000, 1490689016
0.147460937500, -1.046875000000, 0.148437500000, -3.023437500000, -2.132812500000, -1.867187500000, 1490689016
0.147460937500, -1.046875000000, 0.148437500000, -3.023437500000, -2.132812500000, -1.867187500000, 1490689016
0.147460937500, -1.046875000000, 0.148437500000, -3.023437500000, -2.132812500000, -1.867187500000, 1490689016
0.156738281250, -1.083496093750, 0.129638671875, -3.375000000000, -2.273437500000, -5.539062500000, 1490689016
0.111328125000, -1.073242187500, 0.103271484375, -1.718750000000, 0.234375000000, -6.804687500000, 1490689016
0.111328125000, -1.073242187500, 0.103271484375, -1.718750000000, 0.234375000000, -6.804687500000, 1490689016
0.111328125000, -1.073242187500, 0.103271484375, -1.718750000000, 0.234375000000, -6.804687500000, 1490689016
0.111328125000, -1.073242187500, 0.103271484375, -1.718750000000, 0.234375000000, -6.804687500000, 1490689016
0.112060546875, -1.030029296875, 0.149169921875, -1.843750000000, -0.945312500000, -4.578125000000, 1490689016
0.164306640625, -0.908447265625, 0.150634765625, -1.671875000000, -2.734375000000, -6.171875000000, 1490689016
0.164306640625, -0.908447265625, 0.150634765625, -1.671875000000, -2.734375000000, -6.171875000000, 1490689016
0.164306640625, -0.908447265625, 0.150634765625, -1.671875000000, -2.734375000000, -6.171875000000, 1490689016
0.214599609375, -0.924316406250, 0.082519531250, -3.234375000000, -2.335937500000, -3.367187500000, 1490689016
0.214599609375, -0.924316406250, 0.082519531250, -3.234375000000, -2.335937500000, -3.367187500000, 1490689017
0.214599609375, -0.924316406250, 0.082519531250, -3.234375000000, -2.335937500000, -3.367187500000, 1490689017
0.052978515625, -1.024169921875, 0.114013671875, -1.281250000000, 0.335937500000, -1.953125000000, 1490689017
0.052978515625, -1.024169921875, 0.114013671875, -1.281250000000, 0.335937500000, -1.953125000000, 1490689017
0.052978515625, -1.024169921875, 0.114013671875, -1.281250000000, 0.335937500000, -1.953125000000, 1490689017
0.170898437500, -1.061767578125, 0.154052734375, -4.984375000000, 0.695312500000, -4.968750000000, 1490689017
0.170898437500, -1.061767578125, 0.154052734375, -4.984375000000, 0.695312500000, -4.968750000000, 1490689017
0.120361328125, -1.073242187500, 0.139648437500, -4.187500000000, 0.242187500000, -8.023437500000, 1490689017
0.103027343750, -0.919921875000, 0.119384765625, -4.093750000000, -0.523437500000, -3.367187500000, 1490689017
0.103027343750, -0.919921875000, 0.119384765625, -4.093750000000, -0.523437500000, -3.367187500000, 1490689017
0.103027343750, -0.919921875000, 0.119384765625, -4.093750000000, -0.523437500000, -3.367187500000, 1490689017
0.270507812500, -1.023925781250, 0.154052734375, 0.015625000000, 0.546875000000, -6.234375000000, 1490689017
0.215332031250, -1.058837890625, 0.054199218750, -1.492187500000, 1.429687500000, -6.640625000000, 1490689017
0.215332031250, -1.058837890625, 0.054199218750, -1.492187500000, 1.429687500000, -6.640625000000, 1490689017
0.215332031250, -1.058837890625, 0.054199218750, -1.492187500000, 1.429687500000, -6.640625000000, 1490689017
0.100830078125, -0.921142578125, 0.037353515625, -3.390625000000, -0.687500000000, -6.062500000000, 1490689017
0.100830078125, -0.921142578125, 0.037353515625, -3.390625000000, -0.687500000000, -6.062500000000, 1490689017
0.100830078125, -0.921142578125, 0.037353515625, -3.390625000000, -0.687500000000, -6.062500000000, 1490689017
0.117187500000, -0.866455078125, 0.128906250000, -3.101562500000, -0.906250000000, -3.265625000000, 1490689017
0.148437500000, -1.007812500000, 0.041992187500, -4.148437500000, 0.390625000000, -4.703125000000, 1490689017
0.148437500000, -1.007812500000, 0.041992187500, -4.148437500000, 0.390625000000, -4.703125000000, 1490689017
0.148437500000, -1.007812500000, 0.041992187500, -4.148437500000, 0.390625000000, -4.703125000000, 1490689017
0.148437500000, -1.007812500000, 0.041992187500, -4.148437500000, 0.390625000000, -4.703125000000, 1490689017
0.055664062500, -1.012451171875, 0.048095703125, -3.570312500000, -1.507812500000, -4.429687500000, 1490689017
0.055664062500, -1.012451171875, 0.048095703125, -3.570312500000, -1.507812500000, -4.429687500000, 1490689017
0.055664062500, -1.012451171875, 0.048095703125, -3.570312500000, -1.507812500000, -4.429687500000, 1490689017
0.055664062500, -1.012451171875, 0.048095703125, -3.570312500000, -1.507812500000, -4.429687500000, 1490689017
0.105468750000, -1.093261718750, 0.087646484375, -1.609375000000, -2.179687500000, -4.601562500000, 1490689017
0.105468750000, -1.093261718750, 0.087646484375, -1.609375000000, -2.179687500000, -4.601562500000, 1490689017
0.105468750000, -1.093261718750, 0.087646484375, -1.609375000000, -2.179687500000, -4.601562500000, 1490689017
0.105468750000, -1.093261718750, 0.087646484375, -1.609375000000, -2.179687500000, -4.601562500000, 1490689017
0.209960937500, -1.048583984375, 0.103271484375, -1.476562500000, 0.984375000000, -5.398437500000, 1490689017
0.209960937500, -1.048583984375, 0.103271484375, -1.476562500000, 0.984375000000, -5.398437500000, 1490689017
0.209960937500, -1.048583984375, 0.103271484375, -1.476562500000, 0.984375000000, -5.398437500000, 1490689017
0.209960937500, -1.048583984375, 0.103271484375, -1.476562500000, 0.984375000000, -5.398437500000, 1490689017
0.141113281250, -0.926513671875, 0.190185546875, -3.515625000000, -4.179687500000, -6.195312500000, 1490689017
0.141113281250, -0.926513671875, 0.190185546875, -3.515625000000, -4.179687500000, -6.195312500000, 1490689017
0.141113281250, -0.926513671875, 0.190185546875, -3.515625000000, -4.179687500000, -6.195312500000, 1490689017
0.139404296875, -0.968261718750, 0.131591796875, -4.593750000000, -2.359375000000, -3.398437500000, 1490689017
0.139404296875, -0.968261718750, 0.131591796875, -4.593750000000, -2.359375000000, -3.398437500000, 1490689017
0.139404296875, -0.968261718750, 0.131591796875, -4.593750000000, -2.359375000000, -3.398437500000, 1490689017
0.139892578125, -1.062988281250, 0.098876953125, -4.742187500000, -2.843750000000, -6.429687500000, 1490689017
0.139892578125, -1.062988281250, 0.098876953125, -4.742187500000, -2.843750000000, -6.429687500000, 1490689017
0.139892578125, -1.062988281250, 0.098876953125, -4.742187500000, -2.843750000000, -6.429687500000, 1490689017
0.143798828125, -0.934326171875, 0.102050781250, -2.421875000000, 0.242187500000, -3.640625000000, 1490689017
0.143798828125, -0.934326171875, 0.102050781250, -2.421875000000, 0.242187500000, -3.640625000000, 1490689017
0.143798828125, -0.934326171875, 0.102050781250, -2.421875000000, 0.242187500000, -3.640625000000, 1490689017
0.159179687500, -0.977539062500, 0.115478515625, -1.382812500000, 0.117187500000, -3.679687500000, 1490689017
0.109375000000, -0.913085937500, 0.157958984375, -1.656250000000, -0.625000000000, -5.226562500000, 1490689017
0.109375000000, -0.913085937500, 0.157958984375, -1.656250000000, -0.625000000000, -5.226562500000, 1490689017
0.153564453125, -0.998535156250, 0.128173828125, -3.125000000000, 0.468750000000, -3.171875000000, 1490689017
0.093994140625, -1.010009765625, 0.081787109375, -3.125000000000, 0.468750000000, -3.171875000000, 1490689017
0.093994140625, -1.010009765625, 0.081787109375, -3.125000000000, 0.468750000000, -3.171875000000, 1490689017
0.093994140625, -1.010009765625, 0.081787109375, -3.125000000000, 0.468750000000, -3.171875000000, 1490689017
0.087402343750, -0.925781250000, 0.059082031250, -4.203125000000, 0.570312500000, -4.843750000000, 1490689017
0.087402343750, -0.925781250000, 0.059082031250, -4.203125000000, 0.570312500000, -4.843750000000, 1490689017
0.087402343750, -0.925781250000, 0.059082031250, -4.203125000000, 0.570312500000, -4.843750000000, 1490689017
0.197753906250, -0.988525390625, 0.161132812500, -2.492187500000, 2.273437500000, -3.625000000000, 1490689017
0.197753906250, -0.988525390625, 0.161132812500, -2.492187500000, 2.273437500000, -3.625000000000, 1490689017
0.197753906250, -0.988525390625, 0.161132812500, -2.492187500000, 2.273437500000, -3.625000000000, 1490689017
0.197753906250, -0.988525390625, 0.161132812500, -2.492187500000, 2.273437500000, -3.625000000000, 1490689017
0.053710937500, -0.973144531250, 0.102050781250, -3.250000000000, -2.203125000000, -4.773437500000, 1490689017
0.053710937500, -0.973144531250, 0.102050781250, -3.250000000000, -2.203125000000, -4.773437500000, 1490689017
0.053710937500, -0.973144531250, 0.102050781250, -3.250000000000, -2.203125000000, -4.773437500000, 1490689017
0.196044921875, -0.929687500000, 0.114990234375, -6.773437500000, -2.148437500000, -3.367187500000, 1490689017
0.196044921875, -0.929687500000, 0.114990234375, -6.773437500000, -2.148437500000, -3.367187500000, 1490689017
0.196044921875, -0.929687500000, 0.114990234375, -6.773437500000, -2.148437500000, -3.367187500000, 1490689017
0.116210937500, -1.091796875000, 0.129638671875, -3.343750000000, -1.140625000000, -3.851562500000, 1490689018
0.116210937500, -1.091796875000, 0.129638671875, -3.343750000000, -1.140625000000, -3.851562500000, 1490689018
0.116210937500, -1.091796875000, 0.129638671875, -3.343750000000, -1.140625000000, -3.851562500000, 1490689018
0.191650390625, -0.907470703125, 0.146484375000, -1.570312500000, 0.781250000000, -6.851562500000, 1490689018
0.191650390625, -0.907470703125, 0.146484375000, -1.570312500000, 0.781250000000, -6.851562500000, 1490689018
0.191650390625, -0.907470703125, 0.146484375000, -1.570312500000, 0.781250000000, -6.851562500000, 1490689018
0.191650390625, -0.907470703125, 0.146484375000, -1.570312500000, 0.781250000000, -6.851562500000, 1490689018
0.101074218750, -1.066406250000, 0.139648437500, -1.351562500000, -1.289062500000, -1.210937500000, 1490689018
0.101074218750, -1.066406250000, 0.139648437500, -1.351562500000, -1.289062500000, -1.210937500000, 1490689018
0.101074218750, -1.066406250000, 0.139648437500, -1.351562500000, -1.289062500000, -1.210937500000, 1490689018
0.035644531250, -1.003417968750, 0.213134765625, -3.453125000000, 0.359375000000, -3.085937500000, 1490689018
0.035644531250, -1.003417968750, 0.213134765625, -3.453125000000, 0.359375000000, -3.085937500000, 1490689018
0.035644531250, -1.003417968750, 0.213134765625, -3.453125000000, 0.359375000000, -3.085937500000, 1490689018
0.062500000000, -0.869384765625, 0.100097656250, -3.500000000000, -0.328125000000, -5.054687500000, 1490689018
0.062500000000, -0.869384765625, 0.100097656250, -3.500000000000, -0.328125000000, -5.054687500000, 1490689018
0.062500000000, -0.869384765625, 0.100097656250, -3.500000000000, -0.328125000000, -5.054687500000, 1490689018
0.194580078125, -0.976562500000, 0.143554687500, -1.726562500000, 0.179687500000, -5.312500000000, 1490689018
0.194580078125, -0.976562500000, 0.143554687500, -1.726562500000, 0.179687500000, -5.312500000000, 1490689018
0.194580078125, -0.976562500000, 0.143554687500, -1.726562500000, 0.179687500000, -5.312500000000, 1490689018
0.194580078125, -0.976562500000, 0.143554687500, -1.726562500000, 0.179687500000, -5.312500000000, 1490689018
0.045654296875, -0.969726562500, 0.152587890625, -2.468750000000, 0.187500000000, -3.234375000000, 1490689018
0.045654296875, -0.969726562500, 0.152587890625, -2.468750000000, 0.187500000000, -3.234375000000, 1490689018
0.045654296875, -0.969726562500, 0.152587890625, -2.468750000000, 0.187500000000, -3.234375000000, 1490689018
0.096435546875, -1.073730468750, 0.150146484375, -4.500000000000, -0.570312500000, -4.695312500000, 1490689018
0.096435546875, -1.073730468750, 0.150146484375, -4.500000000000, -0.570312500000, -4.695312500000, 1490689018
0.096435546875, -1.073730468750, 0.150146484375, -4.500000000000, -0.570312500000, -4.695312500000, 1490689018
0.090332031250, -0.972167968750, 0.092285156250, -3.125000000000, 1.234375000000, -8.148437500000, 1490689018
0.090332031250, -0.972167968750, 0.092285156250, -3.125000000000, 1.234375000000, -8.148437500000, 1490689018
0.090332031250, -0.972167968750, 0.092285156250, -3.125000000000, 1.234375000000, -8.148437500000, 1490689018
0.145751953125, -0.929931640625, 0.152832031250, -0.593750000000, 2.007812500000, -3.375000000000, 1490689018
0.145751953125, -0.929931640625, 0.152832031250, -0.593750000000, 2.007812500000, -3.375000000000, 1490689018
0.145751953125, -0.929931640625, 0.152832031250, -0.593750000000, 2.007812500000, -3.375000000000, 1490689018
0.145751953125, -0.929931640625, 0.152832031250, -0.593750000000, 2.007812500000, -3.375000000000, 1490689018
0.062500000000, -0.997558593750, 0.119873046875, -2.734375000000, 2.414062500000, -8.531250000000, 1490689018
0.062500000000, -0.997558593750, 0.119873046875, -2.734375000000, 2.414062500000, -8.531250000000, 1490689018
0.062500000000, -0.997558593750, 0.119873046875, -2.734375000000, 2.414062500000, -8.531250000000, 1490689018
0.086425781250, -1.084960937500, 0.150634765625, -2.296875000000, 0.023437500000, -5.304687500000, 1490689018
0.086425781250, -1.084960937500, 0.150634765625, -2.296875000000, 0.023437500000, -5.304687500000, 1490689018
0.086425781250, -1.084960937500, 0.150634765625, -2.296875000000, 0.023437500000, -5.304687500000, 1490689018
0.132812500000, -0.954589843750, 0.140136718750, -4.765625000000, -0.601562500000, -1.718750000000, 1490689018
0.132812500000, -0.954589843750, 0.140136718750, -4.765625000000, -0.601562500000, -1.718750000000, 1490689018
0.132812500000, -0.954589843750, 0.140136718750, -4.765625000000, -0.601562500000, -1.718750000000, 1490689018
0.039550781250, -1.030029296875, 0.118896484375, -2.312500000000, -0.078125000000, -6.023437500000, 1490689018
0.039550781250, -1.030029296875, 0.118896484375, -2.312500000000, -0.078125000000, -6.023437500000, 1490689018
0.113769531250, -0.961425781250, 0.137207031250, 0.625000000000, -0.851562500000, -4.132812500000, 1490689018
0.113769531250, -0.961425781250, 0.137207031250, 0.625000000000, -0.851562500000, -4.132812500000, 1490689018
0.113769531250, -0.961425781250, 0.137207031250, 0.625000000000, -0.851562500000, -4.132812500000, 1490689018
0.113769531250, -0.961425781250, 0.137207031250, 0.625000000000, -0.851562500000, -4.132812500000, 1490689018
0.113769531250, -0.961425781250, 0.137207031250, 0.625000000000, -0.851562500000, -4.132812500000, 1490689018
0.205078125000, -1.019531250000, 0.114990234375, -1.601562500000, -2.710937500000, -3.406250000000, 1490689018
0.205078125000, -1.019531250000, 0.114990234375, -1.601562500000, -2.710937500000, -3.406250000000, 1490689018
0.205078125000, -1.019531250000, 0.114990234375, -1.601562500000, -2.710937500000, -3.406250000000, 1490689018
0.205078125000, -1.019531250000, 0.114990234375, -1.601562500000, -2.710937500000, -3.406250000000, 1490689018
-0.003173828125, -0.992675781250, 0.113037109375, 0.039062500000, -2.789062500000, -3.140625000000, 1490689018
-0.003173828125, -0.992675781250, 0.113037109375, 0.039062500000, -2.789062500000, -3.140625000000, 1490689018
-0.003173828125, -0.992675781250, 0.113037109375, 0.039062500000, -2.789062500000, -3.140625000000, 1490689018
-0.003173828125, -0.992675781250, 0.113037109375, 0.039062500000, -2.789062500000, -3.140625000000, 1490689018
-0.003173828125, -0.992675781250, 0.113037109375, 0.039062500000, -2.789062500000, -3.140625000000, 1490689018
0.095947265625, -1.028564453125, 0.137207031250, -4.406250000000, 0.453125000000, -1.992187500000, 1490689018
0.180419921875, -1.010253906250, 0.126220703125, -1.179687500000, -4.078125000000, -6.500000000000, 1490689018
0.180419921875, -1.010253906250, 0.126220703125, -1.179687500000, -4.078125000000, -6.500000000000, 1490689018
0.180419921875, -1.010253906250, 0.126220703125, -1.179687500000, -4.078125000000, -6.500000000000, 1490689018
0.129394531250, -1.128662109375, 0.107910156250, -6.398437500000, -0.898437500000, -3.046875000000, 1490689018
0.129394531250, -1.128662109375, 0.107910156250, -6.398437500000, -0.898437500000, -3.046875000000, 1490689018
0.129394531250, -1.128662109375, 0.107910156250, -6.398437500000, -0.898437500000, -3.046875000000, 1490689018
0.136474609375, -0.960693359375, 0.039794921875, -6.492187500000, -0.875000000000, -6.429687500000, 1490689018
0.136474609375, -0.960693359375, 0.039794921875, -6.492187500000, -0.875000000000, -6.429687500000, 1490689019
0.136474609375, -0.960693359375, 0.039794921875, -6.492187500000, -0.875000000000, -6.429687500000, 1490689019
0.172119140625, -0.975830078125, 0.056884765625, -4.664062500000, 0.890625000000, -6.085937500000, 1490689019
0.172119140625, -0.975830078125, 0.056884765625, -4.664062500000, 0.890625000000, -6.085937500000, 1490689019
0.172119140625, -0.975830078125, 0.056884765625, -4.664062500000, 0.890625000000, -6.085937500000, 1490689019
0.172119140625, -0.975830078125, 0.056884765625, -4.664062500000, 0.890625000000, -6.085937500000, 1490689019
0.063720703125, -1.014160156250, 0.075927734375, -2.781250000000, -2.156250000000, -3.968750000000, 1490689019
0.063720703125, -1.014160156250, 0.075927734375, -2.781250000000, -2.156250000000, -3.968750000000, 1490689019
0.063720703125, -1.014160156250, 0.075927734375, -2.781250000000, -2.156250000000, -3.968750000000, 1490689019
0.364990234375, -1.137451171875, 0.228515625000, 2.125000000000, -1.031250000000, -21.453125000000, 1490689019
0.364990234375, -1.137451171875, 0.228515625000, 2.125000000000, -1.031250000000, -21.453125000000, 1490689019
0.364990234375, -1.137451171875, 0.228515625000, 2.125000000000, -1.031250000000, -21.453125000000, 1490689019
0.783203125000, -2.093017578125, 1.711181640625, 253.992187500000, 67.218750000000, -56.976562500000, 1490689019
0.783203125000, -2.093017578125, 1.711181640625, 253.992187500000, 67.218750000000, -56.976562500000, 1490689019
0.783203125000, -2.093017578125, 1.711181640625, 253.992187500000, 67.218750000000, -56.976562500000, 1490689019
-0.062744140625, -0.399658203125, 0.365234375000, -124.351562500000, 162.585937500000, -61.570312500000, 1490689019
-0.062744140625, -0.399658203125, 0.365234375000, -124.351562500000, 162.585937500000, -61.570312500000, 1490689019
-0.062744140625, -0.399658203125, 0.365234375000, -124.351562500000, 162.585937500000, -61.570312500000, 1490689019
-0.062744140625, -0.399658203125, 0.365234375000, -124.351562500000, 162.585937500000, -61.570312500000, 1490689019
0.098144531250, -0.366943359375, 0.143066406250, -240.179687500000, 98.015625000000, -57.281250000000, 1490689019
0.098144531250, -0.366943359375, 0.143066406250, -240.179687500000, 98.015625000000, -57.281250000000, 1490689019
0.098144531250, -0.366943359375, 0.143066406250, -240.179687500000, 98.015625000000, -57.281250000000, 1490689019
-0.000244140625, -0.958496093750, -0.133789062500, -256.000000000000, -2.648437500000, 189.007812500000, 1490689019
-0.000244140625, -0.958496093750, -0.133789062500, -256.000000000000, -2.648437500000, 189.007812500000, 1490689019
-0.000244140625, -0.958496093750, -0.133789062500, -256.000000000000, -2.648437500000, 189.007812500000, 1490689019
0.083740234375, -0.980712890625, -0.164794921875, 42.765625000000, -256.000000000000, -90.132812500000, 1490689019
0.083740234375, -0.980712890625, -0.164794921875, 42.765625000000, -256.000000000000, -90.132812500000, 1490689019
0.083740234375, -0.980712890625, -0.164794921875, 42.765625000000, -256.000000000000, -90.132812500000, 1490689019
-0.130371093750, -0.897216796875, -0.118164062500, -98.148437500000, -256.000000000000, 10.976562500000, 1490689019
-0.130371093750, -0.897216796875, -0.118164062500, -98.148437500000, -256.000000000000, 10.976562500000, 1490689019
-0.130371093750, -0.897216796875, -0.118164062500, -98.148437500000, -256.000000000000, 10.976562500000, 1490689019
-0.130371093750, -0.897216796875, -0.118164062500, -98.148437500000, -256.000000000000, 10.976562500000, 1490689019
0.196533203125, -0.454589843750, 0.297851562500, -19.460937500000, -150.976562500000, 28.398437500000, 1490689019
0.196533203125, -0.454589843750, 0.297851562500, -19.460937500000, -150.976562500000, 28.398437500000, 1490689019
0.196533203125, -0.454589843750, 0.297851562500, -19.460937500000, -150.976562500000, 28.398437500000, 1490689019
0.447753906250, -0.466552734375, 0.338134765625, 188.523437500000, 220.671875000000, -240.445312500000, 1490689019
0.447753906250, -0.466552734375, 0.338134765625, 188.523437500000, 220.671875000000, -240.445312500000, 1490689019
0.447753906250, -0.466552734375, 0.338134765625, 188.523437500000, 220.671875000000, -240.445312500000, 1490689019
0.222900390625, -1.301025390625, 0.254150390625, 253.992187500000, 253.992187500000, -105.421875000000, 1490689019
0.222900390625, -1.301025390625, 0.254150390625, 253.992187500000, 253.992187500000, -105.421875000000, 1490689019
0.222900390625, -1.301025390625, 0.254150390625, 253.992187500000, 253.992187500000, -105.421875000000, 1490689019
0.451660156250, -0.910644531250, 2.969726562500, 94.898437500000, 136.804687500000, 65.296875000000, 1490689019
0.451660156250, -0.910644531250, 2.969726562500, 94.898437500000, 136.804687500000, 65.296875000000, 1490689019
0.451660156250, -0.910644531250, 2.969726562500, 94.898437500000, 136.804687500000, 65.296875000000, 1490689019
0.451660156250, -0.910644531250, 2.969726562500, 94.898437500000, 136.804687500000, 65.296875000000, 1490689019
0.122314453125, -0.477783203125, 0.210205078125, -217.234375000000, -4.976562500000, 108.390625000000, 1490689019
0.122314453125, -0.477783203125, 0.210205078125, -217.234375000000, -4.976562500000, 108.390625000000, 1490689019
0.122314453125, -0.477783203125, 0.210205078125, -217.234375000000, -4.976562500000, 108.390625000000, 1490689019
-0.089843750000, -0.510009765625, -0.193115234375, -212.812500000000, 62.367187500000, 123.492187500000, 1490689019
-0.089843750000, -0.510009765625, -0.193115234375, -212.812500000000, 62.367187500000, 123.492187500000, 1490689019
-0.089843750000, -0.510009765625, -0.193115234375, -212.812500000000, 62.367187500000, 123.492187500000, 1490689019
0.035400390625, -0.299804687500, 0.045410156250, -165.359375000000, 185.781250000000, 26.515625000000, 1490689019
0.035400390625, -0.299804687500, 0.045410156250, -165.359375000000, 185.781250000000, 26.515625000000, 1490689019
0.035400390625, -0.299804687500, 0.045410156250, -165.359375000000, 185.781250000000, 26.515625000000, 1490689019
0.148437500000, -0.544921875000, -0.070800781250, 162.296875000000, 74.484375000000, -33.929687500000, 1490689019
0.148437500000, -0.544921875000, -0.070800781250, 162.296875000000, 74.484375000000, -33.929687500000, 1490689019
0.148437500000, -0.544921875000, -0.070800781250, 162.296875000000, 74.484375000000, -33.929687500000, 1490689019
0.148437500000, -0.544921875000, -0.070800781250, 162.296875000000, 74.484375000000, -33.929687500000, 1490689019
0.022216796875, -1.195800781250, -0.360351562500, -96.296875000000, -59.726562500000, -61.828125000000, 1490689019
0.022216796875, -1.195800781250, -0.360351562500, -96.296875000000, -59.726562500000, -61.828125000000, 1490689019
0.022216796875, -1.195800781250, -0.360351562500, -96.296875000000, -59.726562500000, -61.828125000000, 1490689019
-0.000244140625, -1.063232421875, 0.016357421875, -256.000000000000, -76.062500000000, 48.117187500000, 1490689019
-0.000244140625, -1.063232421875, 0.016357421875, -256.000000000000, -76.062500000000, 48.117187500000, 1490689019
-0.000244140625, -1.063232421875, 0.016357421875, -256.000000000000, -76.062500000000, 48.117187500000, 1490689019
0.337158203125, 0.714599609375, 0.299072265625, 253.992187500000, 183.914062500000, 22.640625000000, 1490689019
0.337158203125, 0.714599609375, 0.299072265625, 253.992187500000, 183.914062500000, 22.640625000000, 1490689019
0.337158203125, 0.714599609375, 0.299072265625, 253.992187500000, 183.914062500000, 22.640625000000, 1490689019
-0.126220703125, 0.152343750000, 0.338623046875, 253.992187500000, -113.773437500000, 95.046875000000, 1490689020
-0.126220703125, 0.152343750000, 0.338623046875, 253.992187500000, -113.773437500000, 95.046875000000, 1490689020
0.331054687500, 0.314208984375, 0.520996093750, 253.992187500000, -165.960937500000, -66.007812500000, 1490689020
0.213378906250, 6.202880859375, 0.475830078125, -256.000000000000, -129.484375000000, -202.898437500000, 1490689020
0.213378906250, 6.202880859375, 0.475830078125, -256.000000000000, -129.484375000000, -202.898437500000, 1490689020
0.213378906250, 6.202880859375, 0.475830078125, -256.000000000000, -129.484375000000, -202.898437500000, 1490689020
0.213378906250, 6.202880859375, 0.475830078125, -256.000000000000, -129.484375000000, -202.898437500000, 1490689020
0.052246093750, -0.149902343750, 0.415283203125, -256.000000000000, 72.945312500000, -87.398437500000, 1490689020
0.052246093750, -0.149902343750, 0.415283203125, -256.000000000000, 72.945312500000, -87.398437500000, 1490689020
0.052246093750, -0.149902343750, 0.415283203125, -256.000000000000, 72.945312500000, -87.398437500000, 1490689020
2.161132812500, 3.519775390625, -7.937255859375, -256.000000000000, -256.000000000000, 66.406250000000, 1490689020
2.161132812500, 3.519775390625, -7.937255859375, -256.000000000000, -256.000000000000, 66.406250000000, 1490689020
2.161132812500, 3.519775390625, -7.937255859375, -256.000000000000, -256.000000000000, 66.406250000000, 1490689020
-0.256347656250, 0.015380859375, -1.556152343750, 95.460937500000, 34.203125000000, -98.070312500000, 1490689020
-0.256347656250, 0.015380859375, -1.556152343750, 95.460937500000, 34.203125000000, -98.070312500000, 1490689020
-0.256347656250, 0.015380859375, -1.556152343750, 95.460937500000, 34.203125000000, -98.070312500000, 1490689020
-0.256347656250, 0.015380859375, -1.556152343750, 95.460937500000, 34.203125000000, -98.070312500000, 1490689020
-0.094238281250, 0.026367187500, -0.706542968750, 100.921875000000, 24.257812500000, -13.171875000000, 1490689020
-0.094238281250, 0.026367187500, -0.706542968750, 100.921875000000, 24.257812500000, -13.171875000000, 1490689020
-0.094238281250, 0.026367187500, -0.706542968750, 100.921875000000, 24.257812500000, -13.171875000000, 1490689020
0.035400390625, 0.367187500000, -1.233886718750, -43.101562500000, 18.296875000000, -4.023437500000, 1490689020
0.035400390625, 0.367187500000, -1.233886718750, -43.101562500000, 18.296875000000, -4.023437500000, 1490689020
0.035400390625, 0.367187500000, -1.233886718750, -43.101562500000, 18.296875000000, -4.023437500000, 1490689020
0.064941406250, 0.134033203125, -0.781494140625, 155.929687500000, 172.351562500000, -6.687500000000, 1490689020
0.064941406250, 0.134033203125, -0.781494140625, 155.929687500000, 172.351562500000, -6.687500000000, 1490689020
0.064941406250, 0.134033203125, -0.781494140625, 155.929687500000, 172.351562500000, -6.687500000000, 1490689020
-0.031494140625, 0.084960937500, -0.925537109375, 26.835937500000, 74.976562500000, 53.328125000000, 1490689020
-0.031494140625, 0.084960937500, -0.925537109375, 26.835937500000, 74.976562500000, 53.328125000000, 1490689020
-0.031494140625, 0.084960937500, -0.925537109375, 26.835937500000, 74.976562500000, 53.328125000000, 1490689020
-0.031494140625, 0.084960937500, -0.925537109375, 26.835937500000, 74.976562500000, 53.328125000000, 1490689020
-0.098632812500, -0.065429687500, -0.933593750000, -50.734375000000, -0.398437500000, 36.906250000000, 1490689020
-0.098632812500, -0.065429687500, -0.933593750000, -50.734375000000, -0.398437500000, 36.906250000000, 1490689020
-0.098632812500, -0.065429687500, -0.933593750000, -50.734375000000, -0.398437500000, 36.906250000000, 1490689020
-0.094970703125, -0.204345703125, -0.856933593750, 49.640625000000, 63.710937500000, 8.250000000000, 1490689020
-0.094970703125, -0.204345703125, -0.856933593750, 49.640625000000, 63.710937500000, 8.250000000000, 1490689020
-0.094970703125, -0.204345703125, -0.856933593750, 49.640625000000, 63.710937500000, 8.250000000000, 1490689020
-0.025390625000, 0.203125000000, -1.077148437500, -39.289062500000, 23.242187500000, 4.648437500000, 1490689020
-0.025390625000, 0.203125000000, -1.077148437500, -39.289062500000, 23.242187500000, 4.648437500000, 1490689020
-0.025390625000, 0.203125000000, -1.077148437500, -39.289062500000, 23.242187500000, 4.648437500000, 1490689020
0.085693359375, 0.102539062500, -0.865478515625, -8.414062500000, 23.828125000000, -16.437500000000, 1490689020
0.085693359375, 0.102539062500, -0.865478515625, -8.414062500000, 23.828125000000, -16.437500000000, 1490689020
0.085693359375, 0.102539062500, -0.865478515625, -8.414062500000, 23.828125000000, -16.437500000000, 1490689020
0.085693359375, 0.102539062500, -0.865478515625, -8.414062500000, 23.828125000000, -16.437500000000, 1490689020
0.018066406250, -0.017822265625, -0.954101562500, -28.890625000000, 15.960937500000, -1.632812500000, 1490689020
0.018066406250, -0.017822265625, -0.954101562500, -28.890625000000, 15.960937500000, -1.632812500000, 1490689020
0.018066406250, -0.017822265625, -0.954101562500, -28.890625000000, 15.960937500000, -1.632812500000, 1490689020
0.074951171875, 0.092773437500, -0.826660156250, 10.757812500000, 9.875000000000, -4.812500000000, 1490689020
0.074951171875, 0.092773437500, -0.826660156250, 10.757812500000, 9.875000000000, -4.812500000000, 1490689020
0.074951171875, 0.092773437500, -0.826660156250, 10.757812500000, 9.875000000000, -4.812500000000, 1490689020
-0.076904296875, 0.022949218750, -0.964599609375, 1.007812500000, -5.570312500000, -1.648437500000, 1490689020
-0.076904296875, 0.022949218750, -0.964599609375, 1.007812500000, -5.570312500000, -1.648437500000, 1490689020
-0.076904296875, 0.022949218750, -0.964599609375, 1.007812500000, -5.570312500000, -1.648437500000, 1490689020
0.001220703125, 0.092773437500, -1.082519531250, -9.507812500000, 1.062500000000, -1.039062500000, 1490689020
0.001220703125, 0.092773437500, -1.082519531250, -9.507812500000, 1.062500000000, -1.039062500000, 1490689020
0.001220703125, 0.092773437500, -1.082519531250, -9.507812500000, 1.062500000000, -1.039062500000, 1490689020
0.001220703125, 0.092773437500, -1.082519531250, -9.507812500000, 1.062500000000, -1.039062500000, 1490689020
0.023681640625, 0.016113281250, -1.013427734375, -28.218750000000, -2.789062500000, -4.750000000000, 1490689020
0.023681640625, 0.016113281250, -1.013427734375, -28.218750000000, -2.789062500000, -4.750000000000, 1490689020
0.023681640625, 0.016113281250, -1.013427734375, -28.218750000000, -2.789062500000, -4.750000000000, 1490689020
-0.073974609375, 0.075927734375, -0.857910156250, -12.804687500000, -16.562500000000, -4.562500000000, 1490689020
-0.073974609375, 0.075927734375, -0.857910156250, -12.804687500000, -16.562500000000, -4.562500000000, 1490689020
-0.073974609375, 0.075927734375, -0.857910156250, -12.804687500000, -16.562500000000, -4.562500000000, 1490689020
0.040527343750, -0.090576171875, -1.001220703125, -12.109375000000, 2.250000000000, -3.953125000000, 1490689020
0.040527343750, -0.090576171875, -1.001220703125, -12.109375000000, 2.250000000000, -3.953125000000, 1490689020
0.040527343750, -0.090576171875, -1.001220703125, -12.109375000000, 2.250000000000, -3.953125000000, 1490689020
-0.028808593750, 0.066650390625, -0.988281250000, -23.000000000000, 4.929687500000, -5.656250000000, 1490689021
-0.028808593750, 0.066650390625, -0.988281250000, -23.000000000000, 4.929687500000, -5.656250000000, 1490689021
-0.028808593750, 0.066650390625, -0.988281250000, -23.000000000000, 4.929687500000, -5.656250000000, 1490689021
-0.028808593750, 0.066650390625, -0.988281250000, -23.000000000000, 4.929687500000, -5.656250000000, 1490689021
0.030517578125, -0.027587890625, -1.009277343750, -10.320312500000, -0.015625000000, -14.890625000000, 1490689021
0.030517578125, -0.027587890625, -1.009277343750, -10.320312500000, -0.015625000000, -14.890625000000, 1490689021
0.030517578125, -0.027587890625, -1.009277343750, -10.320312500000, -0.015625000000, -14.890625000000, 1490689021
0.025878906250, -0.093017578125, -0.993652343750, -1.328125000000, -9.898437500000, -21.335937500000, 1490689021
0.025878906250, -0.093017578125, -0.993652343750, -1.328125000000, -9.898437500000, -21.335937500000, 1490689021
0.025878906250, -0.093017578125, -0.993652343750, -1.328125000000, -9.898437500000, -21.335937500000, 1490689021
-0.068359375000, -0.019042968750, -1.009277343750, 4.343750000000, -0.117187500000, -31.156250000000, 1490689021
-0.068359375000, -0.019042968750, -1.009277343750, 4.343750000000, -0.117187500000, -31.156250000000, 1490689021
-0.068359375000, -0.019042968750, -1.009277343750, 4.343750000000, -0.117187500000, -31.156250000000, 1490689021
-0.071044921875, 0.062744140625, -0.925781250000, -8.843750000000, 2.812500000000, -33.859375000000, 1490689021
-0.071044921875, 0.062744140625, -0.925781250000, -8.843750000000, 2.812500000000, -33.859375000000, 1490689021
-0.071044921875, 0.062744140625, -0.925781250000, -8.843750000000, 2.812500000000, -33.859375000000, 1490689021
-0.071044921875, 0.062744140625, -0.925781250000, -8.843750000000, 2.812500000000, -33.859375000000, 1490689021
-0.069335937500, 0.072021484375, -0.970703125000, -8.773437500000, -2.585937500000, -36.140625000000, 1490689021
-0.069335937500, 0.072021484375, -0.970703125000, -8.773437500000, -2.585937500000, -36.140625000000, 1490689021
-0.069335937500, 0.072021484375, -0.970703125000, -8.773437500000, -2.585937500000, -36.140625000000, 1490689021
0.018310546875, -0.028076171875, -1.002441406250, -6.320312500000, -4.523437500000, -38.132812500000, 1490689021
0.018310546875, -0.028076171875, -1.002441406250, -6.320312500000, -4.523437500000, -38.132812500000, 1490689021
0.018310546875, -0.028076171875, -1.002441406250, -6.320312500000, -4.523437500000, -38.132812500000, 1490689021
-0.015869140625, 0.019775390625, -1.010498046875, -11.343750000000, -0.195312500000, -27.179687500000, 1490689021
-0.015869140625, 0.019775390625, -1.010498046875, -11.343750000000, -0.195312500000, -27.179687500000, 1490689021
-0.015869140625, 0.019775390625, -1.010498046875, -11.343750000000, -0.195312500000, -27.179687500000, 1490689021
-0.154785156250, -0.071289062500, -0.969238281250, -1.515625000000, -0.359375000000, -32.773437500000, 1490689021
-0.154785156250, -0.071289062500, -0.969238281250, -1.515625000000, -0.359375000000, -32.773437500000, 1490689021
-0.154785156250, -0.071289062500, -0.969238281250, -1.515625000000, -0.359375000000, -32.773437500000, 1490689021
-0.154785156250, -0.071289062500, -0.969238281250, -1.515625000000, -0.359375000000, -32.773437500000, 1490689021
-0.028808593750, -0.029541015625, -0.971191406250, -4.984375000000, -3.468750000000, -3.671875000000, 1490689021
-0.028808593750, -0.029541015625, -0.971191406250, -4.984375000000, -3.468750000000, -3.671875000000, 1490689021
-0.028808593750, -0.029541015625, -0.971191406250, -4.984375000000, -3.468750000000, -3.671875000000, 1490689021
-0.028564453125, -0.031005859375, -1.021728515625, -6.671875000000, -20.031250000000, -2.265625000000, 1490689021
-0.028564453125, -0.031005859375, -1.021728515625, -6.671875000000, -20.031250000000, -2.265625000000, 1490689021
-0.028564453125, -0.031005859375, -1.021728515625, -6.671875000000, -20.031250000000, -2.265625000000, 1490689021
-0.077880859375, -0.139404296875, -0.803955078125, -6.367187500000, -0.531250000000, -8.250000000000, 1490689021
-0.077880859375, -0.139404296875, -0.803955078125, -6.367187500000, -0.531250000000, -8.250000000000, 1490689021
-0.077880859375, -0.139404296875, -0.803955078125, -6.367187500000, -0.531250000000, -8.250000000000, 1490689021
-0.092773437500, -0.000244140625, -0.984130859375, -21.031250000000, -1.382812500000, -1.250000000000, 1490689021
-0.092773437500, -0.000244140625, -0.984130859375, -21.031250000000, -1.382812500000, -1.250000000000, 1490689021
-0.092773437500, -0.000244140625, -0.984130859375, -21.031250000000, -1.382812500000, -1.250000000000, 1490689021
-0.092773437500, -0.000244140625, -0.984130859375, -21.031250000000, -1.382812500000, -1.250000000000, 1490689021
0.007812500000, 0.027343750000, -0.934082031250, -1.257812500000, -0.304687500000, -2.789062500000, 1490689021
0.007812500000, 0.027343750000, -0.934082031250, -1.257812500000, -0.304687500000, -2.789062500000, 1490689021
0.007812500000, 0.027343750000, -0.934082031250, -1.257812500000, -0.304687500000, -2.789062500000, 1490689021
0.073242187500, -0.126953125000, -1.007324218750, 0.210937500000, -6.960937500000, -3.054687500000, 1490689021
0.073242187500, -0.126953125000, -1.007324218750, 0.210937500000, -6.960937500000, -3.054687500000, 1490689021
0.073242187500, -0.126953125000, -1.007324218750, 0.210937500000, -6.960937500000, -3.054687500000, 1490689021
0.021240234375, -0.031250000000, -1.009765625000, 2.921875000000, -6.156250000000, -4.648437500000, 1490689021
0.021240234375, -0.031250000000, -1.009765625000, 2.921875000000, -6.156250000000, -4.648437500000, 1490689021
0.021240234375, -0.031250000000, -1.009765625000, 2.921875000000, -6.156250000000, -4.648437500000, 1490689021
-0.002441406250, 0.065917968750, -1.034423828125, 2.781250000000, -2.078125000000, -3.781250000000, 1490689021
-0.002441406250, 0.065917968750, -1.034423828125, 2.781250000000, -2.078125000000, -3.781250000000, 1490689021
-0.002441406250, 0.065917968750, -1.034423828125, 2.781250000000, -2.078125000000, -3.781250000000, 1490689021
-0.002441406250, 0.065917968750, -1.034423828125, 2.781250000000, -2.078125000000, -3.781250000000, 1490689021
-0.012695312500, -0.012695312500, -0.915283203125, -0.460937500000, 1.476562500000, -1.640625000000, 1490689021
-0.012695312500, -0.012695312500, -0.915283203125, -0.460937500000, 1.476562500000, -1.640625000000, 1490689021
-0.012695312500, -0.012695312500, -0.915283203125, -0.460937500000, 1.476562500000, -1.640625000000, 1490689021
-0.055664062500, -0.072265625000, -0.970703125000, -2.171875000000, -0.273437500000, -6.984375000000, 1490689021
-0.055664062500, -0.072265625000, -0.970703125000, -2.171875000000, -0.273437500000, -6.984375000000, 1490689021
-0.055664062500, -0.072265625000, -0.970703125000, -2.171875000000, -0.273437500000, -6.984375000000, 1490689021
-0.126464843750, -0.057617187500, -0.965332031250, 0.367187500000, 4.179687500000, -6.257812500000, 1490689021
-0.126464843750, -0.057617187500, -0.965332031250, 0.367187500000, 4.179687500000, -6.257812500000, 1490689021
-0.126464843750, -0.057617187500, -0.965332031250, 0.367187500000, 4.179687500000, -6.257812500000, 1490689021
-0.019531250000, 0.010742187500, -1.009277343750, -8.679687500000, -1.382812500000, -4.570312500000, 1490689021
-0.019531250000, 0.010742187500, -1.009277343750, -8.679687500000, -1.382812500000, -4.570312500000, 1490689021
-0.019531250000, 0.010742187500, -1.009277343750, -8.679687500000, -1.382812500000, -4.570312500000, 1490689021
-0.019531250000, 0.010742187500, -1.009277343750, -8.679687500000, -1.382812500000, -4.570312500000, 1490689021
-0.073486328125, -0.048583984375, -0.921386718750, -3.578125000000, -5.515625000000, -2.343750000000, 1490689022
-0.073486328125, -0.048583984375, -0.921386718750, -3.578125000000, -5.515625000000, -2.343750000000, 1490689022
0.002441406250, 0.078125000000, -1.132812500000, -0.617187500000, -0.687500000000, -6.726562500000, 1490689022
-0.054687500000, -0.087158203125, -0.970458984375, -3.765625000000, 5.304687500000, -4.648437500000, 1490689022
-0.054687500000, -0.087158203125, -0.970458984375, -3.765625000000, 5.304687500000, -4.648437500000, 1490689022
-0.054687500000, -0.087158203125, -0.970458984375, -3.765625000000, 5.304687500000, -4.648437500000, 1490689022
-0.054687500000, -0.087158203125, -0.970458984375, -3.765625000000, 5.304687500000, -4.648437500000, 1490689022
-0.054687500000, -0.087158203125, -0.970458984375, -3.765625000000, 5.304687500000, -4.648437500000, 1490689022
-0.054687500000, -0.087158203125, -0.970458984375, -3.148437500000, 7.851562500000, -2.984375000000, 1490689022
0.029052734375, -0.009765625000, -1.008789062500, -3.648437500000, 4.109375000000, -3.031250000000, 1490689022
0.029052734375, -0.009765625000, -1.008789062500, -3.648437500000, 4.109375000000, -3.031250000000, 1490689022
0.029052734375, -0.009765625000, -1.008789062500, -3.648437500000, 4.109375000000, -3.031250000000, 1490689022
0.029052734375, -0.009765625000, -1.008789062500, -3.648437500000, 4.109375000000, -3.031250000000, 1490689022
0.030761718750, -0.063720703125, -0.863525390625, -5.859375000000, 0.945312500000, -5.312500000000, 1490689022
0.030761718750, -0.063720703125, -0.863525390625, -5.859375000000, 0.945312500000, -5.312500000000, 1490689022
0.030761718750, -0.063720703125, -0.863525390625, -5.859375000000, 0.945312500000, -5.312500000000, 1490689022
-0.063720703125, 0.028564453125, -0.858886718750, -8.140625000000, -2.484375000000, -6.312500000000, 1490689022
-0.070800781250, -0.006347656250, -1.009277343750, -9.281250000000, -2.617187500000, -4.851562500000, 1490689022
-0.070800781250, -0.006347656250, -1.009277343750, -9.281250000000, -2.617187500000, -4.851562500000, 1490689022
-0.070800781250, -0.006347656250, -1.009277343750, -9.281250000000, -2.617187500000, -4.851562500000, 1490689022
-0.070800781250, -0.006347656250, -1.009277343750, -9.281250000000, -2.617187500000, -4.851562500000, 1490689022
-0.061035156250, -0.051025390625, -1.023437500000, -10.593750000000, -8.242187500000, -3.109375000000, 1490689022
-0.061035156250, -0.051025390625, -1.023437500000, -10.593750000000, -8.242187500000, -3.109375000000, 1490689022
-0.061035156250, -0.051025390625, -1.023437500000, -7.921875000000, -3.148437500000, -4.734375000000, 1490689022
-0.086425781250, -0.026367187500, -0.954833984375, -6.601562500000, -3.218750000000, -9.390625000000, 1490689022
-0.086425781250, -0.026367187500, -0.954833984375, -6.601562500000, -3.218750000000, -9.390625000000, 1490689022
-0.086425781250, -0.026367187500, -0.954833984375, -6.601562500000, -3.218750000000, -9.390625000000, 1490689022
-0.086425781250, -0.026367187500, -0.954833984375, -6.601562500000, -3.218750000000, -9.390625000000, 1490689022
-0.086425781250, -0.026367187500, -0.954833984375, -6.601562500000, -3.218750000000, -9.390625000000, 1490689022
0.000488281250, 0.005371093750, -0.962646484375, -10.656250000000, -3.671875000000, -2.640625000000, 1490689022
0.000488281250, 0.005371093750, -0.962646484375, -10.656250000000, -3.671875000000, -2.640625000000, 1490689022
0.000488281250, 0.005371093750, -0.962646484375, -10.656250000000, -3.671875000000, -2.640625000000, 1490689022
-0.137695312500, -0.063232421875, -1.004882812500, -12.007812500000, -7.289062500000, 1.890625000000, 1490689022
-0.137695312500, -0.063232421875, -1.004882812500, -12.007812500000, -7.289062500000, 1.890625000000, 1490689022
-0.137695312500, -0.063232421875, -1.004882812500, -12.007812500000, -7.289062500000, 1.890625000000, 1490689022
-0.090820312500, -0.110107421875, -0.845458984375, -10.523437500000, -0.734375000000, 5.390625000000, 1490689022
-0.090820312500, -0.110107421875, -0.845458984375, -10.523437500000, -0.734375000000, 5.390625000000, 1490689022
-0.090820312500, -0.110107421875, -0.845458984375, -10.523437500000, -0.734375000000, 5.390625000000, 1490689022
-0.090820312500, -0.110107421875, -0.845458984375, -10.523437500000, -0.734375000000, 5.390625000000, 1490689022
-0.020751953125, 0.000488281250, -1.003906250000, -7.460937500000, 0.609375000000, 2.679687500000, 1490689022
-0.020751953125, 0.000488281250, -1.003906250000, -7.460937500000, 0.609375000000, 2.679687500000, 1490689022
-0.020751953125, 0.000488281250, -1.003906250000, -7.460937500000, 0.609375000000, 2.679687500000, 1490689022
-0.081787109375, 0.014404296875, -1.006103515625, -11.164062500000, 6.367187500000, 4.476562500000, 1490689022
-0.081787109375, 0.014404296875, -1.006103515625, -11.164062500000, 6.367187500000, 4.476562500000, 1490689022
-0.081787109375, 0.014404296875, -1.006103515625, -11.164062500000, 6.367187500000, 4.476562500000, 1490689022
0.009277343750, -0.190429687500, -1.027587890625, -9.507812500000, 5.914062500000, 8.656250000000, 1490689022
0.009277343750, -0.190429687500, -1.027587890625, -9.507812500000, 5.914062500000, 8.656250000000, 1490689022
0.009277343750, -0.190429687500, -1.027587890625, -9.507812500000, 5.914062500000, 8.656250000000, 1490689022
-0.086914062500, -0.123291015625, -0.930908203125, -13.023437500000, 5.570312500000, 0.851562500000, 1490689022
-0.086914062500, -0.123291015625, -0.930908203125, -13.023437500000, 5.570312500000, 0.851562500000, 1490689022
-0.086914062500, -0.123291015625, -0.930908203125, -13.023437500000, 5.570312500000, 0.851562500000, 1490689022
-0.086914062500, -0.123291015625, -0.930908203125, -13.023437500000, 5.570312500000, 0.851562500000, 1490689022
-0.086914062500, -0.123291015625, -0.930908203125, -13.023437500000, 5.570312500000, 0.851562500000, 1490689022
0.047363281250, -0.210693359375, -0.918212890625, -14.054687500000, 6.648437500000, 1.195312500000, 1490689022
-0.002685546875, -0.042724609375, -1.019775390625, -10.656250000000, 5.460937500000, 1.664062500000, 1490689022
-0.002685546875, -0.042724609375, -1.019775390625, -10.656250000000, 5.460937500000, 1.664062500000, 1490689022
-0.002685546875, -0.042724609375, -1.019775390625, -10.656250000000, 5.460937500000, 1.664062500000, 1490689022
-0.002685546875, -0.042724609375, -1.019775390625, -10.656250000000, 5.460937500000, 1.664062500000, 1490689022
-0.078613281250, -0.147949218750, -1.002929687500, -0.867187500000, 2.492187500000, 2.046875000000, 1490689022
-0.078613281250, -0.147949218750, -1.002929687500, -0.867187500000, 2.492187500000, 2.046875000000, 1490689022
-0.078613281250, -0.147949218750, -1.002929687500, -0.867187500000, 2.492187500000, 2.046875000000, 1490689022
-0.041503906250, -0.142822265625, -1.031005859375, 3.117187500000, -6.421875000000, -2.429687500000, 1490689022
-0.041503906250, -0.142822265625, -1.031005859375, 3.117187500000, -6.421875000000, -2.429687500000, 1490689022
-0.041503906250, -0.142822265625, -1.031005859375, 3.117187500000, -6.421875000000, -2.429687500000, 1490689022
-0.041503906250, -0.142822265625, -1.031005859375, 3.117187500000, -6.421875000000, -2.429687500000, 1490689022
-0.019042968750, -0.129394531250, -1.006835937500, 3.476562500000, -9.757812500000, -3.906250000000, 1490689022
-0.019042968750, -0.129394531250, -1.006835937500, 3.476562500000, -9.757812500000, -3.906250000000, 1490689023
-0.019042968750, -0.129394531250, -1.006835937500, 3.476562500000, -9.757812500000, -3.906250000000, 1490689023
-0.077636718750, -0.032470703125, -0.957031250000, 0.484375000000, -7.476562500000, -1.703125000000, 1490689023
-0.077636718750, -0.032470703125, -0.957031250000, 0.484375000000, -7.476562500000, -1.703125000000, 1490689023
-0.077636718750, -0.032470703125, -0.957031250000, 0.484375000000, -7.476562500000, -1.703125000000, 1490689023
-0.077636718750, -0.032470703125, -0.957031250000, 0.484375000000, -7.476562500000, -1.703125000000, 1490689023
0.007812500000, -0.041503906250, -0.984863281250, -4.210937500000, -3.796875000000, -4.000000000000, 1490689023
0.007812500000, -0.041503906250, -0.984863281250, -4.210937500000, -3.796875000000, -4.000000000000, 1490689023
0.007812500000, -0.041503906250, -0.984863281250, -4.210937500000, -3.796875000000, -4.000000000000, 1490689023
0.007812500000, -0.041503906250, -0.984863281250, -4.210937500000, -3.796875000000, -4.000000000000, 1490689023
0.007812500000, -0.041503906250, -0.984863281250, -4.210937500000, -3.796875000000, -4.000000000000, 1490689023
-0.075195312500, -0.046875000000, -1.022216796875, -4.390625000000, -1.187500000000, -3.375000000000, 1490689023
-0.075195312500, -0.046875000000, -1.022216796875, -4.390625000000, -1.187500000000, -3.375000000000, 1490689023
-0.075195312500, -0.046875000000, -1.022216796875, -4.390625000000, -1.187500000000, -3.375000000000, 1490689023
-0.075195312500, -0.046875000000, -1.022216796875, -4.390625000000, -1.187500000000, -3.375000000000, 1490689023
-0.025146484375, 0.026855468750, -1.028076171875, -4.750000000000, -0.617187500000, -4.328125000000, 1490689023
-0.025146484375, 0.026855468750, -1.028076171875, -4.750000000000, -0.617187500000, -4.328125000000, 1490689023
-0.025146484375, 0.026855468750, -1.028076171875, -4.750000000000, -0.617187500000, -4.328125000000, 1490689023
0.007812500000, -0.055664062500, -1.029052734375, -4.453125000000, -2.054687500000, -3.445312500000, 1490689023
-0.090087890625, -0.057373046875, -0.978515625000, -5.234375000000, -4.781250000000, -1.992187500000, 1490689023
-0.090087890625, -0.057373046875, -0.978515625000, -5.234375000000, -4.781250000000, -1.992187500000, 1490689023
-0.090087890625, -0.057373046875, -0.978515625000, -5.234375000000, -4.781250000000, -1.992187500000, 1490689023
-0.090087890625, -0.057373046875, -0.978515625000, -5.234375000000, -4.781250000000, -1.992187500000, 1490689023
-0.036376953125, 0.004394531250, -0.925048828125, -5.023437500000, -1.867187500000, -3.875000000000, 1490689023
0.070068359375, -0.046386718750, -1.028076171875, -8.500000000000, -3.296875000000, -4.546875000000, 1490689023
0.070068359375, -0.046386718750, -1.028076171875, -8.500000000000, -3.296875000000, -4.546875000000, 1490689023
0.070068359375, -0.046386718750, -1.028076171875, -8.500000000000, -3.296875000000, -4.546875000000, 1490689023
0.070068359375, -0.046386718750, -1.028076171875, -8.500000000000, -3.296875000000, -4.546875000000, 1490689023
-0.083007812500, -0.089111328125, -0.907958984375, -5.554687500000, -4.718750000000, -1.179687500000, 1490689023
-0.083007812500, -0.089111328125, -0.907958984375, -5.554687500000, -4.718750000000, -1.179687500000, 1490689023
-0.041259765625, 0.019287109375, -0.966552734375, -10.578125000000, -3.515625000000, -3.312500000000, 1490689023
-0.155517578125, -0.127197265625, -0.964599609375, -10.578125000000, -3.515625000000, -3.312500000000, 1490689023
-0.155517578125, -0.127197265625, -0.964599609375, -10.578125000000, -3.515625000000, -3.312500000000, 1490689023
-0.155517578125, -0.127197265625, -0.964599609375, -10.578125000000, -3.515625000000, -3.312500000000, 1490689023
-0.083007812500, -0.135498046875, -1.082519531250, -5.695312500000, -4.023437500000, -3.671875000000, 1490689023
-0.083007812500, -0.135498046875, -1.082519531250, -5.695312500000, -4.023437500000, -3.671875000000, 1490689023
-0.083007812500, -0.135498046875, -1.082519531250, -5.695312500000, -4.023437500000, -3.671875000000, 1490689023
-0.083007812500, -0.135498046875, -1.082519531250, -5.695312500000, -4.023437500000, -3.671875000000, 1490689023
-0.043701171875, -0.051757812500, -0.954833984375, -8.187500000000, -3.000000000000, -4.765625000000, 1490689023
-0.043701171875, -0.051757812500, -0.954833984375, -8.187500000000, -3.000000000000, -4.765625000000, 1490689023
-0.043701171875, -0.051757812500, -0.954833984375, -8.187500000000, -3.000000000000, -4.765625000000, 1490689023
-0.126953125000, -0.125488281250, -0.974121093750, -3.640625000000, -1.031250000000, -3.867187500000, 1490689023
-0.126953125000, -0.125488281250, -0.974121093750, -3.640625000000, -1.031250000000, -3.867187500000, 1490689023
-0.126953125000, -0.125488281250, -0.974121093750, -3.640625000000, -1.031250000000, -3.867187500000, 1490689023
-0.146240234375, -0.052001953125, -1.026123046875, -3.679687500000, 0.312500000000, -4.375000000000, 1490689023
-0.146240234375, -0.052001953125, -1.026123046875, -3.679687500000, 0.312500000000, -4.375000000000, 1490689023
-0.146240234375, -0.052001953125, -1.026123046875, -3.679687500000, 0.312500000000, -4.375000000000, 1490689023
-0.068847656250, -0.060791015625, -0.969970703125, -4.226562500000, 0.156250000000, -4.859375000000, 1490689023
-0.068847656250, -0.060791015625, -0.969970703125, -4.226562500000, 0.156250000000, -4.859375000000, 1490689023
-0.068847656250, -0.060791015625, -0.969970703125, -4.226562500000, 0.156250000000, -4.859375000000, 1490689023
-0.068847656250, -0.060791015625, -0.969970703125, -4.226562500000, 0.156250000000, -4.859375000000, 1490689023
-0.092773437500, -0.153076171875, -1.020996093750, -4.882812500000, -2.062500000000, -5.640625000000, 1490689023
-0.092773437500, -0.153076171875, -1.020996093750, -4.882812500000, -2.062500000000, -5.640625000000, 1490689023
-0.092773437500, -0.153076171875, -1.020996093750, -4.882812500000, -2.062500000000, -5.640625000000, 1490689023
-0.050781250000, -0.130615234375, -0.912841796875, 2.117187500000, 2.046875000000, -1.593750000000, 1490689023
-0.050781250000, -0.130615234375, -0.912841796875, 2.117187500000, 2.046875000000, -1.593750000000, 1490689023
-0.050781250000, -0.130615234375, -0.912841796875, 2.117187500000, 2.046875000000, -1.593750000000, 1490689023
-0.133544921875, -0.135742187500, -0.959960937500, -1.789062500000, -1.554687500000, -6.218750000000, 1490689023
-0.133544921875, -0.135742187500, -0.959960937500, -1.789062500000, -1.554687500000, -6.218750000000, 1490689023
-0.133544921875, -0.135742187500, -0.959960937500, -1.789062500000, -1.554687500000, -6.218750000000, 1490689023
-0.038085937500, -0.212890625000, -0.913085937500, -1.101562500000, -2.320312500000, -3.781250000000, 1490689023
-0.038085937500, -0.212890625000, -0.913085937500, -1.101562500000, -2.320312500000, -3.781250000000, 1490689023
-0.038085937500, -0.212890625000, -0.913085937500, -1.101562500000, -2.320312500000, -3.781250000000, 1490689023
-0.038085937500, -0.212890625000, -0.913085937500, -1.101562500000, -2.320312500000, -3.781250000000, 1490689023
0.019042968750, -0.088623046875, -0.981445312500, 0.257812500000, -0.828125000000, -3.726562500000, 1490689023
0.019042968750, -0.088623046875, -0.981445312500, 0.257812500000, -0.828125000000, -3.726562500000, 1490689023
0.019042968750, -0.088623046875, -0.981445312500, 0.257812500000, -0.828125000000, -3.726562500000, 1490689023
0.079833984375, -0.033447265625, -0.923583984375, -4.007812500000, -1.117187500000, -4.960937500000, 1490689024
0.079833984375, -0.033447265625, -0.923583984375, -4.007812500000, -1.117187500000, -4.960937500000, 1490689024
0.079833984375, -0.033447265625, -0.923583984375, -4.007812500000, -1.117187500000, -4.960937500000, 1490689024
0.003417968750, -0.143798828125, -1.002197265625, -4.804687500000, 0.265625000000, -4.812500000000, 1490689024
0.003417968750, -0.143798828125, -1.002197265625, -4.804687500000, 0.265625000000, -4.812500000000, 1490689024
0.003417968750, -0.143798828125, -1.002197265625, -4.804687500000, 0.265625000000, -4.812500000000, 1490689024
-0.019531250000, -0.125488281250, -1.029052734375, -4.718750000000, -2.062500000000, -6.476562500000, 1490689024
-0.019531250000, -0.125488281250, -1.029052734375, -4.718750000000, -2.062500000000, -6.476562500000, 1490689024
-0.019531250000, -0.125488281250, -1.029052734375, -4.718750000000, -2.062500000000, -6.476562500000, 1490689024
-0.019531250000, -0.125488281250, -1.029052734375, -4.718750000000, -2.062500000000, -6.476562500000, 1490689024
-0.126464843750, -0.054687500000, -0.936523437500, -3.781250000000, -2.015625000000, -4.367187500000, 1490689024
-0.126464843750, -0.054687500000, -0.936523437500, -3.781250000000, -2.015625000000, -4.367187500000, 1490689024
-0.134521484375, -0.142089843750, -0.981933593750, -4.718750000000, -0.828125000000, -1.476562500000, 1490689024
-0.134521484375, -0.142089843750, -0.981933593750, -4.718750000000, -0.828125000000, -1.476562500000, 1490689024
-0.134521484375, -0.142089843750, -0.981933593750, -4.718750000000, -0.828125000000, -1.476562500000, 1490689024
-0.085937500000, -0.076660156250, -0.872558593750, -3.273437500000, -2.281250000000, -5.789062500000, 1490689024
-0.085937500000, -0.076660156250, -0.872558593750, -3.273437500000, -2.281250000000, -5.789062500000, 1490689024
-0.085937500000, -0.076660156250, -0.872558593750, -3.273437500000, -2.281250000000, -5.789062500000, 1490689024
-0.085937500000, -0.076660156250, -0.872558593750, -3.273437500000, -2.281250000000, -5.789062500000, 1490689024
-0.085937500000, -0.076660156250, -0.872558593750, -3.210937500000, 0.203125000000, -6.585937500000, 1490689024
-0.009033203125, -0.054931640625, -0.966552734375, -4.554687500000, -1.164062500000, -4.835937500000, 1490689024
-0.009033203125, -0.054931640625, -0.966552734375, -4.554687500000, -1.164062500000, -4.835937500000, 1490689024
-0.009033203125, -0.054931640625, -0.966552734375, -4.554687500000, -1.164062500000, -4.835937500000, 1490689024
-0.009033203125, -0.054931640625, -0.966552734375, -4.554687500000, -1.164062500000, -4.835937500000, 1490689024
-0.009033203125, -0.054931640625, -0.966552734375, -4.554687500000, -1.164062500000, -4.835937500000, 1490689024
-0.009033203125, -0.054931640625, -0.966552734375, -4.554687500000, -1.164062500000, -4.835937500000, 1490689024
-0.033447265625, -0.126708984375, -0.930664062500, -6.960937500000, -1.328125000000, -4.195312500000, 1490689024
-0.033447265625, -0.126708984375, -0.930664062500, -6.960937500000, -1.328125000000, -4.195312500000, 1490689024
-0.033447265625, -0.126708984375, -0.930664062500, -6.960937500000, -1.328125000000, -4.195312500000, 1490689024
-0.050537109375, 0.072509765625, -1.008544921875, -0.328125000000, -0.421875000000, -3.765625000000, 1490689024
-0.050537109375, 0.072509765625, -1.008544921875, -0.328125000000, -0.421875000000, -3.765625000000, 1490689024
-0.050537109375, 0.072509765625, -1.008544921875, -0.328125000000, -0.421875000000, -3.765625000000, 1490689024
0.010253906250, -0.056152343750, -0.920410156250, -4.781250000000, 0.843750000000, -4.890625000000, 1490689024
0.010253906250, -0.056152343750, -0.920410156250, -4.781250000000, 0.843750000000, -4.890625000000, 1490689024
0.010253906250, -0.056152343750, -0.920410156250, -4.781250000000, 0.843750000000, -4.890625000000, 1490689024
0.010253906250, -0.056152343750, -0.920410156250, -4.781250000000, 0.843750000000, -4.890625000000, 1490689024
-0.070068359375, -0.114501953125, -0.910888671875, -5.515625000000, -1.406250000000, -6.398437500000, 1490689024
-0.070068359375, -0.114501953125, -0.910888671875, -5.515625000000, -1.406250000000, -6.398437500000, 1490689024
-0.070068359375, -0.114501953125, -0.910888671875, -5.515625000000, -1.406250000000, -6.398437500000, 1490689024
-0.016357421875, -0.049316406250, -0.935058593750, 6.640625000000, 2.914062500000, -5.460937500000, 1490689024
-0.016357421875, -0.049316406250, -0.935058593750, 6.640625000000, 2.914062500000, -5.460937500000, 1490689024
-0.016357421875, -0.049316406250, -0.935058593750, 6.640625000000, 2.914062500000, -5.460937500000, 1490689024
-0.062500000000, -0.035156250000, -0.976318359375, 2.976562500000, 3.000000000000, -3.046875000000, 1490689024
-0.062500000000, -0.035156250000, -0.976318359375, 2.976562500000, 3.000000000000, -3.046875000000, 1490689024
-0.062500000000, -0.035156250000, -0.976318359375, 2.976562500000, 3.000000000000, -3.046875000000, 1490689024
-0.159179687500, -0.137939453125, -0.927001953125, -6.546875000000, 0.312500000000, -8.796875000000, 1490689024
-0.159179687500, -0.137939453125, -0.927001953125, -6.546875000000, 0.312500000000, -8.796875000000, 1490689024
-0.159179687500, -0.137939453125, -0.927001953125, -6.546875000000, 0.312500000000, -8.796875000000, 1490689024
-0.159179687500, -0.137939453125, -0.927001953125, -6.546875000000, 0.312500000000, -8.796875000000, 1490689024
-0.048583984375, -0.132568359375, -0.930664062500, -7.320312500000, -2.343750000000, -7.203125000000, 1490689024
-0.048583984375, -0.132568359375, -0.930664062500, -7.320312500000, -2.343750000000, -7.203125000000, 1490689024
-0.048583984375, -0.132568359375, -0.930664062500, -7.320312500000, -2.343750000000, -7.203125000000, 1490689024
-0.076904296875, -0.094482421875, -1.076171875000, -6.500000000000, -4.601562500000, -3.734375000000, 1490689024
-0.076904296875, -0.094482421875, -1.076171875000, -6.500000000000, -4.601562500000, -3.734375000000, 1490689024
-0.076904296875, -0.094482421875, -1.076171875000, -6.500000000000, -4.601562500000, -3.734375000000, 1490689024
-0.049804687500, -0.086181640625, -0.979736328125, -4.507812500000, -0.828125000000, -4.367187500000, 1490689024
-0.049804687500, -0.086181640625, -0.979736328125, -4.507812500000, -0.828125000000, -4.367187500000, 1490689024
-0.049804687500, -0.086181640625, -0.979736328125, -4.507812500000, -0.828125000000, -4.367187500000, 1490689024
0.082763671875, -0.095947265625, -0.973388671875, -3.312500000000, -2.015625000000, -6.132812500000, 1490689024
0.082763671875, -0.095947265625, -0.973388671875, -3.312500000000, -2.015625000000, -6.132812500000, 1490689024
0.082763671875, -0.095947265625, -0.973388671875, -3.312500000000, -2.015625000000, -6.132812500000, 1490689024
0.082763671875, -0.095947265625, -0.973388671875, -3.312500000000, -2.015625000000, -6.132812500000, 1490689024
0.022460937500, -0.195556640625, -0.980957031250, -3.914062500000, -0.164062500000, -4.984375000000, 1490689024
0.022460937500, -0.195556640625, -0.980957031250, -3.914062500000, -0.164062500000, -4.984375000000, 1490689024
0.022460937500, -0.195556640625, -0.980957031250, -3.914062500000, -0.164062500000, -4.984375000000, 1490689024
0.005126953125, -0.114990234375, -1.007568359375, -5.929687500000, -0.273437500000, -3.609375000000, 1490689024
0.005126953125, -0.114990234375, -1.007568359375, -5.929687500000, -0.273437500000, -3.609375000000, 1490689025
0.005126953125, -0.114990234375, -1.007568359375, -5.929687500000, -0.273437500000, -3.609375000000, 1490689025
-0.071777343750, -0.104003906250, -0.936035156250, -1.820312500000, -1.023437500000, -4.289062500000, 1490689025
-0.071777343750, -0.104003906250, -0.936035156250, -1.820312500000, -1.023437500000, -4.289062500000, 1490689025
-0.071777343750, -0.104003906250, -0.936035156250, -1.820312500000, -1.023437500000, -4.289062500000, 1490689025
-0.132568359375, -0.135986328125, -0.990966796875, -1.632812500000, -1.625000000000, -6.132812500000, 1490689025
-0.031982421875, -0.114013671875, -0.846435546875, -5.070312500000, 0.390625000000, -7.242187500000, 1490689025
-0.031982421875, -0.114013671875, -0.846435546875, -5.070312500000, 0.390625000000, -7.242187500000, 1490689025
-0.031982421875, -0.114013671875, -0.846435546875, -5.070312500000, 0.390625000000, -7.242187500000, 1490689025
-0.031982421875, -0.114013671875, -0.846435546875, -5.070312500000, 0.390625000000, -7.242187500000, 1490689025
-0.031982421875, -0.114013671875, -0.846435546875, -5.070312500000, 0.390625000000, -7.242187500000, 1490689025
-0.040527343750, -0.127197265625, -0.994628906250, -4.375000000000, -1.156250000000, -3.382812500000, 1490689025
-0.040527343750, -0.127197265625, -0.994628906250, -4.375000000000, -1.156250000000, -3.382812500000, 1490689025
-0.040527343750, -0.127197265625, -0.994628906250, -4.375000000000, -1.156250000000, -3.382812500000, 1490689025
-0.040527343750, -0.127197265625, -0.994628906250, -4.375000000000, -1.156250000000, -3.382812500000, 1490689025
-0.125976562500, -0.218750000000, -0.921875000000, 4.843750000000, 10.093750000000, -3.945312500000, 1490689025
-0.125976562500, -0.218750000000, -0.921875000000, 4.843750000000, 10.093750000000, -3.945312500000, 1490689025
-0.125976562500, -0.218750000000, -0.921875000000, 4.843750000000, 10.093750000000, -3.945312500000, 1490689025
-0.033447265625, -0.097656250000, -0.872314453125, -3.757812500000, 0.359375000000, -3.015625000000, 1490689025
-0.033447265625, -0.097656250000, -0.872314453125, -3.757812500000, 0.359375000000, -3.015625000000, 1490689025
-0.033447265625, -0.097656250000, -0.872314453125, -3.757812500000, 0.359375000000, -3.015625000000, 1490689025
-0.033447265625, -0.097656250000, -0.872314453125, -3.757812500000, 0.359375000000, -3.015625000000, 1490689025
