ACC_X,ACC_Y,ACC_Z,G_X,G_Y,G_Z,Unix Time
0.050292968750, -0.919921875000, 0.132812500000, -11.132812500000, 40.273437500000, -4.320312500000, 1490689211
0.050292968750, -0.919921875000, 0.132812500000, -11.132812500000, 40.273437500000, -4.320312500000, 1490689211
0.050292968750, -0.919921875000, 0.132812500000, -11.132812500000, 40.273437500000, -4.320312500000, 1490689211
0.018066406250, -0.873535156250, 0.038818359375, -17.859375000000, 34.898437500000, -6.921875000000, 1490689211
0.018066406250, -0.873535156250, 0.038818359375, -17.859375000000, 34.898437500000, -6.921875000000, 1490689211
0.018066406250, -0.873535156250, 0.038818359375, -17.859375000000, 34.898437500000, -6.921875000000, 1490689211
0.013427734375, -0.956298828125, -0.028320312500, -17.335937500000, 13.335937500000, 3.007812500000, 1490689211
0.013427734375, -0.956298828125, -0.028320312500, -17.335937500000, 13.335937500000, 3.007812500000, 1490689211
0.013427734375, -0.956298828125, -0.028320312500, -17.335937500000, 13.335937500000, 3.007812500000, 1490689211
-0.152099609375, -0.997558593750, 0.143554687500, -4.640625000000, 7.296875000000, -3.062500000000, 1490689212
-0.152099609375, -0.997558593750, 0.143554687500, -4.640625000000, 7.296875000000, -3.062500000000, 1490689212
-0.152099609375, -0.997558593750, 0.143554687500, -4.640625000000, 7.296875000000, -3.062500000000, 1490689212
-0.012207031250, -1.019775390625, 0.044677734375, -3.179687500000, -0.148437500000, -3.226562500000, 1490689212
0.029052734375, -0.970214843750, 0.149902343750, -8.437500000000, -8.656250000000, -1.070312500000, 1490689212
0.029052734375, -0.970214843750, 0.149902343750, -8.437500000000, -8.656250000000, -1.070312500000, 1490689212
0.029052734375, -0.970214843750, 0.149902343750, -8.437500000000, -8.656250000000, -1.070312500000, 1490689212
-0.027587890625, -1.075683593750, 0.060058593750, -7.195312500000, -8.593750000000, -8.601562500000, 1490689212
-0.027587890625, -1.075683593750, 0.060058593750, -7.195312500000, -8.593750000000, -8.601562500000, 1490689212
-0.027587890625, -1.075683593750, 0.060058593750, -7.195312500000, -8.593750000000, -8.601562500000, 1490689212
0.066894531250, -1.032714843750, 0.146484375000, -4.445312500000, -17.929687500000, -7.562500000000, 1490689212
0.066894531250, -1.032714843750, 0.146484375000, -4.445312500000, -17.929687500000, -7.562500000000, 1490689212
0.066894531250, -1.032714843750, 0.146484375000, -4.445312500000, -17.929687500000, -7.562500000000, 1490689212
0.039794921875, -1.093017578125, 0.210205078125, -6.468750000000, -21.257812500000, -5.179687500000, 1490689212
0.039794921875, -1.093017578125, 0.210205078125, -6.468750000000, -21.257812500000, -5.179687500000, 1490689212
0.039794921875, -1.093017578125, 0.210205078125, -6.468750000000, -21.257812500000, -5.179687500000, 1490689212
0.039794921875, -1.093017578125, 0.210205078125, -6.468750000000, -21.257812500000, -5.179687500000, 1490689212
0.140625000000, -0.973632812500, 0.056884765625, -6.429687500000, -18.445312500000, -2.773437500000, 1490689212
0.140625000000, -0.973632812500, 0.056884765625, -6.429687500000, -18.445312500000, -2.773437500000, 1490689212
0.140625000000, -0.973632812500, 0.056884765625, -6.429687500000, -18.445312500000, -2.773437500000, 1490689212
-0.012451171875, -0.908203125000, 0.092285156250, -11.085937500000, -13.851562500000, -2.414062500000, 1490689212
-0.012451171875, -0.908203125000, 0.092285156250, -11.085937500000, -13.851562500000, -2.414062500000, 1490689212
-0.012451171875, -0.908203125000, 0.092285156250, -11.085937500000, -13.851562500000, -2.414062500000, 1490689212
0.036865234375, -0.932617187500, 0.097412109375, -5.078125000000, -7.007812500000, -6.195312500000, 1490689212
0.036865234375, -0.932617187500, 0.097412109375, -5.078125000000, -7.007812500000, -6.195312500000, 1490689212
0.036865234375, -0.932617187500, 0.097412109375, -5.078125000000, -7.007812500000, -6.195312500000, 1490689212
0.090576171875, -0.911376953125, 0.083496093750, -3.937500000000, 1.445312500000, 23.890625000000, 1490689212
0.090576171875, -0.911376953125, 0.083496093750, -3.937500000000, 1.445312500000, 23.890625000000, 1490689212
0.090576171875, -0.911376953125, 0.083496093750, -3.937500000000, 1.445312500000, 23.890625000000, 1490689212
0.090576171875, -0.911376953125, 0.083496093750, -3.937500000000, 1.445312500000, 23.890625000000, 1490689212
-0.009277343750, -0.963867187500, 0.047363281250, 0.796875000000, -4.664062500000, 15.031250000000, 1490689212
-0.009277343750, -0.963867187500, 0.047363281250, 0.796875000000, -4.664062500000, 15.031250000000, 1490689212
-0.009277343750, -0.963867187500, 0.047363281250, 0.796875000000, -4.664062500000, 15.031250000000, 1490689212
0.145996093750, -1.028808593750, 0.053955078125, -5.414062500000, -3.703125000000, 27.031250000000, 1490689212
0.145996093750, -1.028808593750, 0.053955078125, -5.414062500000, -3.703125000000, 27.031250000000, 1490689212
0.145996093750, -1.028808593750, 0.053955078125, -5.414062500000, -3.703125000000, 27.031250000000, 1490689212
0.045898437500, -1.152099609375, 0.055419921875, -4.781250000000, -28.890625000000, 6.304687500000, 1490689212
0.045898437500, -1.152099609375, 0.055419921875, -4.781250000000, -28.890625000000, 6.304687500000, 1490689212
0.045898437500, -1.152099609375, 0.055419921875, -4.781250000000, -28.890625000000, 6.304687500000, 1490689212
0.040771484375, -1.055175781250, 0.056640625000, 2.078125000000, -17.546875000000, 0.187500000000, 1490689212
0.040771484375, -1.055175781250, 0.056640625000, 2.078125000000, -17.546875000000, 0.187500000000, 1490689212
0.145019531250, -1.068603515625, 0.128662109375, -42.054687500000, -18.648437500000, 11.492187500000, 1490689212
0.145019531250, -1.068603515625, 0.128662109375, -42.054687500000, -18.648437500000, 11.492187500000, 1490689212
0.145019531250, -1.068603515625, 0.128662109375, -42.054687500000, -18.648437500000, 11.492187500000, 1490689212
0.145019531250, -1.068603515625, 0.128662109375, -42.054687500000, -18.648437500000, 11.492187500000, 1490689212
0.145019531250, -1.068603515625, 0.128662109375, -42.054687500000, -18.648437500000, 11.492187500000, 1490689212
0.281250000000, -1.062988281250, 0.113037109375, -12.679687500000, -17.460937500000, 10.984375000000, 1490689212
0.281250000000, -1.062988281250, 0.113037109375, -12.679687500000, -17.460937500000, 10.984375000000, 1490689212
0.281250000000, -1.062988281250, 0.113037109375, -12.679687500000, -17.460937500000, 10.984375000000, 1490689212
0.131347656250, -0.892822265625, 0.072998046875, 5.687500000000, -4.992187500000, -13.039062500000, 1490689212
0.131347656250, -0.892822265625, 0.072998046875, 5.687500000000, -4.992187500000, -13.039062500000, 1490689212
0.131347656250, -0.892822265625, 0.072998046875, 5.687500000000, -4.992187500000, -13.039062500000, 1490689212
0.114746093750, -1.053955078125, 0.031738281250, -13.640625000000, -3.835937500000, 6.992187500000, 1490689212
0.114746093750, -1.053955078125, 0.031738281250, -13.640625000000, -3.835937500000, 6.992187500000, 1490689212
0.114746093750, -1.053955078125, 0.031738281250, -13.640625000000, -3.835937500000, 6.992187500000, 1490689212
0.114746093750, -1.053955078125, 0.031738281250, -13.640625000000, -3.835937500000, 6.992187500000, 1490689212
0.175537109375, -0.922119140625, 0.064208984375, -1.539062500000, 0.718750000000, 1.601562500000, 1490689212
0.175537109375, -0.922119140625, 0.064208984375, -1.539062500000, 0.718750000000, 1.601562500000, 1490689212
0.175537109375, -0.922119140625, 0.064208984375, -1.539062500000, 0.718750000000, 1.601562500000, 1490689212
0.080810546875, -0.934326171875, 0.119873046875, 9.070312500000, 0.195312500000, 0.312500000000, 1490689212
0.080810546875, -0.934326171875, 0.119873046875, 9.070312500000, 0.195312500000, 0.312500000000, 1490689212
0.080810546875, -0.934326171875, 0.119873046875, 9.070312500000, 0.195312500000, 0.312500000000, 1490689212
0.158447265625, -0.972412109375, 0.194580078125, 1.218750000000, -2.046875000000, -0.375000000000, 1490689212
0.158447265625, -0.972412109375, 0.194580078125, 1.218750000000, -2.046875000000, -0.375000000000, 1490689212
0.158447265625, -0.972412109375, 0.194580078125, 1.218750000000, -2.046875000000, -0.375000000000, 1490689212
0.273437500000, -0.865234375000, 0.099121093750, -6.281250000000, 9.546875000000, 1.851562500000, 1490689212
0.273437500000, -0.865234375000, 0.099121093750, -6.281250000000, 9.546875000000, 1.851562500000, 1490689212
0.273437500000, -0.865234375000, 0.099121093750, -6.281250000000, 9.546875000000, 1.851562500000, 1490689212
0.273437500000, -0.865234375000, 0.099121093750, -6.281250000000, 9.546875000000, 1.851562500000, 1490689212
0.267089843750, -1.005371093750, 0.132812500000, 15.953125000000, 24.500000000000, 4.054687500000, 1490689213
0.267089843750, -1.005371093750, 0.132812500000, 15.953125000000, 24.500000000000, 4.054687500000, 1490689213
0.267089843750, -1.005371093750, 0.132812500000, 15.953125000000, 24.500000000000, 4.054687500000, 1490689213
-0.076416015625, -1.049072265625, 0.055664062500, -8.132812500000, -3.429687500000, -1.078125000000, 1490689213
-0.076416015625, -1.049072265625, 0.055664062500, -8.132812500000, -3.429687500000, -1.078125000000, 1490689213
-0.076416015625, -1.049072265625, 0.055664062500, -8.132812500000, -3.429687500000, -1.078125000000, 1490689213
0.076171875000, -1.137695312500, 0.032958984375, -28.593750000000, -20.921875000000, -2.375000000000, 1490689213
0.076171875000, -1.137695312500, 0.032958984375, -28.593750000000, -20.921875000000, -2.375000000000, 1490689213
0.076171875000, -1.137695312500, 0.032958984375, -28.593750000000, -20.921875000000, -2.375000000000, 1490689213
0.227783203125, -1.033935546875, 0.189941406250, -28.328125000000, -14.648437500000, -2.476562500000, 1490689213
0.227783203125, -1.033935546875, 0.189941406250, -28.328125000000, -14.648437500000, -2.476562500000, 1490689213
0.227783203125, -1.033935546875, 0.189941406250, -28.328125000000, -14.648437500000, -2.476562500000, 1490689213
0.227783203125, -1.033935546875, 0.189941406250, -28.328125000000, -14.648437500000, -2.476562500000, 1490689213
0.389160156250, -0.918212890625, 0.144531250000, -5.445312500000, 7.539062500000, -3.015625000000, 1490689213
0.389160156250, -0.918212890625, 0.144531250000, -5.445312500000, 7.539062500000, -3.015625000000, 1490689213
0.389160156250, -0.918212890625, 0.144531250000, -5.445312500000, 7.539062500000, -3.015625000000, 1490689213
0.241699218750, -1.020996093750, 0.190429687500, -3.593750000000, 1.835937500000, -2.445312500000, 1490689213
0.241699218750, -1.020996093750, 0.190429687500, -3.593750000000, 1.835937500000, -2.445312500000, 1490689213
0.241699218750, -1.020996093750, 0.190429687500, -3.593750000000, 1.835937500000, -2.445312500000, 1490689213
0.263916015625, -0.933593750000, 0.040039062500, 1.156250000000, 12.843750000000, 12.046875000000, 1490689213
0.263916015625, -0.933593750000, 0.040039062500, 1.156250000000, 12.843750000000, 12.046875000000, 1490689213
0.263916015625, -0.933593750000, 0.040039062500, 1.156250000000, 12.843750000000, 12.046875000000, 1490689213
0.158935546875, -0.933105468750, 0.100097656250, 3.500000000000, 20.742187500000, 1.781250000000, 1490689213
0.158935546875, -0.933105468750, 0.100097656250, 3.500000000000, 20.742187500000, 1.781250000000, 1490689213
0.158935546875, -0.933105468750, 0.100097656250, 3.500000000000, 20.742187500000, 1.781250000000, 1490689213
0.158935546875, -0.933105468750, 0.100097656250, 3.500000000000, 20.742187500000, 1.781250000000, 1490689213
0.179199218750, -1.000488281250, 0.053955078125, 6.742187500000, 13.882812500000, 2.742187500000, 1490689213
0.179199218750, -1.000488281250, 0.053955078125, 6.742187500000, 13.882812500000, 2.742187500000, 1490689213
0.179199218750, -1.000488281250, 0.053955078125, 6.742187500000, 13.882812500000, 2.742187500000, 1490689213
0.090332031250, -0.857666015625, 0.137451171875, -0.351562500000, 9.773437500000, 0.140625000000, 1490689213
0.090332031250, -0.857666015625, 0.137451171875, -0.351562500000, 9.773437500000, 0.140625000000, 1490689213
0.090332031250, -0.857666015625, 0.137451171875, -0.351562500000, 9.773437500000, 0.140625000000, 1490689213
0.223388671875, -1.029052734375, 0.098144531250, -9.421875000000, 7.921875000000, -1.398437500000, 1490689213
0.223388671875, -1.029052734375, 0.098144531250, -9.421875000000, 7.921875000000, -1.398437500000, 1490689213
0.223388671875, -1.029052734375, 0.098144531250, -9.421875000000, 7.921875000000, -1.398437500000, 1490689213
0.115966796875, -0.923095703125, 0.051025390625, -10.562500000000, 10.992187500000, -1.468750000000, 1490689213
0.115966796875, -0.923095703125, 0.051025390625, -10.562500000000, 10.992187500000, -1.468750000000, 1490689213
0.115966796875, -0.923095703125, 0.051025390625, -10.562500000000, 10.992187500000, -1.468750000000, 1490689213
0.115966796875, -0.923095703125, 0.051025390625, -10.562500000000, 10.992187500000, -1.468750000000, 1490689213
0.094726562500, -1.019287109375, 0.147216796875, -2.429687500000, 4.437500000000, -4.515625000000, 1490689213
0.094726562500, -1.019287109375, 0.147216796875, -2.429687500000, 4.437500000000, -4.515625000000, 1490689213
0.094726562500, -1.019287109375, 0.147216796875, -2.429687500000, 4.437500000000, -4.515625000000, 1490689213
0.124755859375, -0.912841796875, 0.202636718750, 2.132812500000, -2.085937500000, -5.289062500000, 1490689213
0.124755859375, -0.912841796875, 0.202636718750, 2.132812500000, -2.085937500000, -5.289062500000, 1490689213
0.124755859375, -0.912841796875, 0.202636718750, 2.132812500000, -2.085937500000, -5.289062500000, 1490689213
0.114013671875, -1.014404296875, 0.212890625000, -6.085937500000, -3.242187500000, -5.617187500000, 1490689213
0.114013671875, -1.014404296875, 0.212890625000, -6.085937500000, -3.242187500000, -5.617187500000, 1490689213
0.114013671875, -1.014404296875, 0.212890625000, -6.085937500000, -3.242187500000, -5.617187500000, 1490689213
0.100097656250, -0.937255859375, 0.110107421875, -4.156250000000, -5.125000000000, -8.164062500000, 1490689213
0.100097656250, -0.937255859375, 0.110107421875, -4.156250000000, -5.125000000000, -8.164062500000, 1490689213
0.100097656250, -0.937255859375, 0.110107421875, -4.156250000000, -5.125000000000, -8.164062500000, 1490689213
0.106201171875, -0.971923828125, 0.060546875000, 0.515625000000, -5.351562500000, -5.437500000000, 1490689213
0.106201171875, -0.971923828125, 0.060546875000, 0.515625000000, -5.351562500000, -5.437500000000, 1490689213
0.106201171875, -0.971923828125, 0.060546875000, 0.515625000000, -5.351562500000, -5.437500000000, 1490689213
0.106201171875, -0.971923828125, 0.060546875000, 0.515625000000, -5.351562500000, -5.437500000000, 1490689213
0.214843750000, -0.927734375000, 0.070556640625, -3.570312500000, 0.820312500000, -7.414062500000, 1490689213
0.214843750000, -0.927734375000, 0.070556640625, -3.570312500000, 0.820312500000, -7.414062500000, 1490689213
0.214843750000, -0.927734375000, 0.070556640625, -3.570312500000, 0.820312500000, -7.414062500000, 1490689213
0.198242187500, -0.929199218750, 0.032470703125, -12.617187500000, 1.578125000000, -7.054687500000, 1490689213
0.198242187500, -0.929199218750, 0.032470703125, -12.617187500000, 1.578125000000, -7.054687500000, 1490689213
0.198242187500, -0.929199218750, 0.032470703125, -12.617187500000, 1.578125000000, -7.054687500000, 1490689213
0.275146484375, -1.023925781250, 0.138916015625, -9.023437500000, 2.898437500000, -5.210937500000, 1490689213
0.275146484375, -1.023925781250, 0.138916015625, -9.023437500000, 2.898437500000, -5.210937500000, 1490689213
0.275146484375, -1.023925781250, 0.138916015625, -9.023437500000, 2.898437500000, -5.210937500000, 1490689213
0.275146484375, -1.023925781250, 0.138916015625, -9.023437500000, 2.898437500000, -5.210937500000, 1490689213
0.170898437500, -0.917724609375, 0.257812500000, -6.078125000000, 11.445312500000, -3.109375000000, 1490689213
0.170898437500, -0.917724609375, 0.257812500000, -6.078125000000, 11.445312500000, -3.109375000000, 1490689214
0.170898437500, -0.917724609375, 0.257812500000, -6.078125000000, 11.445312500000, -3.109375000000, 1490689214
0.139404296875, -0.999023437500, 0.149414062500, -6.750000000000, 12.992187500000, 1.703125000000, 1490689214
0.139404296875, -0.999023437500, 0.149414062500, -6.750000000000, 12.992187500000, 1.703125000000, 1490689214
0.139404296875, -0.999023437500, 0.149414062500, -6.750000000000, 12.992187500000, 1.703125000000, 1490689214
0.105224609375, -1.021972656250, 0.138916015625, -2.843750000000, -6.578125000000, -2.328125000000, 1490689214
0.105224609375, -1.021972656250, 0.138916015625, -2.843750000000, -6.578125000000, -2.328125000000, 1490689214
0.105224609375, -1.021972656250, 0.138916015625, -2.843750000000, -6.578125000000, -2.328125000000, 1490689214
0.255126953125, -1.029785156250, 0.099609375000, 1.054687500000, 3.562500000000, -3.718750000000, 1490689214
0.255126953125, -1.029785156250, 0.099609375000, 1.054687500000, 3.562500000000, -3.718750000000, 1490689214
0.255126953125, -1.029785156250, 0.099609375000, 1.054687500000, 3.562500000000, -3.718750000000, 1490689214
0.255126953125, -1.029785156250, 0.099609375000, 1.054687500000, 3.562500000000, -3.718750000000, 1490689214
0.263916015625, -0.912597656250, 0.177734375000, -10.695312500000, 1.148437500000, -3.046875000000, 1490689214
0.263916015625, -0.912597656250, 0.177734375000, -10.695312500000, 1.148437500000, -3.046875000000, 1490689214
0.263916015625, -0.912597656250, 0.177734375000, -10.695312500000, 1.148437500000, -3.046875000000, 1490689214
0.148925781250, -1.031005859375, 0.204345703125, -6.632812500000, 6.265625000000, -1.335937500000, 1490689214
0.148925781250, -1.031005859375, 0.204345703125, -6.632812500000, 6.265625000000, -1.335937500000, 1490689214
0.148925781250, -1.031005859375, 0.204345703125, -6.632812500000, 6.265625000000, -1.335937500000, 1490689214
0.152343750000, -0.925048828125, 0.119873046875, -6.062500000000, 6.148437500000, -1.304687500000, 1490689214
0.152343750000, -0.925048828125, 0.119873046875, -6.062500000000, 6.148437500000, -1.304687500000, 1490689214
0.152343750000, -0.925048828125, 0.119873046875, -6.062500000000, 6.148437500000, -1.304687500000, 1490689214
0.123291015625, -0.930175781250, 0.163818359375, -6.898437500000, 1.609375000000, -1.023437500000, 1490689214
0.123291015625, -0.930175781250, 0.163818359375, -6.898437500000, 1.609375000000, -1.023437500000, 1490689214
0.123291015625, -0.930175781250, 0.163818359375, -6.898437500000, 1.609375000000, -1.023437500000, 1490689214
0.123291015625, -0.930175781250, 0.163818359375, -6.898437500000, 1.609375000000, -1.023437500000, 1490689214
0.148193359375, -0.970703125000, 0.196289062500, -6.664062500000, 0.781250000000, -0.664062500000, 1490689214
0.148193359375, -0.970703125000, 0.196289062500, -6.664062500000, 0.781250000000, -0.664062500000, 1490689214
0.148193359375, -0.970703125000, 0.196289062500, -6.664062500000, 0.781250000000, -0.664062500000, 1490689214
0.196289062500, -0.982421875000, 0.112304687500, -2.976562500000, -1.492187500000, -4.937500000000, 1490689214
0.196289062500, -0.982421875000, 0.112304687500, -2.976562500000, -1.492187500000, -4.937500000000, 1490689214
0.196289062500, -0.982421875000, 0.112304687500, -2.976562500000, -1.492187500000, -4.937500000000, 1490689214
0.165039062500, -0.917968750000, 0.258789062500, -0.687500000000, -2.140625000000, -1.757812500000, 1490689214
0.165039062500, -0.917968750000, 0.258789062500, -0.687500000000, -2.140625000000, -1.757812500000, 1490689214
0.165039062500, -0.917968750000, 0.258789062500, -0.687500000000, -2.140625000000, -1.757812500000, 1490689214
0.204345703125, -1.007568359375, 0.099853515625, -3.726562500000, -1.101562500000, -1.882812500000, 1490689214
0.204345703125, -1.007568359375, 0.099853515625, -3.726562500000, -1.101562500000, -1.882812500000, 1490689214
0.204345703125, -1.007568359375, 0.099853515625, -3.726562500000, -1.101562500000, -1.882812500000, 1490689214
0.204345703125, -1.007568359375, 0.099853515625, -3.726562500000, -1.101562500000, -1.882812500000, 1490689214
0.268554687500, -0.971679687500, 0.051757812500, -1.289062500000, -2.953125000000, -1.906250000000, 1490689214
0.268554687500, -0.971679687500, 0.051757812500, -1.289062500000, -2.953125000000, -1.906250000000, 1490689214
0.268554687500, -0.971679687500, 0.051757812500, -1.289062500000, -2.953125000000, -1.906250000000, 1490689214
0.280517578125, -1.064697265625, 0.043212890625, -0.320312500000, -3.062500000000, -4.867187500000, 1490689214
0.280517578125, -1.064697265625, 0.043212890625, -0.320312500000, -3.062500000000, -4.867187500000, 1490689214
0.280517578125, -1.064697265625, 0.043212890625, -0.320312500000, -3.062500000000, -4.867187500000, 1490689214
0.264648437500, -0.997802734375, 0.124755859375, -1.460937500000, -3.617187500000, -3.500000000000, 1490689214
0.264648437500, -0.997802734375, 0.124755859375, -1.460937500000, -3.617187500000, -3.500000000000, 1490689214
0.210449218750, -0.853271484375, 0.055664062500, -1.054687500000, -5.375000000000, -1.640625000000, 1490689214
0.210449218750, -0.853271484375, 0.055664062500, -1.054687500000, -5.375000000000, -1.640625000000, 1490689214
0.159423828125, -0.933105468750, 0.054443359375, -2.257812500000, -3.687500000000, -6.187500000000, 1490689214
0.227539062500, -1.063232421875, 0.115478515625, 0.242187500000, -4.726562500000, -5.562500000000, 1490689214
0.227539062500, -1.063232421875, 0.115478515625, 0.242187500000, -4.726562500000, -5.562500000000, 1490689214
0.227539062500, -1.063232421875, 0.115478515625, 0.242187500000, -4.726562500000, -5.562500000000, 1490689214
0.214355468750, -0.960937500000, 0.149169921875, 0.078125000000, -4.570312500000, -8.148437500000, 1490689214
0.214355468750, -0.960937500000, 0.149169921875, 0.078125000000, -4.570312500000, -8.148437500000, 1490689214
0.214355468750, -0.960937500000, 0.149169921875, 0.078125000000, -4.570312500000, -8.148437500000, 1490689214
0.193603515625, -1.016357421875, 0.174316406250, -2.281250000000, -3.218750000000, -6.687500000000, 1490689214
0.166992187500, -0.923339843750, 0.106689453125, -2.867187500000, -2.703125000000, -3.460937500000, 1490689214
0.166992187500, -0.923339843750, 0.106689453125, -2.867187500000, -2.703125000000, -3.460937500000, 1490689214
0.217041015625, -0.932617187500, 0.216796875000, -1.648437500000, -2.164062500000, -4.023437500000, 1490689214
0.149414062500, -0.937255859375, 0.153320312500, -6.289062500000, -0.812500000000, -1.937500000000, 1490689214
0.149414062500, -0.937255859375, 0.153320312500, -6.289062500000, -0.812500000000, -1.937500000000, 1490689214
0.149414062500, -0.937255859375, 0.153320312500, -6.289062500000, -0.812500000000, -1.937500000000, 1490689214
0.149414062500, -0.937255859375, 0.153320312500, -6.289062500000, -0.812500000000, -1.937500000000, 1490689214
0.149414062500, -0.937255859375, 0.153320312500, -6.289062500000, -0.812500000000, -1.937500000000, 1490689214
0.125244140625, -1.004150390625, 0.097900390625, -8.656250000000, 2.710937500000, -6.671875000000, 1490689215
0.125244140625, -1.004150390625, 0.097900390625, -8.656250000000, 2.710937500000, -6.671875000000, 1490689215
0.125244140625, -1.004150390625, 0.097900390625, -8.656250000000, 2.710937500000, -6.671875000000, 1490689215
0.125244140625, -1.004150390625, 0.097900390625, -8.656250000000, 2.710937500000, -6.671875000000, 1490689215
0.125244140625, -1.004150390625, 0.097900390625, -8.656250000000, 2.710937500000, -6.671875000000, 1490689215
0.125244140625, -1.004150390625, 0.097900390625, -8.656250000000, 2.710937500000, -6.671875000000, 1490689215
0.114990234375, -1.021728515625, 0.143554687500, -7.328125000000, 2.281250000000, -1.992187500000, 1490689215
0.114990234375, -1.021728515625, 0.143554687500, -7.328125000000, 2.281250000000, -1.992187500000, 1490689215
0.114990234375, -1.021728515625, 0.143554687500, -7.328125000000, 2.281250000000, -1.992187500000, 1490689215
0.162109375000, -0.988769531250, 0.157470703125, -4.187500000000, -0.593750000000, -4.820312500000, 1490689215
0.162109375000, -0.988769531250, 0.157470703125, -4.187500000000, -0.593750000000, -4.820312500000, 1490689215
0.162109375000, -0.988769531250, 0.157470703125, -4.187500000000, -0.593750000000, -4.820312500000, 1490689215
0.162109375000, -0.988769531250, 0.157470703125, -4.187500000000, -0.593750000000, -4.820312500000, 1490689215
0.211669921875, -0.906494140625, 0.116943359375, -4.593750000000, 0.500000000000, -3.578125000000, 1490689215
0.211669921875, -0.906494140625, 0.116943359375, -4.593750000000, 0.500000000000, -3.578125000000, 1490689215
0.211669921875, -0.906494140625, 0.116943359375, -4.593750000000, 0.500000000000, -3.578125000000, 1490689215
0.104736328125, -1.022949218750, 0.205322265625, -5.023437500000, 2.203125000000, -3.460937500000, 1490689215
0.104736328125, -1.022949218750, 0.205322265625, -5.023437500000, 2.203125000000, -3.460937500000, 1490689215
0.104736328125, -1.022949218750, 0.205322265625, -5.023437500000, 2.203125000000, -3.460937500000, 1490689215
0.211181640625, -0.846679687500, 0.058105468750, -3.742187500000, 0.484375000000, -6.070312500000, 1490689215
0.211181640625, -0.846679687500, 0.058105468750, -3.742187500000, 0.484375000000, -6.070312500000, 1490689215
0.211181640625, -0.846679687500, 0.058105468750, -3.742187500000, 0.484375000000, -6.070312500000, 1490689215
0.278564453125, -0.899169921875, 0.108398437500, 1.218750000000, 12.085937500000, -6.867187500000, 1490689215
0.278564453125, -0.899169921875, 0.108398437500, 1.218750000000, 12.085937500000, -6.867187500000, 1490689215
0.313232421875, -0.891113281250, 0.109863281250, -0.546875000000, 11.789062500000, 1.625000000000, 1490689215
0.313232421875, -0.891113281250, 0.109863281250, -0.546875000000, 11.789062500000, 1.625000000000, 1490689215
0.313232421875, -0.891113281250, 0.109863281250, -0.546875000000, 11.789062500000, 1.625000000000, 1490689215
0.313232421875, -0.891113281250, 0.109863281250, -0.546875000000, 11.789062500000, 1.625000000000, 1490689215
0.313232421875, -0.891113281250, 0.109863281250, -0.546875000000, 11.789062500000, 1.625000000000, 1490689215
0.313232421875, -0.891113281250, 0.109863281250, -0.546875000000, 11.789062500000, 1.625000000000, 1490689215
0.313232421875, -0.891113281250, 0.109863281250, -0.546875000000, 11.789062500000, 1.625000000000, 1490689215
0.313232421875, -0.891113281250, 0.109863281250, -0.546875000000, 11.789062500000, 1.625000000000, 1490689215
0.210937500000, -0.797851562500, 0.129638671875, 14.203125000000, 14.804687500000, 1.640625000000, 1490689215
0.210937500000, -0.797851562500, 0.129638671875, 14.203125000000, 14.804687500000, 1.640625000000, 1490689215
0.210937500000, -0.797851562500, 0.129638671875, 14.203125000000, 14.804687500000, 1.640625000000, 1490689215
0.210937500000, -0.797851562500, 0.129638671875, 14.203125000000, 14.804687500000, 1.640625000000, 1490689215
0.210937500000, -0.797851562500, 0.129638671875, 15.296875000000, 12.976562500000, 1.398437500000, 1490689215
0.184326171875, -0.734619140625, 0.138916015625, 12.890625000000, 1.343750000000, -4.992187500000, 1490689215
0.184326171875, -0.734619140625, 0.138916015625, 12.890625000000, 1.343750000000, -4.992187500000, 1490689215
0.184326171875, -0.734619140625, 0.138916015625, 12.890625000000, 1.343750000000, -4.992187500000, 1490689215
0.184326171875, -0.734619140625, 0.138916015625, 12.890625000000, 1.343750000000, -4.992187500000, 1490689215
0.317382812500, -0.681640625000, 0.155273437500, 4.492187500000, -3.585937500000, -9.015625000000, 1490689215
0.317382812500, -0.681640625000, 0.155273437500, 4.492187500000, -3.585937500000, -9.015625000000, 1490689215
0.317382812500, -0.681640625000, 0.155273437500, 4.492187500000, -3.585937500000, -9.015625000000, 1490689215
0.317382812500, -0.681640625000, 0.155273437500, 4.492187500000, -3.585937500000, -9.015625000000, 1490689215
0.117675781250, -0.634277343750, 0.088867187500, 13.750000000000, 4.546875000000, -14.781250000000, 1490689215
0.117675781250, -0.634277343750, 0.088867187500, 13.750000000000, 4.546875000000, -14.781250000000, 1490689215
0.117675781250, -0.634277343750, 0.088867187500, 13.750000000000, 4.546875000000, -14.781250000000, 1490689215
0.234130859375, -0.642578125000, 0.178955078125, 15.570312500000, 31.312500000000, -22.648437500000, 1490689215
0.234130859375, -0.642578125000, 0.178955078125, 15.570312500000, 31.312500000000, -22.648437500000, 1490689215
0.234130859375, -0.642578125000, 0.178955078125, 15.570312500000, 31.312500000000, -22.648437500000, 1490689215
0.234130859375, -0.642578125000, 0.178955078125, 15.570312500000, 31.312500000000, -22.648437500000, 1490689215
0.101318359375, -0.558593750000, 0.147216796875, 4.554687500000, 30.046875000000, -6.500000000000, 1490689215
0.101318359375, -0.558593750000, 0.147216796875, 4.554687500000, 30.046875000000, -6.500000000000, 1490689215
0.101318359375, -0.558593750000, 0.147216796875, 4.554687500000, 30.046875000000, -6.500000000000, 1490689215
0.101318359375, -0.558593750000, 0.147216796875, 4.554687500000, 30.046875000000, -6.500000000000, 1490689215
0.101318359375, -0.558593750000, 0.147216796875, 4.554687500000, 30.046875000000, -6.500000000000, 1490689215
0.074218750000, -0.468505859375, -0.028076171875, -14.359375000000, 28.078125000000, -3.148437500000, 1490689215
0.074218750000, -0.468505859375, -0.028076171875, -14.359375000000, 28.078125000000, -3.148437500000, 1490689215
0.074218750000, -0.468505859375, -0.028076171875, -14.359375000000, 28.078125000000, -3.148437500000, 1490689215
0.074218750000, -0.468505859375, -0.028076171875, -14.359375000000, 28.078125000000, -3.148437500000, 1490689215
0.075683593750, -0.544189453125, -0.000732421875, -8.085937500000, 5.742187500000, 4.390625000000, 1490689215
0.075683593750, -0.544189453125, -0.000732421875, -8.085937500000, 5.742187500000, 4.390625000000, 1490689215
0.075683593750, -0.544189453125, -0.000732421875, -8.085937500000, 5.742187500000, 4.390625000000, 1490689215
0.075683593750, -0.544189453125, -0.000732421875, -8.085937500000, 5.742187500000, 4.390625000000, 1490689215
0.268310546875, -0.739501953125, 0.082519531250, 17.734375000000, -7.203125000000, -1.734375000000, 1490689215
0.268310546875, -0.739501953125, 0.082519531250, 17.734375000000, -7.203125000000, -1.734375000000, 1490689215
0.268310546875, -0.739501953125, 0.082519531250, 17.734375000000, -7.203125000000, -1.734375000000, 1490689215
0.288574218750, -0.810546875000, 0.116943359375, 39.648437500000, -14.218750000000, -18.820312500000, 1490689216
0.288574218750, -0.810546875000, 0.116943359375, 39.648437500000, -14.218750000000, -18.820312500000, 1490689216
0.288574218750, -0.810546875000, 0.116943359375, 39.648437500000, -14.218750000000, -18.820312500000, 1490689216
0.422851562500, -0.944091796875, -0.001953125000, 19.250000000000, 15.937500000000, 1.281250000000, 1490689216
0.422851562500, -0.944091796875, -0.001953125000, 19.250000000000, 15.937500000000, 1.281250000000, 1490689216
0.422851562500, -0.944091796875, -0.001953125000, 19.250000000000, 15.937500000000, 1.281250000000, 1490689216
0.225341796875, -0.970703125000, -0.255126953125, -224.289062500000, 43.773437500000, 85.625000000000, 1490689216
0.225341796875, -0.970703125000, -0.255126953125, -224.289062500000, 43.773437500000, 85.625000000000, 1490689216
0.225341796875, -0.970703125000, -0.255126953125, -224.289062500000, 43.773437500000, 85.625000000000, 1490689216
0.225341796875, -0.970703125000, -0.255126953125, -224.289062500000, 43.773437500000, 85.625000000000, 1490689216
0.544921875000, -1.753906250000, -0.108154296875, -181.476562500000, -163.406250000000, 30.648437500000, 1490689216
0.544921875000, -1.753906250000, -0.108154296875, -181.476562500000, -163.406250000000, 30.648437500000, 1490689216
0.544921875000, -1.753906250000, -0.108154296875, -181.476562500000, -163.406250000000, 30.648437500000, 1490689216
0.662597656250, -2.068603515625, -0.172607421875, 30.585937500000, -256.000000000000, 1.445312500000, 1490689216
0.662597656250, -2.068603515625, -0.172607421875, 30.585937500000, -256.000000000000, 1.445312500000, 1490689216
0.662597656250, -2.068603515625, -0.172607421875, 30.585937500000, -256.000000000000, 1.445312500000, 1490689216
0.860839843750, -2.236572265625, -0.109375000000, -113.757812500000, -241.656250000000, -176.820312500000, 1490689216
0.860839843750, -2.236572265625, -0.109375000000, -113.757812500000, -241.656250000000, -176.820312500000, 1490689216
0.860839843750, -2.236572265625, -0.109375000000, -113.757812500000, -241.656250000000, -176.820312500000, 1490689216
0.214843750000, -1.123291015625, -0.160400390625, 201.757812500000, 30.976562500000, -256.000000000000, 1490689216
0.214843750000, -1.123291015625, -0.160400390625, 201.757812500000, 30.976562500000, -256.000000000000, 1490689216
0.214843750000, -1.123291015625, -0.160400390625, 201.757812500000, 30.976562500000, -256.000000000000, 1490689216
0.214843750000, -1.123291015625, -0.160400390625, 201.757812500000, 30.976562500000, -256.000000000000, 1490689216
-0.650634765625, -1.304443359375, 0.644775390625, 253.992187500000, -20.273437500000, -216.906250000000, 1490689216
-0.650634765625, -1.304443359375, 0.644775390625, 253.992187500000, -20.273437500000, -216.906250000000, 1490689216
-0.650634765625, -1.304443359375, 0.644775390625, 253.992187500000, -20.273437500000, -216.906250000000, 1490689216
0.162841796875, -1.060058593750, 0.746582031250, 52.992187500000, -256.000000000000, -102.523437500000, 1490689216
0.162841796875, -1.060058593750, 0.746582031250, 52.992187500000, -256.000000000000, -102.523437500000, 1490689216
0.162841796875, -1.060058593750, 0.746582031250, 52.992187500000, -256.000000000000, -102.523437500000, 1490689216
-0.026367187500, -0.559570312500, 0.150634765625, -218.828125000000, -24.906250000000, -33.718750000000, 1490689216
-0.026367187500, -0.559570312500, 0.150634765625, -218.828125000000, -24.906250000000, -33.718750000000, 1490689216
-0.026367187500, -0.559570312500, 0.150634765625, -218.828125000000, -24.906250000000, -33.718750000000, 1490689216
-0.138427734375, -0.059326171875, 0.018066406250, -256.000000000000, 117.781250000000, -115.609375000000, 1490689216
-0.138427734375, -0.059326171875, 0.018066406250, -256.000000000000, 117.781250000000, -115.609375000000, 1490689216
-0.742431640625, -0.633300781250, -0.146240234375, -205.195312500000, 155.062500000000, 31.265625000000, 1490689216
-6.116210937500, 0.938476562500, 3.389892578125, -256.000000000000, -104.117187500000, -256.000000000000, 1490689216
-6.116210937500, 0.938476562500, 3.389892578125, -256.000000000000, -104.117187500000, -256.000000000000, 1490689216
-6.116210937500, 0.938476562500, 3.389892578125, -256.000000000000, -104.117187500000, -256.000000000000, 1490689216
-6.116210937500, 0.938476562500, 3.389892578125, -256.000000000000, -104.117187500000, -256.000000000000, 1490689216
0.216796875000, 0.563476562500, 0.121337890625, 16.187500000000, -173.875000000000, -21.039062500000, 1490689216
-1.128662109375, 1.252929687500, 0.183105468750, 16.187500000000, -173.875000000000, -21.039062500000, 1490689216
-1.128662109375, 1.252929687500, 0.183105468750, 16.187500000000, -173.875000000000, -21.039062500000, 1490689216
-1.128662109375, 1.252929687500, 0.183105468750, 16.187500000000, -173.875000000000, -21.039062500000, 1490689216
-1.128662109375, 1.252929687500, 0.183105468750, 16.187500000000, -173.875000000000, -21.039062500000, 1490689216
-1.128662109375, 1.252929687500, 0.183105468750, 16.187500000000, -173.875000000000, -21.039062500000, 1490689216
-0.349853515625, -0.385253906250, 0.344726562500, 253.992187500000, -256.000000000000, 169.429687500000, 1490689216
-0.349853515625, -0.385253906250, 0.344726562500, 253.992187500000, -256.000000000000, 169.429687500000, 1490689216
-0.349853515625, -0.385253906250, 0.344726562500, 253.992187500000, -256.000000000000, 169.429687500000, 1490689216
0.105957031250, -0.470214843750, 0.702880859375, 35.601562500000, -256.000000000000, 186.765625000000, 1490689216
0.105957031250, -0.470214843750, 0.702880859375, 35.601562500000, -256.000000000000, 186.765625000000, 1490689216
0.105957031250, -0.470214843750, 0.702880859375, 35.601562500000, -256.000000000000, 186.765625000000, 1490689216
-0.000976562500, -0.048095703125, 1.230224609375, -42.835937500000, 32.273437500000, 114.992187500000, 1490689216
-0.000976562500, -0.048095703125, 1.230224609375, -42.835937500000, 32.273437500000, 114.992187500000, 1490689216
-0.000976562500, -0.048095703125, 1.230224609375, -42.835937500000, 32.273437500000, 114.992187500000, 1490689216
-0.000976562500, -0.048095703125, 1.230224609375, -42.835937500000, 32.273437500000, 114.992187500000, 1490689216
1.647216796875, 0.937500000000, 4.666015625000, -256.000000000000, 253.992187500000, 253.992187500000, 1490689216
-1.638671875000, 2.157958984375, 2.510253906250, 253.992187500000, -133.937500000000, 22.359375000000, 1490689216
-1.638671875000, 2.157958984375, 2.510253906250, 253.992187500000, -133.937500000000, 22.359375000000, 1490689216
-1.638671875000, 2.157958984375, 2.510253906250, 253.992187500000, -133.937500000000, 22.359375000000, 1490689216
-1.638671875000, 2.157958984375, 2.510253906250, 253.992187500000, -133.937500000000, 22.359375000000, 1490689216
-1.638671875000, 2.157958984375, 2.510253906250, 253.992187500000, -133.937500000000, 22.359375000000, 1490689216
-1.636474609375, 0.725585937500, 1.955322265625, 253.992187500000, 121.210937500000, 48.117187500000, 1490689216
-0.147949218750, -0.439941406250, 0.397216796875, 118.703125000000, 16.382812500000, -43.671875000000, 1490689216
-0.147949218750, -0.439941406250, 0.397216796875, 118.703125000000, 16.382812500000, -43.671875000000, 1490689216
-0.147949218750, -0.439941406250, 0.397216796875, 118.703125000000, 16.382812500000, -43.671875000000, 1490689216
-0.235595703125, 0.016357421875, -0.013427734375, 71.765625000000, -66.406250000000, -88.406250000000, 1490689216
-0.235595703125, 0.016357421875, -0.013427734375, 71.765625000000, -66.406250000000, -88.406250000000, 1490689216
-0.235595703125, 0.016357421875, -0.013427734375, 71.765625000000, -66.406250000000, -88.406250000000, 1490689216
-1.621582031250, -0.204589843750, 1.902099609375, -106.789062500000, 236.242187500000, 30.828125000000, 1490689217
-1.621582031250, -0.204589843750, 1.902099609375, -106.789062500000, 236.242187500000, 30.828125000000, 1490689217
-1.621582031250, -0.204589843750, 1.902099609375, -106.789062500000, 236.242187500000, 30.828125000000, 1490689217
-1.099609375000, 0.070068359375, 1.388183593750, -142.828125000000, 253.992187500000, 21.953125000000, 1490689217
-1.067871093750, -0.313964843750, 1.092041015625, 19.578125000000, 253.992187500000, 62.484375000000, 1490689217
-0.795166015625, -0.138427734375, 0.772949218750, 40.820312500000, 253.992187500000, 92.000000000000, 1490689217
-0.795166015625, -0.138427734375, 0.772949218750, 40.820312500000, 253.992187500000, 92.000000000000, 1490689217
-0.616455078125, -0.250976562500, 0.267578125000, 19.070312500000, 191.265625000000, 86.859375000000, 1490689217
-1.501708984375, -0.623291015625, 0.128662109375, 10.281250000000, -73.953125000000, -113.179687500000, 1490689217
-1.501708984375, -0.623291015625, 0.128662109375, 10.281250000000, -73.953125000000, -113.179687500000, 1490689217
-1.501708984375, -0.623291015625, 0.128662109375, 10.281250000000, -73.953125000000, -113.179687500000, 1490689217
-1.501708984375, -0.623291015625, 0.128662109375, 10.281250000000, -73.953125000000, -113.179687500000, 1490689217
-1.501708984375, -0.623291015625, 0.128662109375, 10.281250000000, -73.953125000000, -113.179687500000, 1490689217
-0.554199218750, 0.251220703125, 1.029785156250, -37.687500000000, -20.593750000000, -26.554687500000, 1490689217
-1.003662109375, -0.359375000000, 0.360107421875, 27.156250000000, 115.476562500000, 8.671875000000, 1490689217
-1.003662109375, -0.359375000000, 0.360107421875, 27.156250000000, 115.476562500000, 8.671875000000, 1490689217
-1.003662109375, -0.359375000000, 0.360107421875, 27.156250000000, 115.476562500000, 8.671875000000, 1490689217
-1.003662109375, -0.359375000000, 0.360107421875, 27.156250000000, 115.476562500000, 8.671875000000, 1490689217
-1.003662109375, -0.359375000000, 0.360107421875, 27.156250000000, 115.476562500000, 8.671875000000, 1490689217
-1.003662109375, -0.359375000000, 0.360107421875, 27.156250000000, 115.476562500000, 8.671875000000, 1490689217
-0.861328125000, -0.047851562500, 0.458007812500, 2.664062500000, 44.210937500000, -21.507812500000, 1490689217
-0.861328125000, -0.047851562500, 0.458007812500, 2.664062500000, 44.210937500000, -21.507812500000, 1490689217
-0.861328125000, -0.047851562500, 0.458007812500, 2.664062500000, 44.210937500000, -21.507812500000, 1490689217
-0.861328125000, -0.047851562500, 0.458007812500, 2.664062500000, 44.210937500000, -21.507812500000, 1490689217
-0.861328125000, -0.047851562500, 0.458007812500, 2.664062500000, 44.210937500000, -21.507812500000, 1490689217
-0.781738281250, -0.136718750000, 0.395996093750, -1.554687500000, -11.617187500000, -9.687500000000, 1490689217
-0.781738281250, -0.136718750000, 0.395996093750, -1.554687500000, -11.617187500000, -9.687500000000, 1490689217
-0.781738281250, -0.136718750000, 0.395996093750, -1.554687500000, -11.617187500000, -9.687500000000, 1490689217
-0.781738281250, -0.136718750000, 0.395996093750, -1.554687500000, -11.617187500000, -9.687500000000, 1490689217
-0.884277343750, -0.107910156250, 0.458740234375, 2.796875000000, 30.773437500000, -4.531250000000, 1490689217
-0.884277343750, -0.107910156250, 0.458740234375, 2.796875000000, 30.773437500000, -4.531250000000, 1490689217
-0.884277343750, -0.107910156250, 0.458740234375, 2.796875000000, 30.773437500000, -4.531250000000, 1490689217
-0.884277343750, -0.107910156250, 0.458740234375, 2.796875000000, 30.773437500000, -4.531250000000, 1490689217
-0.916748046875, -0.124511718750, 0.358398437500, -4.750000000000, 1.726562500000, -13.570312500000, 1490689217
-0.916748046875, -0.124511718750, 0.358398437500, -4.750000000000, 1.726562500000, -13.570312500000, 1490689217
-0.916748046875, -0.124511718750, 0.358398437500, -4.750000000000, 1.726562500000, -13.570312500000, 1490689217
-0.934570312500, -0.149902343750, 0.429931640625, -0.179687500000, 3.242187500000, -6.710937500000, 1490689217
-0.934570312500, -0.149902343750, 0.429931640625, -0.179687500000, 3.242187500000, -6.710937500000, 1490689217
-0.934570312500, -0.149902343750, 0.429931640625, -0.179687500000, 3.242187500000, -6.710937500000, 1490689217
-0.938720703125, -0.154296875000, 0.405273437500, 0.851562500000, 10.007812500000, -4.101562500000, 1490689217
-0.938720703125, -0.154296875000, 0.405273437500, 0.851562500000, 10.007812500000, -4.101562500000, 1490689217
-0.938720703125, -0.154296875000, 0.405273437500, 0.851562500000, 10.007812500000, -4.101562500000, 1490689217
-1.001953125000, -0.119140625000, 0.350097656250, -4.742187500000, -7.101562500000, -2.632812500000, 1490689217
-1.001953125000, -0.119140625000, 0.350097656250, -4.742187500000, -7.101562500000, -2.632812500000, 1490689217
-1.001953125000, -0.119140625000, 0.350097656250, -4.742187500000, -7.101562500000, -2.632812500000, 1490689217
-0.865234375000, -0.058349609375, 0.363525390625, -2.843750000000, 4.343750000000, -2.617187500000, 1490689217
-0.865234375000, -0.058349609375, 0.363525390625, -2.843750000000, 4.343750000000, -2.617187500000, 1490689217
-0.865234375000, -0.058349609375, 0.363525390625, -2.843750000000, 4.343750000000, -2.617187500000, 1490689217
-0.865234375000, -0.058349609375, 0.363525390625, -2.843750000000, 4.343750000000, -2.617187500000, 1490689217
-0.885009765625, -0.122070312500, 0.444091796875, -4.539062500000, 2.164062500000, -9.609375000000, 1490689217
-0.885009765625, -0.122070312500, 0.444091796875, -4.539062500000, 2.164062500000, -9.609375000000, 1490689217
-0.885009765625, -0.122070312500, 0.444091796875, -4.539062500000, 2.164062500000, -9.609375000000, 1490689217
-0.851318359375, -0.093261718750, 0.362548828125, -6.843750000000, -1.500000000000, -8.250000000000, 1490689217
-0.851318359375, -0.093261718750, 0.362548828125, -6.843750000000, -1.500000000000, -8.250000000000, 1490689217
-0.851318359375, -0.093261718750, 0.362548828125, -6.843750000000, -1.500000000000, -8.250000000000, 1490689217
-0.908203125000, -0.154541015625, 0.414794921875, -5.023437500000, 2.015625000000, -6.921875000000, 1490689217
-0.908203125000, -0.154541015625, 0.414794921875, -5.023437500000, 2.015625000000, -6.921875000000, 1490689217
-1.019531250000, -0.052001953125, 0.298828125000, -3.023437500000, 3.265625000000, 2.703125000000, 1490689217
-1.019531250000, -0.052001953125, 0.298828125000, -3.023437500000, 3.265625000000, 2.703125000000, 1490689217
-1.019531250000, -0.052001953125, 0.298828125000, -3.023437500000, 3.265625000000, 2.703125000000, 1490689217
-1.019531250000, -0.052001953125, 0.298828125000, -3.023437500000, 3.265625000000, 2.703125000000, 1490689217
-1.019531250000, -0.052001953125, 0.298828125000, -3.023437500000, 3.265625000000, 2.703125000000, 1490689217
-0.802978515625, -0.188720703125, 0.309082031250, -8.453125000000, -6.312500000000, -2.523437500000, 1490689217
-0.802978515625, -0.188720703125, 0.309082031250, -8.453125000000, -6.312500000000, -2.523437500000, 1490689217
-0.802978515625, -0.188720703125, 0.309082031250, -8.453125000000, -6.312500000000, -2.523437500000, 1490689217
-0.863769531250, -0.156250000000, 0.451416015625, -8.343750000000, -14.914062500000, -2.500000000000, 1490689218
-0.863769531250, -0.156250000000, 0.451416015625, -8.343750000000, -14.914062500000, -2.500000000000, 1490689218
-0.863769531250, -0.156250000000, 0.451416015625, -8.343750000000, -14.914062500000, -2.500000000000, 1490689218
-0.956054687500, -0.035156250000, 0.407470703125, -10.804687500000, -5.554687500000, -1.312500000000, 1490689218
-0.956054687500, -0.035156250000, 0.407470703125, -10.804687500000, -5.554687500000, -1.312500000000, 1490689218
-0.956054687500, -0.035156250000, 0.407470703125, -10.804687500000, -5.554687500000, -1.312500000000, 1490689218
-0.956054687500, -0.035156250000, 0.407470703125, -10.804687500000, -5.554687500000, -1.312500000000, 1490689218
-0.948486328125, -0.094726562500, 0.444824218750, -10.578125000000, -8.031250000000, 2.375000000000, 1490689218
-0.948486328125, -0.094726562500, 0.444824218750, -10.578125000000, -8.031250000000, 2.375000000000, 1490689218
-0.948486328125, -0.094726562500, 0.444824218750, -10.578125000000, -8.031250000000, 2.375000000000, 1490689218
-0.893798828125, -0.042236328125, 0.302734375000, -3.765625000000, -0.343750000000, -0.679687500000, 1490689218
-0.893798828125, -0.042236328125, 0.302734375000, -3.765625000000, -0.343750000000, -0.679687500000, 1490689218
-0.893798828125, -0.042236328125, 0.302734375000, -3.765625000000, -0.343750000000, -0.679687500000, 1490689218
-0.910156250000, -0.086181640625, 0.354492187500, -5.390625000000, -10.812500000000, -4.390625000000, 1490689218
-0.910156250000, -0.086181640625, 0.354492187500, -5.390625000000, -10.812500000000, -4.390625000000, 1490689218
-0.910156250000, -0.086181640625, 0.354492187500, -5.390625000000, -10.812500000000, -4.390625000000, 1490689218
-0.891601562500, -0.193115234375, 0.355712890625, -9.250000000000, -18.039062500000, -0.859375000000, 1490689218
-0.891601562500, -0.193115234375, 0.355712890625, -9.250000000000, -18.039062500000, -0.859375000000, 1490689218
-0.891601562500, -0.193115234375, 0.355712890625, -9.250000000000, -18.039062500000, -0.859375000000, 1490689218
-0.891601562500, -0.193115234375, 0.355712890625, -9.250000000000, -18.039062500000, -0.859375000000, 1490689218
-0.939453125000, -0.111328125000, 0.429687500000, 0.031250000000, -0.171875000000, 1.703125000000, 1490689218
-0.939453125000, -0.111328125000, 0.429687500000, 0.031250000000, -0.171875000000, 1.703125000000, 1490689218
-0.939453125000, -0.111328125000, 0.429687500000, 0.031250000000, -0.171875000000, 1.703125000000, 1490689218
-0.924560546875, -0.114257812500, 0.521484375000, -6.523437500000, -8.765625000000, 2.234375000000, 1490689218
-0.924560546875, -0.114257812500, 0.521484375000, -6.523437500000, -8.765625000000, 2.234375000000, 1490689218
-0.924560546875, -0.114257812500, 0.521484375000, -6.523437500000, -8.765625000000, 2.234375000000, 1490689218
-1.006591796875, -0.040771484375, 0.437744140625, -8.429687500000, -14.179687500000, -1.289062500000, 1490689218
-1.006591796875, -0.040771484375, 0.437744140625, -8.429687500000, -14.179687500000, -1.289062500000, 1490689218
-1.006591796875, -0.040771484375, 0.437744140625, -8.429687500000, -14.179687500000, -1.289062500000, 1490689218
-0.932128906250, -0.066406250000, 0.459960937500, -8.867187500000, -12.914062500000, -0.953125000000, 1490689218
-0.882568359375, -0.089111328125, 0.466064453125, -18.023437500000, -23.390625000000, 4.226562500000, 1490689218
-0.882568359375, -0.089111328125, 0.466064453125, -18.023437500000, -23.390625000000, 4.226562500000, 1490689218
-0.882568359375, -0.089111328125, 0.466064453125, -18.023437500000, -23.390625000000, 4.226562500000, 1490689218
-0.882568359375, -0.089111328125, 0.466064453125, -18.023437500000, -23.390625000000, 4.226562500000, 1490689218
-0.866210937500, -0.116699218750, 0.564453125000, -13.570312500000, -19.015625000000, 4.335937500000, 1490689218
-0.866210937500, -0.116699218750, 0.564453125000, -13.570312500000, -19.015625000000, 4.335937500000, 1490689218
-0.866210937500, -0.116699218750, 0.564453125000, -13.570312500000, -19.015625000000, 4.335937500000, 1490689218
-0.866210937500, -0.116699218750, 0.564453125000, -13.570312500000, -19.015625000000, 4.335937500000, 1490689218
-0.866210937500, -0.116699218750, 0.564453125000, -13.570312500000, -19.015625000000, 4.335937500000, 1490689218
-0.905517578125, -0.205810546875, 0.540771484375, -15.148437500000, -9.007812500000, 3.500000000000, 1490689218
-0.905517578125, -0.205810546875, 0.540771484375, -15.148437500000, -9.007812500000, 3.500000000000, 1490689218
-0.905517578125, -0.205810546875, 0.540771484375, -15.148437500000, -9.007812500000, 3.500000000000, 1490689218
-0.964843750000, -0.150390625000, 0.475585937500, -3.781250000000, -8.070312500000, -2.382812500000, 1490689218
-0.964843750000, -0.150390625000, 0.475585937500, -3.781250000000, -8.070312500000, -2.382812500000, 1490689218
-0.964843750000, -0.150390625000, 0.475585937500, -3.781250000000, -8.070312500000, -2.382812500000, 1490689218
-0.964843750000, -0.150390625000, 0.475585937500, -3.781250000000, -8.070312500000, -2.382812500000, 1490689218
-0.800781250000, -0.101562500000, 0.570556640625, -5.226562500000, -4.742187500000, 0.156250000000, 1490689218
-0.800781250000, -0.101562500000, 0.570556640625, -5.226562500000, -4.742187500000, 0.156250000000, 1490689218
-0.847656250000, -0.112060546875, 0.566406250000, -4.312500000000, -0.484375000000, -4.164062500000, 1490689218
-0.847656250000, -0.112060546875, 0.566406250000, -4.312500000000, -0.484375000000, -4.164062500000, 1490689218
-0.847656250000, -0.112060546875, 0.566406250000, -4.312500000000, -0.484375000000, -4.164062500000, 1490689218
-0.847656250000, -0.112060546875, 0.566406250000, -4.312500000000, -0.484375000000, -4.164062500000, 1490689218
-0.959960937500, -0.134033203125, 0.574951171875, -1.703125000000, -3.085937500000, -1.757812500000, 1490689218
-0.959960937500, -0.134033203125, 0.574951171875, -1.703125000000, -3.085937500000, -1.757812500000, 1490689218
-0.959960937500, -0.134033203125, 0.574951171875, -1.703125000000, -3.085937500000, -1.757812500000, 1490689218
-0.787109375000, -0.113037109375, 0.493896484375, -3.437500000000, -2.226562500000, -2.460937500000, 1490689218
-0.787109375000, -0.113037109375, 0.493896484375, -3.437500000000, -2.226562500000, -2.460937500000, 1490689218
-0.787109375000, -0.113037109375, 0.493896484375, -3.437500000000, -2.226562500000, -2.460937500000, 1490689218
-0.787109375000, -0.113037109375, 0.493896484375, -3.437500000000, -2.226562500000, -2.460937500000, 1490689218
-0.836669921875, -0.038574218750, 0.470214843750, -4.265625000000, -2.968750000000, -4.773437500000, 1490689218
-0.836669921875, -0.038574218750, 0.470214843750, -4.265625000000, -2.968750000000, -4.773437500000, 1490689218
-0.836669921875, -0.038574218750, 0.470214843750, -4.265625000000, -2.968750000000, -4.773437500000, 1490689218
-0.856201171875, -0.119873046875, 0.491699218750, -4.093750000000, -0.242187500000, -1.804687500000, 1490689218
-0.856201171875, -0.119873046875, 0.491699218750, -4.093750000000, -0.242187500000, -1.804687500000, 1490689218
-0.856201171875, -0.119873046875, 0.491699218750, -4.093750000000, -0.242187500000, -1.804687500000, 1490689218
-0.738037109375, -0.116455078125, 0.519531250000, -4.359375000000, -2.492187500000, -4.164062500000, 1490689218
-0.738037109375, -0.116455078125, 0.519531250000, -4.359375000000, -2.492187500000, -4.164062500000, 1490689218
-0.738037109375, -0.116455078125, 0.519531250000, -4.359375000000, -2.492187500000, -4.164062500000, 1490689218
-0.823486328125, -0.135498046875, 0.470214843750, -1.289062500000, -2.375000000000, -4.140625000000, 1490689219
-0.823486328125, -0.135498046875, 0.470214843750, -1.289062500000, -2.375000000000, -4.140625000000, 1490689219
-0.823486328125, -0.135498046875, 0.470214843750, -1.289062500000, -2.375000000000, -4.140625000000, 1490689219
-0.823486328125, -0.135498046875, 0.470214843750, -1.289062500000, -2.375000000000, -4.140625000000, 1490689219
-0.784179687500, -0.035888671875, 0.484130859375, -3.476562500000, 2.132812500000, -1.609375000000, 1490689219
-0.784179687500, -0.035888671875, 0.484130859375, -3.476562500000, 2.132812500000, -1.609375000000, 1490689219
-0.784179687500, -0.035888671875, 0.484130859375, -3.476562500000, 2.132812500000, -1.609375000000, 1490689219
-0.894042968750, -0.149658203125, 0.562744140625, -1.625000000000, -0.515625000000, -1.492187500000, 1490689219
-0.894042968750, -0.149658203125, 0.562744140625, -1.625000000000, -0.515625000000, -1.492187500000, 1490689219
-0.810058593750, -0.052978515625, 0.535888671875, -4.945312500000, -2.023437500000, -3.359375000000, 1490689219
-0.810058593750, -0.052978515625, 0.535888671875, -4.945312500000, -2.023437500000, -3.359375000000, 1490689219
-0.810058593750, -0.052978515625, 0.535888671875, -4.945312500000, -2.023437500000, -3.359375000000, 1490689219
-0.810058593750, -0.052978515625, 0.535888671875, -4.945312500000, -2.023437500000, -3.359375000000, 1490689219
-0.845947265625, -0.047851562500, 0.630126953125, -1.468750000000, 0.773437500000, -2.875000000000, 1490689219
-0.845947265625, -0.047851562500, 0.630126953125, -1.468750000000, 0.773437500000, -2.875000000000, 1490689219
-0.845947265625, -0.047851562500, 0.630126953125, -1.468750000000, 0.773437500000, -2.875000000000, 1490689219
-0.845947265625, -0.047851562500, 0.630126953125, -1.468750000000, 0.773437500000, -2.875000000000, 1490689219
-0.742187500000, -0.255859375000, 0.482421875000, -4.390625000000, -0.820312500000, -3.453125000000, 1490689219
-0.742187500000, -0.255859375000, 0.482421875000, -4.390625000000, -0.820312500000, -3.453125000000, 1490689219
-0.742187500000, -0.255859375000, 0.482421875000, -4.390625000000, -0.820312500000, -3.453125000000, 1490689219
-0.806640625000, -0.128662109375, 0.538330078125, -3.320312500000, 0.132812500000, -3.031250000000, 1490689219
-0.806640625000, -0.128662109375, 0.538330078125, -3.320312500000, 0.132812500000, -3.031250000000, 1490689219
-0.806640625000, -0.128662109375, 0.538330078125, -3.320312500000, 0.132812500000, -3.031250000000, 1490689219
-0.866699218750, -0.103271484375, 0.516601562500, -1.851562500000, -1.070312500000, -4.164062500000, 1490689219
-0.866699218750, -0.103271484375, 0.516601562500, -1.851562500000, -1.070312500000, -4.164062500000, 1490689219
-0.866699218750, -0.103271484375, 0.516601562500, -1.851562500000, -1.070312500000, -4.164062500000, 1490689219
-0.941650390625, -0.111083984375, 0.543212890625, -3.195312500000, 2.195312500000, -3.937500000000, 1490689219
-0.941650390625, -0.111083984375, 0.543212890625, -3.195312500000, 2.195312500000, -3.937500000000, 1490689219
-0.941650390625, -0.111083984375, 0.543212890625, -3.195312500000, 2.195312500000, -3.937500000000, 1490689219
-0.941650390625, -0.111083984375, 0.543212890625, -3.195312500000, 2.195312500000, -3.937500000000, 1490689219
-0.789794921875, -0.047119140625, 0.535400390625, -4.609375000000, -2.289062500000, -4.375000000000, 1490689219
-0.789794921875, -0.047119140625, 0.535400390625, -4.609375000000, -2.289062500000, -4.375000000000, 1490689219
-0.906250000000, -0.147460937500, 0.515380859375, -4.453125000000, -2.906250000000, -2.992187500000, 1490689219
-0.953613281250, -0.042724609375, 0.551513671875, -4.875000000000, -2.421875000000, -4.218750000000, 1490689219
-0.953613281250, -0.042724609375, 0.551513671875, -4.875000000000, -2.421875000000, -4.218750000000, 1490689219
-0.953613281250, -0.042724609375, 0.551513671875, -4.875000000000, -2.421875000000, -4.218750000000, 1490689219
-0.886962890625, -0.254638671875, 0.611328125000, -4.835937500000, -4.031250000000, -4.539062500000, 1490689219
-0.886962890625, -0.254638671875, 0.611328125000, -4.835937500000, -4.031250000000, -4.539062500000, 1490689219
-0.886962890625, -0.254638671875, 0.611328125000, -4.835937500000, -4.031250000000, -4.539062500000, 1490689219
-0.841796875000, -0.273925781250, 0.486328125000, -4.640625000000, -2.343750000000, -2.890625000000, 1490689219
-0.841796875000, -0.273925781250, 0.486328125000, -4.640625000000, -2.343750000000, -2.890625000000, 1490689219
-0.841796875000, -0.273925781250, 0.486328125000, -4.640625000000, -2.343750000000, -2.890625000000, 1490689219
-0.841796875000, -0.273925781250, 0.486328125000, -4.640625000000, -2.343750000000, -2.890625000000, 1490689219
-0.852783203125, -0.141845703125, 0.538818359375, -1.929687500000, 0.078125000000, -1.921875000000, 1490689219
-0.852783203125, -0.141845703125, 0.538818359375, -1.929687500000, 0.078125000000, -1.921875000000, 1490689219
-0.852783203125, -0.141845703125, 0.538818359375, -1.929687500000, 0.078125000000, -1.921875000000, 1490689219
-0.852783203125, -0.141845703125, 0.538818359375, -1.929687500000, 0.078125000000, -1.921875000000, 1490689219
-0.852783203125, -0.141845703125, 0.538818359375, -1.929687500000, 0.078125000000, -1.921875000000, 1490689219
-0.876464843750, -0.056152343750, 0.582275390625, -4.523437500000, -0.843750000000, -4.945312500000, 1490689219
-0.894775390625, -0.217285156250, 0.484375000000, -3.093750000000, -0.875000000000, -4.257812500000, 1490689219
-0.894775390625, -0.217285156250, 0.484375000000, -3.093750000000, -0.875000000000, -4.257812500000, 1490689219
-0.894775390625, -0.217285156250, 0.484375000000, -3.093750000000, -0.875000000000, -4.257812500000, 1490689219
-0.860595703125, -0.053710937500, 0.476562500000, -4.234375000000, 2.351562500000, -4.007812500000, 1490689219
-0.860595703125, -0.053710937500, 0.476562500000, -4.234375000000, 2.351562500000, -4.007812500000, 1490689219
-0.860595703125, -0.053710937500, 0.476562500000, -4.234375000000, 2.351562500000, -4.007812500000, 1490689219
-0.860595703125, -0.053710937500, 0.476562500000, -4.234375000000, 2.351562500000, -4.007812500000, 1490689219
-0.895263671875, -0.041748046875, 0.502197265625, -3.070312500000, 0.679687500000, -4.343750000000, 1490689219
-0.895263671875, -0.041748046875, 0.502197265625, -3.070312500000, 0.679687500000, -4.343750000000, 1490689219
-0.895263671875, -0.041748046875, 0.502197265625, -3.070312500000, 0.679687500000, -4.343750000000, 1490689219
-0.788574218750, -0.084716796875, 0.428222656250, -1.375000000000, 2.437500000000, -4.804687500000, 1490689219
-0.788574218750, -0.084716796875, 0.428222656250, -1.375000000000, 2.437500000000, -4.804687500000, 1490689219
-0.788574218750, -0.084716796875, 0.428222656250, -1.375000000000, 2.437500000000, -4.804687500000, 1490689219
-0.781738281250, -0.137207031250, 0.549804687500, -1.273437500000, -0.750000000000, -1.992187500000, 1490689219
-0.781738281250, -0.137207031250, 0.549804687500, -1.273437500000, -0.750000000000, -1.992187500000, 1490689219
-0.781738281250, -0.137207031250, 0.549804687500, -1.273437500000, -0.750000000000, -1.992187500000, 1490689219
-0.802978515625, -0.052978515625, 0.554199218750, -1.109375000000, -0.335937500000, -4.031250000000, 1490689219
-0.802978515625, -0.052978515625, 0.554199218750, -1.109375000000, -0.335937500000, -4.031250000000, 1490689219
-0.802978515625, -0.052978515625, 0.554199218750, -1.109375000000, -0.335937500000, -4.031250000000, 1490689220
-0.802978515625, -0.052978515625, 0.554199218750, -1.109375000000, -0.335937500000, -4.031250000000, 1490689220
-0.785888671875, -0.041259765625, 0.565185546875, -4.804687500000, -1.203125000000, 0.664062500000, 1490689220
-0.785888671875, -0.041259765625, 0.565185546875, -4.804687500000, -1.203125000000, 0.664062500000, 1490689220
-0.785888671875, -0.041259765625, 0.565185546875, -4.804687500000, -1.203125000000, 0.664062500000, 1490689220
-0.942382812500, -0.185546875000, 0.513916015625, -4.585937500000, 1.789062500000, -4.867187500000, 1490689220
-0.942382812500, -0.185546875000, 0.513916015625, -4.585937500000, 1.789062500000, -4.867187500000, 1490689220
-0.942382812500, -0.185546875000, 0.513916015625, -4.585937500000, 1.789062500000, -4.867187500000, 1490689220
-0.869628906250, -0.132080078125, 0.479003906250, -4.781250000000, -2.343750000000, -3.046875000000, 1490689220
-0.869628906250, -0.132080078125, 0.479003906250, -4.781250000000, -2.343750000000, -3.046875000000, 1490689220
-0.869628906250, -0.132080078125, 0.479003906250, -4.781250000000, -2.343750000000, -3.046875000000, 1490689220
-0.856201171875, -0.162353515625, 0.493408203125, -3.468750000000, 0.937500000000, -3.304687500000, 1490689220
-0.856201171875, -0.162353515625, 0.493408203125, -3.468750000000, 0.937500000000, -3.304687500000, 1490689220
-0.856201171875, -0.162353515625, 0.493408203125, -3.468750000000, 0.937500000000, -3.304687500000, 1490689220
-0.856201171875, -0.162353515625, 0.493408203125, -3.468750000000, 0.937500000000, -3.304687500000, 1490689220
-0.782958984375, -0.070068359375, 0.475341796875, -3.265625000000, 0.195312500000, -1.914062500000, 1490689220
-0.782958984375, -0.070068359375, 0.475341796875, -3.265625000000, 0.195312500000, -1.914062500000, 1490689220
-0.782958984375, -0.070068359375, 0.475341796875, -3.265625000000, 0.195312500000, -1.914062500000, 1490689220
-0.900878906250, -0.153320312500, 0.522949218750, -1.867187500000, 0.648437500000, -4.757812500000, 1490689220
-0.900878906250, -0.153320312500, 0.522949218750, -1.867187500000, 0.648437500000, -4.757812500000, 1490689220
-0.900878906250, -0.153320312500, 0.522949218750, -1.867187500000, 0.648437500000, -4.757812500000, 1490689220
-0.809570312500, -0.139404296875, 0.528808593750, -4.718750000000, -0.656250000000, -1.218750000000, 1490689220
-0.809570312500, -0.139404296875, 0.528808593750, -4.718750000000, -0.656250000000, -1.218750000000, 1490689220
-0.809570312500, -0.139404296875, 0.528808593750, -4.718750000000, -0.656250000000, -1.218750000000, 1490689220
-0.872070312500, -0.134277343750, 0.513183593750, -4.414062500000, 2.851562500000, -3.132812500000, 1490689220
-0.872070312500, -0.134277343750, 0.513183593750, -4.414062500000, 2.851562500000, -3.132812500000, 1490689220
-0.872070312500, -0.134277343750, 0.513183593750, -4.414062500000, 2.851562500000, -3.132812500000, 1490689220
-0.872070312500, -0.134277343750, 0.513183593750, -4.414062500000, 2.851562500000, -3.132812500000, 1490689220
-0.724121093750, -0.166015625000, 0.570800781250, -4.257812500000, 0.148437500000, -1.328125000000, 1490689220
-0.724121093750, -0.166015625000, 0.570800781250, -4.257812500000, 0.148437500000, -1.328125000000, 1490689220
-0.724121093750, -0.166015625000, 0.570800781250, -4.257812500000, 0.148437500000, -1.328125000000, 1490689220
-0.857177734375, -0.094238281250, 0.527099609375, -1.398437500000, 2.984375000000, -1.882812500000, 1490689220
-0.857177734375, -0.094238281250, 0.527099609375, -1.398437500000, 2.984375000000, -1.882812500000, 1490689220
-0.857177734375, -0.094238281250, 0.527099609375, -1.398437500000, 2.984375000000, -1.882812500000, 1490689220
-0.878173828125, -0.194580078125, 0.459228515625, -4.664062500000, 0.390625000000, -4.007812500000, 1490689220
-0.878173828125, -0.194580078125, 0.459228515625, -4.664062500000, 0.390625000000, -4.007812500000, 1490689220
-0.878173828125, -0.194580078125, 0.459228515625, -4.664062500000, 0.390625000000, -4.007812500000, 1490689220
-0.903564453125, -0.216308593750, 0.480468750000, -1.742187500000, 0.320312500000, -2.343750000000, 1490689220
-0.903564453125, -0.216308593750, 0.480468750000, -1.742187500000, 0.320312500000, -2.343750000000, 1490689220
-0.903564453125, -0.216308593750, 0.480468750000, -1.742187500000, 0.320312500000, -2.343750000000, 1490689220
-0.903564453125, -0.216308593750, 0.480468750000, -1.742187500000, 0.320312500000, -2.343750000000, 1490689220
-0.954101562500, -0.048095703125, 0.457519531250, -1.828125000000, 0.375000000000, -3.601562500000, 1490689220
-0.954101562500, -0.048095703125, 0.457519531250, -1.828125000000, 0.375000000000, -3.601562500000, 1490689220
-0.954101562500, -0.048095703125, 0.457519531250, -1.828125000000, 0.375000000000, -3.601562500000, 1490689220
-0.787353515625, -0.021972656250, 0.537109375000, -4.148437500000, -0.460937500000, -2.867187500000, 1490689220
-0.787353515625, -0.021972656250, 0.537109375000, -4.148437500000, -0.460937500000, -2.867187500000, 1490689220
-0.787353515625, -0.021972656250, 0.537109375000, -4.148437500000, -0.460937500000, -2.867187500000, 1490689220
-0.791015625000, -0.104736328125, 0.492919921875, -1.945312500000, -1.242187500000, -2.789062500000, 1490689220
-0.791015625000, -0.104736328125, 0.492919921875, -1.945312500000, -1.242187500000, -2.789062500000, 1490689220
-0.791015625000, -0.104736328125, 0.492919921875, -1.945312500000, -1.242187500000, -2.789062500000, 1490689220
-0.939453125000, -0.202392578125, 0.509765625000, -4.078125000000, 1.210937500000, -2.867187500000, 1490689220
-0.939453125000, -0.202392578125, 0.509765625000, -4.078125000000, 1.210937500000, -2.867187500000, 1490689220
-0.939453125000, -0.202392578125, 0.509765625000, -4.078125000000, 1.210937500000, -2.867187500000, 1490689220
-0.939453125000, -0.202392578125, 0.509765625000, -4.078125000000, 1.210937500000, -2.867187500000, 1490689220
-0.884033203125, -0.056640625000, 0.487548828125, -4.867187500000, -2.781250000000, -4.476562500000, 1490689220
-0.884033203125, -0.056640625000, 0.487548828125, -4.867187500000, -2.781250000000, -4.476562500000, 1490689220
-0.884033203125, -0.056640625000, 0.487548828125, -4.867187500000, -2.781250000000, -4.476562500000, 1490689220
-0.912841796875, -0.055908203125, 0.473876953125, -3.562500000000, -2.445312500000, -4.210937500000, 1490689220
-0.912841796875, -0.055908203125, 0.473876953125, -3.562500000000, -2.445312500000, -4.210937500000, 1490689220
-0.912841796875, -0.055908203125, 0.473876953125, -3.562500000000, -2.445312500000, -4.210937500000, 1490689220
-0.732666015625, -0.110595703125, 0.407470703125, -1.062500000000, 0.890625000000, -4.703125000000, 1490689220
-0.732666015625, -0.110595703125, 0.407470703125, -1.062500000000, 0.890625000000, -4.703125000000, 1490689220
-0.732666015625, -0.110595703125, 0.407470703125, -1.062500000000, 0.890625000000, -4.703125000000, 1490689221
-0.843017578125, -0.132324218750, 0.470947265625, -4.812500000000, -3.000000000000, -1.421875000000, 1490689221
-0.843017578125, -0.132324218750, 0.470947265625, -4.812500000000, -3.000000000000, -1.421875000000, 1490689221
-0.843017578125, -0.132324218750, 0.470947265625, -4.812500000000, -3.000000000000, -1.421875000000, 1490689221
-0.843017578125, -0.132324218750, 0.470947265625, -4.812500000000, -3.000000000000, -1.421875000000, 1490689221
-0.843017578125, -0.132324218750, 0.470947265625, -4.812500000000, -3.000000000000, -1.421875000000, 1490689221
-0.843017578125, -0.132324218750, 0.470947265625, -4.812500000000, -3.000000000000, -1.421875000000, 1490689221
-0.843017578125, -0.132324218750, 0.470947265625, -4.812500000000, -3.000000000000, -1.421875000000, 1490689221
-0.842773437500, -0.149169921875, 0.504882812500, -1.890625000000, 2.250000000000, -4.367187500000, 1490689221
-0.842773437500, -0.149169921875, 0.504882812500, -1.890625000000, 2.250000000000, -4.367187500000, 1490689221
-0.842773437500, -0.149169921875, 0.504882812500, -1.890625000000, 2.250000000000, -4.367187500000, 1490689221
-0.788818359375, -0.101318359375, 0.493164062500, -4.507812500000, -2.265625000000, 0.695312500000, 1490689221
-0.788818359375, -0.101318359375, 0.493164062500, -4.507812500000, -2.265625000000, 0.695312500000, 1490689221
-0.788818359375, -0.101318359375, 0.493164062500, -4.507812500000, -2.265625000000, 0.695312500000, 1490689221
-0.845703125000, -0.155029296875, 0.412109375000, -1.234375000000, -3.117187500000, -1.679687500000, 1490689221
-0.845703125000, -0.155029296875, 0.412109375000, -1.234375000000, -3.117187500000, -1.679687500000, 1490689221
-0.845703125000, -0.155029296875, 0.412109375000, -1.234375000000, -3.117187500000, -1.679687500000, 1490689221
-0.845703125000, -0.155029296875, 0.412109375000, -1.234375000000, -3.117187500000, -1.679687500000, 1490689221
-0.783935546875, -0.154052734375, 0.480957031250, -4.218750000000, 0.109375000000, -4.367187500000, 1490689221
-0.783935546875, -0.154052734375, 0.480957031250, -4.218750000000, 0.109375000000, -4.367187500000, 1490689221
-0.783935546875, -0.154052734375, 0.480957031250, -4.218750000000, 0.109375000000, -4.367187500000, 1490689221
-0.839843750000, -0.087158203125, 0.482421875000, -4.679687500000, -2.515625000000, -4.945312500000, 1490689221
-0.839843750000, -0.087158203125, 0.482421875000, -4.679687500000, -2.515625000000, -4.945312500000, 1490689221
-0.839843750000, -0.087158203125, 0.482421875000, -4.679687500000, -2.515625000000, -4.945312500000, 1490689221
-0.839843750000, -0.087158203125, 0.482421875000, -4.679687500000, -2.515625000000, -4.945312500000, 1490689221
-0.839843750000, -0.087158203125, 0.482421875000, -4.679687500000, -2.515625000000, -4.945312500000, 1490689221
-0.827392578125, -0.211181640625, 0.537353515625, -4.250000000000, -3.054687500000, -1.679687500000, 1490689221
-0.827392578125, -0.211181640625, 0.537353515625, -4.250000000000, -3.054687500000, -1.679687500000, 1490689221
-0.827392578125, -0.211181640625, 0.537353515625, -4.250000000000, -3.054687500000, -1.679687500000, 1490689221
-0.827392578125, -0.211181640625, 0.537353515625, -4.250000000000, -3.054687500000, -1.679687500000, 1490689221
-0.827392578125, -0.211181640625, 0.537353515625, -4.250000000000, -3.054687500000, -1.679687500000, 1490689221
-0.749267578125, -0.109863281250, 0.488525390625, -4.234375000000, 0.453125000000, -2.484375000000, 1490689221
-0.749267578125, -0.109863281250, 0.488525390625, -4.234375000000, 0.453125000000, -2.484375000000, 1490689221
-0.749267578125, -0.109863281250, 0.488525390625, -4.234375000000, 0.453125000000, -2.484375000000, 1490689221
-0.798339843750, -0.134033203125, 0.480957031250, -3.539062500000, -1.031250000000, -1.750000000000, 1490689221
-0.798339843750, -0.134033203125, 0.480957031250, -3.539062500000, -1.031250000000, -1.750000000000, 1490689221
-0.798339843750, -0.134033203125, 0.480957031250, -3.539062500000, -1.031250000000, -1.750000000000, 1490689221
-0.932373046875, -0.089355468750, 0.501220703125, -4.671875000000, -2.453125000000, -6.328125000000, 1490689221
-0.932373046875, -0.089355468750, 0.501220703125, -4.671875000000, -2.453125000000, -6.328125000000, 1490689221
-0.932373046875, -0.089355468750, 0.501220703125, -4.671875000000, -2.453125000000, -6.328125000000, 1490689221
-0.886962890625, -0.161621093750, 0.494873046875, -1.992187500000, -2.703125000000, -4.312500000000, 1490689221
-0.886962890625, -0.161621093750, 0.494873046875, -1.992187500000, -2.703125000000, -4.312500000000, 1490689221
-0.886962890625, -0.161621093750, 0.494873046875, -1.992187500000, -2.703125000000, -4.312500000000, 1490689221
-0.886962890625, -0.161621093750, 0.494873046875, -3.460937500000, -1.039062500000, -3.125000000000, 1490689221
-0.789550781250, 0.016845703125, 0.526367187500, -3.312500000000, 0.171875000000, -1.554687500000, 1490689221
-0.789550781250, 0.016845703125, 0.526367187500, -3.312500000000, 0.171875000000, -1.554687500000, 1490689221
-0.789550781250, 0.016845703125, 0.526367187500, -3.312500000000, 0.171875000000, -1.554687500000, 1490689221
-0.954589843750, -0.052978515625, 0.473388671875, -1.664062500000, -0.984375000000, -4.164062500000, 1490689221
-0.954589843750, -0.052978515625, 0.473388671875, -1.664062500000, -0.984375000000, -4.164062500000, 1490689221
-0.954589843750, -0.052978515625, 0.473388671875, -1.664062500000, -0.984375000000, -4.164062500000, 1490689221
-0.796386718750, -0.146240234375, 0.514892578125, -1.789062500000, 0.289062500000, -1.515625000000, 1490689221
-0.796386718750, -0.146240234375, 0.514892578125, -1.789062500000, 0.289062500000, -1.515625000000, 1490689221
-0.796386718750, -0.146240234375, 0.514892578125, -1.789062500000, 0.289062500000, -1.515625000000, 1490689221
-0.963378906250, -0.159912109375, 0.436523437500, -1.578125000000, 0.312500000000, -4.195312500000, 1490689221
-0.963378906250, -0.138671875000, 0.569335937500, -1.578125000000, 0.312500000000, -4.195312500000, 1490689221
-0.963378906250, -0.138671875000, 0.569335937500, -1.578125000000, 0.312500000000, -4.195312500000, 1490689221
-0.963378906250, -0.138671875000, 0.569335937500, -1.578125000000, 0.312500000000, -4.195312500000, 1490689221
-0.886474609375, -0.033691406250, 0.526123046875, -4.890625000000, 0.117187500000, -4.625000000000, 1490689221
-0.886474609375, -0.033691406250, 0.526123046875, -4.890625000000, 0.117187500000, -4.625000000000, 1490689221
-0.886474609375, -0.033691406250, 0.526123046875, -4.890625000000, 0.117187500000, -4.625000000000, 1490689221
-0.783935546875, -0.120361328125, 0.436523437500, -3.914062500000, 2.710937500000, -4.843750000000, 1490689221
-0.783935546875, -0.120361328125, 0.436523437500, -3.914062500000, 2.710937500000, -4.843750000000, 1490689221
-0.783935546875, -0.120361328125, 0.436523437500, -3.914062500000, 2.710937500000, -4.843750000000, 1490689221
