ACC_X,ACC_Y,ACC_Z,G_X,G_Y,G_Z,Unix Time
-0.142333984375, 1.025146484375, -0.201171875000, 180.234375000000, -163.375000000000, 19.515625000000, 1490856136
-0.142333984375, 1.025146484375, -0.201171875000, 180.234375000000, -163.375000000000, 19.515625000000, 1490856136
-0.142333984375, 1.025146484375, -0.201171875000, 180.234375000000, -163.375000000000, 19.515625000000, 1490856136
0.055419921875, 1.109863281250, -0.515136718750, 253.992187500000, -43.054687500000, -7.906250000000, 1490856136
0.055419921875, 1.109863281250, -0.515136718750, 253.992187500000, -43.054687500000, -7.906250000000, 1490856136
0.055419921875, 1.109863281250, -0.515136718750, 253.992187500000, -43.054687500000, -7.906250000000, 1490856136
0.055419921875, 1.109863281250, -0.515136718750, 253.992187500000, -43.054687500000, -7.906250000000, 1490856136
0.014404296875, 1.016113281250, -1.308349609375, 35.882812500000, -6.351562500000, 7.867187500000, 1490856136
0.014404296875, 1.016113281250, -1.308349609375, 35.882812500000, -6.351562500000, 7.867187500000, 1490856136
0.014404296875, 1.016113281250, -1.308349609375, 35.882812500000, -6.351562500000, 7.867187500000, 1490856136
0.136718750000, 1.143310546875, -0.257568359375, -104.031250000000, -2.867187500000, -13.515625000000, 1490856136
0.136718750000, 1.143310546875, -0.257568359375, -104.031250000000, -2.867187500000, -13.515625000000, 1490856136
0.136718750000, 1.143310546875, -0.257568359375, -104.031250000000, -2.867187500000, -13.515625000000, 1490856136
0.128173828125, 1.123046875000, -0.194091796875, -120.882812500000, 14.828125000000, -25.960937500000, 1490856136
0.346679687500, 1.047851562500, -0.221435546875, 32.921875000000, 15.742187500000, 20.492187500000, 1490856136
0.346679687500, 1.047851562500, -0.221435546875, 32.921875000000, 15.742187500000, 20.492187500000, 1490856136
0.346679687500, 1.047851562500, -0.221435546875, 32.921875000000, 15.742187500000, 20.492187500000, 1490856136
0.272216796875, 1.376708984375, -0.287841796875, 44.351562500000, 8.078125000000, 13.523437500000, 1490856136
0.055175781250, 1.136718750000, -0.452636718750, 1.171875000000, 28.007812500000, 59.195312500000, 1490856136
0.055175781250, 1.136718750000, -0.452636718750, 1.171875000000, 28.007812500000, 59.195312500000, 1490856136
0.055175781250, 1.136718750000, -0.452636718750, 1.171875000000, 28.007812500000, 59.195312500000, 1490856136
0.361328125000, 1.085205078125, -0.221923828125, -83.648437500000, -75.757812500000, -0.617187500000, 1490856136
0.313720703125, 0.944580078125, -0.105468750000, -83.648437500000, -75.757812500000, -0.617187500000, 1490856136
0.313720703125, 0.944580078125, -0.105468750000, -83.648437500000, -75.757812500000, -0.617187500000, 1490856136
0.313720703125, 0.944580078125, -0.105468750000, -83.648437500000, -75.757812500000, -0.617187500000, 1490856136
0.313720703125, 0.944580078125, -0.105468750000, -83.648437500000, -75.757812500000, -0.617187500000, 1490856136
0.050048828125, 1.092773437500, -0.104003906250, -256.000000000000, -61.796875000000, -9.218750000000, 1490856137
0.050048828125, 1.092773437500, -0.104003906250, -256.000000000000, -61.796875000000, -9.218750000000, 1490856137
0.050048828125, 1.092773437500, -0.104003906250, -256.000000000000, -61.796875000000, -9.218750000000, 1490856137
-0.084960937500, 0.949218750000, -0.137695312500, -98.781250000000, 70.445312500000, -27.757812500000, 1490856137
-0.084960937500, 0.949218750000, -0.137695312500, -98.781250000000, 70.445312500000, -27.757812500000, 1490856137
-0.084960937500, 0.949218750000, -0.137695312500, -98.781250000000, 70.445312500000, -27.757812500000, 1490856137
-0.084960937500, 0.949218750000, -0.137695312500, -98.781250000000, 70.445312500000, -27.757812500000, 1490856137
0.201171875000, 0.807128906250, -0.147216796875, 20.820312500000, 240.617187500000, 1.203125000000, 1490856137
0.201171875000, 0.807128906250, -0.147216796875, 20.820312500000, 240.617187500000, 1.203125000000, 1490856137
0.201171875000, 0.807128906250, -0.147216796875, 20.820312500000, 240.617187500000, 1.203125000000, 1490856137
0.502441406250, 0.812988281250, -0.287109375000, 122.843750000000, 13.515625000000, 57.117187500000, 1490856137
0.502441406250, 0.812988281250, -0.287109375000, 122.843750000000, 13.515625000000, 57.117187500000, 1490856137
0.502441406250, 0.812988281250, -0.287109375000, 122.843750000000, 13.515625000000, 57.117187500000, 1490856137
0.328369140625, 0.708496093750, -0.245361328125, 91.835937500000, -256.000000000000, -23.750000000000, 1490856137
0.328369140625, 0.708496093750, -0.245361328125, 91.835937500000, -256.000000000000, -23.750000000000, 1490856137
0.328369140625, 0.708496093750, -0.245361328125, 91.835937500000, -256.000000000000, -23.750000000000, 1490856137
0.063964843750, 0.832519531250, -0.059082031250, 103.000000000000, -212.789062500000, -54.796875000000, 1490856137
0.063964843750, 0.832519531250, -0.059082031250, 103.000000000000, -212.789062500000, -54.796875000000, 1490856137
0.063964843750, 0.832519531250, -0.059082031250, 103.000000000000, -212.789062500000, -54.796875000000, 1490856137
-0.071777343750, 0.805419921875, -0.451416015625, 135.757812500000, -25.609375000000, 17.507812500000, 1490856137
-0.071777343750, 0.805419921875, -0.451416015625, 135.757812500000, -25.609375000000, 17.507812500000, 1490856137
-0.071777343750, 0.805419921875, -0.451416015625, 135.757812500000, -25.609375000000, 17.507812500000, 1490856137
-0.071777343750, 0.805419921875, -0.451416015625, 135.757812500000, -25.609375000000, 17.507812500000, 1490856137
-0.077880859375, 1.029052734375, -0.451660156250, 36.843750000000, -73.945312500000, -7.476562500000, 1490856137
-0.077880859375, 1.029052734375, -0.451660156250, 36.843750000000, -73.945312500000, -7.476562500000, 1490856137
-0.077880859375, 1.029052734375, -0.451660156250, 36.843750000000, -73.945312500000, -7.476562500000, 1490856137
-0.144775390625, 1.123291015625, -0.359863281250, -20.039062500000, -54.679687500000, 1.453125000000, 1490856137
-0.144775390625, 1.123291015625, -0.359863281250, -20.039062500000, -54.679687500000, 1.453125000000, 1490856137
-0.144775390625, 1.123291015625, -0.359863281250, -20.039062500000, -54.679687500000, 1.453125000000, 1490856137
-0.275634765625, 1.393310546875, -0.481689453125, -1.484375000000, -41.640625000000, 1.367187500000, 1490856137
-0.275634765625, 1.393310546875, -0.481689453125, -1.484375000000, -41.640625000000, 1.367187500000, 1490856137
-0.275634765625, 1.393310546875, -0.481689453125, -1.484375000000, -41.640625000000, 1.367187500000, 1490856137
-0.275634765625, 1.393310546875, -0.481689453125, -1.484375000000, -41.640625000000, 1.367187500000, 1490856137
-0.040527343750, 1.451660156250, -0.547851562500, -36.882812500000, -40.039062500000, 18.750000000000, 1490856137
0.056640625000, 0.920410156250, -0.149658203125, -91.601562500000, 69.171875000000, 26.031250000000, 1490856137
0.056640625000, 0.920410156250, -0.149658203125, -91.601562500000, 69.171875000000, 26.031250000000, 1490856137
0.056640625000, 0.920410156250, -0.149658203125, -91.601562500000, 69.171875000000, 26.031250000000, 1490856137
0.056640625000, 0.920410156250, -0.149658203125, -91.601562500000, 69.171875000000, 26.031250000000, 1490856137
0.056640625000, 0.920410156250, -0.149658203125, -91.601562500000, 69.171875000000, 26.031250000000, 1490856137
0.226318359375, 0.897460937500, -0.268554687500, -147.445312500000, 93.492187500000, 30.867187500000, 1490856137
0.226318359375, 0.897460937500, -0.268554687500, -147.445312500000, 93.492187500000, 30.867187500000, 1490856137
0.226318359375, 0.897460937500, -0.268554687500, -147.445312500000, 93.492187500000, 30.867187500000, 1490856137
0.190185546875, 0.833007812500, -0.053222656250, -113.007812500000, -41.015625000000, -107.296875000000, 1490856137
0.190185546875, 0.833007812500, -0.053222656250, -113.007812500000, -41.015625000000, -107.296875000000, 1490856137
0.190185546875, 0.833007812500, -0.053222656250, -113.007812500000, -41.015625000000, -107.296875000000, 1490856137
0.190185546875, 0.833007812500, -0.053222656250, -113.007812500000, -41.015625000000, -107.296875000000, 1490856137
0.148193359375, 0.824707031250, -0.140380859375, -19.781250000000, 22.375000000000, -3.234375000000, 1490856137
0.148193359375, 0.824707031250, -0.140380859375, -19.781250000000, 22.375000000000, -3.234375000000, 1490856137
0.148193359375, 0.824707031250, -0.140380859375, -19.781250000000, 22.375000000000, -3.234375000000, 1490856137
0.033935546875, 0.790527343750, -0.128173828125, 110.679687500000, 18.632812500000, 23.125000000000, 1490856137
0.033935546875, 0.790527343750, -0.128173828125, 110.679687500000, 18.632812500000, 23.125000000000, 1490856137
0.033935546875, 0.790527343750, -0.128173828125, 110.679687500000, 18.632812500000, 23.125000000000, 1490856137
-0.058593750000, 0.874755859375, -0.270019531250, 131.382812500000, -54.273437500000, 85.390625000000, 1490856137
-0.058593750000, 0.874755859375, -0.270019531250, 131.382812500000, -54.273437500000, 85.390625000000, 1490856137
-0.058593750000, 0.874755859375, -0.270019531250, 131.382812500000, -54.273437500000, 85.390625000000, 1490856137
-0.220703125000, 1.025878906250, -0.393798828125, 158.617187500000, -234.867187500000, -45.976562500000, 1490856137
-0.220703125000, 1.025878906250, -0.393798828125, 158.617187500000, -234.867187500000, -45.976562500000, 1490856137
-0.220703125000, 1.025878906250, -0.393798828125, 158.617187500000, -234.867187500000, -45.976562500000, 1490856137
-0.220703125000, 1.025878906250, -0.393798828125, 158.617187500000, -234.867187500000, -45.976562500000, 1490856137
-0.016845703125, 0.937988281250, -0.789062500000, 168.328125000000, 102.617187500000, 31.000000000000, 1490856137
-0.016845703125, 0.937988281250, -0.789062500000, 168.328125000000, 102.617187500000, 31.000000000000, 1490856137
-0.016845703125, 0.937988281250, -0.789062500000, 168.328125000000, 102.617187500000, 31.000000000000, 1490856137
-0.209960937500, 0.901611328125, -0.582519531250, -79.281250000000, 65.687500000000, 17.859375000000, 1490856137
-0.209960937500, 0.901611328125, -0.582519531250, -79.281250000000, 65.687500000000, 17.859375000000, 1490856137
-0.209960937500, 0.901611328125, -0.582519531250, -79.281250000000, 65.687500000000, 17.859375000000, 1490856137
-0.141845703125, 0.979492187500, -0.262451171875, -106.367187500000, 92.546875000000, 32.664062500000, 1490856137
-0.141845703125, 0.979492187500, -0.262451171875, -106.367187500000, 92.546875000000, 32.664062500000, 1490856138
-0.141845703125, 0.979492187500, -0.262451171875, -106.367187500000, 92.546875000000, 32.664062500000, 1490856138
-0.041503906250, 1.145751953125, -0.251708984375, 11.929687500000, 64.335937500000, 7.445312500000, 1490856138
-0.041503906250, 1.145751953125, -0.251708984375, 11.929687500000, 64.335937500000, 7.445312500000, 1490856138
-0.041503906250, 1.145751953125, -0.251708984375, 11.929687500000, 64.335937500000, 7.445312500000, 1490856138
-0.041503906250, 1.145751953125, -0.251708984375, 11.929687500000, 64.335937500000, 7.445312500000, 1490856138
-0.213867187500, 1.253662109375, -0.282470703125, -5.851562500000, 69.960937500000, -6.296875000000, 1490856138
-0.213867187500, 1.253662109375, -0.282470703125, -5.851562500000, 69.960937500000, -6.296875000000, 1490856138
-0.213867187500, 1.253662109375, -0.282470703125, -5.851562500000, 69.960937500000, -6.296875000000, 1490856138
-0.290283203125, 1.262451171875, -0.246826171875, -64.632812500000, 67.906250000000, 34.289062500000, 1490856138
-0.290283203125, 1.262451171875, -0.246826171875, -64.632812500000, 67.906250000000, 34.289062500000, 1490856138
-0.450927734375, 0.923095703125, -0.131103515625, -89.140625000000, 159.320312500000, 99.726562500000, 1490856138
-0.450927734375, 0.923095703125, -0.131103515625, -89.140625000000, 159.320312500000, 99.726562500000, 1490856138
-0.450927734375, 0.923095703125, -0.131103515625, -89.140625000000, 159.320312500000, 99.726562500000, 1490856138
-0.450927734375, 0.923095703125, -0.131103515625, -89.140625000000, 159.320312500000, 99.726562500000, 1490856138
-0.335937500000, 0.928222656250, -0.153564453125, -30.703125000000, 253.992187500000, 121.351562500000, 1490856138
-0.335937500000, 0.928222656250, -0.153564453125, -30.703125000000, 253.992187500000, 121.351562500000, 1490856138
-0.335937500000, 0.928222656250, -0.153564453125, -30.703125000000, 253.992187500000, 121.351562500000, 1490856138
-0.335937500000, 0.928222656250, -0.153564453125, -30.703125000000, 253.992187500000, 121.351562500000, 1490856138
-0.205078125000, 0.918212890625, -0.171142578125, 70.585937500000, 253.992187500000, 94.734375000000, 1490856138
-0.205078125000, 0.918212890625, -0.171142578125, 70.585937500000, 253.992187500000, 94.734375000000, 1490856138
-0.205078125000, 0.918212890625, -0.171142578125, 70.585937500000, 253.992187500000, 94.734375000000, 1490856138
-0.169677734375, 0.883056640625, -0.174072265625, 22.515625000000, 210.562500000000, 46.273437500000, 1490856138
-0.169677734375, 0.883056640625, -0.174072265625, 22.515625000000, 210.562500000000, 46.273437500000, 1490856138
-0.169677734375, 0.883056640625, -0.174072265625, 22.515625000000, 210.562500000000, 46.273437500000, 1490856138
-0.202636718750, 0.829101562500, -0.156005859375, -28.828125000000, 86.281250000000, 52.953125000000, 1490856138
-0.202636718750, 0.829101562500, -0.156005859375, -28.828125000000, 86.281250000000, 52.953125000000, 1490856138
-0.202636718750, 0.829101562500, -0.156005859375, -28.828125000000, 86.281250000000, 52.953125000000, 1490856138
0.010009765625, 0.770019531250, -0.116943359375, 12.406250000000, -62.085937500000, 1.304687500000, 1490856138
0.010009765625, 0.770019531250, -0.116943359375, 12.406250000000, -62.085937500000, 1.304687500000, 1490856138
0.010009765625, 0.770019531250, -0.116943359375, 12.406250000000, -62.085937500000, 1.304687500000, 1490856138
0.010009765625, 0.770019531250, -0.116943359375, 12.406250000000, -62.085937500000, 1.304687500000, 1490856138
0.098388671875, 1.013671875000, -0.191406250000, 125.679687500000, -171.273437500000, 36.554687500000, 1490856138
0.098388671875, 1.013671875000, -0.191406250000, 125.679687500000, -171.273437500000, 36.554687500000, 1490856138
0.098388671875, 1.013671875000, -0.191406250000, 125.679687500000, -171.273437500000, 36.554687500000, 1490856138
-0.118896484375, 1.152343750000, -0.403320312500, 253.992187500000, -47.281250000000, -99.875000000000, 1490856138
-0.118896484375, 1.152343750000, -0.403320312500, 253.992187500000, -47.281250000000, -99.875000000000, 1490856138
-0.118896484375, 1.152343750000, -0.403320312500, 253.992187500000, -47.281250000000, -99.875000000000, 1490856138
-0.209228515625, 0.993408203125, -1.267822265625, 92.773437500000, 113.976562500000, -24.531250000000, 1490856138
-0.209228515625, 0.993408203125, -1.267822265625, 92.773437500000, 113.976562500000, -24.531250000000, 1490856138
-0.209228515625, 0.993408203125, -1.267822265625, 92.773437500000, 113.976562500000, -24.531250000000, 1490856138
0.000976562500, 1.270996093750, -0.242919921875, -170.523437500000, 100.039062500000, -23.421875000000, 1490856138
0.000976562500, 1.270996093750, -0.242919921875, -170.523437500000, 100.039062500000, -23.421875000000, 1490856138
0.000976562500, 1.270996093750, -0.242919921875, -170.523437500000, 100.039062500000, -23.421875000000, 1490856138
0.000976562500, 1.270996093750, -0.242919921875, -170.523437500000, 100.039062500000, -23.421875000000, 1490856138
-0.002685546875, 1.172607421875, -0.307373046875, -221.992187500000, 82.304687500000, -68.976562500000, 1490856138
-0.002685546875, 1.172607421875, -0.307373046875, -221.992187500000, 82.304687500000, -68.976562500000, 1490856138
-0.002685546875, 1.172607421875, -0.307373046875, -221.992187500000, 82.304687500000, -68.976562500000, 1490856138
-0.003173828125, 0.982421875000, -0.253417968750, -62.718750000000, 64.789062500000, -52.539062500000, 1490856138
-0.003173828125, 0.982421875000, -0.253417968750, -62.718750000000, 64.789062500000, -52.539062500000, 1490856138
-0.003173828125, 0.982421875000, -0.253417968750, -62.718750000000, 64.789062500000, -52.539062500000, 1490856138
0.126220703125, 0.927246093750, -0.217529296875, -80.179687500000, 51.828125000000, -5.250000000000, 1490856138
0.126220703125, 0.927246093750, -0.217529296875, -80.179687500000, 51.828125000000, -5.250000000000, 1490856138
0.126220703125, 0.927246093750, -0.217529296875, -80.179687500000, 51.828125000000, -5.250000000000, 1490856138
0.185791015625, 0.869873046875, -0.194091796875, -46.117187500000, 23.210937500000, -17.195312500000, 1490856138
0.185791015625, 0.869873046875, -0.194091796875, -46.117187500000, 23.210937500000, -17.195312500000, 1490856138
0.185791015625, 0.869873046875, -0.194091796875, -46.117187500000, 23.210937500000, -17.195312500000, 1490856138
0.185791015625, 0.869873046875, -0.194091796875, -46.117187500000, 23.210937500000, -17.195312500000, 1490856138
0.063964843750, 1.003662109375, -0.191406250000, 42.531250000000, 59.320312500000, 13.742187500000, 1490856138
0.063964843750, 1.003662109375, -0.191406250000, 42.531250000000, 59.320312500000, 13.742187500000, 1490856138
0.063964843750, 1.003662109375, -0.191406250000, 42.531250000000, 59.320312500000, 13.742187500000, 1490856138
-0.061767578125, 0.853027343750, -0.209716796875, 169.882812500000, 96.695312500000, 77.703125000000, 1490856138
-0.061767578125, 0.853027343750, -0.209716796875, 169.882812500000, 96.695312500000, 77.703125000000, 1490856138
-0.061767578125, 0.853027343750, -0.209716796875, 169.882812500000, 96.695312500000, 77.703125000000, 1490856138
-0.008300781250, 0.900878906250, -0.359619140625, 188.039062500000, 195.890625000000, 70.375000000000, 1490856138
-0.008300781250, 0.900878906250, -0.359619140625, 188.039062500000, 195.890625000000, 70.375000000000, 1490856138
-0.008300781250, 0.900878906250, -0.359619140625, 188.039062500000, 195.890625000000, 70.375000000000, 1490856138
0.229980468750, 0.960693359375, -0.320068359375, -31.921875000000, 145.976562500000, 9.406250000000, 1490856139
0.229980468750, 0.960693359375, -0.320068359375, -31.921875000000, 145.976562500000, 9.406250000000, 1490856139
0.229980468750, 0.960693359375, -0.320068359375, -31.921875000000, 145.976562500000, 9.406250000000, 1490856139
0.229980468750, 0.960693359375, -0.320068359375, -31.921875000000, 145.976562500000, 9.406250000000, 1490856139
0.296875000000, 0.958740234375, -0.173828125000, -141.921875000000, 130.593750000000, -13.609375000000, 1490856139
0.296875000000, 0.958740234375, -0.173828125000, -141.921875000000, 130.593750000000, -13.609375000000, 1490856139
0.296875000000, 0.958740234375, -0.173828125000, -141.921875000000, 130.593750000000, -13.609375000000, 1490856139
0.333740234375, 1.015380859375, -0.195312500000, -86.382812500000, 113.164062500000, -22.585937500000, 1490856139
0.333740234375, 1.015380859375, -0.195312500000, -86.382812500000, 113.164062500000, -22.585937500000, 1490856139
0.314697265625, 1.021972656250, -0.212158203125, -70.671875000000, 77.031250000000, -4.976562500000, 1490856139
0.243652343750, 0.988525390625, -0.097412109375, -37.609375000000, 60.820312500000, -17.125000000000, 1490856139
0.243652343750, 0.988525390625, -0.097412109375, -37.609375000000, 60.820312500000, -17.125000000000, 1490856139
0.243652343750, 0.988525390625, -0.097412109375, -37.609375000000, 60.820312500000, -17.125000000000, 1490856139
0.319580078125, 1.004638671875, -0.290527343750, 71.734375000000, 26.859375000000, -7.265625000000, 1490856139
0.319580078125, 1.004638671875, -0.290527343750, 71.734375000000, 26.859375000000, -7.265625000000, 1490856139
0.319580078125, 1.004638671875, -0.290527343750, 71.734375000000, 26.859375000000, -7.265625000000, 1490856139
0.319580078125, 1.004638671875, -0.290527343750, 71.734375000000, 26.859375000000, -7.265625000000, 1490856139
0.071044921875, 1.187988281250, -0.470458984375, 143.687500000000, -5.210937500000, -28.015625000000, 1490856139
0.071044921875, 1.187988281250, -0.470458984375, 143.687500000000, -5.210937500000, -28.015625000000, 1490856139
0.071044921875, 1.187988281250, -0.470458984375, 143.687500000000, -5.210937500000, -28.015625000000, 1490856139
0.023681640625, 1.275390625000, -0.729980468750, -87.632812500000, 65.046875000000, 25.976562500000, 1490856139
0.023681640625, 1.275390625000, -0.729980468750, -87.632812500000, 65.046875000000, 25.976562500000, 1490856139
0.023681640625, 1.275390625000, -0.729980468750, -87.632812500000, 65.046875000000, 25.976562500000, 1490856139
0.205566406250, 1.125000000000, -0.400634765625, -175.289062500000, 64.640625000000, -13.429687500000, 1490856139
0.205566406250, 1.125000000000, -0.400634765625, -175.289062500000, 64.640625000000, -13.429687500000, 1490856139
0.205566406250, 1.125000000000, -0.400634765625, -175.289062500000, 64.640625000000, -13.429687500000, 1490856139
0.133544921875, 1.144287109375, -0.027343750000, -175.671875000000, 64.648437500000, 9.234375000000, 1490856139
0.133544921875, 1.144287109375, -0.027343750000, -175.671875000000, 64.648437500000, 9.234375000000, 1490856139
0.133544921875, 1.144287109375, -0.027343750000, -175.671875000000, 64.648437500000, 9.234375000000, 1490856139
0.132080078125, 1.019042968750, -0.173095703125, -200.101562500000, 71.757812500000, 68.773437500000, 1490856139
0.192871093750, 0.852539062500, -0.073974609375, -151.531250000000, 79.617187500000, 72.914062500000, 1490856139
0.192871093750, 0.852539062500, -0.073974609375, -151.531250000000, 79.617187500000, 72.914062500000, 1490856139
0.192871093750, 0.852539062500, -0.073974609375, -151.531250000000, 79.617187500000, 72.914062500000, 1490856139
0.109863281250, 0.887207031250, -0.074462890625, -38.109375000000, 108.156250000000, 52.851562500000, 1490856139
0.109863281250, 0.887207031250, -0.074462890625, -38.109375000000, 108.156250000000, 52.851562500000, 1490856139
0.109863281250, 0.887207031250, -0.074462890625, -38.109375000000, 108.156250000000, 52.851562500000, 1490856139
0.113281250000, 0.746093750000, -0.045654296875, 44.187500000000, 137.695312500000, 31.078125000000, 1490856139
0.113281250000, 0.746093750000, -0.045654296875, 44.187500000000, 137.695312500000, 31.078125000000, 1490856139
0.113281250000, 0.746093750000, -0.045654296875, 44.187500000000, 137.695312500000, 31.078125000000, 1490856139
0.403320312500, 0.795410156250, -0.169677734375, 123.742187500000, 186.085937500000, 44.289062500000, 1490856139
0.403320312500, 0.795410156250, -0.169677734375, 123.742187500000, 186.085937500000, 44.289062500000, 1490856139
0.403320312500, 0.795410156250, -0.169677734375, 123.742187500000, 186.085937500000, 44.289062500000, 1490856139
0.501464843750, 0.915527343750, -0.261962890625, 195.898437500000, 176.460937500000, 91.476562500000, 1490856139
0.501464843750, 0.915527343750, -0.261962890625, 195.898437500000, 176.460937500000, 91.476562500000, 1490856139
0.501464843750, 0.915527343750, -0.261962890625, 195.898437500000, 176.460937500000, 91.476562500000, 1490856139
0.501464843750, 0.915527343750, -0.261962890625, 195.898437500000, 176.460937500000, 91.476562500000, 1490856139
0.190185546875, 1.031738281250, -0.587402343750, 177.062500000000, -99.906250000000, -8.734375000000, 1490856139
0.190185546875, 1.031738281250, -0.587402343750, 177.062500000000, -99.906250000000, -8.734375000000, 1490856139
0.190185546875, 1.031738281250, -0.587402343750, 177.062500000000, -99.906250000000, -8.734375000000, 1490856139
0.245849609375, 0.915527343750, -0.482910156250, -73.718750000000, 63.203125000000, 20.265625000000, 1490856139
0.245849609375, 0.915527343750, -0.482910156250, -73.718750000000, 63.203125000000, 20.265625000000, 1490856139
0.245849609375, 0.915527343750, -0.482910156250, -73.718750000000, 63.203125000000, 20.265625000000, 1490856139
0.149414062500, 1.223876953125, -0.222167968750, -204.500000000000, 12.289062500000, 33.351562500000, 1490856139
0.149414062500, 1.223876953125, -0.222167968750, -204.500000000000, 12.289062500000, 33.351562500000, 1490856139
0.149414062500, 1.223876953125, -0.222167968750, -204.500000000000, 12.289062500000, 33.351562500000, 1490856139
0.149414062500, 1.223876953125, -0.222167968750, -204.500000000000, 12.289062500000, 33.351562500000, 1490856139
0.194091796875, 1.059570312500, -0.216796875000, -28.640625000000, -31.328125000000, 14.140625000000, 1490856139
0.194091796875, 1.059570312500, -0.216796875000, -28.640625000000, -31.328125000000, 14.140625000000, 1490856139
0.194091796875, 1.059570312500, -0.216796875000, -28.640625000000, -31.328125000000, 14.140625000000, 1490856139
0.246582031250, 1.188476562500, -0.241210937500, 16.078125000000, -40.882812500000, 14.789062500000, 1490856139
0.246582031250, 1.188476562500, -0.241210937500, 16.078125000000, -40.882812500000, 14.789062500000, 1490856139
0.246582031250, 1.188476562500, -0.241210937500, 16.078125000000, -40.882812500000, 14.789062500000, 1490856139
0.143310546875, 1.129882812500, -0.372070312500, -2.210937500000, 75.320312500000, -1.640625000000, 1490856139
0.143310546875, 1.129882812500, -0.372070312500, -2.210937500000, 75.320312500000, -1.640625000000, 1490856139
0.143310546875, 1.129882812500, -0.372070312500, -2.210937500000, 75.320312500000, -1.640625000000, 1490856139
0.228759765625, 0.825927734375, -0.192626953125, -117.218750000000, 15.804687500000, -28.835937500000, 1490856139
0.228759765625, 0.825927734375, -0.192626953125, -117.218750000000, 15.804687500000, -28.835937500000, 1490856140
0.228759765625, 0.825927734375, -0.192626953125, -117.218750000000, 15.804687500000, -28.835937500000, 1490856140
0.228759765625, 0.825927734375, -0.192626953125, -117.218750000000, 15.804687500000, -28.835937500000, 1490856140
0.267578125000, 0.791503906250, -0.021728515625, -151.976562500000, -16.367187500000, -86.117187500000, 1490856140
0.267578125000, 0.791503906250, -0.021728515625, -151.976562500000, -16.367187500000, -86.117187500000, 1490856140
0.267578125000, 0.791503906250, -0.021728515625, -151.976562500000, -16.367187500000, -86.117187500000, 1490856140
0.582519531250, 0.882324218750, -0.107421875000, -26.890625000000, -138.281250000000, -4.968750000000, 1490856140
0.582519531250, 0.882324218750, -0.107421875000, -26.890625000000, -138.281250000000, -4.968750000000, 1490856140
0.582519531250, 0.882324218750, -0.107421875000, -26.890625000000, -138.281250000000, -4.968750000000, 1490856140
0.248779296875, 0.903808593750, 0.015625000000, 54.070312500000, -194.031250000000, -72.546875000000, 1490856140
0.248779296875, 0.903808593750, 0.015625000000, 54.070312500000, -194.031250000000, -72.546875000000, 1490856140
0.248779296875, 0.903808593750, 0.015625000000, 54.070312500000, -194.031250000000, -72.546875000000, 1490856140
0.380615234375, 0.792480468750, -0.256591796875, 142.742187500000, -104.375000000000, -10.976562500000, 1490856140
0.380615234375, 0.792480468750, -0.256591796875, 142.742187500000, -104.375000000000, -10.976562500000, 1490856140
0.380615234375, 0.792480468750, -0.256591796875, 142.742187500000, -104.375000000000, -10.976562500000, 1490856140
0.380615234375, 0.792480468750, -0.256591796875, 142.742187500000, -104.375000000000, -10.976562500000, 1490856140
0.423583984375, 0.891601562500, -0.535156250000, 117.703125000000, -62.578125000000, -13.015625000000, 1490856140
0.423583984375, 0.891601562500, -0.535156250000, 117.703125000000, -62.578125000000, -13.015625000000, 1490856140
0.423583984375, 0.891601562500, -0.535156250000, 117.703125000000, -62.578125000000, -13.015625000000, 1490856140
0.423583984375, 0.891601562500, -0.535156250000, 117.703125000000, -62.578125000000, -13.015625000000, 1490856140
0.423583984375, 0.891601562500, -0.535156250000, 117.703125000000, -62.578125000000, -13.015625000000, 1490856140
0.276611328125, 0.813476562500, -0.497070312500, -42.828125000000, -32.750000000000, -19.781250000000, 1490856140
0.276611328125, 0.813476562500, -0.497070312500, -42.828125000000, -32.750000000000, -19.781250000000, 1490856140
0.276611328125, 0.813476562500, -0.497070312500, -42.828125000000, -32.750000000000, -19.781250000000, 1490856140
0.276611328125, 0.813476562500, -0.497070312500, -42.828125000000, -32.750000000000, -19.781250000000, 1490856140
0.239990234375, 0.912841796875, -0.102539062500, -95.062500000000, -13.101562500000, -1.921875000000, 1490856140
0.239990234375, 0.912841796875, -0.102539062500, -95.062500000000, -13.101562500000, -1.921875000000, 1490856140
0.239990234375, 0.912841796875, -0.102539062500, -95.062500000000, -13.101562500000, -1.921875000000, 1490856140
0.239990234375, 0.912841796875, -0.102539062500, -95.062500000000, -13.101562500000, -1.921875000000, 1490856140
0.461669921875, 1.105468750000, -0.184082031250, -28.828125000000, -36.960937500000, 1.359375000000, 1490856140
0.461669921875, 1.105468750000, -0.184082031250, -28.828125000000, -36.960937500000, 1.359375000000, 1490856140
0.461669921875, 1.105468750000, -0.184082031250, -28.828125000000, -36.960937500000, 1.359375000000, 1490856140
0.461669921875, 1.105468750000, -0.184082031250, -28.828125000000, -36.960937500000, 1.359375000000, 1490856140
0.281494140625, 1.035156250000, -0.199462890625, 5.804687500000, -43.687500000000, 10.523437500000, 1490856140
0.281494140625, 1.035156250000, -0.199462890625, 5.804687500000, -43.687500000000, 10.523437500000, 1490856140
0.281494140625, 1.035156250000, -0.199462890625, 5.804687500000, -43.687500000000, 10.523437500000, 1490856140
0.281494140625, 1.035156250000, -0.199462890625, 5.804687500000, -43.687500000000, 10.523437500000, 1490856140
0.281494140625, 1.035156250000, -0.199462890625, 5.804687500000, -43.687500000000, 10.523437500000, 1490856140
0.631591796875, 0.990966796875, -0.145263671875, -22.757812500000, -82.687500000000, -25.531250000000, 1490856140
0.631591796875, 0.990966796875, -0.145263671875, -22.757812500000, -82.687500000000, -25.531250000000, 1490856140
0.631591796875, 0.990966796875, -0.145263671875, -22.757812500000, -82.687500000000, -25.531250000000, 1490856140
0.631591796875, 0.990966796875, -0.145263671875, -22.757812500000, -82.687500000000, -25.531250000000, 1490856140
0.481689453125, 0.861328125000, -0.136474609375, 8.007812500000, -160.906250000000, -49.164062500000, 1490856140
0.481689453125, 0.861328125000, -0.136474609375, 8.007812500000, -160.906250000000, -49.164062500000, 1490856140
0.481689453125, 0.861328125000, -0.136474609375, 8.007812500000, -160.906250000000, -49.164062500000, 1490856140
0.519287109375, 0.958984375000, -0.040771484375, 11.875000000000, -254.085937500000, -77.414062500000, 1490856140
0.519287109375, 0.958984375000, -0.040771484375, 11.875000000000, -254.085937500000, -77.414062500000, 1490856140
0.519287109375, 0.958984375000, -0.040771484375, 11.875000000000, -254.085937500000, -77.414062500000, 1490856140
0.538818359375, 0.953857421875, -0.048828125000, 38.750000000000, -256.000000000000, -89.296875000000, 1490856140
0.538818359375, 0.953857421875, -0.048828125000, 38.750000000000, -256.000000000000, -89.296875000000, 1490856140
0.538818359375, 0.953857421875, -0.048828125000, 38.750000000000, -256.000000000000, -89.296875000000, 1490856140
0.330322265625, 0.965820312500, -0.088867187500, 3.789062500000, -202.523437500000, -112.945312500000, 1490856140
0.330322265625, 0.965820312500, -0.088867187500, 3.789062500000, -202.523437500000, -112.945312500000, 1490856140
0.330322265625, 0.965820312500, -0.088867187500, 3.789062500000, -202.523437500000, -112.945312500000, 1490856140
0.330322265625, 0.965820312500, -0.088867187500, 3.789062500000, -202.523437500000, -112.945312500000, 1490856140
-0.090820312500, 1.195800781250, -0.328613281250, -28.093750000000, -123.585937500000, -61.015625000000, 1490856140
-0.090820312500, 1.195800781250, -0.328613281250, -28.093750000000, -123.585937500000, -61.015625000000, 1490856140
-0.090820312500, 1.195800781250, -0.328613281250, -28.093750000000, -123.585937500000, -61.015625000000, 1490856140
-0.068847656250, 0.667724609375, -0.192626953125, 41.109375000000, -50.468750000000, -2.695312500000, 1490856140
-0.068847656250, 0.667724609375, -0.192626953125, 41.109375000000, -50.468750000000, -2.695312500000, 1490856140
-0.068847656250, 0.667724609375, -0.192626953125, 41.109375000000, -50.468750000000, -2.695312500000, 1490856140
0.044433593750, 0.814697265625, -0.175781250000, 66.210937500000, -59.226562500000, -11.039062500000, 1490856140
0.044433593750, 0.814697265625, -0.175781250000, 66.210937500000, -59.226562500000, -11.039062500000, 1490856140
0.044433593750, 0.814697265625, -0.175781250000, 66.210937500000, -59.226562500000, -11.039062500000, 1490856140
0.045410156250, 0.785644531250, -0.273681640625, 136.796875000000, -194.820312500000, -3.468750000000, 1490856140
0.045410156250, 0.785644531250, -0.273681640625, 136.796875000000, -194.820312500000, -3.468750000000, 1490856140
0.045410156250, 0.785644531250, -0.273681640625, 136.796875000000, -194.820312500000, -3.468750000000, 1490856140
0.045410156250, 0.785644531250, -0.273681640625, 136.796875000000, -194.820312500000, -3.468750000000, 1490856140
0.197753906250, 1.013183593750, -0.391357421875, 85.171875000000, -128.664062500000, -2.140625000000, 1490856141
0.197753906250, 1.013183593750, -0.391357421875, 85.171875000000, -128.664062500000, -2.140625000000, 1490856141
0.197753906250, 1.013183593750, -0.391357421875, 85.171875000000, -128.664062500000, -2.140625000000, 1490856141
0.046630859375, 1.188720703125, -0.416259765625, 28.765625000000, -162.015625000000, -41.718750000000, 1490856141
0.046630859375, 1.188720703125, -0.416259765625, 28.765625000000, -162.015625000000, -41.718750000000, 1490856141
0.046630859375, 1.188720703125, -0.416259765625, 28.765625000000, -162.015625000000, -41.718750000000, 1490856141
0.067382812500, 1.050292968750, -0.565673828125, -15.070312500000, -123.453125000000, -28.000000000000, 1490856141
0.067382812500, 1.050292968750, -0.565673828125, -15.070312500000, -123.453125000000, -28.000000000000, 1490856141
0.067382812500, 1.050292968750, -0.565673828125, -15.070312500000, -123.453125000000, -28.000000000000, 1490856141
0.135253906250, 1.388427734375, -0.346923828125, -117.734375000000, -46.312500000000, 15.757812500000, 1490856141
0.135253906250, 1.388427734375, -0.346923828125, -117.734375000000, -46.312500000000, 15.757812500000, 1490856141
0.135253906250, 1.388427734375, -0.346923828125, -117.734375000000, -46.312500000000, 15.757812500000, 1490856141
0.135253906250, 1.388427734375, -0.346923828125, -117.734375000000, -46.312500000000, 15.757812500000, 1490856141
0.239257812500, 0.967529296875, -0.096191406250, -111.593750000000, -40.359375000000, 19.273437500000, 1490856141
0.239257812500, 0.967529296875, -0.096191406250, -111.593750000000, -40.359375000000, 19.273437500000, 1490856141
0.239257812500, 0.967529296875, -0.096191406250, -111.593750000000, -40.359375000000, 19.273437500000, 1490856141
0.166015625000, 0.831542968750, -0.207763671875, -50.515625000000, -146.570312500000, -18.781250000000, 1490856141
0.166015625000, 0.831542968750, -0.207763671875, -50.515625000000, -146.570312500000, -18.781250000000, 1490856141
0.166015625000, 0.831542968750, -0.207763671875, -50.515625000000, -146.570312500000, -18.781250000000, 1490856141
0.182373046875, 0.940673828125, -0.117675781250, -77.171875000000, -183.445312500000, -82.218750000000, 1490856141
0.182373046875, 0.940673828125, -0.117675781250, -77.171875000000, -183.445312500000, -82.218750000000, 1490856141
0.182373046875, 0.940673828125, -0.117675781250, -77.171875000000, -183.445312500000, -82.218750000000, 1490856141
0.230468750000, 1.007324218750, -0.167724609375, 22.101562500000, -256.000000000000, -143.757812500000, 1490856141
0.230468750000, 1.007324218750, -0.167724609375, 22.101562500000, -256.000000000000, -143.757812500000, 1490856141
0.230468750000, 1.007324218750, -0.167724609375, 22.101562500000, -256.000000000000, -143.757812500000, 1490856141
0.230468750000, 1.007324218750, -0.167724609375, 22.101562500000, -256.000000000000, -143.757812500000, 1490856141
0.117187500000, 0.916503906250, -0.143798828125, 52.609375000000, -256.000000000000, -103.695312500000, 1490856141
0.117187500000, 0.916503906250, -0.143798828125, 52.609375000000, -256.000000000000, -103.695312500000, 1490856141
0.117187500000, 0.916503906250, -0.143798828125, 52.609375000000, -256.000000000000, -103.695312500000, 1490856141
-0.075195312500, 0.941406250000, -0.155517578125, 111.242187500000, -256.000000000000, -73.328125000000, 1490856141
-0.023925781250, 0.896972656250, -0.452880859375, 60.710937500000, -112.156250000000, -21.328125000000, 1490856141
-0.023925781250, 0.896972656250, -0.452880859375, 60.710937500000, -112.156250000000, -21.328125000000, 1490856141
-0.023925781250, 0.896972656250, -0.452880859375, 60.710937500000, -112.156250000000, -21.328125000000, 1490856141
-0.023925781250, 0.896972656250, -0.452880859375, 60.710937500000, -112.156250000000, -21.328125000000, 1490856141
-0.023925781250, 0.896972656250, -0.452880859375, 60.710937500000, -112.156250000000, -21.328125000000, 1490856141
-0.023925781250, 0.896972656250, -0.452880859375, 60.710937500000, -112.156250000000, -21.328125000000, 1490856141
-0.064208984375, 0.856445312500, -0.177001953125, -51.742187500000, -74.890625000000, -2.320312500000, 1490856141
-0.064208984375, 0.856445312500, -0.177001953125, -51.742187500000, -74.890625000000, -2.320312500000, 1490856141
-0.064208984375, 0.856445312500, -0.177001953125, -51.742187500000, -74.890625000000, -2.320312500000, 1490856141
-0.064208984375, 0.856445312500, -0.177001953125, -51.742187500000, -74.890625000000, -2.320312500000, 1490856141
-0.064208984375, 0.856445312500, -0.177001953125, -51.742187500000, -74.890625000000, -2.320312500000, 1490856141
0.033203125000, 0.865478515625, -0.216552734375, -60.703125000000, -63.078125000000, -2.296875000000, 1490856141
0.127929687500, 0.943359375000, -0.108642578125, -53.710937500000, -41.054687500000, 7.343750000000, 1490856141
0.127929687500, 0.943359375000, -0.108642578125, -53.710937500000, -41.054687500000, 7.343750000000, 1490856141
0.127929687500, 0.943359375000, -0.108642578125, -53.710937500000, -41.054687500000, 7.343750000000, 1490856141
0.003417968750, 0.993652343750, -0.227783203125, 20.882812500000, -89.750000000000, 35.710937500000, 1490856141
0.003417968750, 0.993652343750, -0.227783203125, 20.882812500000, -89.750000000000, 35.710937500000, 1490856141
0.003417968750, 0.993652343750, -0.227783203125, 20.882812500000, -89.750000000000, 35.710937500000, 1490856141
0.100585937500, 1.248779296875, -0.585449218750, -46.843750000000, -89.820312500000, 30.085937500000, 1490856141
0.100585937500, 1.248779296875, -0.585449218750, -46.843750000000, -89.820312500000, 30.085937500000, 1490856141
0.100585937500, 1.248779296875, -0.585449218750, -46.843750000000, -89.820312500000, 30.085937500000, 1490856141
0.100585937500, 1.248779296875, -0.585449218750, -46.843750000000, -89.820312500000, 30.085937500000, 1490856141
-0.078613281250, 1.398193359375, -0.281738281250, -141.554687500000, -117.460937500000, 20.554687500000, 1490856141
-0.078613281250, 1.398193359375, -0.281738281250, -141.554687500000, -117.460937500000, 20.554687500000, 1490856141
-0.078613281250, 1.398193359375, -0.281738281250, -141.554687500000, -117.460937500000, 20.554687500000, 1490856141
-0.229248046875, 0.924072265625, -0.192382812500, -192.679687500000, -54.539062500000, 18.765625000000, 1490856141
-0.229248046875, 0.924072265625, -0.192382812500, -192.679687500000, -54.539062500000, 18.765625000000, 1490856141
-0.229248046875, 0.924072265625, -0.192382812500, -192.679687500000, -54.539062500000, 18.765625000000, 1490856141
-0.366455078125, 0.882324218750, 0.126708984375, -182.875000000000, 124.671875000000, 11.265625000000, 1490856141
-0.366455078125, 0.882324218750, 0.126708984375, -182.875000000000, 124.671875000000, 11.265625000000, 1490856141
-0.366455078125, 0.882324218750, 0.126708984375, -182.875000000000, 124.671875000000, 11.265625000000, 1490856141
-0.307373046875, 0.799560546875, -0.144531250000, -21.078125000000, 216.656250000000, 57.617187500000, 1490856141
-0.307373046875, 0.799560546875, -0.144531250000, -21.078125000000, 216.656250000000, 57.617187500000, 1490856141
-0.307373046875, 0.799560546875, -0.144531250000, -21.078125000000, 216.656250000000, 57.617187500000, 1490856141
-0.307373046875, 0.799560546875, -0.144531250000, -21.078125000000, 216.656250000000, 57.617187500000, 1490856141
-0.048828125000, 0.892089843750, -0.150878906250, 95.007812500000, 118.585937500000, 5.132812500000, 1490856142
-0.048828125000, 0.892089843750, -0.150878906250, 95.007812500000, 118.585937500000, 5.132812500000, 1490856142
-0.048828125000, 0.892089843750, -0.150878906250, 95.007812500000, 118.585937500000, 5.132812500000, 1490856142
0.025146484375, 1.096923828125, -0.326660156250, 189.218750000000, -28.078125000000, 68.929687500000, 1490856142
0.025146484375, 1.096923828125, -0.326660156250, 189.218750000000, -28.078125000000, 68.929687500000, 1490856142
0.025146484375, 1.096923828125, -0.326660156250, 189.218750000000, -28.078125000000, 68.929687500000, 1490856142
-0.035888671875, 0.793457031250, -0.465820312500, 58.328125000000, -256.000000000000, -24.078125000000, 1490856142
-0.035888671875, 0.793457031250, -0.465820312500, 58.328125000000, -256.000000000000, -24.078125000000, 1490856142
-0.035888671875, 0.793457031250, -0.465820312500, 58.328125000000, -256.000000000000, -24.078125000000, 1490856142
-0.831542968750, 0.666748046875, 0.041259765625, 72.578125000000, -256.000000000000, -118.804687500000, 1490856142
-0.831542968750, 0.666748046875, 0.041259765625, 72.578125000000, -256.000000000000, -118.804687500000, 1490856142
-0.831542968750, 0.666748046875, 0.041259765625, 72.578125000000, -256.000000000000, -118.804687500000, 1490856142
-0.831542968750, 0.666748046875, 0.041259765625, 72.578125000000, -256.000000000000, -118.804687500000, 1490856142
-0.245849609375, 0.836914062500, -0.435546875000, 19.835937500000, -57.570312500000, -2.460937500000, 1490856142
-0.245849609375, 0.836914062500, -0.435546875000, 19.835937500000, -57.570312500000, -2.460937500000, 1490856142
-0.245849609375, 0.836914062500, -0.435546875000, 19.835937500000, -57.570312500000, -2.460937500000, 1490856142
-0.277343750000, 0.854736328125, -0.224609375000, -71.195312500000, -39.648437500000, -18.257812500000, 1490856142
-0.277343750000, 0.854736328125, -0.224609375000, -71.195312500000, -39.648437500000, -18.257812500000, 1490856142
-0.277343750000, 0.854736328125, -0.224609375000, -71.195312500000, -39.648437500000, -18.257812500000, 1490856142
-0.392578125000, 0.971435546875, -0.186279296875, -65.734375000000, -20.835937500000, -18.726562500000, 1490856142
-0.392578125000, 0.971435546875, -0.186279296875, -65.734375000000, -20.835937500000, -18.726562500000, 1490856142
-0.392578125000, 0.971435546875, -0.186279296875, -65.734375000000, -20.835937500000, -18.726562500000, 1490856142
-0.330810546875, 0.972167968750, -0.158447265625, -18.546875000000, -34.734375000000, -21.812500000000, 1490856142
-0.330810546875, 0.972167968750, -0.158447265625, -18.546875000000, -34.734375000000, -21.812500000000, 1490856142
-0.330810546875, 0.972167968750, -0.158447265625, -18.546875000000, -34.734375000000, -21.812500000000, 1490856142
-0.330810546875, 0.972167968750, -0.158447265625, -18.546875000000, -34.734375000000, -21.812500000000, 1490856142
-0.389892578125, 0.964355468750, -0.421142578125, 18.640625000000, -51.453125000000, -14.242187500000, 1490856142
-0.389892578125, 0.964355468750, -0.421142578125, 18.640625000000, -51.453125000000, -14.242187500000, 1490856142
-0.389892578125, 0.964355468750, -0.421142578125, 18.640625000000, -51.453125000000, -14.242187500000, 1490856142
-0.147460937500, 1.223388671875, -0.524414062500, -100.953125000000, -86.437500000000, -35.054687500000, 1490856142
-0.147460937500, 1.223388671875, -0.524414062500, -100.953125000000, -86.437500000000, -35.054687500000, 1490856142
-0.147460937500, 1.223388671875, -0.524414062500, -100.953125000000, -86.437500000000, -35.054687500000, 1490856142
-0.169189453125, 0.943847656250, -0.145019531250, -33.078125000000, 21.984375000000, 18.375000000000, 1490856142
-0.081542968750, 0.966064453125, -0.208251953125, -54.554687500000, 30.718750000000, 12.375000000000, 1490856142
-0.081542968750, 0.966064453125, -0.208251953125, -54.554687500000, 30.718750000000, 12.375000000000, 1490856142
-0.081542968750, 0.966064453125, -0.208251953125, -54.554687500000, 30.718750000000, 12.375000000000, 1490856142
-0.063720703125, 0.867431640625, -0.110351562500, -82.375000000000, 24.843750000000, -13.273437500000, 1490856142
-0.029052734375, 0.737792968750, -0.103271484375, -82.375000000000, 24.843750000000, -13.273437500000, 1490856142
-0.029052734375, 0.737792968750, -0.103271484375, -82.375000000000, 24.843750000000, -13.273437500000, 1490856142
-0.029052734375, 0.737792968750, -0.103271484375, -82.375000000000, 24.843750000000, -13.273437500000, 1490856142
-0.029052734375, 0.737792968750, -0.103271484375, -82.375000000000, 24.843750000000, -13.273437500000, 1490856142
-0.029052734375, 0.737792968750, -0.103271484375, -82.375000000000, 24.843750000000, -13.273437500000, 1490856142
-0.109130859375, 0.955810546875, -0.083984375000, -70.296875000000, 100.796875000000, -35.406250000000, 1490856142
-0.109130859375, 0.955810546875, -0.083984375000, -70.296875000000, 100.796875000000, -35.406250000000, 1490856142
-0.109130859375, 0.955810546875, -0.083984375000, -70.296875000000, 100.796875000000, -35.406250000000, 1490856142
-0.218261718750, 0.901855468750, -0.055908203125, -39.679687500000, 97.148437500000, -30.476562500000, 1490856142
-0.151611328125, 0.944335937500, -0.197021484375, 59.546875000000, -8.218750000000, 3.601562500000, 1490856142
-0.129882812500, 0.886230468750, -0.247558593750, 51.437500000000, -52.023437500000, 1.351562500000, 1490856142
-0.129882812500, 0.886230468750, -0.247558593750, 51.437500000000, -52.023437500000, 1.351562500000, 1490856142
-0.129882812500, 0.886230468750, -0.247558593750, 51.437500000000, -52.023437500000, 1.351562500000, 1490856142
-0.129882812500, 0.886230468750, -0.247558593750, 51.437500000000, -52.023437500000, 1.351562500000, 1490856142
-0.055908203125, 0.845703125000, -0.382080078125, 27.578125000000, -177.703125000000, -13.773437500000, 1490856142
-0.152832031250, 0.930175781250, -0.223144531250, 21.195312500000, -230.265625000000, -25.960937500000, 1490856142
-0.152832031250, 0.930175781250, -0.223144531250, 21.195312500000, -230.265625000000, -25.960937500000, 1490856142
-0.152832031250, 0.930175781250, -0.223144531250, 21.195312500000, -230.265625000000, -25.960937500000, 1490856142
-0.078125000000, 0.907958984375, -0.422607421875, 110.976562500000, 91.773437500000, 15.914062500000, 1490856142
-0.078125000000, 0.907958984375, -0.422607421875, 110.976562500000, 91.773437500000, 15.914062500000, 1490856142
-0.078125000000, 0.907958984375, -0.422607421875, 110.976562500000, 91.773437500000, 15.914062500000, 1490856142
-0.250488281250, 0.948486328125, -0.411621093750, -22.218750000000, 28.015625000000, -18.882812500000, 1490856142
-0.250488281250, 0.948486328125, -0.411621093750, -22.218750000000, 28.015625000000, -18.882812500000, 1490856142
-0.250488281250, 0.948486328125, -0.411621093750, -22.218750000000, 28.015625000000, -18.882812500000, 1490856142
-0.199218750000, 0.913085937500, -0.226074218750, -57.406250000000, 42.882812500000, -4.828125000000, 1490856142
-0.199218750000, 0.913085937500, -0.226074218750, -57.406250000000, 42.882812500000, -4.828125000000, 1490856142
-0.199218750000, 0.913085937500, -0.226074218750, -57.406250000000, 42.882812500000, -4.828125000000, 1490856142
-0.098876953125, 0.888916015625, -0.263183593750, -10.843750000000, 29.867187500000, 9.242187500000, 1490856142
-0.098876953125, 0.888916015625, -0.263183593750, -10.843750000000, 29.867187500000, 9.242187500000, 1490856143
-0.098876953125, 0.888916015625, -0.263183593750, -10.843750000000, 29.867187500000, 9.242187500000, 1490856143
-0.098876953125, 0.888916015625, -0.263183593750, -10.843750000000, 29.867187500000, 9.242187500000, 1490856143
-0.254150390625, 0.864746093750, -0.379882812500, 0.617187500000, 23.765625000000, 0.914062500000, 1490856143
-0.254150390625, 0.864746093750, -0.379882812500, 0.617187500000, 23.765625000000, 0.914062500000, 1490856143
-0.254150390625, 0.864746093750, -0.379882812500, 0.617187500000, 23.765625000000, 0.914062500000, 1490856143
-0.254150390625, 0.864746093750, -0.379882812500, 0.617187500000, 23.765625000000, 0.914062500000, 1490856143
-0.254150390625, 0.864746093750, -0.379882812500, 0.617187500000, 23.765625000000, 0.914062500000, 1490856143
-0.254150390625, 0.864746093750, -0.379882812500, 0.617187500000, 23.765625000000, 0.914062500000, 1490856143
-0.165283203125, 0.955810546875, -0.239990234375, -5.781250000000, 11.914062500000, -1.304687500000, 1490856143
-0.165283203125, 0.955810546875, -0.239990234375, -5.781250000000, 11.914062500000, -1.304687500000, 1490856143
-0.165283203125, 0.955810546875, -0.239990234375, -5.781250000000, 11.914062500000, -1.304687500000, 1490856143
-0.165283203125, 0.955810546875, -0.239990234375, -5.781250000000, 11.914062500000, -1.304687500000, 1490856143
-0.208496093750, 0.864257812500, -0.328857421875, 14.234375000000, 7.500000000000, -6.695312500000, 1490856143
-0.208496093750, 0.864257812500, -0.328857421875, 14.234375000000, 7.500000000000, -6.695312500000, 1490856143
-0.208496093750, 0.864257812500, -0.328857421875, 14.234375000000, 7.500000000000, -6.695312500000, 1490856143
-0.197753906250, 0.955322265625, -0.376953125000, 8.101562500000, 0.304687500000, -11.453125000000, 1490856143
-0.197753906250, 0.955322265625, -0.376953125000, 8.101562500000, 0.304687500000, -11.453125000000, 1490856143
-0.197753906250, 0.955322265625, -0.376953125000, 8.101562500000, 0.304687500000, -11.453125000000, 1490856143
-0.246582031250, 0.937744140625, -0.342529296875, -7.609375000000, -16.500000000000, -18.890625000000, 1490856143
-0.246582031250, 0.937744140625, -0.342529296875, -7.609375000000, -16.500000000000, -18.890625000000, 1490856143
-0.246582031250, 0.937744140625, -0.342529296875, -7.609375000000, -16.500000000000, -18.890625000000, 1490856143
-0.178466796875, 0.947021484375, -0.235351562500, -5.843750000000, -3.390625000000, -7.585937500000, 1490856143
-0.178466796875, 0.947021484375, -0.235351562500, -5.843750000000, -3.390625000000, -7.585937500000, 1490856143
-0.178466796875, 0.947021484375, -0.235351562500, -5.843750000000, -3.390625000000, -7.585937500000, 1490856143
-0.178466796875, 0.947021484375, -0.235351562500, -5.843750000000, -3.390625000000, -7.585937500000, 1490856143
-0.223388671875, 1.018066406250, -0.235839843750, -0.921875000000, 1.421875000000, -1.023437500000, 1490856143
-0.223388671875, 1.018066406250, -0.235839843750, -0.921875000000, 1.421875000000, -1.023437500000, 1490856143
-0.136962890625, 0.941894531250, -0.319580078125, 4.421875000000, 16.015625000000, 8.171875000000, 1490856143
-0.100097656250, 0.936523437500, -0.282714843750, -0.500000000000, 20.960937500000, 10.937500000000, 1490856143
-0.100097656250, 0.936523437500, -0.282714843750, -0.500000000000, 20.960937500000, 10.937500000000, 1490856143
-0.100097656250, 0.936523437500, -0.282714843750, -0.500000000000, 20.960937500000, 10.937500000000, 1490856143
-0.100097656250, 0.936523437500, -0.282714843750, -0.500000000000, 20.960937500000, 10.937500000000, 1490856143
-0.114746093750, 0.921630859375, -0.294677734375, 0.125000000000, 13.828125000000, 6.648437500000, 1490856143
-0.114746093750, 0.921630859375, -0.294677734375, 0.125000000000, 13.828125000000, 6.648437500000, 1490856143
-0.114746093750, 0.921630859375, -0.294677734375, 0.125000000000, 13.828125000000, 6.648437500000, 1490856143
-0.114746093750, 0.921630859375, -0.294677734375, 0.125000000000, 13.828125000000, 6.648437500000, 1490856143
-0.114746093750, 0.921630859375, -0.294677734375, 0.125000000000, 13.828125000000, 6.648437500000, 1490856143
-0.114746093750, 0.921630859375, -0.294677734375, 0.125000000000, 13.828125000000, 6.648437500000, 1490856143
-0.094482421875, 0.981689453125, -0.387939453125, 5.000000000000, 8.085937500000, 5.421875000000, 1490856143
-0.094482421875, 0.981689453125, -0.387939453125, 5.000000000000, 8.085937500000, 5.421875000000, 1490856143
-0.094482421875, 0.981689453125, -0.387939453125, 5.000000000000, 8.085937500000, 5.421875000000, 1490856143
-0.123535156250, 0.937744140625, -0.289550781250, 6.773437500000, 1.492187500000, 2.992187500000, 1490856143
-0.123535156250, 0.937744140625, -0.289550781250, 6.773437500000, 1.492187500000, 2.992187500000, 1490856143
-0.123535156250, 0.937744140625, -0.289550781250, 6.773437500000, 1.492187500000, 2.992187500000, 1490856143
-0.048828125000, 0.934814453125, -0.297119140625, -1.031250000000, 1.242187500000, -0.296875000000, 1490856143
-0.048828125000, 0.934814453125, -0.297119140625, -1.031250000000, 1.242187500000, -0.296875000000, 1490856143
-0.048828125000, 0.934814453125, -0.297119140625, -1.031250000000, 1.242187500000, -0.296875000000, 1490856143
-0.195800781250, 0.889404296875, -0.300537109375, 2.187500000000, -2.421875000000, 0.671875000000, 1490856143
-0.195800781250, 0.889404296875, -0.300537109375, 2.187500000000, -2.421875000000, 0.671875000000, 1490856143
-0.195800781250, 0.889404296875, -0.300537109375, 2.187500000000, -2.421875000000, 0.671875000000, 1490856143
-0.195800781250, 0.889404296875, -0.300537109375, 2.187500000000, -2.421875000000, 0.671875000000, 1490856143
-0.189941406250, 1.014648437500, -0.403808593750, 5.710937500000, -10.773437500000, -10.312500000000, 1490856143
-0.189941406250, 1.014648437500, -0.403808593750, 5.710937500000, -10.773437500000, -10.312500000000, 1490856143
-0.189941406250, 1.014648437500, -0.403808593750, 5.710937500000, -10.773437500000, -10.312500000000, 1490856143
-0.192871093750, 0.925292968750, -0.303222656250, 4.640625000000, -10.718750000000, -10.640625000000, 1490856143
-0.192871093750, 0.925292968750, -0.303222656250, 4.640625000000, -10.718750000000, -10.640625000000, 1490856143
-0.015625000000, 0.884033203125, -0.337646484375, 6.414062500000, -14.875000000000, -34.757812500000, 1490856143
-0.015625000000, 0.884033203125, -0.337646484375, 6.414062500000, -14.875000000000, -34.757812500000, 1490856143
-0.015625000000, 0.884033203125, -0.337646484375, 6.414062500000, -14.875000000000, -34.757812500000, 1490856143
-0.015625000000, 0.884033203125, -0.337646484375, 6.414062500000, -14.875000000000, -34.757812500000, 1490856143
0.072265625000, 0.920898437500, -0.310302734375, 24.343750000000, -60.687500000000, -118.265625000000, 1490856143
0.072265625000, 0.920898437500, -0.310302734375, 24.343750000000, -60.687500000000, -118.265625000000, 1490856143
0.072265625000, 0.920898437500, -0.310302734375, 24.343750000000, -60.687500000000, -118.265625000000, 1490856143
0.072265625000, 0.920898437500, -0.310302734375, 24.343750000000, -60.687500000000, -118.265625000000, 1490856143
0.041992187500, 1.023437500000, -0.297363281250, -24.875000000000, -50.648437500000, -157.500000000000, 1490856143
0.041992187500, 1.023437500000, -0.297363281250, -24.875000000000, -50.648437500000, -157.500000000000, 1490856143
0.041992187500, 1.023437500000, -0.297363281250, -24.875000000000, -50.648437500000, -157.500000000000, 1490856143
0.244140625000, 0.994873046875, -0.330810546875, -58.906250000000, -19.203125000000, -123.132812500000, 1490856143
0.244140625000, 0.994873046875, -0.330810546875, -58.906250000000, -19.203125000000, -123.132812500000, 1490856144
0.244140625000, 0.994873046875, -0.330810546875, -58.906250000000, -19.203125000000, -123.132812500000, 1490856144
0.120361328125, 1.001220703125, -0.280517578125, -17.382812500000, -57.187500000000, -66.843750000000, 1490856144
0.120361328125, 1.001220703125, -0.280517578125, -17.382812500000, -57.187500000000, -66.843750000000, 1490856144
0.120361328125, 1.001220703125, -0.280517578125, -17.382812500000, -57.187500000000, -66.843750000000, 1490856144
0.082519531250, 0.794433593750, -0.168701171875, -0.671875000000, -73.617187500000, -58.312500000000, 1490856144
0.082519531250, 0.794433593750, -0.168701171875, -0.671875000000, -73.617187500000, -58.312500000000, 1490856144
0.082519531250, 0.794433593750, -0.168701171875, -0.671875000000, -73.617187500000, -58.312500000000, 1490856144
0.082519531250, 0.794433593750, -0.168701171875, -0.671875000000, -73.617187500000, -58.312500000000, 1490856144
0.144531250000, 0.854980468750, -0.295654296875, 33.257812500000, -40.742187500000, -27.773437500000, 1490856144
0.144531250000, 0.854980468750, -0.295654296875, 33.257812500000, -40.742187500000, -27.773437500000, 1490856144
0.144531250000, 0.854980468750, -0.295654296875, 33.257812500000, -40.742187500000, -27.773437500000, 1490856144
0.144531250000, 0.854980468750, -0.295654296875, 33.257812500000, -40.742187500000, -27.773437500000, 1490856144
0.052490234375, 0.947998046875, -0.504638671875, 18.515625000000, -31.820312500000, -24.265625000000, 1490856144
0.052490234375, 0.947998046875, -0.504638671875, 18.515625000000, -31.820312500000, -24.265625000000, 1490856144
0.052490234375, 0.947998046875, -0.504638671875, 18.515625000000, -31.820312500000, -24.265625000000, 1490856144
0.052490234375, 0.947998046875, -0.504638671875, 18.515625000000, -31.820312500000, -24.265625000000, 1490856144
0.246582031250, 0.938232421875, -0.312744140625, -12.125000000000, -15.960937500000, 4.796875000000, 1490856144
0.246582031250, 0.938232421875, -0.312744140625, -12.125000000000, -15.960937500000, 4.796875000000, 1490856144
0.246582031250, 0.938232421875, -0.312744140625, -12.125000000000, -15.960937500000, 4.796875000000, 1490856144
0.246582031250, 0.938232421875, -0.312744140625, -12.125000000000, -15.960937500000, 4.796875000000, 1490856144
0.246582031250, 0.938232421875, -0.312744140625, -12.125000000000, -15.960937500000, 4.796875000000, 1490856144
0.229736328125, 0.873535156250, -0.321289062500, -10.125000000000, -13.148437500000, -3.687500000000, 1490856144
0.229736328125, 0.873535156250, -0.321289062500, -10.125000000000, -13.148437500000, -3.687500000000, 1490856144
0.229736328125, 0.873535156250, -0.321289062500, -10.125000000000, -13.148437500000, -3.687500000000, 1490856144
0.217041015625, 0.957031250000, -0.323242187500, -1.921875000000, -0.625000000000, -3.601562500000, 1490856144
0.217041015625, 0.957031250000, -0.323242187500, -1.921875000000, -0.625000000000, -3.601562500000, 1490856144
0.217041015625, 0.957031250000, -0.323242187500, -1.921875000000, -0.625000000000, -3.601562500000, 1490856144
0.121582031250, 0.949951171875, -0.249511718750, 3.140625000000, 0.609375000000, -6.078125000000, 1490856144
0.121582031250, 0.949951171875, -0.249511718750, 3.140625000000, 0.609375000000, -6.078125000000, 1490856144
0.162109375000, 0.864501953125, -0.388671875000, -2.671875000000, 9.843750000000, 1.515625000000, 1490856144
0.162109375000, 0.864501953125, -0.388671875000, -2.671875000000, 9.843750000000, 1.515625000000, 1490856144
0.162109375000, 0.864501953125, -0.388671875000, -2.671875000000, 9.843750000000, 1.515625000000, 1490856144
0.162109375000, 0.864501953125, -0.388671875000, -2.671875000000, 9.843750000000, 1.515625000000, 1490856144
0.162109375000, 0.864501953125, -0.388671875000, -2.671875000000, 9.843750000000, 1.515625000000, 1490856144
0.166503906250, 1.024658203125, -0.317382812500, -7.664062500000, 2.242187500000, -1.257812500000, 1490856144
0.166503906250, 1.024658203125, -0.317382812500, -7.664062500000, 2.242187500000, -1.257812500000, 1490856144
0.166503906250, 1.024658203125, -0.317382812500, -7.664062500000, 2.242187500000, -1.257812500000, 1490856144
0.166503906250, 1.024658203125, -0.317382812500, -7.664062500000, 2.242187500000, -1.257812500000, 1490856144
0.166503906250, 1.024658203125, -0.317382812500, -7.664062500000, 2.242187500000, -1.257812500000, 1490856144
0.166503906250, 1.024658203125, -0.317382812500, -7.664062500000, 2.242187500000, -1.257812500000, 1490856144
0.170898437500, 0.963867187500, -0.307128906250, -2.007812500000, -0.632812500000, -1.195312500000, 1490856144
0.170898437500, 0.963867187500, -0.307128906250, -2.007812500000, -0.632812500000, -1.195312500000, 1490856144
0.187988281250, 0.912109375000, -0.343261718750, -2.257812500000, -5.093750000000, -5.015625000000, 1490856144
0.187988281250, 0.912109375000, -0.343261718750, -2.257812500000, -5.093750000000, -5.015625000000, 1490856144
0.187988281250, 0.912109375000, -0.343261718750, -2.257812500000, -5.093750000000, -5.015625000000, 1490856144
0.187988281250, 0.912109375000, -0.343261718750, -2.257812500000, -5.093750000000, -5.015625000000, 1490856144
0.187988281250, 0.912109375000, -0.343261718750, -2.257812500000, -5.093750000000, -5.015625000000, 1490856144
0.138671875000, 0.874267578125, -0.319091796875, -1.382812500000, -1.921875000000, -1.875000000000, 1490856144
0.138671875000, 0.874267578125, -0.319091796875, -1.382812500000, -1.921875000000, -1.875000000000, 1490856144
0.138671875000, 0.874267578125, -0.319091796875, -1.382812500000, -1.921875000000, -1.875000000000, 1490856144
0.097412109375, 0.881347656250, -0.320800781250, 3.773437500000, -6.250000000000, -3.585937500000, 1490856144
0.097412109375, 0.881347656250, -0.320800781250, 3.773437500000, -6.250000000000, -3.585937500000, 1490856144
0.097412109375, 0.881347656250, -0.320800781250, 3.773437500000, -6.250000000000, -3.585937500000, 1490856144
0.260986328125, 1.026611328125, -0.319824218750, -3.140625000000, 2.726562500000, -4.398437500000, 1490856144
0.260986328125, 1.026611328125, -0.319824218750, -3.140625000000, 2.726562500000, -4.398437500000, 1490856144
0.260986328125, 1.026611328125, -0.319824218750, -3.140625000000, 2.726562500000, -4.398437500000, 1490856144
0.260986328125, 1.026611328125, -0.319824218750, -3.140625000000, 2.726562500000, -4.398437500000, 1490856144
0.260986328125, 1.026611328125, -0.319824218750, -3.140625000000, 2.726562500000, -4.398437500000, 1490856144
0.255859375000, 0.985595703125, -0.327636718750, -0.632812500000, -6.679687500000, -8.453125000000, 1490856144
0.255859375000, 0.985595703125, -0.327636718750, -0.632812500000, -6.679687500000, -8.453125000000, 1490856144
0.255859375000, 0.985595703125, -0.327636718750, -0.632812500000, -6.679687500000, -8.453125000000, 1490856144
0.255859375000, 0.985595703125, -0.327636718750, -0.632812500000, -6.679687500000, -8.453125000000, 1490856144
0.255859375000, 0.985595703125, -0.327636718750, -0.632812500000, -6.679687500000, -8.453125000000, 1490856144
0.105712890625, 0.866699218750, -0.312988281250, -4.070312500000, 4.093750000000, -1.781250000000, 1490856144
0.105712890625, 0.866699218750, -0.312988281250, -4.070312500000, 4.093750000000, -1.781250000000, 1490856144
0.105712890625, 0.866699218750, -0.312988281250, -4.070312500000, 4.093750000000, -1.781250000000, 1490856144
0.191650390625, 0.996582031250, -0.379638671875, 4.812500000000, 4.945312500000, -2.593750000000, 1490856145
0.191650390625, 0.996582031250, -0.379638671875, 4.812500000000, 4.945312500000, -2.593750000000, 1490856145
0.191650390625, 0.996582031250, -0.379638671875, 4.812500000000, 4.945312500000, -2.593750000000, 1490856145
0.121826171875, 1.045166015625, -0.320312500000, -4.500000000000, 7.242187500000, -2.867187500000, 1490856145
0.121826171875, 1.045166015625, -0.320312500000, -4.500000000000, 7.242187500000, -2.867187500000, 1490856145
0.121826171875, 1.045166015625, -0.320312500000, -4.500000000000, 7.242187500000, -2.867187500000, 1490856145
0.121826171875, 1.045166015625, -0.320312500000, -4.500000000000, 7.242187500000, -2.867187500000, 1490856145
0.194824218750, 0.926757812500, -0.253173828125, -10.070312500000, 5.437500000000, 0.445312500000, 1490856145
0.194824218750, 0.926757812500, -0.253173828125, -10.070312500000, 5.437500000000, 0.445312500000, 1490856145
0.194824218750, 0.926757812500, -0.253173828125, -10.070312500000, 5.437500000000, 0.445312500000, 1490856145
0.266357421875, 0.956787109375, -0.339111328125, -3.546875000000, 8.398437500000, -4.187500000000, 1490856145
0.266357421875, 0.956787109375, -0.339111328125, -3.546875000000, 8.398437500000, -4.187500000000, 1490856145
0.266357421875, 0.956787109375, -0.339111328125, -3.546875000000, 8.398437500000, -4.187500000000, 1490856145
0.314453125000, 0.951904296875, -0.362304687500, -0.460937500000, 6.312500000000, -2.726562500000, 1490856145
0.314453125000, 0.951904296875, -0.362304687500, -0.460937500000, 6.312500000000, -2.726562500000, 1490856145
0.314453125000, 0.951904296875, -0.362304687500, -0.460937500000, 6.312500000000, -2.726562500000, 1490856145
0.228515625000, 0.918701171875, -0.300048828125, -5.882812500000, -0.117187500000, 0.601562500000, 1490856145
0.228515625000, 0.918701171875, -0.300048828125, -5.882812500000, -0.117187500000, 0.601562500000, 1490856145
0.228515625000, 0.918701171875, -0.300048828125, -5.882812500000, -0.117187500000, 0.601562500000, 1490856145
0.228515625000, 0.918701171875, -0.300048828125, -5.882812500000, -0.117187500000, 0.601562500000, 1490856145
0.220947265625, 0.931884765625, -0.246826171875, -10.375000000000, -0.296875000000, -2.859375000000, 1490856145
0.220947265625, 0.931884765625, -0.246826171875, -10.375000000000, -0.296875000000, -2.859375000000, 1490856145
0.220947265625, 0.931884765625, -0.246826171875, -10.375000000000, -0.296875000000, -2.859375000000, 1490856145
0.192871093750, 0.917968750000, -0.297119140625, -10.335937500000, 3.140625000000, -1.835937500000, 1490856145
0.192871093750, 0.917968750000, -0.297119140625, -10.335937500000, 3.140625000000, -1.835937500000, 1490856145
0.192871093750, 0.917968750000, -0.297119140625, -10.335937500000, 3.140625000000, -1.835937500000, 1490856145
0.164062500000, 0.871582031250, -0.287841796875, -5.562500000000, 1.851562500000, -4.906250000000, 1490856145
0.164062500000, 0.871582031250, -0.287841796875, -5.562500000000, 1.851562500000, -4.906250000000, 1490856145
0.164062500000, 0.871582031250, -0.287841796875, -5.562500000000, 1.851562500000, -4.906250000000, 1490856145
0.266601562500, 1.006103515625, -0.289550781250, -4.710937500000, 1.851562500000, -1.703125000000, 1490856145
0.266601562500, 1.006103515625, -0.289550781250, -4.710937500000, 1.851562500000, -1.703125000000, 1490856145
0.266601562500, 1.006103515625, -0.289550781250, -4.710937500000, 1.851562500000, -1.703125000000, 1490856145
0.262695312500, 0.880371093750, -0.379394531250, -3.859375000000, 1.500000000000, -3.585937500000, 1490856145
0.262695312500, 0.880371093750, -0.379394531250, -3.859375000000, 1.500000000000, -3.585937500000, 1490856145
0.262695312500, 0.880371093750, -0.379394531250, -3.859375000000, 1.500000000000, -3.585937500000, 1490856145
0.262695312500, 0.880371093750, -0.379394531250, -3.859375000000, 1.500000000000, -3.585937500000, 1490856145
0.183593750000, 0.914794921875, -0.296386718750, -6.257812500000, -1.789062500000, -6.945312500000, 1490856145
0.183593750000, 0.914794921875, -0.296386718750, -6.257812500000, -1.789062500000, -6.945312500000, 1490856145
0.183593750000, 0.914794921875, -0.296386718750, -6.257812500000, -1.789062500000, -6.945312500000, 1490856145
0.263671875000, 0.879638671875, -0.386718750000, -4.421875000000, 0.023437500000, -3.156250000000, 1490856145
0.322753906250, 0.928955078125, -0.298583984375, -4.421875000000, 0.023437500000, -3.156250000000, 1490856145
0.322753906250, 0.928955078125, -0.298583984375, -4.421875000000, 0.023437500000, -3.156250000000, 1490856145
0.322753906250, 0.928955078125, -0.298583984375, -4.421875000000, 0.023437500000, -3.156250000000, 1490856145
0.223632812500, 0.799804687500, -0.221435546875, -5.976562500000, -2.726562500000, -4.789062500000, 1490856145
0.223632812500, 0.799804687500, -0.221435546875, -5.976562500000, -2.726562500000, -4.789062500000, 1490856145
0.223632812500, 0.799804687500, -0.221435546875, -5.976562500000, -2.726562500000, -4.789062500000, 1490856145
0.223632812500, 0.799804687500, -0.221435546875, -5.976562500000, -2.726562500000, -4.789062500000, 1490856145
0.266113281250, 0.806152343750, -0.340332031250, -1.867187500000, -1.859375000000, -6.328125000000, 1490856145
0.266113281250, 0.806152343750, -0.340332031250, -1.867187500000, -1.859375000000, -6.328125000000, 1490856145
0.266113281250, 0.806152343750, -0.340332031250, -1.867187500000, -1.859375000000, -6.328125000000, 1490856145
0.266113281250, 0.806152343750, -0.340332031250, -1.867187500000, -1.859375000000, -6.328125000000, 1490856145
0.266113281250, 0.806152343750, -0.340332031250, -1.867187500000, -1.859375000000, -6.328125000000, 1490856145
0.280761718750, 0.965820312500, -0.332519531250, -4.125000000000, -1.039062500000, -4.304687500000, 1490856145
0.280761718750, 0.965820312500, -0.332519531250, -4.125000000000, -1.039062500000, -4.304687500000, 1490856145
0.280761718750, 0.965820312500, -0.332519531250, -4.125000000000, -1.039062500000, -4.304687500000, 1490856145
0.280761718750, 0.965820312500, -0.332519531250, -4.125000000000, -1.039062500000, -4.304687500000, 1490856145
0.280761718750, 0.965820312500, -0.332519531250, -4.125000000000, -1.039062500000, -4.304687500000, 1490856145
0.260986328125, 1.002441406250, -0.285156250000, -4.304687500000, -0.421875000000, -2.179687500000, 1490856145
0.260986328125, 1.002441406250, -0.285156250000, -4.304687500000, -0.421875000000, -2.179687500000, 1490856145
0.260986328125, 1.002441406250, -0.285156250000, -4.304687500000, -0.421875000000, -2.179687500000, 1490856145
0.260986328125, 1.002441406250, -0.285156250000, -4.304687500000, -0.421875000000, -2.179687500000, 1490856145
0.260986328125, 1.002441406250, -0.285156250000, -4.304687500000, -0.421875000000, -2.179687500000, 1490856145
0.262939453125, 0.962402343750, -0.317382812500, -4.179687500000, -0.101562500000, -4.140625000000, 1490856145
0.262939453125, 0.962402343750, -0.317382812500, -4.179687500000, -0.101562500000, -4.140625000000, 1490856145
0.262939453125, 0.962402343750, -0.317382812500, -4.179687500000, -0.101562500000, -4.140625000000, 1490856145
0.239501953125, 0.902099609375, -0.310302734375, -2.007812500000, 1.023437500000, 0.453125000000, 1490856146
0.239501953125, 0.902099609375, -0.310302734375, -2.007812500000, 1.023437500000, 0.453125000000, 1490856146
0.239501953125, 0.902099609375, -0.310302734375, -2.007812500000, 1.023437500000, 0.453125000000, 1490856146
0.211914062500, 0.940185546875, -0.339599609375, -1.421875000000, 3.070312500000, -2.492187500000, 1490856146
0.211914062500, 0.940185546875, -0.339599609375, -1.421875000000, 3.070312500000, -2.492187500000, 1490856146
0.211914062500, 0.940185546875, -0.339599609375, -1.421875000000, 3.070312500000, -2.492187500000, 1490856146
0.211914062500, 0.940185546875, -0.339599609375, -1.421875000000, 3.070312500000, -2.492187500000, 1490856146
0.193847656250, 0.962402343750, -0.345214843750, -4.070312500000, 2.085937500000, -1.890625000000, 1490856146
0.193847656250, 0.962402343750, -0.345214843750, -4.070312500000, 2.085937500000, -1.890625000000, 1490856146
0.193847656250, 0.962402343750, -0.345214843750, -4.070312500000, 2.085937500000, -1.890625000000, 1490856146
