ACC_X,ACC_Y,ACC_Z,G_X,G_Y,G_Z,Unix Time
0.085205078125, -0.197509765625, 0.052001953125, -97.937500000000, 50.312500000000, 58.609375000000, 1490856413
0.085205078125, -0.197509765625, 0.052001953125, -97.937500000000, 50.312500000000, 58.609375000000, 1490856413
0.085205078125, -0.197509765625, 0.052001953125, -97.937500000000, 50.312500000000, 58.609375000000, 1490856413
0.032714843750, 0.014892578125, -0.027832031250, -190.679687500000, 177.718750000000, -7.875000000000, 1490856413
0.032714843750, 0.014892578125, -0.027832031250, -190.679687500000, 177.718750000000, -7.875000000000, 1490856413
0.032714843750, 0.014892578125, -0.027832031250, -190.679687500000, 177.718750000000, -7.875000000000, 1490856413
0.032714843750, 0.014892578125, -0.027832031250, -190.679687500000, 177.718750000000, -7.875000000000, 1490856413
0.002685546875, -0.066650390625, 0.080566406250, -169.328125000000, 253.992187500000, -30.406250000000, 1490856413
0.002685546875, -0.066650390625, 0.080566406250, -169.328125000000, 253.992187500000, -30.406250000000, 1490856413
0.002685546875, -0.066650390625, 0.080566406250, -169.328125000000, 253.992187500000, -30.406250000000, 1490856413
-0.004882812500, -0.149658203125, -0.009521484375, -88.367187500000, 221.351562500000, -40.039062500000, 1490856413
-0.004882812500, -0.149658203125, -0.009521484375, -88.367187500000, 221.351562500000, -40.039062500000, 1490856413
-0.004882812500, -0.149658203125, -0.009521484375, -88.367187500000, 221.351562500000, -40.039062500000, 1490856413
0.209228515625, -1.032470703125, -0.176025390625, -114.820312500000, 44.507812500000, 73.093750000000, 1490856413
0.209228515625, -1.032470703125, -0.176025390625, -114.820312500000, 44.507812500000, 73.093750000000, 1490856413
0.329589843750, -1.315429687500, -0.182128906250, -26.070312500000, -256.000000000000, 66.039062500000, 1490856413
0.329589843750, -1.315429687500, -0.182128906250, -26.070312500000, -256.000000000000, 66.039062500000, 1490856413
0.329589843750, -1.315429687500, -0.182128906250, -26.070312500000, -256.000000000000, 66.039062500000, 1490856413
0.329589843750, -1.315429687500, -0.182128906250, -35.312500000000, -256.000000000000, 33.546875000000, 1490856413
0.374267578125, -2.368164062500, -0.205566406250, 68.570312500000, -256.000000000000, -44.679687500000, 1490856413
0.374267578125, -2.368164062500, -0.205566406250, 68.570312500000, -256.000000000000, -44.679687500000, 1490856413
0.374267578125, -2.368164062500, -0.205566406250, 68.570312500000, -256.000000000000, -44.679687500000, 1490856413
0.374267578125, -2.368164062500, -0.205566406250, 68.570312500000, -256.000000000000, -44.679687500000, 1490856413
0.774414062500, -2.507324218750, -0.002685546875, 253.992187500000, 185.679687500000, -133.375000000000, 1490856413
0.774414062500, -2.507324218750, -0.002685546875, 253.992187500000, 185.679687500000, -133.375000000000, 1490856413
0.774414062500, -2.507324218750, -0.002685546875, 253.992187500000, 185.679687500000, -133.375000000000, 1490856413
0.865966796875, -2.251220703125, 1.777832031250, -256.000000000000, 117.867187500000, -97.195312500000, 1490856413
0.865966796875, -2.251220703125, 1.777832031250, -256.000000000000, 117.867187500000, -97.195312500000, 1490856413
0.865966796875, -2.251220703125, 1.777832031250, -256.000000000000, 117.867187500000, -97.195312500000, 1490856413
0.515869140625, -1.508544921875, 0.167236328125, -256.000000000000, 159.140625000000, -45.757812500000, 1490856413
-0.025634765625, -0.277832031250, -0.087158203125, -119.414062500000, 82.367187500000, -21.898437500000, 1490856413
-0.025634765625, -0.277832031250, -0.087158203125, -119.414062500000, 82.367187500000, -21.898437500000, 1490856413
-0.025634765625, -0.277832031250, -0.087158203125, -119.414062500000, 82.367187500000, -21.898437500000, 1490856413
-0.025634765625, -0.277832031250, -0.087158203125, -119.414062500000, 82.367187500000, -21.898437500000, 1490856413
-0.025634765625, -0.277832031250, -0.087158203125, -119.414062500000, 82.367187500000, -21.898437500000, 1490856413
-0.076416015625, -0.122070312500, -0.064453125000, -145.187500000000, 2.492187500000, -16.226562500000, 1490856413
-0.076416015625, -0.122070312500, -0.064453125000, -145.187500000000, 2.492187500000, -16.226562500000, 1490856413
-0.076416015625, -0.122070312500, -0.064453125000, -145.187500000000, 2.492187500000, -16.226562500000, 1490856413
0.003417968750, -0.132324218750, -0.081787109375, -139.843750000000, -46.429687500000, 12.625000000000, 1490856413
-0.004150390625, -0.141357421875, 0.033691406250, -124.867187500000, -32.593750000000, 32.468750000000, 1490856413
-0.004150390625, -0.141357421875, 0.033691406250, -124.867187500000, -32.593750000000, 32.468750000000, 1490856413
-0.004150390625, -0.141357421875, 0.033691406250, -124.867187500000, -32.593750000000, 32.468750000000, 1490856413
-0.190429687500, -0.774414062500, -0.214111328125, -196.039062500000, -81.257812500000, -7.484375000000, 1490856413
-0.190429687500, -0.774414062500, -0.214111328125, -196.039062500000, -81.257812500000, -7.484375000000, 1490856413
-0.190429687500, -0.774414062500, -0.214111328125, -196.039062500000, -81.257812500000, -7.484375000000, 1490856413
-0.190429687500, -0.774414062500, -0.214111328125, -196.039062500000, -81.257812500000, -7.484375000000, 1490856413
-0.343505859375, -1.645507812500, 0.084716796875, -94.984375000000, -178.398437500000, -70.437500000000, 1490856413
-0.343505859375, -1.645507812500, 0.084716796875, -94.984375000000, -178.398437500000, -70.437500000000, 1490856413
-0.343505859375, -1.645507812500, 0.084716796875, -94.984375000000, -178.398437500000, -70.437500000000, 1490856413
-0.058349609375, -1.336181640625, 0.077636718750, 190.492187500000, -20.203125000000, -8.382812500000, 1490856413
-0.058349609375, -1.336181640625, 0.077636718750, 190.492187500000, -20.203125000000, -8.382812500000, 1490856413
-0.058349609375, -1.336181640625, 0.077636718750, 190.492187500000, -20.203125000000, -8.382812500000, 1490856413
0.433349609375, -2.772216796875, -0.454101562500, 253.992187500000, 16.304687500000, -62.726562500000, 1490856414
0.433349609375, -2.772216796875, -0.454101562500, 253.992187500000, 16.304687500000, -62.726562500000, 1490856414
0.433349609375, -2.772216796875, -0.454101562500, 253.992187500000, 16.304687500000, -62.726562500000, 1490856414
1.897460937500, -3.958984375000, 4.968750000000, 88.632812500000, 2.515625000000, -35.312500000000, 1490856414
1.897460937500, -3.958984375000, 4.968750000000, 88.632812500000, 2.515625000000, -35.312500000000, 1490856414
1.897460937500, -3.958984375000, 4.968750000000, 88.632812500000, 2.515625000000, -35.312500000000, 1490856414
1.897460937500, -3.958984375000, 4.968750000000, 88.632812500000, 2.515625000000, -35.312500000000, 1490856414
0.166503906250, -0.951904296875, 0.083740234375, -256.000000000000, -241.015625000000, 137.937500000000, 1490856414
0.166503906250, -0.951904296875, 0.083740234375, -256.000000000000, -241.015625000000, 137.937500000000, 1490856414
0.166503906250, -0.951904296875, 0.083740234375, -256.000000000000, -241.015625000000, 137.937500000000, 1490856414
0.116455078125, -0.345214843750, -0.012451171875, -123.421875000000, 55.343750000000, -10.679687500000, 1490856414
0.116455078125, -0.345214843750, -0.012451171875, -123.421875000000, 55.343750000000, -10.679687500000, 1490856414
0.116455078125, -0.345214843750, -0.012451171875, -123.421875000000, 55.343750000000, -10.679687500000, 1490856414
0.082763671875, 0.066650390625, 0.049316406250, -23.765625000000, 213.078125000000, -22.664062500000, 1490856414
0.082763671875, 0.066650390625, 0.049316406250, -23.765625000000, 213.078125000000, -22.664062500000, 1490856414
-0.133789062500, -0.287841796875, -0.131835937500, -115.914062500000, 91.843750000000, -80.539062500000, 1490856414
-0.133789062500, -0.287841796875, -0.131835937500, -115.914062500000, 91.843750000000, -80.539062500000, 1490856414
-0.133789062500, -0.287841796875, -0.131835937500, -115.914062500000, 91.843750000000, -80.539062500000, 1490856414
-0.133789062500, -0.287841796875, -0.131835937500, -115.914062500000, 91.843750000000, -80.539062500000, 1490856414
-0.043457031250, -1.015136718750, -0.257080078125, -228.796875000000, -92.406250000000, -24.890625000000, 1490856414
-0.043457031250, -1.015136718750, -0.257080078125, -228.796875000000, -92.406250000000, -24.890625000000, 1490856414
-0.043457031250, -1.015136718750, -0.257080078125, -228.796875000000, -92.406250000000, -24.890625000000, 1490856414
-0.043457031250, -1.015136718750, -0.257080078125, -228.796875000000, -92.406250000000, -24.890625000000, 1490856414
-0.196777343750, -1.204345703125, -0.086181640625, -41.179687500000, -256.000000000000, -15.226562500000, 1490856414
-0.196777343750, -1.204345703125, -0.086181640625, -41.179687500000, -256.000000000000, -15.226562500000, 1490856414
-0.196777343750, -1.204345703125, -0.086181640625, -41.179687500000, -256.000000000000, -15.226562500000, 1490856414
-0.066406250000, -1.783691406250, -0.074218750000, 188.578125000000, -256.000000000000, -143.242187500000, 1490856414
-0.066406250000, -1.783691406250, -0.074218750000, 188.578125000000, -256.000000000000, -143.242187500000, 1490856414
-0.066406250000, -1.783691406250, -0.074218750000, 188.578125000000, -256.000000000000, -143.242187500000, 1490856414
0.636962890625, -1.853027343750, -0.376708984375, 75.046875000000, 72.250000000000, -54.593750000000, 1490856414
0.636962890625, -1.853027343750, -0.376708984375, 75.046875000000, 72.250000000000, -54.593750000000, 1490856414
0.636962890625, -1.853027343750, -0.376708984375, 75.046875000000, 72.250000000000, -54.593750000000, 1490856414
0.636962890625, -1.853027343750, -0.376708984375, 75.046875000000, 72.250000000000, -54.593750000000, 1490856414
2.591064453125, -1.420654296875, 4.295410156250, 253.992187500000, -158.671875000000, -180.140625000000, 1490856414
2.591064453125, -1.420654296875, 4.295410156250, 253.992187500000, -158.671875000000, -180.140625000000, 1490856414
2.591064453125, -1.420654296875, 4.295410156250, 253.992187500000, -158.671875000000, -180.140625000000, 1490856414
0.131591796875, -0.715576171875, -0.117675781250, -256.000000000000, -0.156250000000, -5.179687500000, 1490856414
0.131591796875, -0.715576171875, -0.117675781250, -256.000000000000, -0.156250000000, -5.179687500000, 1490856414
-0.078613281250, 0.063476562500, 0.101562500000, -245.234375000000, -134.382812500000, 73.476562500000, 1490856414
-0.078613281250, 0.063476562500, 0.101562500000, -245.234375000000, -134.382812500000, 73.476562500000, 1490856414
-0.078613281250, 0.063476562500, 0.101562500000, -245.234375000000, -134.382812500000, 73.476562500000, 1490856414
0.063232421875, 0.011962890625, 0.149414062500, -128.156250000000, -29.984375000000, 13.703125000000, 1490856414
0.211181640625, -0.299804687500, -0.130371093750, -132.445312500000, 81.164062500000, 14.304687500000, 1490856414
0.211181640625, -0.299804687500, -0.130371093750, -132.445312500000, 81.164062500000, 14.304687500000, 1490856414
0.211181640625, -0.299804687500, -0.130371093750, -132.445312500000, 81.164062500000, 14.304687500000, 1490856414
0.404052734375, -1.444580078125, -0.335693359375, -256.210937500000, 253.992187500000, 44.742187500000, 1490856414
0.446289062500, -1.800781250000, -0.433837890625, -256.000000000000, 241.906250000000, 31.500000000000, 1490856414
0.446289062500, -1.800781250000, -0.433837890625, -256.000000000000, 241.906250000000, 31.500000000000, 1490856414
0.446289062500, -1.800781250000, -0.433837890625, -256.000000000000, 241.906250000000, 31.500000000000, 1490856414
0.181152343750, -1.300292968750, -0.142089843750, 83.304687500000, -238.296875000000, -96.851562500000, 1490856414
0.181152343750, -1.300292968750, -0.142089843750, 83.304687500000, -238.296875000000, -96.851562500000, 1490856414
0.181152343750, -1.300292968750, -0.142089843750, 83.304687500000, -238.296875000000, -96.851562500000, 1490856414
0.365966796875, -2.360595703125, -0.311035156250, 253.992187500000, -256.000000000000, 34.882812500000, 1490856414
0.365966796875, -2.360595703125, -0.311035156250, 253.992187500000, -256.000000000000, 34.882812500000, 1490856414
0.365966796875, -2.360595703125, -0.311035156250, 253.992187500000, -256.000000000000, 34.882812500000, 1490856414
0.298095703125, -1.543457031250, 0.677978515625, -256.000000000000, -42.703125000000, 79.976562500000, 1490856414
0.298095703125, -1.543457031250, 0.677978515625, -256.000000000000, -42.703125000000, 79.976562500000, 1490856414
0.298095703125, -1.543457031250, 0.677978515625, -256.000000000000, -42.703125000000, 79.976562500000, 1490856414
0.298095703125, -1.543457031250, 0.677978515625, -256.000000000000, -42.703125000000, 79.976562500000, 1490856414
0.288085937500, -0.627929687500, -0.085449218750, -256.000000000000, -161.484375000000, 108.851562500000, 1490856414
0.288085937500, -0.627929687500, -0.085449218750, -256.000000000000, -161.484375000000, 108.851562500000, 1490856414
0.288085937500, -0.627929687500, -0.085449218750, -256.000000000000, -161.484375000000, 108.851562500000, 1490856414
-0.027832031250, 0.132568359375, 0.174316406250, -131.539062500000, -60.265625000000, -16.125000000000, 1490856414
-0.027832031250, 0.132568359375, 0.174316406250, -131.539062500000, -60.265625000000, -16.125000000000, 1490856414
-0.027832031250, 0.132568359375, 0.174316406250, -131.539062500000, -60.265625000000, -16.125000000000, 1490856414
0.090576171875, 0.090576171875, -0.024658203125, -20.843750000000, 224.664062500000, -66.914062500000, 1490856415
0.090576171875, 0.090576171875, -0.024658203125, -20.843750000000, 224.664062500000, -66.914062500000, 1490856415
0.090576171875, 0.090576171875, -0.024658203125, -20.843750000000, 224.664062500000, -66.914062500000, 1490856415
0.410888671875, -0.854736328125, -0.259277343750, -87.617187500000, 253.992187500000, -50.710937500000, 1490856415
0.410888671875, -0.854736328125, -0.259277343750, -87.617187500000, 253.992187500000, -50.710937500000, 1490856415
0.410888671875, -0.854736328125, -0.259277343750, -87.617187500000, 253.992187500000, -50.710937500000, 1490856415
0.410888671875, -0.854736328125, -0.259277343750, -87.617187500000, 253.992187500000, -50.710937500000, 1490856415
0.242431640625, -0.963867187500, -0.276611328125, 21.265625000000, -5.406250000000, -60.703125000000, 1490856415
0.242431640625, -0.963867187500, -0.276611328125, 21.265625000000, -5.406250000000, -60.703125000000, 1490856415
0.242431640625, -0.963867187500, -0.276611328125, 21.265625000000, -5.406250000000, -60.703125000000, 1490856415
0.502197265625, -1.753417968750, -0.232910156250, 224.601562500000, -256.000000000000, -55.679687500000, 1490856415
0.502197265625, -1.753417968750, -0.232910156250, 224.601562500000, -256.000000000000, -55.679687500000, 1490856415
0.502197265625, -1.753417968750, -0.232910156250, 224.601562500000, -256.000000000000, -55.679687500000, 1490856415
0.537597656250, -1.792480468750, -0.168945312500, 127.054687500000, -256.000000000000, -17.140625000000, 1490856415
0.537597656250, -1.792480468750, -0.168945312500, 127.054687500000, -256.000000000000, -17.140625000000, 1490856415
0.537597656250, -1.792480468750, -0.168945312500, 127.054687500000, -256.000000000000, -17.140625000000, 1490856415
0.542724609375, -1.270507812500, 1.869384765625, -256.000000000000, 18.375000000000, 41.351562500000, 1490856415
0.542724609375, -1.270507812500, 1.869384765625, -256.000000000000, 18.375000000000, 41.351562500000, 1490856415
0.542724609375, -1.270507812500, 1.869384765625, -256.000000000000, 18.375000000000, 41.351562500000, 1490856415
0.542724609375, -1.270507812500, 1.869384765625, -256.000000000000, 18.375000000000, 41.351562500000, 1490856415
0.059814453125, -0.297363281250, 0.128417968750, -256.000000000000, 3.406250000000, 107.265625000000, 1490856415
0.059814453125, -0.297363281250, 0.128417968750, -256.000000000000, 3.406250000000, 107.265625000000, 1490856415
0.059814453125, -0.297363281250, 0.128417968750, -256.000000000000, 3.406250000000, 107.265625000000, 1490856415
-0.066162109375, -0.199462890625, 0.015625000000, -148.070312500000, 22.382812500000, 5.382812500000, 1490856415
-0.066162109375, -0.199462890625, 0.015625000000, -148.070312500000, 22.382812500000, 5.382812500000, 1490856415
-0.066162109375, -0.199462890625, 0.015625000000, -148.070312500000, 22.382812500000, 5.382812500000, 1490856415
-0.130615234375, -0.767578125000, -0.178222656250, -175.867187500000, 15.812500000000, -84.281250000000, 1490856415
-0.130615234375, -0.767578125000, -0.178222656250, -175.867187500000, 15.812500000000, -84.281250000000, 1490856415
-0.130615234375, -0.767578125000, -0.178222656250, -175.867187500000, 15.812500000000, -84.281250000000, 1490856415
-0.260986328125, -1.041748046875, -0.070312500000, -175.703125000000, 5.304687500000, -12.953125000000, 1490856415
-0.260986328125, -1.041748046875, -0.070312500000, -175.703125000000, 5.304687500000, -12.953125000000, 1490856415
-0.260986328125, -1.041748046875, -0.070312500000, -175.703125000000, 5.304687500000, -12.953125000000, 1490856415
-0.260986328125, -1.041748046875, -0.070312500000, -175.703125000000, 5.304687500000, -12.953125000000, 1490856415
0.020507812500, -1.683349609375, -0.210205078125, 198.437500000000, -4.421875000000, -96.835937500000, 1490856415
0.020507812500, -1.683349609375, -0.210205078125, 198.437500000000, -4.421875000000, -96.835937500000, 1490856415
0.020507812500, -1.683349609375, -0.210205078125, 198.437500000000, -4.421875000000, -96.835937500000, 1490856415
0.285888671875, -2.033691406250, -0.611572265625, 253.992187500000, -256.000000000000, -79.109375000000, 1490856415
0.285888671875, -2.033691406250, -0.611572265625, 253.992187500000, -256.000000000000, -79.109375000000, 1490856415
0.285888671875, -2.033691406250, -0.611572265625, 253.992187500000, -256.000000000000, -79.109375000000, 1490856415
2.519287109375, -3.631347656250, 1.574707031250, 253.992187500000, -256.000000000000, 69.492187500000, 1490856415
2.519287109375, -3.631347656250, 1.574707031250, 253.992187500000, -256.000000000000, 69.492187500000, 1490856415
2.519287109375, -3.631347656250, 1.574707031250, 253.992187500000, -256.000000000000, 69.492187500000, 1490856415
0.334472656250, -0.552246093750, 0.007324218750, -256.000000000000, -6.250000000000, 60.484375000000, 1490856415
0.334472656250, -0.552246093750, 0.007324218750, -256.000000000000, -6.250000000000, 60.484375000000, 1490856415
0.334472656250, -0.552246093750, 0.007324218750, -256.000000000000, -6.250000000000, 60.484375000000, 1490856415
0.334472656250, -0.552246093750, 0.007324218750, -256.000000000000, -6.250000000000, 60.484375000000, 1490856415
0.187988281250, -0.211425781250, -0.073730468750, -222.343750000000, 133.625000000000, -45.796875000000, 1490856415
0.187988281250, -0.211425781250, -0.073730468750, -222.343750000000, 133.625000000000, -45.796875000000, 1490856415
0.187988281250, -0.211425781250, -0.073730468750, -222.343750000000, 133.625000000000, -45.796875000000, 1490856415
0.049316406250, 0.006103515625, 0.016601562500, -144.039062500000, 221.656250000000, -97.695312500000, 1490856415
0.049316406250, 0.006103515625, 0.016601562500, -144.039062500000, 221.656250000000, -97.695312500000, 1490856415
0.049316406250, 0.006103515625, 0.016601562500, -144.039062500000, 221.656250000000, -97.695312500000, 1490856415
0.074951171875, -0.831298828125, -0.267822265625, -140.343750000000, 167.617187500000, -109.117187500000, 1490856415
0.074951171875, -0.831298828125, -0.267822265625, -140.343750000000, 167.617187500000, -109.117187500000, 1490856415
0.074951171875, -0.831298828125, -0.267822265625, -140.343750000000, 167.617187500000, -109.117187500000, 1490856415
-0.021972656250, -1.313964843750, -0.356445312500, -15.515625000000, -256.000000000000, 10.007812500000, 1490856415
-0.021972656250, -1.313964843750, -0.356445312500, -15.515625000000, -256.000000000000, 10.007812500000, 1490856415
-0.021972656250, -1.313964843750, -0.356445312500, -15.515625000000, -256.000000000000, 10.007812500000, 1490856415
-0.021972656250, -1.313964843750, -0.356445312500, -15.515625000000, -256.000000000000, 10.007812500000, 1490856415
0.018066406250, -1.499511718750, -0.214111328125, 126.789062500000, -256.000000000000, -28.656250000000, 1490856415
0.018066406250, -1.499511718750, -0.214111328125, 126.789062500000, -256.000000000000, -28.656250000000, 1490856415
0.018066406250, -1.499511718750, -0.214111328125, 126.789062500000, -256.000000000000, -28.656250000000, 1490856415
0.629150390625, -2.008056640625, -0.295654296875, 253.992187500000, -87.843750000000, -87.085937500000, 1490856415
0.629150390625, -2.008056640625, -0.295654296875, 253.992187500000, -87.843750000000, -87.085937500000, 1490856415
0.629150390625, -2.008056640625, -0.295654296875, 253.992187500000, -87.843750000000, -87.085937500000, 1490856415
0.540527343750, -3.516601562500, 2.572753906250, 132.718750000000, 253.992187500000, -9.828125000000, 1490856415
0.540527343750, -3.516601562500, 2.572753906250, 132.718750000000, 253.992187500000, -9.828125000000, 1490856415
0.540527343750, -3.516601562500, 2.572753906250, 132.718750000000, 253.992187500000, -9.828125000000, 1490856415
0.206054687500, -1.267333984375, 0.482177734375, -256.000000000000, -37.132812500000, 40.601562500000, 1490856416
0.212890625000, -0.405273437500, -0.144287109375, -116.242187500000, 192.484375000000, 22.992187500000, 1490856416
0.112792968750, -0.363525390625, -0.226562500000, -67.257812500000, 152.085937500000, -28.773437500000, 1490856416
0.112792968750, -0.363525390625, -0.226562500000, -67.257812500000, 152.085937500000, -28.773437500000, 1490856416
0.112792968750, -0.363525390625, -0.226562500000, -67.257812500000, 152.085937500000, -28.773437500000, 1490856416
0.157714843750, -0.164306640625, -0.156250000000, -45.585937500000, -24.828125000000, 13.937500000000, 1490856416
0.157714843750, -0.164306640625, -0.156250000000, -45.585937500000, -24.828125000000, 13.937500000000, 1490856416
0.157714843750, -0.164306640625, -0.156250000000, -45.585937500000, -24.828125000000, 13.937500000000, 1490856416
0.157714843750, -0.164306640625, -0.156250000000, -45.585937500000, -24.828125000000, 13.937500000000, 1490856416
0.157714843750, -0.164306640625, -0.156250000000, -45.585937500000, -24.828125000000, 13.937500000000, 1490856416
-0.268798828125, -1.535888671875, -0.099121093750, 198.593750000000, -256.000000000000, -3.906250000000, 1490856416
-0.268798828125, -1.535888671875, -0.099121093750, 198.593750000000, -256.000000000000, -3.906250000000, 1490856416
-0.268798828125, -1.535888671875, -0.099121093750, 198.593750000000, -256.000000000000, -3.906250000000, 1490856416
-0.268798828125, -1.535888671875, -0.099121093750, 198.593750000000, -256.000000000000, -3.906250000000, 1490856416
-0.268798828125, -1.535888671875, -0.099121093750, 198.593750000000, -256.000000000000, -3.906250000000, 1490856416
0.688476562500, -2.175048828125, 1.150878906250, 136.437500000000, -167.429687500000, 22.570312500000, 1490856416
0.688476562500, -2.175048828125, 1.150878906250, 136.437500000000, -167.429687500000, 22.570312500000, 1490856416
0.688476562500, -2.175048828125, 1.150878906250, 136.437500000000, -167.429687500000, 22.570312500000, 1490856416
0.688476562500, -2.175048828125, 1.150878906250, 136.437500000000, -167.429687500000, 22.570312500000, 1490856416
0.688476562500, -2.175048828125, 1.150878906250, 136.437500000000, -167.429687500000, 22.570312500000, 1490856416
0.408691406250, -0.748535156250, 0.014404296875, -26.484375000000, -89.726562500000, -40.171875000000, 1490856416
0.408691406250, -0.748535156250, 0.014404296875, -26.484375000000, -89.726562500000, -40.171875000000, 1490856416
0.408691406250, -0.748535156250, 0.014404296875, -26.484375000000, -89.726562500000, -40.171875000000, 1490856416
0.408691406250, -0.748535156250, 0.014404296875, -26.484375000000, -89.726562500000, -40.171875000000, 1490856416
0.408691406250, -0.748535156250, 0.014404296875, -26.484375000000, -89.726562500000, -40.171875000000, 1490856416
0.408691406250, -0.748535156250, 0.014404296875, -26.484375000000, -89.726562500000, -40.171875000000, 1490856416
0.281738281250, -0.639648437500, -0.049072265625, -34.937500000000, -99.617187500000, 25.453125000000, 1490856416
0.281738281250, -0.639648437500, -0.049072265625, -34.937500000000, -99.617187500000, 25.453125000000, 1490856416
0.281738281250, -0.639648437500, -0.049072265625, -34.937500000000, -99.617187500000, 25.453125000000, 1490856416
0.281738281250, -0.639648437500, -0.049072265625, -34.937500000000, -99.617187500000, 25.453125000000, 1490856416
0.317138671875, -0.647216796875, -0.052246093750, -33.234375000000, -130.851562500000, 15.765625000000, 1490856416
0.317138671875, -0.647216796875, -0.052246093750, -33.234375000000, -130.851562500000, 15.765625000000, 1490856416
0.317138671875, -0.647216796875, -0.052246093750, -33.234375000000, -130.851562500000, 15.765625000000, 1490856416
0.341308593750, -0.740478515625, -0.078857421875, 31.937500000000, -108.476562500000, 6.523437500000, 1490856416
0.341308593750, -0.740478515625, -0.078857421875, 31.937500000000, -108.476562500000, 6.523437500000, 1490856416
0.341308593750, -0.740478515625, -0.078857421875, 31.937500000000, -108.476562500000, 6.523437500000, 1490856416
0.296386718750, -0.819580078125, -0.064697265625, 106.257812500000, -68.273437500000, 11.984375000000, 1490856416
0.296386718750, -0.819580078125, -0.064697265625, 106.257812500000, -68.273437500000, 11.984375000000, 1490856416
0.296386718750, -0.819580078125, -0.064697265625, 106.257812500000, -68.273437500000, 11.984375000000, 1490856416
0.285156250000, -1.326171875000, 0.603027343750, 63.843750000000, -7.640625000000, -1.453125000000, 1490856416
0.285156250000, -1.326171875000, 0.603027343750, 63.843750000000, -7.640625000000, -1.453125000000, 1490856416
0.285156250000, -1.326171875000, 0.603027343750, 63.843750000000, -7.640625000000, -1.453125000000, 1490856416
0.285156250000, -1.326171875000, 0.603027343750, 63.843750000000, -7.640625000000, -1.453125000000, 1490856416
0.291259765625, -1.254150390625, 0.146728515625, -35.921875000000, 51.015625000000, -7.460937500000, 1490856416
0.291259765625, -1.254150390625, 0.146728515625, -35.921875000000, 51.015625000000, -7.460937500000, 1490856416
0.291259765625, -1.254150390625, 0.146728515625, -35.921875000000, 51.015625000000, -7.460937500000, 1490856416
0.384521484375, -1.320556640625, 0.110107421875, 16.867187500000, -7.328125000000, -8.664062500000, 1490856416
0.384521484375, -1.320556640625, 0.110107421875, 16.867187500000, -7.328125000000, -8.664062500000, 1490856416
0.384521484375, -1.320556640625, 0.110107421875, 16.867187500000, -7.328125000000, -8.664062500000, 1490856416
0.316650390625, -1.164794921875, 0.196777343750, -70.218750000000, 7.929687500000, 3.187500000000, 1490856416
0.316650390625, -1.164794921875, 0.196777343750, -70.218750000000, 7.929687500000, 3.187500000000, 1490856416
0.316650390625, -1.164794921875, 0.196777343750, -70.218750000000, 7.929687500000, 3.187500000000, 1490856416
0.467285156250, -0.954833984375, -0.036132812500, -66.914062500000, 9.421875000000, -20.343750000000, 1490856416
0.467285156250, -0.954833984375, -0.036132812500, -66.914062500000, 9.421875000000, -20.343750000000, 1490856416
0.467285156250, -0.954833984375, -0.036132812500, -66.914062500000, 9.421875000000, -20.343750000000, 1490856416
0.467285156250, -0.954833984375, -0.036132812500, -66.914062500000, 9.421875000000, -20.343750000000, 1490856416
0.489013671875, -0.740722656250, -0.184082031250, -82.234375000000, 133.750000000000, -44.773437500000, 1490856416
0.489013671875, -0.740722656250, -0.184082031250, -82.234375000000, 133.750000000000, -44.773437500000, 1490856416
0.489013671875, -0.740722656250, -0.184082031250, -82.234375000000, 133.750000000000, -44.773437500000, 1490856416
0.403076171875, -0.831542968750, -0.153320312500, -41.132812500000, 214.414062500000, -42.179687500000, 1490856416
0.403076171875, -0.831542968750, -0.153320312500, -41.132812500000, 214.414062500000, -42.179687500000, 1490856416
0.403076171875, -0.831542968750, -0.153320312500, -41.132812500000, 214.414062500000, -42.179687500000, 1490856416
0.433105468750, -0.929199218750, -0.267578125000, 36.867187500000, 195.484375000000, -43.781250000000, 1490856416
0.433105468750, -0.929199218750, -0.267578125000, 36.867187500000, 195.484375000000, -43.781250000000, 1490856416
0.433105468750, -0.929199218750, -0.267578125000, 36.867187500000, 195.484375000000, -43.781250000000, 1490856416
0.251220703125, -0.828613281250, -0.051513671875, 95.250000000000, 45.484375000000, 31.882812500000, 1490856416
0.251220703125, -0.828613281250, -0.051513671875, 95.250000000000, 45.484375000000, 31.882812500000, 1490856417
0.251220703125, -0.828613281250, -0.051513671875, 95.250000000000, 45.484375000000, 31.882812500000, 1490856417
0.251220703125, -0.828613281250, -0.051513671875, 95.250000000000, 45.484375000000, 31.882812500000, 1490856417
0.163330078125, -0.961425781250, -0.133300781250, 55.179687500000, -214.945312500000, 122.945312500000, 1490856417
0.163330078125, -0.961425781250, -0.133300781250, 55.179687500000, -214.945312500000, 122.945312500000, 1490856417
0.163330078125, -0.961425781250, -0.133300781250, 55.179687500000, -214.945312500000, 122.945312500000, 1490856417
0.390625000000, -0.925292968750, 0.200439453125, -44.335937500000, -256.000000000000, 83.921875000000, 1490856417
0.390625000000, -0.925292968750, 0.200439453125, -44.335937500000, -256.000000000000, 83.921875000000, 1490856417
0.390625000000, -0.925292968750, 0.200439453125, -44.335937500000, -256.000000000000, 83.921875000000, 1490856417
0.512695312500, -0.880126953125, 0.443603515625, 2.781250000000, 90.835937500000, -20.468750000000, 1490856417
0.512695312500, -0.880126953125, 0.443603515625, 2.781250000000, 90.835937500000, -20.468750000000, 1490856417
0.413330078125, -0.887207031250, 0.202636718750, -49.500000000000, 58.734375000000, 0.906250000000, 1490856417
0.311279296875, -0.811523437500, 0.010742187500, -72.617187500000, -13.539062500000, 2.101562500000, 1490856417
0.311279296875, -0.811523437500, 0.010742187500, -72.617187500000, -13.539062500000, 2.101562500000, 1490856417
0.345947265625, -0.960937500000, -0.016357421875, -46.632812500000, -9.601562500000, -3.703125000000, 1490856417
0.463378906250, -1.053222656250, -0.009521484375, -6.414062500000, -12.640625000000, -13.070312500000, 1490856417
0.463378906250, -1.053222656250, -0.009521484375, -6.414062500000, -12.640625000000, -13.070312500000, 1490856417
0.463378906250, -1.053222656250, -0.009521484375, -6.414062500000, -12.640625000000, -13.070312500000, 1490856417
0.432861328125, -1.133544921875, -0.091796875000, 17.054687500000, -52.015625000000, -14.046875000000, 1490856417
0.494384765625, -1.173583984375, 0.346191406250, -69.085937500000, 16.984375000000, -7.156250000000, 1490856417
0.494384765625, -1.173583984375, 0.346191406250, -69.085937500000, 16.984375000000, -7.156250000000, 1490856417
0.494384765625, -1.173583984375, 0.346191406250, -69.085937500000, 16.984375000000, -7.156250000000, 1490856417
0.494384765625, -1.173583984375, 0.346191406250, -69.085937500000, 16.984375000000, -7.156250000000, 1490856417
0.494384765625, -1.173583984375, 0.346191406250, -69.085937500000, 16.984375000000, -7.156250000000, 1490856417
0.494384765625, -1.173583984375, 0.346191406250, -69.085937500000, 16.984375000000, -7.156250000000, 1490856417
0.327880859375, -1.175292968750, 0.041259765625, -91.492187500000, 38.976562500000, -16.210937500000, 1490856417
0.327880859375, -1.175292968750, 0.041259765625, -91.492187500000, 38.976562500000, -16.210937500000, 1490856417
0.327880859375, -1.175292968750, 0.041259765625, -91.492187500000, 38.976562500000, -16.210937500000, 1490856417
0.327880859375, -1.175292968750, 0.041259765625, -91.492187500000, 38.976562500000, -16.210937500000, 1490856417
0.293945312500, -0.735595703125, -0.003417968750, -36.937500000000, 13.796875000000, -31.984375000000, 1490856417
0.293945312500, -0.735595703125, -0.003417968750, -36.937500000000, 13.796875000000, -31.984375000000, 1490856417
0.293945312500, -0.735595703125, -0.003417968750, -36.937500000000, 13.796875000000, -31.984375000000, 1490856417
0.107421875000, -0.666748046875, -0.059326171875, -27.031250000000, 15.359375000000, -21.375000000000, 1490856417
0.107421875000, -0.666748046875, -0.059326171875, -27.031250000000, 15.359375000000, -21.375000000000, 1490856417
0.107421875000, -0.666748046875, -0.059326171875, -27.031250000000, 15.359375000000, -21.375000000000, 1490856417
0.099853515625, -0.837402343750, -0.128662109375, -49.171875000000, 2.570312500000, -19.187500000000, 1490856417
0.099853515625, -0.837402343750, -0.128662109375, -49.171875000000, 2.570312500000, -19.187500000000, 1490856417
0.099853515625, -0.837402343750, -0.128662109375, -49.171875000000, 2.570312500000, -19.187500000000, 1490856417
0.394042968750, -0.988769531250, -0.207031250000, 20.500000000000, -15.984375000000, -44.437500000000, 1490856417
0.394042968750, -0.988769531250, -0.207031250000, 20.500000000000, -15.984375000000, -44.437500000000, 1490856417
0.394042968750, -0.988769531250, -0.207031250000, 20.500000000000, -15.984375000000, -44.437500000000, 1490856417
0.394042968750, -0.988769531250, -0.207031250000, 20.500000000000, -15.984375000000, -44.437500000000, 1490856417
0.406982421875, -0.944335937500, -0.203857421875, 108.515625000000, -115.429687500000, -11.195312500000, 1490856417
0.406982421875, -0.944335937500, -0.203857421875, 108.515625000000, -115.429687500000, -11.195312500000, 1490856417
0.406982421875, -0.944335937500, -0.203857421875, 108.515625000000, -115.429687500000, -11.195312500000, 1490856417
0.306884765625, -0.956054687500, 0.239501953125, 118.390625000000, -201.007812500000, 39.976562500000, 1490856417
0.306884765625, -0.956054687500, 0.239501953125, 118.390625000000, -201.007812500000, 39.976562500000, 1490856417
0.306884765625, -0.956054687500, 0.239501953125, 118.390625000000, -201.007812500000, 39.976562500000, 1490856417
0.460937500000, -0.734130859375, 0.180908203125, -28.851562500000, -22.789062500000, 1.265625000000, 1490856417
0.460937500000, -0.734130859375, 0.180908203125, -28.851562500000, -22.789062500000, 1.265625000000, 1490856417
0.460937500000, -0.734130859375, 0.180908203125, -28.851562500000, -22.789062500000, 1.265625000000, 1490856417
0.322998046875, -0.959960937500, -0.089355468750, -36.281250000000, 35.984375000000, 5.117187500000, 1490856417
0.322998046875, -0.959960937500, -0.089355468750, -36.281250000000, 35.984375000000, 5.117187500000, 1490856417
0.322998046875, -0.959960937500, -0.089355468750, -36.281250000000, 35.984375000000, 5.117187500000, 1490856417
0.322998046875, -0.959960937500, -0.089355468750, -12.328125000000, 23.195312500000, 2.093750000000, 1490856417
0.325927734375, -1.003173828125, -0.049072265625, -12.328125000000, 23.195312500000, 2.093750000000, 1490856417
0.238037109375, -1.141357421875, 0.318359375000, 88.898437500000, 38.632812500000, -16.820312500000, 1490856417
0.238037109375, -1.141357421875, 0.318359375000, 88.898437500000, 38.632812500000, -16.820312500000, 1490856417
0.238037109375, -1.141357421875, 0.318359375000, 88.898437500000, 38.632812500000, -16.820312500000, 1490856417
0.238037109375, -1.141357421875, 0.318359375000, 88.898437500000, 38.632812500000, -16.820312500000, 1490856417
0.238037109375, -1.141357421875, 0.318359375000, 88.898437500000, 38.632812500000, -16.820312500000, 1490856417
0.382080078125, -0.989501953125, 0.265869140625, -77.117187500000, 50.351562500000, -4.601562500000, 1490856417
0.382080078125, -0.989501953125, 0.265869140625, -77.117187500000, 50.351562500000, -4.601562500000, 1490856417
0.382080078125, -0.989501953125, 0.265869140625, -77.117187500000, 50.351562500000, -4.601562500000, 1490856417
0.486816406250, -1.238769531250, -0.035644531250, -105.429687500000, 79.031250000000, -0.484375000000, 1490856417
0.486816406250, -1.238769531250, -0.035644531250, -105.429687500000, 79.031250000000, -0.484375000000, 1490856417
0.486816406250, -1.238769531250, -0.035644531250, -105.429687500000, 79.031250000000, -0.484375000000, 1490856417
0.486816406250, -1.238769531250, -0.035644531250, -105.429687500000, 79.031250000000, -0.484375000000, 1490856417
0.553955078125, -1.058349609375, -0.104980468750, -3.554687500000, 78.015625000000, 6.929687500000, 1490856418
0.553955078125, -1.058349609375, -0.104980468750, -3.554687500000, 78.015625000000, 6.929687500000, 1490856418
0.553955078125, -1.058349609375, -0.104980468750, -3.554687500000, 78.015625000000, 6.929687500000, 1490856418
0.462890625000, -0.788574218750, -0.036621093750, 21.750000000000, 104.718750000000, 2.117187500000, 1490856418
0.462890625000, -0.788574218750, -0.036621093750, 21.750000000000, 104.718750000000, 2.117187500000, 1490856418
0.462890625000, -0.788574218750, -0.036621093750, 21.750000000000, 104.718750000000, 2.117187500000, 1490856418
0.428955078125, -0.779052734375, -0.149658203125, -1.062500000000, 173.679687500000, -7.046875000000, 1490856418
0.428955078125, -0.779052734375, -0.149658203125, -1.062500000000, 173.679687500000, -7.046875000000, 1490856418
0.428955078125, -0.779052734375, -0.149658203125, -1.062500000000, 173.679687500000, -7.046875000000, 1490856418
0.364990234375, -0.927978515625, -0.192871093750, 39.960937500000, 213.757812500000, -4.312500000000, 1490856418
0.364990234375, -0.927978515625, -0.192871093750, 39.960937500000, 213.757812500000, -4.312500000000, 1490856418
0.364990234375, -0.927978515625, -0.192871093750, 39.960937500000, 213.757812500000, -4.312500000000, 1490856418
0.364990234375, -0.927978515625, -0.192871093750, 39.960937500000, 213.757812500000, -4.312500000000, 1490856418
0.337158203125, -0.965820312500, -0.146240234375, 88.101562500000, 74.507812500000, 31.617187500000, 1490856418
0.337158203125, -0.965820312500, -0.146240234375, 88.101562500000, 74.507812500000, 31.617187500000, 1490856418
0.337158203125, -0.965820312500, -0.146240234375, 88.101562500000, 74.507812500000, 31.617187500000, 1490856418
0.215332031250, -1.065429687500, 0.018798828125, 117.179687500000, -88.367187500000, 39.539062500000, 1490856418
0.215332031250, -1.065429687500, 0.018798828125, 117.179687500000, -88.367187500000, 39.539062500000, 1490856418
0.215332031250, -1.065429687500, 0.018798828125, 117.179687500000, -88.367187500000, 39.539062500000, 1490856418
0.380859375000, -0.905517578125, 0.273437500000, 127.570312500000, 26.992187500000, -26.703125000000, 1490856418
0.380859375000, -0.905517578125, 0.273437500000, 127.570312500000, 26.992187500000, -26.703125000000, 1490856418
0.380859375000, -0.905517578125, 0.273437500000, 127.570312500000, 26.992187500000, -26.703125000000, 1490856418
0.353271484375, -0.885498046875, -0.093017578125, -39.921875000000, 51.179687500000, 22.757812500000, 1490856418
0.353271484375, -0.885498046875, -0.093017578125, -39.921875000000, 51.179687500000, 22.757812500000, 1490856418
0.353271484375, -0.885498046875, -0.093017578125, -39.921875000000, 51.179687500000, 22.757812500000, 1490856418
0.313964843750, -1.023437500000, 0.016113281250, -21.070312500000, 31.390625000000, 24.812500000000, 1490856418
0.189697265625, -1.013916015625, 0.085205078125, 25.335937500000, 3.007812500000, 12.812500000000, 1490856418
0.189697265625, -1.013916015625, 0.085205078125, 25.335937500000, 3.007812500000, 12.812500000000, 1490856418
0.189697265625, -1.013916015625, 0.085205078125, 25.335937500000, 3.007812500000, 12.812500000000, 1490856418
0.189697265625, -1.013916015625, 0.085205078125, 25.335937500000, 3.007812500000, 12.812500000000, 1490856418
0.189697265625, -1.013916015625, 0.085205078125, 25.335937500000, 3.007812500000, 12.812500000000, 1490856418
0.431396484375, -1.105957031250, 0.180175781250, 34.757812500000, -37.093750000000, -19.468750000000, 1490856418
0.431396484375, -1.105957031250, 0.180175781250, 34.757812500000, -37.093750000000, -19.468750000000, 1490856418
0.431396484375, -1.105957031250, 0.180175781250, 34.757812500000, -37.093750000000, -19.468750000000, 1490856418
0.431396484375, -1.105957031250, 0.180175781250, 34.757812500000, -37.093750000000, -19.468750000000, 1490856418
0.350830078125, -1.176757812500, 0.185058593750, -46.281250000000, -22.484375000000, -7.351562500000, 1490856418
0.350830078125, -1.176757812500, 0.185058593750, -46.281250000000, -22.484375000000, -7.351562500000, 1490856418
0.350830078125, -1.176757812500, 0.185058593750, -46.281250000000, -22.484375000000, -7.351562500000, 1490856418
0.350830078125, -1.176757812500, 0.185058593750, -46.281250000000, -22.484375000000, -7.351562500000, 1490856418
0.343994140625, -1.088623046875, 0.043457031250, -68.882812500000, -7.828125000000, -16.929687500000, 1490856418
0.343994140625, -1.088623046875, 0.043457031250, -68.882812500000, -7.828125000000, -16.929687500000, 1490856418
0.343994140625, -1.088623046875, 0.043457031250, -68.882812500000, -7.828125000000, -16.929687500000, 1490856418
0.470214843750, -1.050537109375, 0.113525390625, -88.117187500000, -13.078125000000, -15.492187500000, 1490856418
0.338134765625, -0.544189453125, 0.007812500000, -33.703125000000, 39.546875000000, -18.695312500000, 1490856418
0.338134765625, -0.544189453125, 0.007812500000, -33.703125000000, 39.546875000000, -18.695312500000, 1490856418
0.338134765625, -0.544189453125, 0.007812500000, -33.703125000000, 39.546875000000, -18.695312500000, 1490856418
0.338134765625, -0.544189453125, 0.007812500000, -33.703125000000, 39.546875000000, -18.695312500000, 1490856418
0.251953125000, -0.815673828125, -0.123779296875, -49.015625000000, 83.500000000000, -5.742187500000, 1490856418
0.251953125000, -0.815673828125, -0.123779296875, -49.015625000000, 83.500000000000, -5.742187500000, 1490856418
0.251953125000, -0.815673828125, -0.123779296875, -49.015625000000, 83.500000000000, -5.742187500000, 1490856418
0.251953125000, -0.815673828125, -0.123779296875, -49.015625000000, 83.500000000000, -5.742187500000, 1490856418
0.251953125000, -0.815673828125, -0.123779296875, -49.015625000000, 83.500000000000, -5.742187500000, 1490856418
0.322021484375, -0.907958984375, -0.036376953125, -19.242187500000, 78.796875000000, -9.476562500000, 1490856418
0.322021484375, -0.907958984375, -0.036376953125, -19.242187500000, 78.796875000000, -9.476562500000, 1490856418
0.322021484375, -0.907958984375, -0.036376953125, -19.242187500000, 78.796875000000, -9.476562500000, 1490856418
0.468261718750, -1.135253906250, -0.117431640625, 55.460937500000, 91.125000000000, -39.710937500000, 1490856418
0.468261718750, -1.135253906250, -0.117431640625, 55.460937500000, 91.125000000000, -39.710937500000, 1490856418
0.468261718750, -1.135253906250, -0.117431640625, 55.460937500000, 91.125000000000, -39.710937500000, 1490856418
0.413330078125, -1.104980468750, -0.175292968750, 127.351562500000, 33.929687500000, -24.476562500000, 1490856418
0.413330078125, -1.104980468750, -0.175292968750, 127.351562500000, 33.929687500000, -24.476562500000, 1490856418
0.413330078125, -1.104980468750, -0.175292968750, 127.351562500000, 33.929687500000, -24.476562500000, 1490856418
0.287841796875, -1.057128906250, 0.241455078125, 128.656250000000, 151.484375000000, -18.062500000000, 1490856418
0.287841796875, -1.057128906250, 0.241455078125, 128.656250000000, 151.484375000000, -18.062500000000, 1490856418
0.287841796875, -1.057128906250, 0.241455078125, 128.656250000000, 151.484375000000, -18.062500000000, 1490856418
0.287841796875, -1.057128906250, 0.241455078125, 128.656250000000, 151.484375000000, -18.062500000000, 1490856418
0.355468750000, -1.021972656250, 0.064697265625, -43.593750000000, 92.406250000000, -10.898437500000, 1490856418
0.355468750000, -1.021972656250, 0.064697265625, -43.593750000000, 92.406250000000, -10.898437500000, 1490856418
0.355468750000, -1.021972656250, 0.064697265625, -43.593750000000, 92.406250000000, -10.898437500000, 1490856419
0.230468750000, -0.898437500000, -0.087890625000, -7.882812500000, 90.320312500000, 36.742187500000, 1490856419
0.230468750000, -0.898437500000, -0.087890625000, -7.882812500000, 90.320312500000, 36.742187500000, 1490856419
0.230468750000, -0.898437500000, -0.087890625000, -7.882812500000, 90.320312500000, 36.742187500000, 1490856419
0.271972656250, -0.846679687500, -0.078613281250, 14.523437500000, 91.039062500000, 19.960937500000, 1490856419
0.271972656250, -0.846679687500, -0.078613281250, 14.523437500000, 91.039062500000, 19.960937500000, 1490856419
