ACC_X,ACC_Y,ACC_Z,G_X,G_Y,G_Z,Unix Time
0.031494140625, 1.091796875000, -0.383300781250, 104.421875000000, -42.984375000000, -8.070312500000, 1490856177
0.031494140625, 1.091796875000, -0.383300781250, 104.421875000000, -42.984375000000, -8.070312500000, 1490856177
0.031494140625, 1.091796875000, -0.383300781250, 104.421875000000, -42.984375000000, -8.070312500000, 1490856177
0.031494140625, 1.091796875000, -0.383300781250, 104.421875000000, -42.984375000000, -8.070312500000, 1490856177
-0.325927734375, 1.179687500000, -1.002197265625, -41.398437500000, 90.054687500000, 41.250000000000, 1490856177
-0.325927734375, 1.179687500000, -1.002197265625, -41.398437500000, 90.054687500000, 41.250000000000, 1490856177
-0.325927734375, 1.179687500000, -1.002197265625, -41.398437500000, 90.054687500000, 41.250000000000, 1490856177
-0.126220703125, 0.921630859375, -0.108642578125, -235.125000000000, 23.679687500000, -24.750000000000, 1490856177
-0.126220703125, 0.921630859375, -0.108642578125, -235.125000000000, 23.679687500000, -24.750000000000, 1490856177
-0.126220703125, 0.921630859375, -0.108642578125, -235.125000000000, 23.679687500000, -24.750000000000, 1490856177
-0.235839843750, 1.342529296875, -0.110351562500, -250.226562500000, 151.914062500000, 90.320312500000, 1490856177
-0.235839843750, 1.342529296875, -0.110351562500, -250.226562500000, 151.914062500000, 90.320312500000, 1490856177
-0.235839843750, 1.342529296875, -0.110351562500, -250.226562500000, 151.914062500000, 90.320312500000, 1490856177
-0.138183593750, 0.827880859375, -0.054199218750, -11.804687500000, 199.242187500000, 80.195312500000, 1490856177
-0.138183593750, 0.827880859375, -0.054199218750, -11.804687500000, 199.242187500000, 80.195312500000, 1490856177
-0.138183593750, 0.827880859375, -0.054199218750, -11.804687500000, 199.242187500000, 80.195312500000, 1490856178
-0.138183593750, 0.827880859375, -0.054199218750, -11.804687500000, 199.242187500000, 80.195312500000, 1490856178
0.452392578125, 0.690185546875, -0.159179687500, 125.992187500000, 28.062500000000, 15.648437500000, 1490856178
0.452392578125, 0.690185546875, -0.159179687500, 125.992187500000, 28.062500000000, 15.648437500000, 1490856178
0.452392578125, 0.690185546875, -0.159179687500, 125.992187500000, 28.062500000000, 15.648437500000, 1490856178
0.452392578125, 0.690185546875, -0.159179687500, 125.992187500000, 28.062500000000, 15.648437500000, 1490856178
0.452392578125, 0.690185546875, -0.159179687500, 125.992187500000, 28.062500000000, 15.648437500000, 1490856178
0.452392578125, 0.690185546875, -0.159179687500, 125.992187500000, 28.062500000000, 15.648437500000, 1490856178
0.089599609375, 0.952392578125, -0.232177734375, 253.992187500000, -106.421875000000, -55.687500000000, 1490856178
0.089599609375, 0.952392578125, -0.232177734375, 253.992187500000, -106.421875000000, -55.687500000000, 1490856178
0.089599609375, 0.952392578125, -0.232177734375, 253.992187500000, -106.421875000000, -55.687500000000, 1490856178
0.147460937500, 0.832275390625, -0.992919921875, -24.406250000000, 29.976562500000, -11.835937500000, 1490856178
0.147460937500, 0.832275390625, -0.992919921875, -24.406250000000, 29.976562500000, -11.835937500000, 1490856178
0.147460937500, 0.832275390625, -0.992919921875, -24.406250000000, 29.976562500000, -11.835937500000, 1490856178
0.147460937500, 0.832275390625, -0.992919921875, -24.406250000000, 29.976562500000, -11.835937500000, 1490856178
0.063964843750, 0.917968750000, -0.286376953125, -86.781250000000, 36.421875000000, -30.671875000000, 1490856178
0.063964843750, 0.917968750000, -0.286376953125, -86.781250000000, 36.421875000000, -30.671875000000, 1490856178
0.063964843750, 0.917968750000, -0.286376953125, -86.781250000000, 36.421875000000, -30.671875000000, 1490856178
-0.029785156250, 1.010253906250, -0.281982421875, 15.101562500000, 20.992187500000, 6.242187500000, 1490856178
-0.029785156250, 1.010253906250, -0.281982421875, 15.101562500000, 20.992187500000, 6.242187500000, 1490856178
-0.029785156250, 1.010253906250, -0.281982421875, 15.101562500000, 20.992187500000, 6.242187500000, 1490856178
0.155273437500, 0.972412109375, -0.464843750000, 10.539062500000, 16.125000000000, -9.750000000000, 1490856178
0.155273437500, 0.972412109375, -0.464843750000, 10.539062500000, 16.125000000000, -9.750000000000, 1490856178
0.155273437500, 0.972412109375, -0.464843750000, 10.539062500000, 16.125000000000, -9.750000000000, 1490856178
0.088867187500, 1.423339843750, -0.794433593750, 8.046875000000, 17.804687500000, 39.218750000000, 1490856178
0.088867187500, 1.423339843750, -0.794433593750, 8.046875000000, 17.804687500000, 39.218750000000, 1490856178
0.088867187500, 1.423339843750, -0.794433593750, 8.046875000000, 17.804687500000, 39.218750000000, 1490856178
0.088867187500, 1.423339843750, -0.794433593750, 8.046875000000, 17.804687500000, 39.218750000000, 1490856178
0.389892578125, 1.276855468750, -0.442626953125, -115.085937500000, 75.523437500000, -5.367187500000, 1490856178
0.389892578125, 1.276855468750, -0.442626953125, -115.085937500000, 75.523437500000, -5.367187500000, 1490856178
0.389892578125, 1.276855468750, -0.442626953125, -115.085937500000, 75.523437500000, -5.367187500000, 1490856178
0.320556640625, 1.012695312500, -0.177978515625, -200.726562500000, 99.492187500000, -29.414062500000, 1490856178
0.320556640625, 1.012695312500, -0.177978515625, -200.726562500000, 99.492187500000, -29.414062500000, 1490856178
0.320556640625, 1.012695312500, -0.177978515625, -200.726562500000, 99.492187500000, -29.414062500000, 1490856178
0.521972656250, 0.871337890625, 0.001953125000, -153.281250000000, -10.968750000000, -31.015625000000, 1490856178
0.521972656250, 0.871337890625, 0.001953125000, -153.281250000000, -10.968750000000, -31.015625000000, 1490856178
0.521972656250, 0.871337890625, 0.001953125000, -153.281250000000, -10.968750000000, -31.015625000000, 1490856178
0.244628906250, 0.907958984375, 0.005859375000, 11.093750000000, -61.671875000000, -60.859375000000, 1490856178
0.244628906250, 0.907958984375, 0.005859375000, 11.093750000000, -61.671875000000, -60.859375000000, 1490856178
0.244628906250, 0.907958984375, 0.005859375000, 11.093750000000, -61.671875000000, -60.859375000000, 1490856178
0.244628906250, 0.907958984375, 0.005859375000, 11.093750000000, -61.671875000000, -60.859375000000, 1490856178
0.317871093750, 0.712890625000, -0.073974609375, 56.703125000000, -115.257812500000, -32.601562500000, 1490856178
0.317871093750, 0.712890625000, -0.073974609375, 56.703125000000, -115.257812500000, -32.601562500000, 1490856178
0.317871093750, 0.712890625000, -0.073974609375, 56.703125000000, -115.257812500000, -32.601562500000, 1490856178
0.034912109375, 0.741943359375, -0.060546875000, 122.539062500000, -131.476562500000, -39.625000000000, 1490856178
0.034912109375, 0.741943359375, -0.060546875000, 122.539062500000, -131.476562500000, -39.625000000000, 1490856178
0.034912109375, 0.741943359375, -0.060546875000, 122.539062500000, -131.476562500000, -39.625000000000, 1490856178
-0.085693359375, 0.988769531250, -0.112060546875, 228.453125000000, -190.179687500000, 5.046875000000, 1490856178
-0.085693359375, 0.988769531250, -0.112060546875, 228.453125000000, -190.179687500000, 5.046875000000, 1490856178
-0.085693359375, 0.988769531250, -0.112060546875, 228.453125000000, -190.179687500000, 5.046875000000, 1490856178
0.270751953125, 0.801513671875, -1.177490234375, 178.515625000000, -9.921875000000, 57.390625000000, 1490856178
0.270751953125, 0.801513671875, -1.177490234375, 178.515625000000, -9.921875000000, 57.390625000000, 1490856178
0.270751953125, 0.801513671875, -1.177490234375, 178.515625000000, -9.921875000000, 57.390625000000, 1490856178
0.270751953125, 0.801513671875, -1.177490234375, 178.515625000000, -9.921875000000, 57.390625000000, 1490856178
0.177734375000, 0.955078125000, -0.390625000000, -121.265625000000, -102.554687500000, -31.117187500000, 1490856178
0.177734375000, 0.955078125000, -0.390625000000, -121.265625000000, -102.554687500000, -31.117187500000, 1490856178
0.177734375000, 0.955078125000, -0.390625000000, -121.265625000000, -102.554687500000, -31.117187500000, 1490856178
0.061523437500, 1.020263671875, -0.173339843750, -129.171875000000, -29.828125000000, -15.859375000000, 1490856178
0.061523437500, 1.020263671875, -0.173339843750, -129.171875000000, -29.828125000000, -15.859375000000, 1490856178
0.061523437500, 1.020263671875, -0.173339843750, -129.171875000000, -29.828125000000, -15.859375000000, 1490856178
0.131591796875, 0.984863281250, -0.298095703125, -29.312500000000, 11.671875000000, -8.875000000000, 1490856178
0.131591796875, 0.984863281250, -0.298095703125, -29.312500000000, 11.671875000000, -8.875000000000, 1490856178
0.131591796875, 0.984863281250, -0.298095703125, -29.312500000000, 11.671875000000, -8.875000000000, 1490856178
0.257812500000, 1.141845703125, -0.459472656250, 104.468750000000, -21.929687500000, -8.578125000000, 1490856178
0.257812500000, 1.141845703125, -0.459472656250, 104.468750000000, -21.929687500000, -8.578125000000, 1490856178
0.257812500000, 1.141845703125, -0.459472656250, 104.468750000000, -21.929687500000, -8.578125000000, 1490856178
0.257812500000, 1.141845703125, -0.459472656250, 104.468750000000, -21.929687500000, -8.578125000000, 1490856178
0.250976562500, 0.935302734375, -0.716552734375, -97.468750000000, -39.070312500000, 4.468750000000, 1490856178
0.250976562500, 0.935302734375, -0.716552734375, -97.468750000000, -39.070312500000, 4.468750000000, 1490856179
0.250976562500, 0.935302734375, -0.716552734375, -97.468750000000, -39.070312500000, 4.468750000000, 1490856179
0.211914062500, 1.159179687500, -0.184326171875, -111.078125000000, -72.867187500000, -17.609375000000, 1490856179
0.044677734375, 0.899658203125, -0.210205078125, -103.875000000000, -46.562500000000, -15.851562500000, 1490856179
0.044677734375, 0.899658203125, -0.210205078125, -103.875000000000, -46.562500000000, -15.851562500000, 1490856179
0.044677734375, 0.899658203125, -0.210205078125, -103.875000000000, -46.562500000000, -15.851562500000, 1490856179
-0.011718750000, 0.914550781250, -0.043457031250, -136.203125000000, 16.085937500000, -16.234375000000, 1490856179
-0.011718750000, 0.914550781250, -0.043457031250, -136.203125000000, 16.085937500000, -16.234375000000, 1490856179
-0.011718750000, 0.914550781250, -0.043457031250, -136.203125000000, 16.085937500000, -16.234375000000, 1490856179
-0.011718750000, 0.914550781250, -0.043457031250, -136.203125000000, 16.085937500000, -16.234375000000, 1490856179
0.233886718750, 0.906005859375, -0.121337890625, 8.828125000000, 91.257812500000, 6.828125000000, 1490856179
0.233886718750, 0.906005859375, -0.121337890625, 8.828125000000, 91.257812500000, 6.828125000000, 1490856179
0.233886718750, 0.906005859375, -0.121337890625, 8.828125000000, 91.257812500000, 6.828125000000, 1490856179
0.233886718750, 0.906005859375, -0.121337890625, 8.828125000000, 91.257812500000, 6.828125000000, 1490856179
0.233886718750, 0.906005859375, -0.121337890625, 8.828125000000, 91.257812500000, 6.828125000000, 1490856179
0.512695312500, 0.838623046875, -0.235595703125, 189.109375000000, -37.242187500000, 5.882812500000, 1490856179
0.512695312500, 0.838623046875, -0.235595703125, 189.109375000000, -37.242187500000, 5.882812500000, 1490856179
0.512695312500, 0.838623046875, -0.235595703125, 189.109375000000, -37.242187500000, 5.882812500000, 1490856179
-0.001953125000, 0.951416015625, -0.300781250000, 217.429687500000, -52.734375000000, -18.960937500000, 1490856179
-0.001953125000, 0.951416015625, -0.300781250000, 217.429687500000, -52.734375000000, -18.960937500000, 1490856179
-0.001953125000, 0.951416015625, -0.300781250000, 217.429687500000, -52.734375000000, -18.960937500000, 1490856179
-0.028076171875, 0.807373046875, -0.784912109375, 9.710937500000, -3.781250000000, 13.906250000000, 1490856179
-0.028076171875, 0.807373046875, -0.784912109375, 9.710937500000, -3.781250000000, 13.906250000000, 1490856179
-0.028076171875, 0.807373046875, -0.784912109375, 9.710937500000, -3.781250000000, 13.906250000000, 1490856179
-0.028076171875, 0.807373046875, -0.784912109375, 9.710937500000, -3.781250000000, 13.906250000000, 1490856179
-0.022949218750, 0.901855468750, -0.320068359375, -93.335937500000, 4.742187500000, -2.671875000000, 1490856179
-0.022949218750, 0.901855468750, -0.320068359375, -93.335937500000, 4.742187500000, -2.671875000000, 1490856179
-0.022949218750, 0.901855468750, -0.320068359375, -93.335937500000, 4.742187500000, -2.671875000000, 1490856179
-0.011474609375, 0.941894531250, -0.404052734375, -62.085937500000, 15.906250000000, 5.031250000000, 1490856179
-0.011474609375, 0.941894531250, -0.404052734375, -62.085937500000, 15.906250000000, 5.031250000000, 1490856179
-0.011474609375, 0.941894531250, -0.404052734375, -62.085937500000, 15.906250000000, 5.031250000000, 1490856179
-0.016357421875, 0.961425781250, -0.285888671875, -6.273437500000, -4.437500000000, -1.265625000000, 1490856179
-0.016357421875, 0.961425781250, -0.285888671875, -6.273437500000, -4.437500000000, -1.265625000000, 1490856179
-0.016357421875, 0.961425781250, -0.285888671875, -6.273437500000, -4.437500000000, -1.265625000000, 1490856179
-0.073974609375, 1.522460937500, -0.780761718750, 31.984375000000, -8.921875000000, 13.210937500000, 1490856179
-0.073974609375, 1.522460937500, -0.780761718750, 31.984375000000, -8.921875000000, 13.210937500000, 1490856179
-0.073974609375, 1.522460937500, -0.780761718750, 31.984375000000, -8.921875000000, 13.210937500000, 1490856179
-0.073974609375, 1.522460937500, -0.780761718750, 31.984375000000, -8.921875000000, 13.210937500000, 1490856179
0.133056640625, 1.098388671875, -0.398925781250, -152.960937500000, 14.265625000000, -36.781250000000, 1490856179
0.133056640625, 1.098388671875, -0.398925781250, -152.960937500000, 14.265625000000, -36.781250000000, 1490856179
0.133056640625, 1.098388671875, -0.398925781250, -152.960937500000, 14.265625000000, -36.781250000000, 1490856179
0.165527343750, 0.822265625000, -0.175048828125, -126.031250000000, 31.640625000000, 12.398437500000, 1490856179
0.165527343750, 0.822265625000, -0.175048828125, -126.031250000000, 31.640625000000, 12.398437500000, 1490856179
0.165527343750, 0.822265625000, -0.175048828125, -126.031250000000, 31.640625000000, 12.398437500000, 1490856179
0.364990234375, 0.809326171875, -0.195800781250, -125.687500000000, -61.296875000000, -25.773437500000, 1490856179
0.364990234375, 0.809326171875, -0.195800781250, -125.687500000000, -61.296875000000, -25.773437500000, 1490856179
0.364990234375, 0.809326171875, -0.195800781250, -125.687500000000, -61.296875000000, -25.773437500000, 1490856179
-0.110839843750, 0.967041015625, -0.112548828125, 178.789062500000, -9.507812500000, 8.250000000000, 1490856179
-0.110839843750, 0.967041015625, -0.112548828125, 178.789062500000, -9.507812500000, 8.250000000000, 1490856179
-0.110839843750, 0.967041015625, -0.112548828125, 178.789062500000, -9.507812500000, 8.250000000000, 1490856179
-0.110839843750, 0.967041015625, -0.112548828125, 178.789062500000, -9.507812500000, 8.250000000000, 1490856179
-0.047607421875, 0.932617187500, -0.373535156250, 253.992187500000, -11.750000000000, 24.273437500000, 1490856179
-0.047607421875, 0.932617187500, -0.373535156250, 253.992187500000, -11.750000000000, 24.273437500000, 1490856179
-0.047607421875, 0.932617187500, -0.373535156250, 253.992187500000, -11.750000000000, 24.273437500000, 1490856179
0.023437500000, 0.674804687500, -0.653076171875, 159.742187500000, 36.671875000000, 26.718750000000, 1490856179
-0.002197265625, 0.841064453125, -1.076660156250, 0.226562500000, 50.460937500000, 16.953125000000, 1490856179
-0.002197265625, 0.841064453125, -1.076660156250, 0.226562500000, 50.460937500000, 16.953125000000, 1490856179
-0.002197265625, 0.841064453125, -1.076660156250, 0.226562500000, 50.460937500000, 16.953125000000, 1490856179
-0.002197265625, 0.841064453125, -1.076660156250, 0.226562500000, 50.460937500000, 16.953125000000, 1490856179
-0.009277343750, 0.821044921875, -0.663574218750, -78.312500000000, 3.523437500000, -20.328125000000, 1490856179
-0.070556640625, 0.902587890625, -0.185302734375, -202.750000000000, 57.593750000000, -3.679687500000, 1490856179
-0.070556640625, 0.902587890625, -0.185302734375, -202.750000000000, 57.593750000000, -3.679687500000, 1490856179
-0.070556640625, 0.902587890625, -0.185302734375, -202.750000000000, 57.593750000000, -3.679687500000, 1490856179
-0.070556640625, 0.902587890625, -0.185302734375, -202.750000000000, 57.593750000000, -3.679687500000, 1490856179
0.029541015625, 0.886474609375, -0.146728515625, -76.781250000000, 89.046875000000, 32.218750000000, 1490856179
0.029541015625, 0.886474609375, -0.146728515625, -76.781250000000, 89.046875000000, 32.218750000000, 1490856179
0.029541015625, 0.886474609375, -0.146728515625, -76.781250000000, 89.046875000000, 32.218750000000, 1490856179
-0.012939453125, 0.889404296875, -0.251953125000, 33.804687500000, 49.695312500000, 45.406250000000, 1490856180
-0.012939453125, 0.889404296875, -0.251953125000, 33.804687500000, 49.695312500000, 45.406250000000, 1490856180
-0.012939453125, 0.889404296875, -0.251953125000, 33.804687500000, 49.695312500000, 45.406250000000, 1490856180
-0.057128906250, 1.248535156250, -0.450195312500, -21.015625000000, 49.117187500000, 53.242187500000, 1490856180
-0.057128906250, 1.248535156250, -0.450195312500, -21.015625000000, 49.117187500000, 53.242187500000, 1490856180
-0.057128906250, 1.248535156250, -0.450195312500, -21.015625000000, 49.117187500000, 53.242187500000, 1490856180
-0.043212890625, 1.216796875000, -0.270019531250, 4.882812500000, 37.093750000000, 79.257812500000, 1490856180
-0.043212890625, 1.216796875000, -0.270019531250, 4.882812500000, 37.093750000000, 79.257812500000, 1490856180
-0.043212890625, 1.216796875000, -0.270019531250, 4.882812500000, 37.093750000000, 79.257812500000, 1490856180
-0.056396484375, 0.982421875000, -0.243408203125, 43.382812500000, 115.109375000000, 17.804687500000, 1490856180
-0.056396484375, 0.982421875000, -0.243408203125, 43.382812500000, 115.109375000000, 17.804687500000, 1490856180
-0.056396484375, 0.982421875000, -0.243408203125, 43.382812500000, 115.109375000000, 17.804687500000, 1490856180
-0.056396484375, 0.982421875000, -0.243408203125, 43.382812500000, 115.109375000000, 17.804687500000, 1490856180
-0.321044921875, 1.130859375000, -0.249267578125, 1.687500000000, 55.023437500000, -48.625000000000, 1490856180
-0.321044921875, 1.130859375000, -0.249267578125, 1.687500000000, 55.023437500000, -48.625000000000, 1490856180
-0.321044921875, 1.130859375000, -0.249267578125, 1.687500000000, 55.023437500000, -48.625000000000, 1490856180
-0.222900390625, 0.914550781250, -0.196533203125, -9.773437500000, 108.609375000000, 32.804687500000, 1490856180
-0.222900390625, 0.914550781250, -0.196533203125, -9.773437500000, 108.609375000000, 32.804687500000, 1490856180
-0.222900390625, 0.914550781250, -0.196533203125, -9.773437500000, 108.609375000000, 32.804687500000, 1490856180
-0.228027343750, 0.922119140625, -0.118652343750, -15.734375000000, 171.523437500000, 71.195312500000, 1490856180
-0.228027343750, 0.922119140625, -0.118652343750, -15.734375000000, 171.523437500000, 71.195312500000, 1490856180
-0.228027343750, 0.922119140625, -0.118652343750, -15.734375000000, 171.523437500000, 71.195312500000, 1490856180
-0.228027343750, 0.922119140625, -0.118652343750, -15.734375000000, 171.523437500000, 71.195312500000, 1490856180
-0.162597656250, 0.893554687500, -0.113525390625, -7.460937500000, 180.781250000000, 57.046875000000, 1490856180
-0.334716796875, 0.944335937500, -0.100097656250, 29.351562500000, 219.031250000000, 83.453125000000, 1490856180
-0.334716796875, 0.944335937500, -0.100097656250, 29.351562500000, 219.031250000000, 83.453125000000, 1490856180
-0.334716796875, 0.944335937500, -0.100097656250, 29.351562500000, 219.031250000000, 83.453125000000, 1490856180
-0.334716796875, 0.944335937500, -0.100097656250, 29.351562500000, 219.031250000000, 83.453125000000, 1490856180
-0.338134765625, 1.024658203125, -0.206298828125, 43.234375000000, 164.718750000000, 85.875000000000, 1490856180
-0.231933593750, 0.889160156250, -0.185791015625, 43.234375000000, 164.718750000000, 85.875000000000, 1490856180
-0.231933593750, 0.889160156250, -0.185791015625, 43.234375000000, 164.718750000000, 85.875000000000, 1490856180
-0.231933593750, 0.889160156250, -0.185791015625, 43.234375000000, 164.718750000000, 85.875000000000, 1490856180
-0.124267578125, 0.829345703125, -0.219238281250, 40.007812500000, 103.289062500000, 9.835937500000, 1490856180
-0.124267578125, 0.829345703125, -0.219238281250, 40.007812500000, 103.289062500000, 9.835937500000, 1490856180
-0.124267578125, 0.829345703125, -0.219238281250, 40.007812500000, 103.289062500000, 9.835937500000, 1490856180
-0.124267578125, 0.829345703125, -0.219238281250, 40.007812500000, 103.289062500000, 9.835937500000, 1490856180
-0.124267578125, 0.829345703125, -0.219238281250, 40.007812500000, 103.289062500000, 9.835937500000, 1490856180
-0.124267578125, 0.829345703125, -0.219238281250, 40.007812500000, 103.289062500000, 9.835937500000, 1490856180
-0.309814453125, 0.870361328125, -0.286376953125, 60.156250000000, 143.210937500000, 16.195312500000, 1490856180
-0.309814453125, 0.870361328125, -0.286376953125, 60.156250000000, 143.210937500000, 16.195312500000, 1490856180
-0.309814453125, 0.870361328125, -0.286376953125, 60.156250000000, 143.210937500000, 16.195312500000, 1490856180
-0.309814453125, 0.870361328125, -0.286376953125, 60.156250000000, 143.210937500000, 16.195312500000, 1490856180
-0.224365234375, 1.102783203125, -0.515136718750, -13.906250000000, 118.648437500000, 13.710937500000, 1490856180
-0.224365234375, 1.102783203125, -0.515136718750, -13.906250000000, 118.648437500000, 13.710937500000, 1490856180
-0.224365234375, 1.102783203125, -0.515136718750, -13.906250000000, 118.648437500000, 13.710937500000, 1490856180
-0.455566406250, 1.356689453125, -0.225097656250, -71.429687500000, 176.140625000000, 8.562500000000, 1490856180
-0.455566406250, 1.356689453125, -0.225097656250, -71.429687500000, 176.140625000000, 8.562500000000, 1490856180
-0.455566406250, 1.356689453125, -0.225097656250, -71.429687500000, 176.140625000000, 8.562500000000, 1490856180
-0.455566406250, 1.356689453125, -0.225097656250, -71.429687500000, 176.140625000000, 8.562500000000, 1490856180
-0.022705078125, 0.844726562500, -0.104980468750, -50.843750000000, 170.523437500000, 29.695312500000, 1490856180
-0.022705078125, 0.844726562500, -0.104980468750, -50.843750000000, 170.523437500000, 29.695312500000, 1490856180
-0.022705078125, 0.844726562500, -0.104980468750, -50.843750000000, 170.523437500000, 29.695312500000, 1490856180
0.135742187500, 0.904785156250, -0.255615234375, -111.851562500000, 129.609375000000, 4.265625000000, 1490856180
0.135742187500, 0.904785156250, -0.255615234375, -111.851562500000, 129.609375000000, 4.265625000000, 1490856180
0.135742187500, 0.904785156250, -0.255615234375, -111.851562500000, 129.609375000000, 4.265625000000, 1490856180
0.208984375000, 0.840576171875, -0.094726562500, -113.750000000000, 96.375000000000, -31.062500000000, 1490856180
0.208984375000, 0.840576171875, -0.094726562500, -113.750000000000, 96.375000000000, -31.062500000000, 1490856180
0.208984375000, 0.840576171875, -0.094726562500, -113.750000000000, 96.375000000000, -31.062500000000, 1490856180
0.259277343750, 0.805175781250, -0.086425781250, -9.054687500000, 147.046875000000, 41.648437500000, 1490856180
0.259277343750, 0.805175781250, -0.086425781250, -9.054687500000, 147.046875000000, 41.648437500000, 1490856180
0.259277343750, 0.805175781250, -0.086425781250, -9.054687500000, 147.046875000000, 41.648437500000, 1490856180
0.259277343750, 0.805175781250, -0.086425781250, -9.054687500000, 147.046875000000, 41.648437500000, 1490856180
0.093994140625, 0.820800781250, -0.213378906250, 11.648437500000, 111.781250000000, 56.460937500000, 1490856180
0.093994140625, 0.820800781250, -0.213378906250, 11.648437500000, 111.781250000000, 56.460937500000, 1490856180
-0.108642578125, 1.125000000000, -0.340820312500, 131.648437500000, -106.335937500000, 81.101562500000, 1490856180
-0.108642578125, 1.125000000000, -0.340820312500, 131.648437500000, -106.335937500000, 81.101562500000, 1490856180
-0.108642578125, 1.125000000000, -0.340820312500, 131.648437500000, -106.335937500000, 81.101562500000, 1490856181
-0.108642578125, 1.125000000000, -0.340820312500, 131.648437500000, -106.335937500000, 81.101562500000, 1490856181
-0.559570312500, 1.140869140625, -0.642333984375, 253.992187500000, 253.992187500000, 69.179687500000, 1490856181
-0.559570312500, 1.140869140625, -0.642333984375, 253.992187500000, 253.992187500000, 69.179687500000, 1490856181
-0.559570312500, 1.140869140625, -0.642333984375, 253.992187500000, 253.992187500000, 69.179687500000, 1490856181
-0.153320312500, 1.059570312500, -0.210205078125, -181.796875000000, 118.515625000000, 43.257812500000, 1490856181
-0.153320312500, 1.059570312500, -0.210205078125, -181.796875000000, 118.515625000000, 43.257812500000, 1490856181
-0.153320312500, 1.059570312500, -0.210205078125, -181.796875000000, 118.515625000000, 43.257812500000, 1490856181
-0.153320312500, 1.059570312500, -0.210205078125, -181.796875000000, 118.515625000000, 43.257812500000, 1490856181
0.057861328125, 1.146972656250, -0.254882812500, -128.757812500000, 132.304687500000, 36.859375000000, 1490856181
0.057861328125, 1.146972656250, -0.254882812500, -128.757812500000, 132.304687500000, 36.859375000000, 1490856181
0.057861328125, 1.146972656250, -0.254882812500, -128.757812500000, 132.304687500000, 36.859375000000, 1490856181
0.032714843750, 0.611816406250, -0.062011718750, 16.742187500000, 29.656250000000, 52.859375000000, 1490856181
0.032714843750, 0.611816406250, -0.062011718750, 16.742187500000, 29.656250000000, 52.859375000000, 1490856181
0.032714843750, 0.611816406250, -0.062011718750, 16.742187500000, 29.656250000000, 52.859375000000, 1490856181
0.087890625000, 0.393798828125, -0.046386718750, 12.570312500000, 75.250000000000, 26.406250000000, 1490856181
0.087890625000, 0.393798828125, -0.046386718750, 12.570312500000, 75.250000000000, 26.406250000000, 1490856181
0.087890625000, 0.393798828125, -0.046386718750, 12.570312500000, 75.250000000000, 26.406250000000, 1490856181
0.083984375000, 1.002929687500, -0.336669921875, -31.500000000000, 114.335937500000, 38.960937500000, 1490856181
0.083984375000, 1.002929687500, -0.336669921875, -31.500000000000, 114.335937500000, 38.960937500000, 1490856181
0.083984375000, 1.002929687500, -0.336669921875, -31.500000000000, 114.335937500000, 38.960937500000, 1490856181
0.083984375000, 1.002929687500, -0.336669921875, -31.500000000000, 114.335937500000, 38.960937500000, 1490856181
-0.328613281250, 1.504638671875, -0.375976562500, -52.054687500000, -0.992187500000, -23.140625000000, 1490856181
-0.328613281250, 1.504638671875, -0.375976562500, -52.054687500000, -0.992187500000, -23.140625000000, 1490856181
-0.328613281250, 1.504638671875, -0.375976562500, -52.054687500000, -0.992187500000, -23.140625000000, 1490856181
-0.423828125000, 1.560058593750, -0.898925781250, 253.992187500000, 253.992187500000, -18.062500000000, 1490856181
-0.423828125000, 1.560058593750, -0.898925781250, 253.992187500000, 253.992187500000, -18.062500000000, 1490856181
-0.423828125000, 1.560058593750, -0.898925781250, 253.992187500000, 253.992187500000, -18.062500000000, 1490856181
0.076171875000, 1.020507812500, -0.501953125000, -28.468750000000, 110.515625000000, -41.390625000000, 1490856181
0.076171875000, 1.020507812500, -0.501953125000, -28.468750000000, 110.515625000000, -41.390625000000, 1490856181
0.076171875000, 1.020507812500, -0.501953125000, -28.468750000000, 110.515625000000, -41.390625000000, 1490856181
-0.092041015625, 0.740478515625, -0.185302734375, -14.375000000000, 150.179687500000, 40.265625000000, 1490856181
-0.092041015625, 0.740478515625, -0.185302734375, -14.375000000000, 150.179687500000, 40.265625000000, 1490856181
-0.092041015625, 0.740478515625, -0.185302734375, -14.375000000000, 150.179687500000, 40.265625000000, 1490856181
-0.092041015625, 0.740478515625, -0.185302734375, -14.375000000000, 150.179687500000, 40.265625000000, 1490856181
0.153564453125, 0.040527343750, -0.033203125000, -6.054687500000, 37.296875000000, 18.906250000000, 1490856181
0.153564453125, 0.040527343750, -0.033203125000, -6.054687500000, 37.296875000000, 18.906250000000, 1490856181
0.153564453125, 0.040527343750, -0.033203125000, -6.054687500000, 37.296875000000, 18.906250000000, 1490856181
0.100830078125, -0.021972656250, -0.035644531250, 19.968750000000, -13.484375000000, -54.117187500000, 1490856181
0.100830078125, -0.021972656250, -0.035644531250, 19.968750000000, -13.484375000000, -54.117187500000, 1490856181
0.100830078125, -0.021972656250, -0.035644531250, 19.968750000000, -13.484375000000, -54.117187500000, 1490856181
-0.027832031250, 1.191650390625, -0.359130859375, -256.000000000000, -164.039062500000, -200.218750000000, 1490856181
-0.027832031250, 1.191650390625, -0.359130859375, -256.000000000000, -164.039062500000, -200.218750000000, 1490856181
-0.027832031250, 1.191650390625, -0.359130859375, -256.000000000000, -164.039062500000, -200.218750000000, 1490856181
0.761718750000, 2.150878906250, -0.651611328125, 15.156250000000, 253.992187500000, 53.804687500000, 1490856181
0.761718750000, 2.150878906250, -0.651611328125, 15.156250000000, 253.992187500000, 53.804687500000, 1490856181
0.761718750000, 2.150878906250, -0.651611328125, 15.156250000000, 253.992187500000, 53.804687500000, 1490856181
0.761718750000, 2.150878906250, -0.651611328125, 15.156250000000, 253.992187500000, 53.804687500000, 1490856181
0.292236328125, 1.491210937500, -0.479003906250, 175.148437500000, -256.000000000000, -2.601562500000, 1490856181
0.292236328125, 1.491210937500, -0.479003906250, 175.148437500000, -256.000000000000, -2.601562500000, 1490856181
0.292236328125, 1.491210937500, -0.479003906250, 175.148437500000, -256.000000000000, -2.601562500000, 1490856181
-0.019531250000, 0.735595703125, -0.351318359375, -27.046875000000, -46.109375000000, 22.406250000000, 1490856181
-0.019531250000, 0.735595703125, -0.351318359375, -27.046875000000, -46.109375000000, 22.406250000000, 1490856181
-0.019531250000, 0.735595703125, -0.351318359375, -27.046875000000, -46.109375000000, 22.406250000000, 1490856181
0.008300781250, 0.243652343750, -0.190429687500, -4.359375000000, -12.000000000000, -22.039062500000, 1490856181
0.008300781250, 0.243652343750, -0.190429687500, -4.359375000000, -12.000000000000, -22.039062500000, 1490856181
0.008300781250, 0.243652343750, -0.190429687500, -4.359375000000, -12.000000000000, -22.039062500000, 1490856181
0.047363281250, -0.029541015625, 0.030273437500, 34.234375000000, 75.617187500000, -71.820312500000, 1490856181
0.047363281250, -0.029541015625, 0.030273437500, 34.234375000000, 75.617187500000, -71.820312500000, 1490856181
0.047363281250, -0.029541015625, 0.030273437500, 34.234375000000, 75.617187500000, -71.820312500000, 1490856181
0.047363281250, -0.029541015625, 0.030273437500, 34.234375000000, 75.617187500000, -71.820312500000, 1490856181
-0.059570312500, 0.242431640625, -0.200927734375, 7.093750000000, 161.546875000000, -40.101562500000, 1490856181
-0.059570312500, 0.242431640625, -0.200927734375, 7.093750000000, 161.546875000000, -40.101562500000, 1490856181
-0.059570312500, 0.242431640625, -0.200927734375, 7.093750000000, 161.546875000000, -40.101562500000, 1490856181
0.271728515625, 2.369384765625, -0.888916015625, -256.000000000000, 77.101562500000, -130.062500000000, 1490856181
0.271728515625, 2.369384765625, -0.888916015625, -256.000000000000, 77.101562500000, -130.062500000000, 1490856181
0.271728515625, 2.369384765625, -0.888916015625, -256.000000000000, 77.101562500000, -130.062500000000, 1490856181
-0.161621093750, 2.329101562500, -0.639892578125, 237.695312500000, -156.968750000000, -35.476562500000, 1490856182
-0.161621093750, 2.329101562500, -0.639892578125, 237.695312500000, -156.968750000000, -35.476562500000, 1490856182
-0.161621093750, 2.329101562500, -0.639892578125, 237.695312500000, -156.968750000000, -35.476562500000, 1490856182
0.257812500000, 1.024169921875, -0.639404296875, -82.718750000000, 33.515625000000, -31.007812500000, 1490856182
0.257812500000, 1.024169921875, -0.639404296875, -82.718750000000, 33.515625000000, -31.007812500000, 1490856182
0.257812500000, 1.024169921875, -0.639404296875, -82.718750000000, 33.515625000000, -31.007812500000, 1490856182
0.257812500000, 1.024169921875, -0.639404296875, -82.718750000000, 33.515625000000, -31.007812500000, 1490856182
0.096435546875, 0.436767578125, -0.049316406250, -44.546875000000, 119.000000000000, -31.914062500000, 1490856182
0.096435546875, 0.436767578125, -0.049316406250, -44.546875000000, 119.000000000000, -31.914062500000, 1490856182
0.096435546875, 0.436767578125, -0.049316406250, -44.546875000000, 119.000000000000, -31.914062500000, 1490856182
-0.089355468750, 0.074218750000, -0.025390625000, 53.398437500000, 3.226562500000, 70.687500000000, 1490856182
-0.089355468750, 0.074218750000, -0.025390625000, 53.398437500000, 3.226562500000, 70.687500000000, 1490856182
-0.089355468750, 0.074218750000, -0.025390625000, 53.398437500000, 3.226562500000, 70.687500000000, 1490856182
0.049316406250, -0.028808593750, -0.011230468750, 127.875000000000, -52.578125000000, 87.593750000000, 1490856182
0.049316406250, -0.028808593750, -0.011230468750, 127.875000000000, -52.578125000000, 87.593750000000, 1490856182
0.049316406250, -0.028808593750, -0.011230468750, 127.875000000000, -52.578125000000, 87.593750000000, 1490856182
0.547363281250, 1.720214843750, -0.830566406250, -256.000000000000, -152.781250000000, -154.812500000000, 1490856182
0.547363281250, 1.720214843750, -0.830566406250, -256.000000000000, -152.781250000000, -154.812500000000, 1490856182
0.547363281250, 1.720214843750, -0.830566406250, -256.000000000000, -152.781250000000, -154.812500000000, 1490856182
0.547363281250, 1.720214843750, -0.830566406250, -256.000000000000, -152.781250000000, -154.812500000000, 1490856182
0.136474609375, 1.846679687500, -0.231201171875, 238.250000000000, 253.992187500000, 173.484375000000, 1490856182
0.136474609375, 1.846679687500, -0.231201171875, 238.250000000000, 253.992187500000, 173.484375000000, 1490856182
0.136474609375, 1.846679687500, -0.231201171875, 238.250000000000, 253.992187500000, 173.484375000000, 1490856182
1.291259765625, 2.478515625000, -1.529296875000, 253.992187500000, -163.187500000000, 192.265625000000, 1490856182
1.291259765625, 2.478515625000, -1.529296875000, 253.992187500000, -163.187500000000, 192.265625000000, 1490856182
1.291259765625, 2.478515625000, -1.529296875000, 253.992187500000, -163.187500000000, 192.265625000000, 1490856182
0.002197265625, 0.624755859375, -0.223388671875, -161.546875000000, -198.257812500000, -62.648437500000, 1490856182
0.002197265625, 0.624755859375, -0.223388671875, -161.546875000000, -198.257812500000, -62.648437500000, 1490856182
0.002197265625, 0.624755859375, -0.223388671875, -161.546875000000, -198.257812500000, -62.648437500000, 1490856182
-0.213378906250, 0.214843750000, 0.046142578125, -95.000000000000, 204.703125000000, 97.617187500000, 1490856182
-0.213378906250, 0.214843750000, 0.046142578125, -95.000000000000, 204.703125000000, 97.617187500000, 1490856182
-0.213378906250, 0.214843750000, 0.046142578125, -95.000000000000, 204.703125000000, 97.617187500000, 1490856182
-0.213378906250, 0.214843750000, 0.046142578125, -95.000000000000, 204.703125000000, 97.617187500000, 1490856182
0.075683593750, 0.068603515625, -0.008300781250, 127.015625000000, 191.468750000000, -39.031250000000, 1490856182
0.075683593750, 0.068603515625, -0.008300781250, 127.015625000000, 191.468750000000, -39.031250000000, 1490856182
0.075683593750, 0.068603515625, -0.008300781250, 127.015625000000, 191.468750000000, -39.031250000000, 1490856182
-0.030029296875, 0.043212890625, -0.094238281250, -1.554687500000, 185.007812500000, 7.765625000000, 1490856182
-0.030029296875, 0.043212890625, -0.094238281250, -1.554687500000, 185.007812500000, 7.765625000000, 1490856182
-0.030029296875, 0.043212890625, -0.094238281250, -1.554687500000, 185.007812500000, 7.765625000000, 1490856182
-0.390625000000, 2.250244140625, -0.655029296875, -256.000000000000, 226.601562500000, 40.445312500000, 1490856182
-0.390625000000, 2.250244140625, -0.655029296875, -256.000000000000, 226.601562500000, 40.445312500000, 1490856182
-0.390625000000, 2.250244140625, -0.655029296875, -256.000000000000, 226.601562500000, 40.445312500000, 1490856182
0.166992187500, 1.331054687500, -0.141601562500, 253.992187500000, -256.000000000000, -175.296875000000, 1490856182
0.166992187500, 1.331054687500, -0.141601562500, 253.992187500000, -256.000000000000, -175.296875000000, 1490856182
0.166992187500, 1.331054687500, -0.141601562500, 253.992187500000, -256.000000000000, -175.296875000000, 1490856182
0.166992187500, 1.331054687500, -0.141601562500, 253.992187500000, -256.000000000000, -175.296875000000, 1490856182
-1.299316406250, 1.844238281250, -0.021972656250, 253.992187500000, -75.046875000000, -171.960937500000, 1490856182
-1.299316406250, 1.844238281250, -0.021972656250, 253.992187500000, -75.046875000000, -171.960937500000, 1490856182
-1.299316406250, 1.844238281250, -0.021972656250, 253.992187500000, -75.046875000000, -171.960937500000, 1490856182
0.551269531250, 0.520263671875, -1.168945312500, -163.492187500000, -72.875000000000, 41.156250000000, 1490856182
0.551269531250, 0.520263671875, -1.168945312500, -163.492187500000, -72.875000000000, 41.156250000000, 1490856182
0.551269531250, 0.520263671875, -1.168945312500, -163.492187500000, -72.875000000000, 41.156250000000, 1490856182
0.035644531250, -0.003662109375, -0.006591796875, -134.437500000000, -103.882812500000, 23.046875000000, 1490856182
0.035644531250, -0.003662109375, -0.006591796875, -134.437500000000, -103.882812500000, 23.046875000000, 1490856182
0.035644531250, -0.003662109375, -0.006591796875, -134.437500000000, -103.882812500000, 23.046875000000, 1490856182
0.018554687500, 0.092529296875, 0.044433593750, 1.734375000000, -161.835937500000, -9.703125000000, 1490856182
0.018554687500, 0.092529296875, 0.044433593750, 1.734375000000, -161.835937500000, -9.703125000000, 1490856182
0.018554687500, 0.092529296875, 0.044433593750, 1.734375000000, -161.835937500000, -9.703125000000, 1490856182
0.018554687500, 0.092529296875, 0.044433593750, 1.734375000000, -161.835937500000, -9.703125000000, 1490856182
0.153076171875, 0.226318359375, -0.054199218750, -33.765625000000, -155.429687500000, -51.210937500000, 1490856182
0.153076171875, 0.226318359375, -0.054199218750, -33.765625000000, -155.429687500000, -51.210937500000, 1490856182
-0.275146484375, 2.244384765625, 0.267333984375, -256.000000000000, 55.445312500000, 59.984375000000, 1490856182
-0.275146484375, 2.244384765625, 0.267333984375, -256.000000000000, 55.445312500000, 59.984375000000, 1490856182
-0.275146484375, 2.244384765625, 0.267333984375, -256.000000000000, 55.445312500000, 59.984375000000, 1490856182
-0.275146484375, 2.244384765625, 0.267333984375, -256.000000000000, 55.445312500000, 59.984375000000, 1490856182
0.655029296875, 2.099365234375, -0.158203125000, 253.992187500000, 253.992187500000, 21.617187500000, 1490856182
0.655029296875, 2.099365234375, -0.158203125000, 253.992187500000, 253.992187500000, 21.617187500000, 1490856183
0.655029296875, 2.099365234375, -0.158203125000, 253.992187500000, 253.992187500000, 21.617187500000, 1490856183
0.948974609375, 1.230224609375, -1.149902343750, 253.992187500000, -256.000000000000, 248.507812500000, 1490856183
0.948974609375, 1.230224609375, -1.149902343750, 253.992187500000, -256.000000000000, 248.507812500000, 1490856183
0.948974609375, 1.230224609375, -1.149902343750, 253.992187500000, -256.000000000000, 248.507812500000, 1490856183
0.948974609375, 1.230224609375, -1.149902343750, 253.992187500000, -256.000000000000, 248.507812500000, 1490856183
-0.459960937500, 0.993408203125, -1.112060546875, 253.992187500000, 231.296875000000, -102.687500000000, 1490856183
-0.459960937500, 0.993408203125, -1.112060546875, 253.992187500000, 231.296875000000, -102.687500000000, 1490856183
-0.459960937500, 0.993408203125, -1.112060546875, 253.992187500000, 231.296875000000, -102.687500000000, 1490856183
-0.080078125000, 0.116455078125, -0.127685546875, 5.023437500000, 253.992187500000, 5.960937500000, 1490856183
-0.080078125000, 0.116455078125, -0.127685546875, 5.023437500000, 253.992187500000, 5.960937500000, 1490856183
-0.080078125000, 0.116455078125, -0.127685546875, 5.023437500000, 253.992187500000, 5.960937500000, 1490856183
0.010498046875, -0.041748046875, -0.121093750000, 70.312500000000, 244.437500000000, -39.125000000000, 1490856183
0.010498046875, -0.041748046875, -0.121093750000, 70.312500000000, 244.437500000000, -39.125000000000, 1490856183
0.010498046875, -0.041748046875, -0.121093750000, 70.312500000000, 244.437500000000, -39.125000000000, 1490856183
-0.135009765625, 0.279052734375, -0.254150390625, -226.445312500000, 198.296875000000, -57.820312500000, 1490856183
-0.135009765625, 0.279052734375, -0.254150390625, -226.445312500000, 198.296875000000, -57.820312500000, 1490856183
-0.135009765625, 0.279052734375, -0.254150390625, -226.445312500000, 198.296875000000, -57.820312500000, 1490856183
-0.135009765625, 0.279052734375, -0.254150390625, -226.445312500000, 198.296875000000, -57.820312500000, 1490856183
-0.456787109375, 2.918945312500, -0.703857421875, -256.000000000000, 9.632812500000, -89.429687500000, 1490856183
-0.456787109375, 2.918945312500, -0.703857421875, -256.000000000000, 9.632812500000, -89.429687500000, 1490856183
-0.456787109375, 2.918945312500, -0.703857421875, -256.000000000000, 9.632812500000, -89.429687500000, 1490856183
0.273437500000, 0.969726562500, 0.503417968750, 45.781250000000, -256.000000000000, -256.000000000000, 1490856183
0.273437500000, 0.969726562500, 0.503417968750, 45.781250000000, -256.000000000000, -256.000000000000, 1490856183
0.273437500000, 0.969726562500, 0.503417968750, 45.781250000000, -256.000000000000, -256.000000000000, 1490856183
-0.505859375000, 2.298095703125, -0.529785156250, 253.992187500000, -256.000000000000, -83.460937500000, 1490856183
-0.505859375000, 2.298095703125, -0.529785156250, 253.992187500000, -256.000000000000, -83.460937500000, 1490856183
-0.505859375000, 2.298095703125, -0.529785156250, 253.992187500000, -256.000000000000, -83.460937500000, 1490856183
0.189697265625, 0.388183593750, -0.288085937500, 78.804687500000, 253.992187500000, 54.937500000000, 1490856183
0.189697265625, 0.388183593750, -0.288085937500, 78.804687500000, 253.992187500000, 54.937500000000, 1490856183
0.189697265625, 0.388183593750, -0.288085937500, 78.804687500000, 253.992187500000, 54.937500000000, 1490856183
-0.079589843750, -0.082275390625, 0.141113281250, 68.984375000000, -231.390625000000, 14.984375000000, 1490856183
-0.079589843750, -0.082275390625, 0.141113281250, 68.984375000000, -231.390625000000, 14.984375000000, 1490856183
-0.079589843750, -0.082275390625, 0.141113281250, 68.984375000000, -231.390625000000, 14.984375000000, 1490856183
-0.079589843750, -0.082275390625, 0.141113281250, 68.984375000000, -231.390625000000, 14.984375000000, 1490856183
0.066894531250, 0.173828125000, -0.496337890625, -153.500000000000, -256.000000000000, 27.859375000000, 1490856183
0.066894531250, 0.173828125000, -0.496337890625, -153.500000000000, -256.000000000000, 27.859375000000, 1490856183
0.066894531250, 0.173828125000, -0.496337890625, -153.500000000000, -256.000000000000, 27.859375000000, 1490856183
0.073974609375, 1.363769531250, -0.206542968750, -256.000000000000, -111.835937500000, -38.484375000000, 1490856183
0.073974609375, 1.363769531250, -0.206542968750, -256.000000000000, -111.835937500000, -38.484375000000, 1490856183
0.073974609375, 1.363769531250, -0.206542968750, -256.000000000000, -111.835937500000, -38.484375000000, 1490856183
-0.358398437500, 1.674316406250, -0.118896484375, -76.585937500000, 253.992187500000, 168.453125000000, 1490856183
-0.358398437500, 1.674316406250, -0.118896484375, -76.585937500000, 253.992187500000, 168.453125000000, 1490856183
-0.358398437500, 1.674316406250, -0.118896484375, -76.585937500000, 253.992187500000, 168.453125000000, 1490856183
-0.358398437500, 1.674316406250, -0.118896484375, -76.585937500000, 253.992187500000, 168.453125000000, 1490856183
0.686035156250, 2.000976562500, -0.574707031250, 147.617187500000, 253.992187500000, 110.828125000000, 1490856183
0.686035156250, 2.000976562500, -0.574707031250, 147.617187500000, 253.992187500000, 110.828125000000, 1490856183
0.686035156250, 2.000976562500, -0.574707031250, 147.617187500000, 253.992187500000, 110.828125000000, 1490856183
0.337158203125, 1.205322265625, -0.118896484375, 27.132812500000, -55.984375000000, 8.820312500000, 1490856183
0.337158203125, 1.205322265625, -0.118896484375, 27.132812500000, -55.984375000000, 8.820312500000, 1490856183
0.337158203125, 1.205322265625, -0.118896484375, 27.132812500000, -55.984375000000, 8.820312500000, 1490856183
0.144531250000, 0.280517578125, -0.070312500000, 181.625000000000, -256.000000000000, 101.601562500000, 1490856183
0.144531250000, 0.280517578125, -0.070312500000, 181.625000000000, -256.000000000000, 101.601562500000, 1490856183
0.144531250000, 0.280517578125, -0.070312500000, 181.625000000000, -256.000000000000, 101.601562500000, 1490856183
-0.106445312500, 0.062500000000, -0.061035156250, 8.750000000000, 56.218750000000, -72.968750000000, 1490856183
-0.106445312500, 0.062500000000, -0.061035156250, 8.750000000000, 56.218750000000, -72.968750000000, 1490856183
-0.106445312500, 0.062500000000, -0.061035156250, 8.750000000000, 56.218750000000, -72.968750000000, 1490856183
-0.106445312500, 0.062500000000, -0.061035156250, 8.750000000000, 56.218750000000, -72.968750000000, 1490856183
0.010253906250, -0.085449218750, 0.131103515625, 6.265625000000, 157.585937500000, -67.976562500000, 1490856183
0.135498046875, 1.101074218750, -0.230468750000, -256.000000000000, 253.992187500000, 94.851562500000, 1490856183
0.135498046875, 1.101074218750, -0.230468750000, -256.000000000000, 253.992187500000, 94.851562500000, 1490856183
0.135498046875, 1.101074218750, -0.230468750000, -256.000000000000, 253.992187500000, 94.851562500000, 1490856183
0.135498046875, 1.101074218750, -0.230468750000, -256.000000000000, 253.992187500000, 94.851562500000, 1490856183
-0.168212890625, 2.082275390625, -0.440429687500, 41.679687500000, 253.992187500000, 53.179687500000, 1490856183
-0.168212890625, 2.082275390625, -0.440429687500, 41.679687500000, 253.992187500000, 53.179687500000, 1490856183
-0.168212890625, 2.082275390625, -0.440429687500, 41.679687500000, 253.992187500000, 53.179687500000, 1490856183
-0.168212890625, 2.082275390625, -0.440429687500, 41.679687500000, 253.992187500000, 53.179687500000, 1490856184
-0.059814453125, 1.665771484375, -0.232910156250, 151.601562500000, -193.578125000000, 132.640625000000, 1490856184
-0.059814453125, 1.665771484375, -0.232910156250, 151.601562500000, -193.578125000000, 132.640625000000, 1490856184
-0.059814453125, 1.665771484375, -0.232910156250, 151.601562500000, -193.578125000000, 132.640625000000, 1490856184
-0.059814453125, 1.665771484375, -0.232910156250, 151.601562500000, -193.578125000000, 132.640625000000, 1490856184
