ACC_X,ACC_Y,ACC_Z,G_X,G_Y,G_Z,Unix Time
0.268310546875, -1.045166015625, 0.027343750000, -13.140625000000, -4.835937500000, -0.937500000000, 1490856523
0.268310546875, -1.045166015625, 0.027343750000, -13.140625000000, -4.835937500000, -0.937500000000, 1490856523
0.268310546875, -1.045166015625, 0.027343750000, -13.140625000000, -4.835937500000, -0.937500000000, 1490856523
0.238037109375, -0.972656250000, -0.014892578125, -10.226562500000, -6.992187500000, -8.382812500000, 1490856523
0.238037109375, -0.972656250000, -0.014892578125, -10.226562500000, -6.992187500000, -8.382812500000, 1490856523
0.238037109375, -0.972656250000, -0.014892578125, -10.226562500000, -6.992187500000, -8.382812500000, 1490856523
0.331787109375, -0.973632812500, 0.059082031250, 5.679687500000, 8.046875000000, -7.281250000000, 1490856523
0.331787109375, -0.973632812500, 0.059082031250, 5.679687500000, 8.046875000000, -7.281250000000, 1490856523
0.247802734375, -0.908935546875, 0.052490234375, 1.023437500000, 6.601562500000, -3.726562500000, 1490856523
0.247802734375, -0.908935546875, 0.052490234375, 1.023437500000, 6.601562500000, -3.726562500000, 1490856523
0.247802734375, -0.908935546875, 0.052490234375, 1.023437500000, 6.601562500000, -3.726562500000, 1490856523
0.247802734375, -0.908935546875, 0.052490234375, 1.023437500000, 6.601562500000, -3.726562500000, 1490856523
0.247802734375, -0.908935546875, 0.052490234375, 1.023437500000, 6.601562500000, -3.726562500000, 1490856523
0.264648437500, -1.089111328125, 0.076660156250, -8.539062500000, 4.859375000000, -4.835937500000, 1490856523
0.264648437500, -1.089111328125, 0.076660156250, -8.539062500000, 4.859375000000, -4.835937500000, 1490856523
0.264648437500, -1.089111328125, 0.076660156250, -8.539062500000, 4.859375000000, -4.835937500000, 1490856523
0.170166015625, -0.915527343750, 0.031738281250, -11.507812500000, -2.789062500000, -4.054687500000, 1490856523
0.170166015625, -0.915527343750, 0.031738281250, -11.507812500000, -2.789062500000, -4.054687500000, 1490856523
0.170166015625, -0.915527343750, 0.031738281250, -11.507812500000, -2.789062500000, -4.054687500000, 1490856523
0.333251953125, -1.018554687500, 0.128662109375, -1.234375000000, -3.203125000000, -6.789062500000, 1490856523
0.333251953125, -1.018554687500, 0.128662109375, -1.234375000000, -3.203125000000, -6.789062500000, 1490856523
0.333251953125, -1.018554687500, 0.128662109375, -1.234375000000, -3.203125000000, -6.789062500000, 1490856523
0.333251953125, -1.018554687500, 0.128662109375, -1.234375000000, -3.203125000000, -6.789062500000, 1490856523
0.273925781250, -0.872802734375, 0.054443359375, 4.125000000000, 2.359375000000, -4.625000000000, 1490856523
0.273925781250, -0.872802734375, 0.054443359375, 4.125000000000, 2.359375000000, -4.625000000000, 1490856523
0.273925781250, -0.872802734375, 0.054443359375, 4.125000000000, 2.359375000000, -4.625000000000, 1490856523
0.243164062500, -0.922119140625, 0.084960937500, -1.859375000000, -7.632812500000, -3.500000000000, 1490856523
0.243164062500, -0.922119140625, 0.084960937500, -1.859375000000, -7.632812500000, -3.500000000000, 1490856523
0.243164062500, -0.922119140625, 0.084960937500, -1.859375000000, -7.632812500000, -3.500000000000, 1490856523
0.205322265625, -0.910156250000, 0.138916015625, -10.015625000000, -4.429687500000, -1.187500000000, 1490856523
0.205322265625, -0.910156250000, 0.138916015625, -10.015625000000, -4.429687500000, -1.187500000000, 1490856523
0.205322265625, -0.910156250000, 0.138916015625, -10.015625000000, -4.429687500000, -1.187500000000, 1490856523
0.260253906250, -0.919921875000, 0.140136718750, -5.554687500000, -6.304687500000, -4.687500000000, 1490856523
0.260253906250, -0.919921875000, 0.140136718750, -5.554687500000, -6.304687500000, -4.687500000000, 1490856523
0.260253906250, -0.919921875000, 0.140136718750, -5.554687500000, -6.304687500000, -4.687500000000, 1490856523
0.260253906250, -0.919921875000, 0.140136718750, -5.554687500000, -6.304687500000, -4.687500000000, 1490856523
0.248779296875, -1.004638671875, 0.131835937500, -4.406250000000, -4.750000000000, -2.875000000000, 1490856523
0.248779296875, -1.004638671875, 0.131835937500, -4.406250000000, -4.750000000000, -2.875000000000, 1490856523
0.248779296875, -1.004638671875, 0.131835937500, -4.406250000000, -4.750000000000, -2.875000000000, 1490856523
0.247070312500, -0.920654296875, 0.108154296875, 0.882812500000, -2.125000000000, -3.507812500000, 1490856523
0.247070312500, -0.920654296875, 0.108154296875, 0.882812500000, -2.125000000000, -3.507812500000, 1490856523
0.247070312500, -0.920654296875, 0.108154296875, 0.882812500000, -2.125000000000, -3.507812500000, 1490856523
0.207275390625, -1.000000000000, -0.023193359375, -1.492187500000, -0.742187500000, -2.203125000000, 1490856523
0.207275390625, -1.000000000000, -0.023193359375, -1.492187500000, -0.742187500000, -2.203125000000, 1490856523
0.207275390625, -1.000000000000, -0.023193359375, -1.492187500000, -0.742187500000, -2.203125000000, 1490856523
0.183349609375, -0.951416015625, 0.040283203125, -2.695312500000, -0.078125000000, -1.312500000000, 1490856524
0.183349609375, -0.951416015625, 0.040283203125, -2.695312500000, -0.078125000000, -1.312500000000, 1490856524
0.183349609375, -0.951416015625, 0.040283203125, -2.695312500000, -0.078125000000, -1.312500000000, 1490856524
0.183349609375, -0.951416015625, 0.040283203125, -2.695312500000, -0.078125000000, -1.312500000000, 1490856524
0.244873046875, -0.895019531250, -0.030517578125, -3.312500000000, -2.976562500000, 0.273437500000, 1490856524
0.244873046875, -0.895019531250, -0.030517578125, -3.312500000000, -2.976562500000, 0.273437500000, 1490856524
0.244873046875, -0.895019531250, -0.030517578125, -3.312500000000, -2.976562500000, 0.273437500000, 1490856524
0.237060546875, -1.021240234375, 0.042236328125, -4.820312500000, -1.000000000000, -1.906250000000, 1490856524
0.237060546875, -1.021240234375, 0.042236328125, -4.820312500000, -1.000000000000, -1.906250000000, 1490856524
0.237060546875, -1.021240234375, 0.042236328125, -4.820312500000, -1.000000000000, -1.906250000000, 1490856524
0.385009765625, -1.024169921875, 0.046630859375, -6.953125000000, -1.500000000000, -2.937500000000, 1490856524
0.385009765625, -1.024169921875, 0.046630859375, -6.953125000000, -1.500000000000, -2.937500000000, 1490856524
0.385009765625, -1.024169921875, 0.046630859375, -6.953125000000, -1.500000000000, -2.937500000000, 1490856524
0.169433593750, -1.020263671875, 0.086914062500, 0.843750000000, -2.726562500000, -2.312500000000, 1490856524
0.169433593750, -1.020263671875, 0.086914062500, 0.843750000000, -2.726562500000, -2.312500000000, 1490856524
0.169433593750, -1.020263671875, 0.086914062500, 0.843750000000, -2.726562500000, -2.312500000000, 1490856524
0.169433593750, -1.020263671875, 0.086914062500, 0.843750000000, -2.726562500000, -2.312500000000, 1490856524
0.248046875000, -0.995849609375, 0.066650390625, 2.367187500000, 4.812500000000, -3.164062500000, 1490856524
0.248046875000, -0.995849609375, 0.066650390625, 2.367187500000, 4.812500000000, -3.164062500000, 1490856524
0.248046875000, -0.995849609375, 0.066650390625, 2.367187500000, 4.812500000000, -3.164062500000, 1490856524
0.242431640625, -0.936279296875, -0.001953125000, -0.804687500000, -1.546875000000, -3.789062500000, 1490856524
0.242431640625, -0.936279296875, -0.001953125000, -0.804687500000, -1.546875000000, -3.789062500000, 1490856524
0.242431640625, -0.936279296875, -0.001953125000, -0.804687500000, -1.546875000000, -3.789062500000, 1490856524
0.253417968750, -0.945556640625, 0.025146484375, 1.078125000000, -3.656250000000, -4.500000000000, 1490856524
0.253417968750, -0.945556640625, 0.025146484375, 1.078125000000, -3.656250000000, -4.500000000000, 1490856524
0.253417968750, -0.945556640625, 0.025146484375, 1.078125000000, -3.656250000000, -4.500000000000, 1490856524
0.218505859375, -1.020996093750, -0.002685546875, 10.257812500000, -8.570312500000, -6.328125000000, 1490856524
0.219482421875, -0.965576171875, -0.001220703125, 11.054687500000, -12.734375000000, -6.632812500000, 1490856524
0.219482421875, -0.965576171875, -0.001220703125, 11.054687500000, -12.734375000000, -6.632812500000, 1490856524
0.219482421875, -0.965576171875, -0.001220703125, 11.054687500000, -12.734375000000, -6.632812500000, 1490856524
0.219482421875, -0.965576171875, -0.001220703125, 11.054687500000, -12.734375000000, -6.632812500000, 1490856524
0.182617187500, -0.881835937500, -0.021972656250, 18.320312500000, -16.273437500000, -10.468750000000, 1490856524
0.278564453125, -0.929443359375, 0.051757812500, 17.242187500000, -17.421875000000, -8.281250000000, 1490856524
0.278564453125, -0.929443359375, 0.051757812500, 17.242187500000, -17.421875000000, -8.281250000000, 1490856524
0.278564453125, -0.929443359375, 0.051757812500, 17.242187500000, -17.421875000000, -8.281250000000, 1490856524
0.278564453125, -0.929443359375, 0.051757812500, 17.242187500000, -17.421875000000, -8.281250000000, 1490856524
0.169189453125, -0.888671875000, -0.039794921875, 33.500000000000, -27.195312500000, -19.453125000000, 1490856524
0.169189453125, -0.888671875000, -0.039794921875, 33.500000000000, -27.195312500000, -19.453125000000, 1490856524
0.169189453125, -0.888671875000, -0.039794921875, 33.500000000000, -27.195312500000, -19.453125000000, 1490856524
0.252929687500, -0.850097656250, -0.083740234375, 43.031250000000, -13.734375000000, -30.476562500000, 1490856524
0.200927734375, -0.806152343750, -0.069824218750, 43.031250000000, -13.734375000000, -30.476562500000, 1490856524
0.200927734375, -0.806152343750, -0.069824218750, 43.031250000000, -13.734375000000, -30.476562500000, 1490856524
0.199218750000, -0.904296875000, -0.084716796875, 48.929687500000, -0.875000000000, -29.109375000000, 1490856524
0.211181640625, -0.862304687500, -0.064941406250, 70.125000000000, 28.898437500000, -42.351562500000, 1490856524
0.211181640625, -0.862304687500, -0.064941406250, 70.125000000000, 28.898437500000, -42.351562500000, 1490856524
0.211181640625, -0.862304687500, -0.064941406250, 70.125000000000, 28.898437500000, -42.351562500000, 1490856524
0.211181640625, -0.862304687500, -0.064941406250, 70.125000000000, 28.898437500000, -42.351562500000, 1490856524
0.211181640625, -0.862304687500, -0.064941406250, 70.125000000000, 28.898437500000, -42.351562500000, 1490856524
0.211181640625, -0.862304687500, -0.064941406250, 70.125000000000, 28.898437500000, -42.351562500000, 1490856524
0.205566406250, -0.734375000000, 0.014648437500, 86.609375000000, 70.078125000000, -41.640625000000, 1490856524
0.205566406250, -0.734375000000, 0.014648437500, 86.609375000000, 70.078125000000, -41.640625000000, 1490856524
0.052734375000, -0.715087890625, -0.085205078125, 73.281250000000, 21.695312500000, -36.484375000000, 1490856524
0.052734375000, -0.715087890625, -0.085205078125, 73.281250000000, 21.695312500000, -36.484375000000, 1490856524
0.052734375000, -0.715087890625, -0.085205078125, 73.281250000000, 21.695312500000, -36.484375000000, 1490856524
0.052734375000, -0.715087890625, -0.085205078125, 73.281250000000, 21.695312500000, -36.484375000000, 1490856524
0.052734375000, -0.715087890625, -0.085205078125, 73.281250000000, 21.695312500000, -36.484375000000, 1490856524
0.090576171875, -0.507080078125, -0.027832031250, 95.351562500000, -39.000000000000, -34.601562500000, 1490856524
0.090576171875, -0.507080078125, -0.027832031250, 95.351562500000, -39.000000000000, -34.601562500000, 1490856524
0.090576171875, -0.507080078125, -0.027832031250, 95.351562500000, -39.000000000000, -34.601562500000, 1490856524
0.102050781250, -0.340087890625, 0.065429687500, 32.312500000000, 13.296875000000, -25.664062500000, 1490856524
0.102050781250, -0.340087890625, 0.065429687500, 32.312500000000, 13.296875000000, -25.664062500000, 1490856524
0.102050781250, -0.340087890625, 0.065429687500, 32.312500000000, 13.296875000000, -25.664062500000, 1490856524
0.072265625000, -0.495849609375, -0.034912109375, -21.843750000000, 94.156250000000, -17.593750000000, 1490856524
0.072265625000, -0.495849609375, -0.034912109375, -21.843750000000, 94.156250000000, -17.593750000000, 1490856524
0.116699218750, -1.105712890625, -0.162109375000, -148.984375000000, -22.601562500000, -13.710937500000, 1490856524
0.116699218750, -1.105712890625, -0.162109375000, -148.984375000000, -22.601562500000, -13.710937500000, 1490856524
0.116699218750, -1.105712890625, -0.162109375000, -148.984375000000, -22.601562500000, -13.710937500000, 1490856524
0.116699218750, -1.105712890625, -0.162109375000, -148.984375000000, -22.601562500000, -13.710937500000, 1490856525
0.088134765625, -0.791748046875, -0.128662109375, -61.609375000000, -74.132812500000, -19.109375000000, 1490856525
-0.010009765625, -0.718017578125, 0.020507812500, -27.312500000000, -67.359375000000, -18.039062500000, 1490856525
-0.010009765625, -0.718017578125, 0.020507812500, -27.312500000000, -67.359375000000, -18.039062500000, 1490856525
-0.010009765625, -0.718017578125, 0.020507812500, -27.312500000000, -67.359375000000, -18.039062500000, 1490856525
0.152099609375, -1.228027343750, -0.185302734375, 7.140625000000, -79.757812500000, -35.679687500000, 1490856525
0.152099609375, -1.228027343750, -0.185302734375, 7.140625000000, -79.757812500000, -35.679687500000, 1490856525
0.152099609375, -1.228027343750, -0.185302734375, 7.140625000000, -79.757812500000, -35.679687500000, 1490856525
-0.018310546875, -1.033691406250, -0.161132812500, -128.070312500000, -90.156250000000, -17.882812500000, 1490856525
-0.018310546875, -1.033691406250, -0.161132812500, -128.070312500000, -90.156250000000, -17.882812500000, 1490856525
-0.018310546875, -1.033691406250, -0.161132812500, -128.070312500000, -90.156250000000, -17.882812500000, 1490856525
-0.067626953125, -1.399902343750, -0.082763671875, -131.531250000000, 11.921875000000, -20.039062500000, 1490856525
-0.067626953125, -1.399902343750, -0.082763671875, -131.531250000000, 11.921875000000, -20.039062500000, 1490856525
-0.067626953125, -1.399902343750, -0.082763671875, -131.531250000000, 11.921875000000, -20.039062500000, 1490856525
-0.067626953125, -1.399902343750, -0.082763671875, -131.531250000000, 11.921875000000, -20.039062500000, 1490856525
-0.093261718750, -1.087158203125, -0.039306640625, -75.289062500000, 147.742187500000, -30.757812500000, 1490856525
-0.093261718750, -1.087158203125, -0.039306640625, -75.289062500000, 147.742187500000, -30.757812500000, 1490856525
-0.093261718750, -1.087158203125, -0.039306640625, -75.289062500000, 147.742187500000, -30.757812500000, 1490856525
0.027832031250, -1.223876953125, -0.237304687500, -256.000000000000, 16.679687500000, 12.296875000000, 1490856525
0.027832031250, -1.223876953125, -0.237304687500, -256.000000000000, 16.679687500000, 12.296875000000, 1490856525
0.027832031250, -1.223876953125, -0.237304687500, -256.000000000000, 16.679687500000, 12.296875000000, 1490856525
0.050292968750, -1.201416015625, -0.050292968750, -114.718750000000, -175.492187500000, 7.390625000000, 1490856525
0.050292968750, -1.201416015625, -0.050292968750, -114.718750000000, -175.492187500000, 7.390625000000, 1490856525
0.050292968750, -1.201416015625, -0.050292968750, -114.718750000000, -175.492187500000, 7.390625000000, 1490856525
-0.081787109375, -1.325927734375, 0.091064453125, 91.625000000000, -66.367187500000, -26.414062500000, 1490856525
-0.081787109375, -1.325927734375, 0.091064453125, 91.625000000000, -66.367187500000, -26.414062500000, 1490856525
-0.081787109375, -1.325927734375, 0.091064453125, 91.625000000000, -66.367187500000, -26.414062500000, 1490856525
-0.081787109375, -1.325927734375, 0.091064453125, 91.625000000000, -66.367187500000, -26.414062500000, 1490856525
0.022949218750, -1.241455078125, 0.015380859375, 118.210937500000, 122.921875000000, -29.296875000000, 1490856525
0.022949218750, -1.241455078125, 0.015380859375, 118.210937500000, 122.921875000000, -29.296875000000, 1490856525
0.022949218750, -1.241455078125, 0.015380859375, 118.210937500000, 122.921875000000, -29.296875000000, 1490856525
0.015625000000, -1.630859375000, -0.052001953125, 223.703125000000, 163.507812500000, -26.937500000000, 1490856525
0.015625000000, -1.630859375000, -0.052001953125, 223.703125000000, 163.507812500000, -26.937500000000, 1490856525
0.015625000000, -1.630859375000, -0.052001953125, 223.703125000000, 163.507812500000, -26.937500000000, 1490856525
-0.107666015625, -1.664062500000, -0.155029296875, 213.468750000000, 78.257812500000, -3.351562500000, 1490856525
-0.107666015625, -1.664062500000, -0.155029296875, 213.468750000000, 78.257812500000, -3.351562500000, 1490856525
-0.107666015625, -1.664062500000, -0.155029296875, 213.468750000000, 78.257812500000, -3.351562500000, 1490856525
-0.053955078125, -1.820068359375, -0.106933593750, 207.906250000000, 11.929687500000, 32.937500000000, 1490856525
-0.053955078125, -1.820068359375, -0.106933593750, 207.906250000000, 11.929687500000, 32.937500000000, 1490856525
-0.053955078125, -1.820068359375, -0.106933593750, 207.906250000000, 11.929687500000, 32.937500000000, 1490856525
-0.053955078125, -1.820068359375, -0.106933593750, 207.906250000000, 11.929687500000, 32.937500000000, 1490856525
0.197753906250, -1.495849609375, -0.279052734375, 135.867187500000, -18.929687500000, 45.203125000000, 1490856525
0.197753906250, -1.495849609375, -0.279052734375, 135.867187500000, -18.929687500000, 45.203125000000, 1490856525
0.197753906250, -1.495849609375, -0.279052734375, 135.867187500000, -18.929687500000, 45.203125000000, 1490856525
0.090087890625, -1.418457031250, -0.124267578125, 14.812500000000, -47.234375000000, 57.914062500000, 1490856525
0.090087890625, -1.418457031250, -0.124267578125, 14.812500000000, -47.234375000000, 57.914062500000, 1490856525
0.090087890625, -1.418457031250, -0.124267578125, 14.812500000000, -47.234375000000, 57.914062500000, 1490856525
0.060302734375, -1.283691406250, -0.069091796875, -43.609375000000, 5.929687500000, 25.742187500000, 1490856525
0.060302734375, -1.283691406250, -0.069091796875, -43.609375000000, 5.929687500000, 25.742187500000, 1490856525
0.060302734375, -1.283691406250, -0.069091796875, -43.609375000000, 5.929687500000, 25.742187500000, 1490856525
0.027832031250, -1.301025390625, -0.161376953125, -38.429687500000, 69.515625000000, -5.343750000000, 1490856525
0.027832031250, -1.301025390625, -0.161376953125, -38.429687500000, 69.515625000000, -5.343750000000, 1490856525
0.027832031250, -1.301025390625, -0.161376953125, -38.429687500000, 69.515625000000, -5.343750000000, 1490856525
0.027832031250, -1.301025390625, -0.161376953125, -38.429687500000, 69.515625000000, -5.343750000000, 1490856525
-0.070556640625, -1.354736328125, -0.202880859375, -172.023437500000, 28.132812500000, 9.710937500000, 1490856525
-0.070556640625, -1.354736328125, -0.202880859375, -172.023437500000, 28.132812500000, 9.710937500000, 1490856525
-0.070556640625, -1.354736328125, -0.202880859375, -172.023437500000, 28.132812500000, 9.710937500000, 1490856525
-0.035156250000, -1.417480468750, -0.150390625000, -207.859375000000, -25.039062500000, 8.945312500000, 1490856525
-0.035156250000, -1.417480468750, -0.150390625000, -207.859375000000, -25.039062500000, 8.945312500000, 1490856525
-0.035156250000, -1.417480468750, -0.150390625000, -207.859375000000, -25.039062500000, 8.945312500000, 1490856525
-0.128906250000, -1.163330078125, -0.091064453125, -162.367187500000, 7.445312500000, -17.062500000000, 1490856525
-0.128906250000, -1.163330078125, -0.091064453125, -162.367187500000, 7.445312500000, -17.062500000000, 1490856525
-0.128906250000, -1.163330078125, -0.091064453125, -162.367187500000, 7.445312500000, -17.062500000000, 1490856525
-0.075927734375, -1.320556640625, -0.076171875000, -210.601562500000, 28.570312500000, -13.039062500000, 1490856525
-0.075927734375, -1.320556640625, -0.076171875000, -210.601562500000, 28.570312500000, -13.039062500000, 1490856525
-0.075927734375, -1.320556640625, -0.076171875000, -210.601562500000, 28.570312500000, -13.039062500000, 1490856525
-0.075927734375, -1.320556640625, -0.076171875000, -210.601562500000, 28.570312500000, -13.039062500000, 1490856525
0.010986328125, -1.161865234375, -0.042968750000, -238.750000000000, 71.531250000000, -8.226562500000, 1490856526
0.010986328125, -1.161865234375, -0.042968750000, -238.750000000000, 71.531250000000, -8.226562500000, 1490856526
0.010986328125, -1.161865234375, -0.042968750000, -238.750000000000, 71.531250000000, -8.226562500000, 1490856526
0.228027343750, -0.951171875000, 0.009033203125, -183.523437500000, 103.359375000000, -40.406250000000, 1490856526
0.228027343750, -0.951171875000, 0.009033203125, -183.523437500000, 103.359375000000, -40.406250000000, 1490856526
0.228027343750, -0.951171875000, 0.009033203125, -183.523437500000, 103.359375000000, -40.406250000000, 1490856526
0.191650390625, -0.672119140625, -0.091064453125, -141.242187500000, 101.578125000000, -64.906250000000, 1490856526
0.191650390625, -0.672119140625, -0.091064453125, -141.242187500000, 101.578125000000, -64.906250000000, 1490856526
0.191650390625, -0.672119140625, -0.091064453125, -141.242187500000, 101.578125000000, -64.906250000000, 1490856526
0.190185546875, -0.579833984375, -0.072265625000, -121.031250000000, 39.492187500000, -77.679687500000, 1490856526
0.190185546875, -0.579833984375, -0.072265625000, -121.031250000000, 39.492187500000, -77.679687500000, 1490856526
0.190185546875, -0.579833984375, -0.072265625000, -121.031250000000, 39.492187500000, -77.679687500000, 1490856526
0.190185546875, -0.579833984375, -0.072265625000, -121.031250000000, 39.492187500000, -77.679687500000, 1490856526
0.110351562500, -0.242431640625, -0.031494140625, -90.195312500000, -6.921875000000, -52.500000000000, 1490856526
0.110351562500, -0.242431640625, -0.031494140625, -90.195312500000, -6.921875000000, -52.500000000000, 1490856526
0.110351562500, -0.242431640625, -0.031494140625, -90.195312500000, -6.921875000000, -52.500000000000, 1490856526
0.125488281250, -0.221191406250, -0.003906250000, -50.125000000000, -11.351562500000, -37.515625000000, 1490856526
0.125488281250, -0.221191406250, -0.003906250000, -50.125000000000, -11.351562500000, -37.515625000000, 1490856526
0.125488281250, -0.221191406250, -0.003906250000, -50.125000000000, -11.351562500000, -37.515625000000, 1490856526
0.045654296875, -0.145996093750, 0.012695312500, -7.875000000000, -24.648437500000, -29.062500000000, 1490856526
0.045654296875, -0.145996093750, 0.012695312500, -7.875000000000, -24.648437500000, -29.062500000000, 1490856526
0.116455078125, -0.341796875000, 0.064697265625, 73.460937500000, -97.585937500000, 38.351562500000, 1490856526
0.116455078125, -0.341796875000, 0.064697265625, 73.460937500000, -97.585937500000, 38.351562500000, 1490856526
0.078857421875, -0.728271484375, 0.020996093750, 176.179687500000, -173.757812500000, 12.875000000000, 1490856526
0.078857421875, -0.728271484375, 0.020996093750, 176.179687500000, -173.757812500000, 12.875000000000, 1490856526
0.078857421875, -0.728271484375, 0.020996093750, 176.179687500000, -173.757812500000, 12.875000000000, 1490856526
0.078857421875, -0.728271484375, 0.020996093750, 176.179687500000, -173.757812500000, 12.875000000000, 1490856526
-0.010009765625, -1.233398437500, -0.031250000000, 237.921875000000, -107.070312500000, -0.789062500000, 1490856526
-0.010009765625, -1.233398437500, -0.031250000000, 237.921875000000, -107.070312500000, -0.789062500000, 1490856526
-0.010009765625, -1.233398437500, -0.031250000000, 237.921875000000, -107.070312500000, -0.789062500000, 1490856526
-0.157958984375, -1.455566406250, -0.042724609375, 253.992187500000, -32.585937500000, -69.242187500000, 1490856526
-0.157958984375, -1.455566406250, -0.042724609375, 253.992187500000, -32.585937500000, -69.242187500000, 1490856526
-0.157958984375, -1.455566406250, -0.042724609375, 253.992187500000, -32.585937500000, -69.242187500000, 1490856526
-0.157958984375, -1.455566406250, -0.042724609375, 253.992187500000, -32.585937500000, -69.242187500000, 1490856526
-0.157958984375, -1.455566406250, -0.042724609375, 253.992187500000, -32.585937500000, -69.242187500000, 1490856526
0.136230468750, -1.086425781250, 0.412841796875, -256.000000000000, 50.156250000000, -89.406250000000, 1490856526
0.136230468750, -1.086425781250, 0.412841796875, -256.000000000000, 50.156250000000, -89.406250000000, 1490856526
0.136230468750, -1.086425781250, 0.412841796875, -256.000000000000, 50.156250000000, -89.406250000000, 1490856526
0.136230468750, -1.086425781250, 0.412841796875, -256.000000000000, 50.156250000000, -89.406250000000, 1490856526
0.099365234375, -1.032958984375, 0.009521484375, -256.000000000000, -108.523437500000, 50.031250000000, 1490856526
0.099365234375, -1.032958984375, 0.009521484375, -256.000000000000, -108.523437500000, 50.031250000000, 1490856526
0.099365234375, -1.032958984375, 0.009521484375, -256.000000000000, -108.523437500000, 50.031250000000, 1490856526
0.340576171875, -0.880126953125, -0.063720703125, -142.851562500000, 43.843750000000, 62.789062500000, 1490856526
0.340576171875, -0.880126953125, -0.063720703125, -142.851562500000, 43.843750000000, 62.789062500000, 1490856526
0.340576171875, -0.880126953125, -0.063720703125, -142.851562500000, 43.843750000000, 62.789062500000, 1490856526
0.205810546875, -0.723144531250, 0.031738281250, -21.828125000000, 53.179687500000, -21.617187500000, 1490856526
0.205810546875, -0.723144531250, 0.031738281250, -21.828125000000, 53.179687500000, -21.617187500000, 1490856526
0.205810546875, -0.723144531250, 0.031738281250, -21.828125000000, 53.179687500000, -21.617187500000, 1490856526
0.114746093750, -0.964843750000, -0.055908203125, 49.687500000000, 37.414062500000, 22.632812500000, 1490856526
0.114746093750, -0.964843750000, -0.055908203125, 49.687500000000, 37.414062500000, 22.632812500000, 1490856526
0.114746093750, -0.964843750000, -0.055908203125, 49.687500000000, 37.414062500000, 22.632812500000, 1490856526
0.114746093750, -0.964843750000, -0.055908203125, 49.687500000000, 37.414062500000, 22.632812500000, 1490856526
0.252685546875, -1.385986328125, 0.347167968750, 253.992187500000, -230.828125000000, 23.703125000000, 1490856526
0.252685546875, -1.385986328125, 0.347167968750, 253.992187500000, -230.828125000000, 23.703125000000, 1490856526
0.252685546875, -1.385986328125, 0.347167968750, 253.992187500000, -230.828125000000, 23.703125000000, 1490856526
-0.096435546875, -1.239746093750, 1.637451171875, 170.632812500000, 2.359375000000, 3.828125000000, 1490856526
-0.096435546875, -1.239746093750, 1.637451171875, 170.632812500000, 2.359375000000, 3.828125000000, 1490856526
-0.096435546875, -1.239746093750, 1.637451171875, 170.632812500000, 2.359375000000, 3.828125000000, 1490856526
0.217041015625, -1.018798828125, 0.313720703125, -157.585937500000, 8.625000000000, -3.507812500000, 1490856526
0.217041015625, -1.018798828125, 0.313720703125, -157.585937500000, 8.625000000000, -3.507812500000, 1490856526
0.229736328125, -0.971679687500, 0.091796875000, -64.593750000000, -47.593750000000, 21.515625000000, 1490856526
0.229736328125, -0.971679687500, 0.091796875000, -64.593750000000, -47.593750000000, 21.515625000000, 1490856526
0.229736328125, -0.971679687500, 0.091796875000, -64.593750000000, -47.593750000000, 21.515625000000, 1490856526
0.229736328125, -0.971679687500, 0.091796875000, -64.593750000000, -47.593750000000, 21.515625000000, 1490856526
0.229736328125, -0.971679687500, 0.091796875000, -64.593750000000, -47.593750000000, 21.515625000000, 1490856526
0.117675781250, -0.966064453125, 0.090576171875, 33.687500000000, -29.757812500000, 6.062500000000, 1490856526
0.117675781250, -0.966064453125, 0.090576171875, 33.687500000000, -29.757812500000, 6.062500000000, 1490856526
0.117675781250, -0.966064453125, 0.090576171875, 33.687500000000, -29.757812500000, 6.062500000000, 1490856526
0.212890625000, -0.866943359375, 0.139160156250, 81.867187500000, 8.437500000000, -3.679687500000, 1490856527
0.212890625000, -0.866943359375, 0.139160156250, 81.867187500000, 8.437500000000, -3.679687500000, 1490856527
0.212890625000, -0.866943359375, 0.139160156250, 81.867187500000, 8.437500000000, -3.679687500000, 1490856527
0.119628906250, -0.948730468750, 0.281005859375, 71.781250000000, 4.335937500000, -9.554687500000, 1490856527
0.119628906250, -0.948730468750, 0.281005859375, 71.781250000000, 4.335937500000, -9.554687500000, 1490856527
0.119628906250, -0.948730468750, 0.281005859375, 71.781250000000, 4.335937500000, -9.554687500000, 1490856527
0.204833984375, -1.003662109375, 0.166992187500, -20.843750000000, 7.304687500000, 0.937500000000, 1490856527
0.204833984375, -1.003662109375, 0.166992187500, -20.843750000000, 7.304687500000, 0.937500000000, 1490856527
0.204833984375, -1.003662109375, 0.166992187500, -20.843750000000, 7.304687500000, 0.937500000000, 1490856527
0.204833984375, -1.003662109375, 0.166992187500, -20.843750000000, 7.304687500000, 0.937500000000, 1490856527
0.184570312500, -1.038574218750, 0.188964843750, -23.226562500000, 11.375000000000, -5.773437500000, 1490856527
0.184570312500, -1.038574218750, 0.188964843750, -23.226562500000, 11.375000000000, -5.773437500000, 1490856527
0.184570312500, -1.038574218750, 0.188964843750, -23.226562500000, 11.375000000000, -5.773437500000, 1490856527
0.161376953125, -1.018554687500, 0.150390625000, 2.710937500000, 22.312500000000, -12.648437500000, 1490856527
0.161376953125, -1.018554687500, 0.150390625000, 2.710937500000, 22.312500000000, -12.648437500000, 1490856527
0.161376953125, -1.018554687500, 0.150390625000, 2.710937500000, 22.312500000000, -12.648437500000, 1490856527
0.158203125000, -0.959960937500, 0.125732421875, 15.062500000000, 22.507812500000, -18.406250000000, 1490856527
0.158203125000, -0.959960937500, 0.125732421875, 15.062500000000, 22.507812500000, -18.406250000000, 1490856527
0.158203125000, -0.959960937500, 0.125732421875, 15.062500000000, 22.507812500000, -18.406250000000, 1490856527
0.055908203125, -1.010742187500, 0.163818359375, 4.796875000000, 12.023437500000, -28.515625000000, 1490856527
0.055908203125, -1.010742187500, 0.163818359375, 4.796875000000, 12.023437500000, -28.515625000000, 1490856527
0.055908203125, -1.010742187500, 0.163818359375, 4.796875000000, 12.023437500000, -28.515625000000, 1490856527
0.055908203125, -1.010742187500, 0.163818359375, 4.796875000000, 12.023437500000, -28.515625000000, 1490856527
0.044433593750, -0.982421875000, 0.112304687500, -20.500000000000, 20.187500000000, -1.929687500000, 1490856527
0.044433593750, -0.982421875000, 0.112304687500, -20.500000000000, 20.187500000000, -1.929687500000, 1490856527
0.044433593750, -0.982421875000, 0.112304687500, -20.500000000000, 20.187500000000, -1.929687500000, 1490856527
0.038574218750, -1.025878906250, 0.129882812500, -23.304687500000, 4.039062500000, 5.828125000000, 1490856527
0.038574218750, -1.025878906250, 0.129882812500, -23.304687500000, 4.039062500000, 5.828125000000, 1490856527
0.038574218750, -1.025878906250, 0.129882812500, -23.304687500000, 4.039062500000, 5.828125000000, 1490856527
0.099121093750, -1.084960937500, 0.141845703125, -1.875000000000, -9.039062500000, 9.984375000000, 1490856527
0.099121093750, -1.084960937500, 0.141845703125, -1.875000000000, -9.039062500000, 9.984375000000, 1490856527
0.099121093750, -1.084960937500, 0.141845703125, -1.875000000000, -9.039062500000, 9.984375000000, 1490856527
0.164062500000, -0.991210937500, 0.187744140625, 6.632812500000, -2.304687500000, -1.859375000000, 1490856527
0.164062500000, -0.991210937500, 0.187744140625, 6.632812500000, -2.304687500000, -1.859375000000, 1490856527
0.164062500000, -0.991210937500, 0.187744140625, 6.632812500000, -2.304687500000, -1.859375000000, 1490856527
0.164062500000, -0.991210937500, 0.187744140625, 6.632812500000, -2.304687500000, -1.859375000000, 1490856527
0.188232421875, -0.973632812500, 0.197753906250, -7.570312500000, 3.875000000000, -6.054687500000, 1490856527
0.188232421875, -0.973632812500, 0.197753906250, -7.570312500000, 3.875000000000, -6.054687500000, 1490856527
0.188232421875, -0.973632812500, 0.197753906250, -7.570312500000, 3.875000000000, -6.054687500000, 1490856527
0.195556640625, -1.016601562500, 0.121826171875, -14.218750000000, 12.070312500000, -10.500000000000, 1490856527
0.195556640625, -1.016601562500, 0.121826171875, -14.218750000000, 12.070312500000, -10.500000000000, 1490856527
0.195556640625, -1.016601562500, 0.121826171875, -14.218750000000, 12.070312500000, -10.500000000000, 1490856527
0.060791015625, -1.024414062500, 0.135009765625, -7.765625000000, 6.640625000000, -7.421875000000, 1490856527
0.060791015625, -1.024414062500, 0.135009765625, -7.765625000000, 6.640625000000, -7.421875000000, 1490856527
0.060791015625, -1.024414062500, 0.135009765625, -7.765625000000, 6.640625000000, -7.421875000000, 1490856527
0.114746093750, -0.987060546875, 0.101318359375, 3.289062500000, -0.851562500000, -8.625000000000, 1490856527
0.114746093750, -0.987060546875, 0.101318359375, 3.289062500000, -0.851562500000, -8.625000000000, 1490856527
0.114746093750, -0.987060546875, 0.101318359375, 3.289062500000, -0.851562500000, -8.625000000000, 1490856527
0.114746093750, -0.987060546875, 0.101318359375, 3.289062500000, -0.851562500000, -8.625000000000, 1490856527
0.120849609375, -0.982666015625, 0.094970703125, -2.890625000000, -1.250000000000, -7.390625000000, 1490856527
0.120849609375, -0.982666015625, 0.094970703125, -2.890625000000, -1.250000000000, -7.390625000000, 1490856527
0.120849609375, -0.982666015625, 0.094970703125, -2.890625000000, -1.250000000000, -7.390625000000, 1490856527
0.253906250000, -0.959472656250, 0.187744140625, -3.304687500000, -2.726562500000, -8.773437500000, 1490856527
0.253906250000, -0.959472656250, 0.187744140625, -3.304687500000, -2.726562500000, -8.773437500000, 1490856527
0.253906250000, -0.959472656250, 0.187744140625, -3.304687500000, -2.726562500000, -8.773437500000, 1490856527
0.095458984375, -0.925781250000, 0.098388671875, 2.812500000000, 0.445312500000, -9.171875000000, 1490856527
0.095458984375, -0.925781250000, 0.098388671875, 2.812500000000, 0.445312500000, -9.171875000000, 1490856527
0.095458984375, -0.925781250000, 0.098388671875, 2.812500000000, 0.445312500000, -9.171875000000, 1490856527
0.059082031250, -0.855224609375, 0.101806640625, -0.031250000000, -0.890625000000, -8.867187500000, 1490856527
0.059082031250, -0.855224609375, 0.101806640625, -0.031250000000, -0.890625000000, -8.867187500000, 1490856527
0.059082031250, -0.855224609375, 0.101806640625, -0.031250000000, -0.890625000000, -8.867187500000, 1490856527
0.059082031250, -0.855224609375, 0.101806640625, -0.031250000000, -0.890625000000, -8.867187500000, 1490856527
0.039794921875, -1.014892578125, 0.180175781250, -2.679687500000, 4.382812500000, -6.203125000000, 1490856527
0.039794921875, -1.014892578125, 0.180175781250, -2.679687500000, 4.382812500000, -6.203125000000, 1490856527
0.039794921875, -1.014892578125, 0.180175781250, -2.679687500000, 4.382812500000, -6.203125000000, 1490856527
0.144287109375, -0.951416015625, 0.205078125000, -7.523437500000, -0.843750000000, -6.484375000000, 1490856527
0.144287109375, -0.951416015625, 0.205078125000, -7.523437500000, -0.843750000000, -6.484375000000, 1490856528
0.144287109375, -0.951416015625, 0.205078125000, -7.523437500000, -0.843750000000, -6.484375000000, 1490856528
0.209960937500, -1.090820312500, 0.049804687500, -6.695312500000, 2.304687500000, -3.140625000000, 1490856528
0.209960937500, -1.090820312500, 0.049804687500, -6.695312500000, 2.304687500000, -3.140625000000, 1490856528
0.035400390625, -1.020507812500, 0.052734375000, 6.453125000000, -4.164062500000, -1.492187500000, 1490856528
0.035400390625, -1.020507812500, 0.052734375000, 6.453125000000, -4.164062500000, -1.492187500000, 1490856528
0.035400390625, -1.020507812500, 0.052734375000, 6.453125000000, -4.164062500000, -1.492187500000, 1490856528
0.035400390625, -1.020507812500, 0.052734375000, 6.453125000000, -4.164062500000, -1.492187500000, 1490856528
0.035400390625, -1.020507812500, 0.052734375000, 6.453125000000, -4.164062500000, -1.492187500000, 1490856528
0.053466796875, -0.933593750000, 0.188720703125, 8.468750000000, -0.695312500000, -3.515625000000, 1490856528
0.053466796875, -0.933593750000, 0.188720703125, 8.468750000000, -0.695312500000, -3.515625000000, 1490856528
0.053466796875, -0.933593750000, 0.188720703125, 8.468750000000, -0.695312500000, -3.515625000000, 1490856528
0.136230468750, -1.017089843750, 0.095947265625, -0.570312500000, 3.195312500000, -3.609375000000, 1490856528
0.136230468750, -1.017089843750, 0.095947265625, -0.570312500000, 3.195312500000, -3.609375000000, 1490856528
0.136230468750, -1.017089843750, 0.095947265625, -0.570312500000, 3.195312500000, -3.609375000000, 1490856528
0.111083984375, -1.075195312500, 0.138671875000, -4.812500000000, 0.523437500000, -3.820312500000, 1490856528
0.111083984375, -1.075195312500, 0.138671875000, -4.812500000000, 0.523437500000, -3.820312500000, 1490856528
0.111083984375, -1.075195312500, 0.138671875000, -4.812500000000, 0.523437500000, -3.820312500000, 1490856528
0.147949218750, -1.017333984375, 0.136718750000, -2.671875000000, -0.226562500000, -4.632812500000, 1490856528
0.147949218750, -1.017333984375, 0.136718750000, -2.671875000000, -0.226562500000, -4.632812500000, 1490856528
0.147949218750, -1.017333984375, 0.136718750000, -2.671875000000, -0.226562500000, -4.632812500000, 1490856528
0.147949218750, -1.017333984375, 0.136718750000, -2.671875000000, -0.226562500000, -4.632812500000, 1490856528
0.036132812500, -0.977783203125, 0.133544921875, -4.585937500000, -0.828125000000, -2.414062500000, 1490856528
0.036132812500, -0.977783203125, 0.133544921875, -4.585937500000, -0.828125000000, -2.414062500000, 1490856528
0.036132812500, -0.977783203125, 0.133544921875, -4.585937500000, -0.828125000000, -2.414062500000, 1490856528
0.040527343750, -0.982177734375, 0.143310546875, -0.109375000000, 0.382812500000, -2.921875000000, 1490856528
0.040527343750, -0.982177734375, 0.143310546875, -0.109375000000, 0.382812500000, -2.921875000000, 1490856528
0.040527343750, -0.982177734375, 0.143310546875, -0.109375000000, 0.382812500000, -2.921875000000, 1490856528
0.110351562500, -1.053955078125, 0.100097656250, 4.718750000000, 0.210937500000, -1.187500000000, 1490856528
0.110351562500, -1.053955078125, 0.100097656250, 4.718750000000, 0.210937500000, -1.187500000000, 1490856528
0.110351562500, -1.053955078125, 0.100097656250, 4.718750000000, 0.210937500000, -1.187500000000, 1490856528
0.052001953125, -1.064208984375, 0.112060546875, -2.476562500000, -0.156250000000, -3.125000000000, 1490856528
0.052001953125, -1.064208984375, 0.112060546875, -2.476562500000, -0.156250000000, -3.125000000000, 1490856528
0.052001953125, -1.064208984375, 0.112060546875, -2.476562500000, -0.156250000000, -3.125000000000, 1490856528
0.052001953125, -1.064208984375, 0.112060546875, -2.476562500000, -0.156250000000, -3.125000000000, 1490856528
0.035400390625, -1.084472656250, 0.149902343750, -2.710937500000, 3.203125000000, -1.367187500000, 1490856528
0.035400390625, -1.084472656250, 0.149902343750, -2.710937500000, 3.203125000000, -1.367187500000, 1490856528
0.035400390625, -1.084472656250, 0.149902343750, -2.710937500000, 3.203125000000, -1.367187500000, 1490856528
0.025878906250, -0.937255859375, 0.053466796875, -2.718750000000, 1.695312500000, -4.320312500000, 1490856528
0.025878906250, -0.937255859375, 0.053466796875, -2.718750000000, 1.695312500000, -4.320312500000, 1490856528
0.025878906250, -0.937255859375, 0.053466796875, -2.718750000000, 1.695312500000, -4.320312500000, 1490856528
0.146240234375, -0.924072265625, 0.102539062500, -0.367187500000, 4.195312500000, -2.093750000000, 1490856528
0.146240234375, -0.924072265625, 0.102539062500, -0.367187500000, 4.195312500000, -2.093750000000, 1490856528
0.146240234375, -0.924072265625, 0.102539062500, -0.367187500000, 4.195312500000, -2.093750000000, 1490856528
0.100830078125, -0.941406250000, 0.199951171875, 2.828125000000, 2.531250000000, -1.351562500000, 1490856528
0.100830078125, -0.941406250000, 0.199951171875, 2.828125000000, 2.531250000000, -1.351562500000, 1490856528
0.100830078125, -0.941406250000, 0.199951171875, 2.828125000000, 2.531250000000, -1.351562500000, 1490856528
0.100830078125, -0.941406250000, 0.199951171875, 2.828125000000, 2.531250000000, -1.351562500000, 1490856528
0.125976562500, -1.003662109375, 0.146728515625, 2.750000000000, -2.859375000000, 0.351562500000, 1490856528
0.125976562500, -1.003662109375, 0.146728515625, 2.750000000000, -2.859375000000, 0.351562500000, 1490856528
0.125976562500, -1.003662109375, 0.146728515625, 2.750000000000, -2.859375000000, 0.351562500000, 1490856528
0.140869140625, -0.979980468750, 0.061523437500, 2.046875000000, 0.523437500000, -1.140625000000, 1490856528
0.140869140625, -0.979980468750, 0.061523437500, 2.046875000000, 0.523437500000, -1.140625000000, 1490856528
0.140869140625, -0.979980468750, 0.061523437500, 2.046875000000, 0.523437500000, -1.140625000000, 1490856528
0.114990234375, -1.014648437500, 0.194580078125, -0.039062500000, -1.875000000000, -0.156250000000, 1490856528
0.114990234375, -1.014648437500, 0.194580078125, -0.039062500000, -1.875000000000, -0.156250000000, 1490856528
0.114990234375, -1.014648437500, 0.194580078125, -0.039062500000, -1.875000000000, -0.156250000000, 1490856528
0.077636718750, -0.933105468750, 0.200683593750, 2.578125000000, -2.750000000000, 0.984375000000, 1490856528
0.077636718750, -0.933105468750, 0.200683593750, 2.578125000000, -2.750000000000, 0.984375000000, 1490856528
0.077636718750, -0.933105468750, 0.200683593750, 2.578125000000, -2.750000000000, 0.984375000000, 1490856528
0.077636718750, -0.933105468750, 0.200683593750, 2.578125000000, -2.750000000000, 0.984375000000, 1490856528
0.156250000000, -1.023193359375, 0.131591796875, -7.265625000000, -3.367187500000, -0.101562500000, 1490856528
0.156250000000, -1.023193359375, 0.131591796875, -7.265625000000, -3.367187500000, -0.101562500000, 1490856528
0.156250000000, -1.023193359375, 0.131591796875, -7.265625000000, -3.367187500000, -0.101562500000, 1490856528
0.055419921875, -0.939208984375, 0.052001953125, -5.523437500000, -1.351562500000, 1.945312500000, 1490856528
0.055419921875, -0.939208984375, 0.052001953125, -5.523437500000, -1.351562500000, 1.945312500000, 1490856528
0.055419921875, -0.939208984375, 0.052001953125, -5.523437500000, -1.351562500000, 1.945312500000, 1490856528
0.038330078125, -0.984375000000, 0.134277343750, -4.312500000000, -3.523437500000, -1.179687500000, 1490856529
0.038330078125, -0.984375000000, 0.134277343750, -4.312500000000, -3.523437500000, -1.179687500000, 1490856529
0.038330078125, -0.984375000000, 0.134277343750, -4.312500000000, -3.523437500000, -1.179687500000, 1490856529
0.220214843750, -1.018798828125, 0.060302734375, 0.359375000000, 0.554687500000, 0.218750000000, 1490856529
0.220214843750, -1.018798828125, 0.060302734375, 0.359375000000, 0.554687500000, 0.218750000000, 1490856529
0.220214843750, -1.018798828125, 0.060302734375, 0.359375000000, 0.554687500000, 0.218750000000, 1490856529
0.220214843750, -1.018798828125, 0.060302734375, 0.359375000000, 0.554687500000, 0.218750000000, 1490856529
0.111816406250, -0.974853515625, 0.128906250000, -4.398437500000, 2.890625000000, -1.398437500000, 1490856529
0.111816406250, -0.974853515625, 0.128906250000, -4.398437500000, 2.890625000000, -1.398437500000, 1490856529
0.111816406250, -0.974853515625, 0.128906250000, -4.398437500000, 2.890625000000, -1.398437500000, 1490856529
0.090820312500, -0.868408203125, 0.129394531250, -3.789062500000, 2.265625000000, 2.125000000000, 1490856529
0.090820312500, -0.868408203125, 0.129394531250, -3.789062500000, 2.265625000000, 2.125000000000, 1490856529
0.090820312500, -0.868408203125, 0.129394531250, -3.789062500000, 2.265625000000, 2.125000000000, 1490856529
0.096191406250, -1.028808593750, 0.056152343750, -6.085937500000, 0.828125000000, -0.460937500000, 1490856529
0.096191406250, -1.028808593750, 0.056152343750, -6.085937500000, 0.828125000000, -0.460937500000, 1490856529
0.096191406250, -1.028808593750, 0.056152343750, -6.085937500000, 0.828125000000, -0.460937500000, 1490856529
0.042968750000, -0.921386718750, 0.128662109375, -4.789062500000, -0.656250000000, -2.679687500000, 1490856529
0.042968750000, -0.921386718750, 0.128662109375, -4.789062500000, -0.656250000000, -2.679687500000, 1490856529
0.042968750000, -0.921386718750, 0.128662109375, -4.789062500000, -0.656250000000, -2.679687500000, 1490856529
0.042968750000, -0.921386718750, 0.128662109375, -4.789062500000, -0.656250000000, -2.679687500000, 1490856529
0.167968750000, -1.088134765625, 0.081298828125, -4.539062500000, 3.195312500000, -2.351562500000, 1490856529
0.167968750000, -1.088134765625, 0.081298828125, -4.539062500000, 3.195312500000, -2.351562500000, 1490856529
0.167968750000, -1.088134765625, 0.081298828125, -4.539062500000, 3.195312500000, -2.351562500000, 1490856529
0.126708984375, -0.913574218750, 0.041015625000, -3.976562500000, -2.187500000000, 0.460937500000, 1490856529
0.126708984375, -0.913574218750, 0.041015625000, -3.976562500000, -2.187500000000, 0.460937500000, 1490856529
0.126708984375, -0.913574218750, 0.041015625000, -3.976562500000, -2.187500000000, 0.460937500000, 1490856529
0.115722656250, -1.005615234375, 0.138183593750, -4.234375000000, 1.320312500000, 0.367187500000, 1490856529
0.115722656250, -1.005615234375, 0.138183593750, -4.234375000000, 1.320312500000, 0.367187500000, 1490856529
0.059814453125, -1.018798828125, 0.079101562500, -8.687500000000, 0.703125000000, -2.929687500000, 1490856529
0.094238281250, -0.978759765625, 0.139404296875, -10.539062500000, 0.632812500000, -1.367187500000, 1490856529
0.160644531250, -0.966308593750, 0.088623046875, -10.882812500000, 0.796875000000, -1.210937500000, 1490856529
0.160644531250, -0.966308593750, 0.088623046875, -10.882812500000, 0.796875000000, -1.210937500000, 1490856529
0.169921875000, -0.875000000000, 0.148925781250, -10.234375000000, 0.953125000000, -2.367187500000, 1490856529
0.043945312500, -1.003906250000, 0.122070312500, -6.546875000000, -2.750000000000, 0.195312500000, 1490856529
0.043945312500, -1.003906250000, 0.122070312500, -6.546875000000, -2.750000000000, 0.195312500000, 1490856529
0.043945312500, -1.003906250000, 0.122070312500, -6.546875000000, -2.750000000000, 0.195312500000, 1490856529
0.043945312500, -1.003906250000, 0.122070312500, -6.546875000000, -2.750000000000, 0.195312500000, 1490856529
0.043945312500, -1.003906250000, 0.122070312500, -6.546875000000, -2.750000000000, 0.195312500000, 1490856529
0.043945312500, -1.003906250000, 0.122070312500, -6.546875000000, -2.750000000000, 0.195312500000, 1490856529
0.128906250000, -1.076171875000, 0.040039062500, -2.445312500000, -4.125000000000, 0.187500000000, 1490856529
0.128906250000, -1.076171875000, 0.040039062500, -2.445312500000, -4.125000000000, 0.187500000000, 1490856529
0.128906250000, -1.076171875000, 0.040039062500, -2.445312500000, -4.125000000000, 0.187500000000, 1490856529
0.197509765625, -0.998046875000, 0.112060546875, -2.750000000000, 0.757812500000, 0.578125000000, 1490856529
0.197509765625, -0.998046875000, 0.112060546875, -2.750000000000, 0.757812500000, 0.578125000000, 1490856529
0.197509765625, -0.998046875000, 0.112060546875, -2.750000000000, 0.757812500000, 0.578125000000, 1490856529
0.197509765625, -0.998046875000, 0.112060546875, -2.750000000000, 0.757812500000, 0.578125000000, 1490856529
0.220458984375, -1.051513671875, 0.150390625000, -8.437500000000, 0.796875000000, 0.039062500000, 1490856529
0.220458984375, -1.051513671875, 0.150390625000, -8.437500000000, 0.796875000000, 0.039062500000, 1490856529
0.220458984375, -1.051513671875, 0.150390625000, -8.437500000000, 0.796875000000, 0.039062500000, 1490856529
0.160644531250, -1.025634765625, 0.035644531250, -6.609375000000, -0.296875000000, 0.242187500000, 1490856529
0.160644531250, -1.025634765625, 0.035644531250, -6.609375000000, -0.296875000000, 0.242187500000, 1490856529
0.160644531250, -1.025634765625, 0.035644531250, -6.609375000000, -0.296875000000, 0.242187500000, 1490856529
0.133789062500, -0.891113281250, 0.038818359375, -1.929687500000, 2.070312500000, -2.046875000000, 1490856529
0.133789062500, -0.891113281250, 0.038818359375, -1.929687500000, 2.070312500000, -2.046875000000, 1490856529
0.133789062500, -0.891113281250, 0.038818359375, -1.929687500000, 2.070312500000, -2.046875000000, 1490856529
0.196777343750, -0.896728515625, 0.059570312500, 0.140625000000, -0.882812500000, -0.070312500000, 1490856529
0.196777343750, -0.896728515625, 0.059570312500, 0.140625000000, -0.882812500000, -0.070312500000, 1490856529
0.196777343750, -0.896728515625, 0.059570312500, 0.140625000000, -0.882812500000, -0.070312500000, 1490856529
0.196777343750, -0.896728515625, 0.059570312500, 0.140625000000, -0.882812500000, -0.070312500000, 1490856529
0.253662109375, -0.989990234375, 0.049072265625, -0.976562500000, 4.398437500000, -2.992187500000, 1490856529
0.253662109375, -0.989990234375, 0.049072265625, -0.976562500000, 4.398437500000, -2.992187500000, 1490856529
0.253662109375, -0.989990234375, 0.049072265625, -0.976562500000, 4.398437500000, -2.992187500000, 1490856529
0.124267578125, -0.933837890625, 0.116943359375, -4.734375000000, -3.226562500000, -1.320312500000, 1490856529
0.124267578125, -0.933837890625, 0.116943359375, -4.734375000000, -3.226562500000, -1.320312500000, 1490856529
0.124267578125, -0.933837890625, 0.116943359375, -4.734375000000, -3.226562500000, -1.320312500000, 1490856529
0.198974609375, -0.993652343750, 0.204833984375, -1.234375000000, -0.789062500000, -2.132812500000, 1490856529
0.198974609375, -0.993652343750, 0.204833984375, -1.234375000000, -0.789062500000, -2.132812500000, 1490856529
0.198974609375, -0.993652343750, 0.204833984375, -1.234375000000, -0.789062500000, -2.132812500000, 1490856530
0.211669921875, -0.982421875000, 0.132568359375, -8.054687500000, -2.656250000000, -4.664062500000, 1490856530
0.211669921875, -0.982421875000, 0.132568359375, -8.054687500000, -2.656250000000, -4.664062500000, 1490856530
0.211669921875, -0.982421875000, 0.132568359375, -8.054687500000, -2.656250000000, -4.664062500000, 1490856530
0.211669921875, -0.982421875000, 0.132568359375, -8.054687500000, -2.656250000000, -4.664062500000, 1490856530
0.132812500000, -1.003662109375, 0.140869140625, -3.671875000000, 0.968750000000, -4.140625000000, 1490856530
0.132812500000, -1.003662109375, 0.140869140625, -3.671875000000, 0.968750000000, -4.140625000000, 1490856530
0.132812500000, -1.003662109375, 0.140869140625, -3.671875000000, 0.968750000000, -4.140625000000, 1490856530
0.124755859375, -1.077880859375, 0.085693359375, 0.140625000000, -2.421875000000, 0.664062500000, 1490856530
0.124755859375, -1.077880859375, 0.085693359375, 0.140625000000, -2.421875000000, 0.664062500000, 1490856530
0.124755859375, -1.077880859375, 0.085693359375, 0.140625000000, -2.421875000000, 0.664062500000, 1490856530
0.211914062500, -1.005615234375, 0.142333984375, -2.242187500000, -0.289062500000, 0.632812500000, 1490856530
0.211914062500, -1.005615234375, 0.142333984375, -2.242187500000, -0.289062500000, 0.632812500000, 1490856530
0.211914062500, -1.005615234375, 0.142333984375, -2.242187500000, -0.289062500000, 0.632812500000, 1490856530
0.070800781250, -1.034423828125, 0.094726562500, -4.109375000000, 2.835937500000, -1.210937500000, 1490856530
0.070800781250, -1.034423828125, 0.094726562500, -4.109375000000, 2.835937500000, -1.210937500000, 1490856530
0.070800781250, -1.034423828125, 0.094726562500, -4.109375000000, 2.835937500000, -1.210937500000, 1490856530
0.070800781250, -1.034423828125, 0.094726562500, -4.109375000000, 2.835937500000, -1.210937500000, 1490856530
0.107666015625, -0.916015625000, -0.020507812500, -6.132812500000, -0.742187500000, -4.398437500000, 1490856530
0.107666015625, -0.916015625000, -0.020507812500, -6.132812500000, -0.742187500000, -4.398437500000, 1490856530
0.107666015625, -0.916015625000, -0.020507812500, -6.132812500000, -0.742187500000, -4.398437500000, 1490856530
0.205566406250, -0.983398437500, 0.059326171875, -2.695312500000, 2.875000000000, -1.976562500000, 1490856530
0.205566406250, -0.983398437500, 0.059326171875, -2.695312500000, 2.875000000000, -1.976562500000, 1490856530
0.205566406250, -0.983398437500, 0.059326171875, -2.695312500000, 2.875000000000, -1.976562500000, 1490856530
0.140136718750, -0.937500000000, 0.154785156250, -4.664062500000, -0.648437500000, -1.492187500000, 1490856530
0.140136718750, -0.937500000000, 0.154785156250, -4.664062500000, -0.648437500000, -1.492187500000, 1490856530
0.140136718750, -0.937500000000, 0.154785156250, -4.664062500000, -0.648437500000, -1.492187500000, 1490856530
0.261962890625, -0.924560546875, 0.150878906250, 0.960937500000, 0.625000000000, -4.843750000000, 1490856530
0.261962890625, -0.924560546875, 0.150878906250, 0.960937500000, 0.625000000000, -4.843750000000, 1490856530
0.261962890625, -0.924560546875, 0.150878906250, 0.960937500000, 0.625000000000, -4.843750000000, 1490856530
0.261962890625, -0.924560546875, 0.150878906250, 0.960937500000, 0.625000000000, -4.843750000000, 1490856530
0.148437500000, -1.040527343750, 0.128662109375, 0.757812500000, 4.500000000000, -3.703125000000, 1490856530
0.148437500000, -1.040527343750, 0.128662109375, 0.757812500000, 4.500000000000, -3.703125000000, 1490856530
0.148437500000, -1.040527343750, 0.128662109375, 0.757812500000, 4.500000000000, -3.703125000000, 1490856530
0.117431640625, -1.064941406250, 0.132080078125, -2.421875000000, -2.726562500000, -3.429687500000, 1490856530
0.117431640625, -1.064941406250, 0.132080078125, -2.421875000000, -2.726562500000, -3.429687500000, 1490856530
0.117431640625, -1.064941406250, 0.132080078125, -2.421875000000, -2.726562500000, -3.429687500000, 1490856530
0.161132812500, -1.012207031250, 0.094970703125, -0.476562500000, -2.546875000000, -4.406250000000, 1490856530
0.161132812500, -1.012207031250, 0.094970703125, -0.476562500000, -2.546875000000, -4.406250000000, 1490856530
0.161132812500, -1.012207031250, 0.094970703125, -0.476562500000, -2.546875000000, -4.406250000000, 1490856530
0.201416015625, -1.045898437500, 0.129638671875, -6.867187500000, -2.078125000000, -4.937500000000, 1490856530
0.201416015625, -1.045898437500, 0.129638671875, -6.867187500000, -2.078125000000, -4.937500000000, 1490856530
0.201416015625, -1.045898437500, 0.129638671875, -6.867187500000, -2.078125000000, -4.937500000000, 1490856530
0.201416015625, -1.045898437500, 0.129638671875, -6.867187500000, -2.078125000000, -4.937500000000, 1490856530
0.211914062500, -1.126708984375, 0.037841796875, -5.710937500000, 0.835937500000, -6.148437500000, 1490856530
0.211914062500, -1.126708984375, 0.037841796875, -5.710937500000, 0.835937500000, -6.148437500000, 1490856530
0.211914062500, -1.126708984375, 0.037841796875, -5.710937500000, 0.835937500000, -6.148437500000, 1490856530
0.121337890625, -0.919433593750, 0.131835937500, -7.265625000000, -0.054687500000, -6.257812500000, 1490856530
0.121337890625, -0.919433593750, 0.131835937500, -7.265625000000, -0.054687500000, -6.257812500000, 1490856530
0.121337890625, -0.919433593750, 0.131835937500, -7.265625000000, -0.054687500000, -6.257812500000, 1490856530
0.099121093750, -1.078369140625, 0.039550781250, -7.546875000000, 4.570312500000, -6.031250000000, 1490856530
0.099121093750, -1.078369140625, 0.039550781250, -7.546875000000, 4.570312500000, -6.031250000000, 1490856530
0.099121093750, -1.078369140625, 0.039550781250, -7.546875000000, 4.570312500000, -6.031250000000, 1490856530
0.187744140625, -1.008544921875, 0.075927734375, -5.171875000000, 4.968750000000, -4.703125000000, 1490856530
0.187744140625, -1.008544921875, 0.075927734375, -5.171875000000, 4.968750000000, -4.703125000000, 1490856530
0.187744140625, -1.008544921875, 0.075927734375, -5.171875000000, 4.968750000000, -4.703125000000, 1490856530
0.187744140625, -1.008544921875, 0.075927734375, -5.171875000000, 4.968750000000, -4.703125000000, 1490856530
0.151123046875, -0.979248046875, 0.140136718750, -0.671875000000, -2.179687500000, -3.281250000000, 1490856530
0.151123046875, -0.979248046875, 0.140136718750, -0.671875000000, -2.179687500000, -3.281250000000, 1490856530
0.151123046875, -0.979248046875, 0.140136718750, -0.671875000000, -2.179687500000, -3.281250000000, 1490856530
0.159423828125, -0.969726562500, 0.073486328125, 3.226562500000, -2.859375000000, -7.093750000000, 1490856530
0.159423828125, -0.969726562500, 0.073486328125, 3.226562500000, -2.859375000000, -7.093750000000, 1490856530
0.159423828125, -0.969726562500, 0.073486328125, 3.226562500000, -2.859375000000, -7.093750000000, 1490856530
0.189453125000, -0.984375000000, 0.085937500000, -6.820312500000, -4.679687500000, -10.546875000000, 1490856530
0.189453125000, -0.984375000000, 0.085937500000, -6.820312500000, -4.679687500000, -10.546875000000, 1490856530
0.189453125000, -0.984375000000, 0.085937500000, -6.820312500000, -4.679687500000, -10.546875000000, 1490856530
0.151123046875, -0.875976562500, -0.022460937500, -3.140625000000, -4.828125000000, -10.203125000000, 1490856531
0.151123046875, -0.875976562500, -0.022460937500, -3.140625000000, -4.828125000000, -10.203125000000, 1490856531
0.151123046875, -0.875976562500, -0.022460937500, -3.140625000000, -4.828125000000, -10.203125000000, 1490856531
0.151123046875, -0.875976562500, -0.022460937500, -3.140625000000, -4.828125000000, -10.203125000000, 1490856531
0.164062500000, -1.004882812500, 0.026611328125, 1.265625000000, 4.476562500000, -10.398437500000, 1490856531
0.164062500000, -1.004882812500, 0.026611328125, 1.265625000000, 4.476562500000, -10.398437500000, 1490856531
0.164062500000, -1.004882812500, 0.026611328125, 1.265625000000, 4.476562500000, -10.398437500000, 1490856531
0.120361328125, -0.849121093750, -0.006103515625, 5.546875000000, -0.335937500000, -9.242187500000, 1490856531
0.120361328125, -0.849121093750, -0.006103515625, 5.546875000000, -0.335937500000, -9.242187500000, 1490856531
0.120361328125, -0.849121093750, -0.006103515625, 5.546875000000, -0.335937500000, -9.242187500000, 1490856531
0.158691406250, -1.079345703125, 0.151367187500, -0.804687500000, 1.578125000000, -6.781250000000, 1490856531
0.158691406250, -1.079345703125, 0.151367187500, -0.804687500000, 1.578125000000, -6.781250000000, 1490856531
0.158691406250, -1.079345703125, 0.151367187500, -0.804687500000, 1.578125000000, -6.781250000000, 1490856531
0.199951171875, -0.917480468750, -0.014648437500, -10.976562500000, 5.109375000000, -3.507812500000, 1490856531
0.199951171875, -0.917480468750, -0.014648437500, -10.976562500000, 5.109375000000, -3.507812500000, 1490856531
0.199951171875, -0.917480468750, -0.014648437500, -10.976562500000, 5.109375000000, -3.507812500000, 1490856531
0.199951171875, -0.917480468750, -0.014648437500, -10.976562500000, 5.109375000000, -3.507812500000, 1490856531
0.100830078125, -0.983398437500, 0.088623046875, -7.859375000000, 8.062500000000, -1.273437500000, 1490856531
0.100830078125, -0.983398437500, 0.088623046875, -7.859375000000, 8.062500000000, -1.273437500000, 1490856531
0.100830078125, -0.983398437500, 0.088623046875, -7.859375000000, 8.062500000000, -1.273437500000, 1490856531
0.062011718750, -1.003417968750, -0.016113281250, -4.851562500000, 10.679687500000, -2.000000000000, 1490856531
0.062011718750, -1.003417968750, -0.016113281250, -4.851562500000, 10.679687500000, -2.000000000000, 1490856531
0.062011718750, -1.003417968750, -0.016113281250, -4.851562500000, 10.679687500000, -2.000000000000, 1490856531
0.149169921875, -1.023925781250, 0.049804687500, 2.625000000000, 12.218750000000, -1.085937500000, 1490856531
0.149169921875, -1.023925781250, 0.049804687500, 2.625000000000, 12.218750000000, -1.085937500000, 1490856531
0.149169921875, -1.023925781250, 0.049804687500, 2.625000000000, 12.218750000000, -1.085937500000, 1490856531
0.091552734375, -0.922119140625, 0.042968750000, 0.070312500000, 8.375000000000, -6.710937500000, 1490856531
0.091552734375, -0.922119140625, 0.042968750000, 0.070312500000, 8.375000000000, -6.710937500000, 1490856531
0.091552734375, -0.922119140625, 0.042968750000, 0.070312500000, 8.375000000000, -6.710937500000, 1490856531
0.091552734375, -0.922119140625, 0.042968750000, 0.070312500000, 8.375000000000, -6.710937500000, 1490856531
0.152099609375, -0.986083984375, 0.055419921875, -7.773437500000, 1.921875000000, -2.562500000000, 1490856531
0.152099609375, -0.986083984375, 0.055419921875, -7.773437500000, 1.921875000000, -2.562500000000, 1490856531
0.037841796875, -1.071533203125, 0.114990234375, -10.414062500000, 1.281250000000, -2.343750000000, 1490856531
0.034667968750, -1.092041015625, 0.039062500000, -10.312500000000, -0.773437500000, -4.148437500000, 1490856531
0.034667968750, -1.092041015625, 0.039062500000, -10.312500000000, -0.773437500000, -4.148437500000, 1490856531
0.034667968750, -1.092041015625, 0.039062500000, -10.312500000000, -0.773437500000, -4.148437500000, 1490856531
0.148437500000, -1.086914062500, 0.142333984375, -5.070312500000, -8.257812500000, -1.234375000000, 1490856531
0.148437500000, -1.086914062500, 0.142333984375, -5.070312500000, -8.257812500000, -1.234375000000, 1490856531
0.148437500000, -1.086914062500, 0.142333984375, -5.070312500000, -8.257812500000, -1.234375000000, 1490856531
0.165527343750, -0.850585937500, 0.151123046875, -9.117187500000, -5.414062500000, -2.507812500000, 1490856531
0.165527343750, -0.850585937500, 0.151123046875, -9.117187500000, -5.414062500000, -2.507812500000, 1490856531
0.165527343750, -0.850585937500, 0.151123046875, -9.117187500000, -5.414062500000, -2.507812500000, 1490856531
0.165527343750, -0.850585937500, 0.151123046875, -9.117187500000, -5.414062500000, -2.507812500000, 1490856531
0.153808593750, -0.984619140625, 0.112304687500, -13.945312500000, -7.468750000000, -1.742187500000, 1490856531
0.153808593750, -0.984619140625, 0.112304687500, -13.945312500000, -7.468750000000, -1.742187500000, 1490856531
0.153808593750, -0.984619140625, 0.112304687500, -13.945312500000, -7.468750000000, -1.742187500000, 1490856531
0.147705078125, -1.005859375000, 0.200927734375, -15.710937500000, -4.304687500000, 2.929687500000, 1490856531
0.147705078125, -1.005859375000, 0.200927734375, -15.710937500000, -4.304687500000, 2.929687500000, 1490856531
0.147705078125, -1.005859375000, 0.200927734375, -15.710937500000, -4.304687500000, 2.929687500000, 1490856531
0.132324218750, -1.012207031250, 0.054443359375, -9.968750000000, -3.351562500000, -2.406250000000, 1490856531
0.132324218750, -1.012207031250, 0.054443359375, -9.968750000000, -3.351562500000, -2.406250000000, 1490856531
0.132324218750, -1.012207031250, 0.054443359375, -9.968750000000, -3.351562500000, -2.406250000000, 1490856531
0.039062500000, -1.016113281250, 0.138427734375, -7.664062500000, -3.585937500000, 1.453125000000, 1490856531
0.039062500000, -1.016113281250, 0.138427734375, -7.664062500000, -3.585937500000, 1.453125000000, 1490856531
0.039062500000, -1.016113281250, 0.138427734375, -7.664062500000, -3.585937500000, 1.453125000000, 1490856531
0.039062500000, -1.016113281250, 0.138427734375, -7.664062500000, -3.585937500000, 1.453125000000, 1490856531
0.124511718750, -0.994140625000, 0.150634765625, -0.953125000000, -4.500000000000, -0.867187500000, 1490856531
0.124511718750, -0.994140625000, 0.150634765625, -0.953125000000, -4.500000000000, -0.867187500000, 1490856531
0.124511718750, -0.994140625000, 0.150634765625, -0.953125000000, -4.500000000000, -0.867187500000, 1490856531
