ACC_X,ACC_Y,ACC_Z,G_X,G_Y,G_Z,Unix Time
-0.060546875000, -0.982666015625, -0.016113281250, -0.171875000000, 8.703125000000, -6.093750000000, 1490856477
-0.060546875000, -0.982666015625, -0.016113281250, -0.171875000000, 8.703125000000, -6.093750000000, 1490856477
-0.060546875000, -0.982666015625, -0.016113281250, -0.171875000000, 8.703125000000, -6.093750000000, 1490856477
-0.168212890625, -0.932128906250, 0.092773437500, -2.203125000000, 5.835937500000, -5.531250000000, 1490856477
-0.168212890625, -0.932128906250, 0.092773437500, -2.203125000000, 5.835937500000, -5.531250000000, 1490856477
-0.168212890625, -0.932128906250, 0.092773437500, -2.203125000000, 5.835937500000, -5.531250000000, 1490856477
-0.168212890625, -0.932128906250, 0.092773437500, -2.203125000000, 5.835937500000, -5.531250000000, 1490856477
-0.116455078125, -1.087402343750, 0.026855468750, -6.101562500000, 8.773437500000, -3.875000000000, 1490856477
-0.116455078125, -1.087402343750, 0.026855468750, -6.101562500000, 8.773437500000, -3.875000000000, 1490856477
-0.116455078125, -1.087402343750, 0.026855468750, -6.101562500000, 8.773437500000, -3.875000000000, 1490856477
-0.116455078125, -1.087402343750, 0.026855468750, -6.101562500000, 8.773437500000, -3.875000000000, 1490856477
-0.035400390625, -1.025146484375, 0.030761718750, -1.242187500000, 9.781250000000, -6.960937500000, 1490856477
-0.035400390625, -1.025146484375, 0.030761718750, -1.242187500000, 9.781250000000, -6.960937500000, 1490856477
-0.035400390625, -1.025146484375, 0.030761718750, -1.242187500000, 9.781250000000, -6.960937500000, 1490856477
-0.125488281250, -1.020507812500, 0.003417968750, -10.093750000000, 14.125000000000, -8.609375000000, 1490856477
-0.125488281250, -1.020507812500, 0.003417968750, -10.093750000000, 14.125000000000, -8.609375000000, 1490856477
-0.125488281250, -1.020507812500, 0.003417968750, -10.093750000000, 14.125000000000, -8.609375000000, 1490856477
-0.125488281250, -1.020507812500, 0.003417968750, -10.093750000000, 14.125000000000, -8.609375000000, 1490856477
-0.052246093750, -1.024902343750, 0.009277343750, -14.406250000000, 12.812500000000, -4.789062500000, 1490856477
-0.052246093750, -1.024902343750, 0.009277343750, -14.406250000000, 12.812500000000, -4.789062500000, 1490856477
-0.052246093750, -1.024902343750, 0.009277343750, -14.406250000000, 12.812500000000, -4.789062500000, 1490856477
-0.145751953125, -1.011718750000, 0.017822265625, -7.359375000000, 18.476562500000, -6.468750000000, 1490856477
-0.145751953125, -1.011718750000, 0.017822265625, -7.359375000000, 18.476562500000, -6.468750000000, 1490856477
-0.145751953125, -1.011718750000, 0.017822265625, -7.359375000000, 18.476562500000, -6.468750000000, 1490856477
-0.137451171875, -1.024414062500, 0.044433593750, -3.929687500000, 17.390625000000, -5.320312500000, 1490856477
-0.137451171875, -1.024414062500, 0.044433593750, -3.929687500000, 17.390625000000, -5.320312500000, 1490856477
-0.137451171875, -1.024414062500, 0.044433593750, -3.929687500000, 17.390625000000, -5.320312500000, 1490856477
-0.192871093750, -1.026611328125, 0.092773437500, -6.132812500000, 17.960937500000, -3.859375000000, 1490856477
-0.192871093750, -1.026611328125, 0.092773437500, -6.132812500000, 17.960937500000, -3.859375000000, 1490856477
-0.192871093750, -1.026611328125, 0.092773437500, -6.132812500000, 17.960937500000, -3.859375000000, 1490856477
-0.192871093750, -1.026611328125, 0.092773437500, -6.132812500000, 17.960937500000, -3.859375000000, 1490856477
-0.188476562500, -0.921875000000, -0.026123046875, -10.335937500000, 19.414062500000, -6.023437500000, 1490856477
-0.188476562500, -0.921875000000, -0.026123046875, -10.335937500000, 19.414062500000, -6.023437500000, 1490856477
-0.188476562500, -0.921875000000, -0.026123046875, -10.335937500000, 19.414062500000, -6.023437500000, 1490856477
-0.129882812500, -1.027832031250, 0.016357421875, -3.234375000000, 19.046875000000, -6.125000000000, 1490856477
-0.129882812500, -1.027832031250, 0.016357421875, -3.234375000000, 19.046875000000, -6.125000000000, 1490856477
-0.129882812500, -1.027832031250, 0.016357421875, -3.234375000000, 19.046875000000, -6.125000000000, 1490856477
-0.108642578125, -1.027343750000, 0.092529296875, -3.023437500000, 20.703125000000, -6.718750000000, 1490856477
-0.108642578125, -1.027343750000, 0.092529296875, -3.023437500000, 20.703125000000, -6.718750000000, 1490856477
-0.108642578125, -1.027343750000, 0.092529296875, -3.023437500000, 20.703125000000, -6.718750000000, 1490856477
-0.094726562500, -0.961669921875, 0.030517578125, 0.546875000000, 21.132812500000, -8.781250000000, 1490856477
-0.113281250000, -1.014160156250, -0.020263671875, -0.742187500000, 22.179687500000, -8.335937500000, 1490856477
-0.113281250000, -1.014160156250, -0.020263671875, -0.742187500000, 22.179687500000, -8.335937500000, 1490856477
-0.113281250000, -1.014160156250, -0.020263671875, -0.742187500000, 22.179687500000, -8.335937500000, 1490856477
-0.089355468750, -0.965332031250, -0.013671875000, 3.437500000000, 23.640625000000, -9.460937500000, 1490856477
-0.089355468750, -0.965332031250, -0.013671875000, 3.437500000000, 23.640625000000, -9.460937500000, 1490856477
-0.132812500000, -0.948730468750, -0.017578125000, 16.812500000000, 30.468750000000, -3.578125000000, 1490856477
-0.132812500000, -0.948730468750, -0.017578125000, 16.812500000000, 30.468750000000, -3.578125000000, 1490856477
-0.132812500000, -0.948730468750, -0.017578125000, 16.812500000000, 30.468750000000, -3.578125000000, 1490856477
-0.132812500000, -0.948730468750, -0.017578125000, 16.812500000000, 30.468750000000, -3.578125000000, 1490856477
-0.212646484375, -0.897460937500, 0.015869140625, 19.250000000000, 29.695312500000, -3.476562500000, 1490856477
-0.212646484375, -0.897460937500, 0.015869140625, 19.250000000000, 29.695312500000, -3.476562500000, 1490856477
-0.212646484375, -0.897460937500, 0.015869140625, 19.250000000000, 29.695312500000, -3.476562500000, 1490856477
-0.129394531250, -0.733154296875, -0.069335937500, 27.906250000000, 30.296875000000, 0.523437500000, 1490856477
-0.129394531250, -0.733154296875, -0.069335937500, 27.906250000000, 30.296875000000, 0.523437500000, 1490856477
-0.129394531250, -0.733154296875, -0.069335937500, 27.906250000000, 30.296875000000, 0.523437500000, 1490856477
-0.129394531250, -0.733154296875, -0.069335937500, 27.906250000000, 30.296875000000, 0.523437500000, 1490856477
0.020507812500, -0.575927734375, 0.010498046875, 50.773437500000, 22.320312500000, 8.937500000000, 1490856478
0.020507812500, -0.575927734375, 0.010498046875, 50.773437500000, 22.320312500000, 8.937500000000, 1490856478
0.020507812500, -0.575927734375, 0.010498046875, 50.773437500000, 22.320312500000, 8.937500000000, 1490856478
0.002197265625, -0.356933593750, 0.015136718750, 64.000000000000, 8.570312500000, 12.765625000000, 1490856478
0.002197265625, -0.356933593750, 0.015136718750, 64.000000000000, 8.570312500000, 12.765625000000, 1490856478
0.002197265625, -0.356933593750, 0.015136718750, 64.000000000000, 8.570312500000, 12.765625000000, 1490856478
-0.125244140625, -0.462890625000, -0.058837890625, 39.242187500000, 2.015625000000, 10.820312500000, 1490856478
-0.125244140625, -0.462890625000, -0.058837890625, 39.242187500000, 2.015625000000, 10.820312500000, 1490856478
-0.125244140625, -0.462890625000, -0.058837890625, 39.242187500000, 2.015625000000, 10.820312500000, 1490856478
-0.131103515625, -1.252197265625, -0.195312500000, -95.765625000000, -66.492187500000, -6.210937500000, 1490856478
-0.131103515625, -1.252197265625, -0.195312500000, -95.765625000000, -66.492187500000, -6.210937500000, 1490856478
-0.131103515625, -1.252197265625, -0.195312500000, -95.765625000000, -66.492187500000, -6.210937500000, 1490856478
-0.131103515625, -1.252197265625, -0.195312500000, -95.765625000000, -66.492187500000, -6.210937500000, 1490856478
-0.100830078125, -1.480468750000, -0.254882812500, 75.656250000000, -1.820312500000, 30.015625000000, 1490856478
-0.100830078125, -1.480468750000, -0.254882812500, 75.656250000000, -1.820312500000, 30.015625000000, 1490856478
-0.100830078125, -1.480468750000, -0.254882812500, 75.656250000000, -1.820312500000, 30.015625000000, 1490856478
0.082763671875, -1.951660156250, -0.355957031250, -67.859375000000, 43.695312500000, 7.140625000000, 1490856478
0.082763671875, -1.951660156250, -0.355957031250, -67.859375000000, 43.695312500000, 7.140625000000, 1490856478
0.082763671875, -1.951660156250, -0.355957031250, -67.859375000000, 43.695312500000, 7.140625000000, 1490856478
-0.252441406250, -2.365722656250, -0.500732421875, -32.960937500000, 18.375000000000, -4.210937500000, 1490856478
-0.252441406250, -2.365722656250, -0.500732421875, -32.960937500000, 18.375000000000, -4.210937500000, 1490856478
-0.252441406250, -2.365722656250, -0.500732421875, -32.960937500000, 18.375000000000, -4.210937500000, 1490856478
-0.455810546875, -2.891601562500, -0.329589843750, -3.117187500000, -97.546875000000, 14.429687500000, 1490856478
-0.455810546875, -2.891601562500, -0.329589843750, -3.117187500000, -97.546875000000, 14.429687500000, 1490856478
-0.455810546875, -2.891601562500, -0.329589843750, -3.117187500000, -97.546875000000, 14.429687500000, 1490856478
-0.455810546875, -2.891601562500, -0.329589843750, -3.117187500000, -97.546875000000, 14.429687500000, 1490856478
0.082519531250, -2.385253906250, -0.081298828125, 11.281250000000, 121.539062500000, -6.523437500000, 1490856478
0.082519531250, -2.385253906250, -0.081298828125, 11.281250000000, 121.539062500000, -6.523437500000, 1490856478
-0.035644531250, -1.202880859375, -0.034423828125, -94.625000000000, -34.140625000000, 11.843750000000, 1490856478
-0.035644531250, -1.202880859375, -0.034423828125, -94.625000000000, -34.140625000000, 11.843750000000, 1490856478
-0.035644531250, -1.202880859375, -0.034423828125, -94.625000000000, -34.140625000000, 11.843750000000, 1490856478
-0.035644531250, -1.202880859375, -0.034423828125, -94.625000000000, -34.140625000000, 11.843750000000, 1490856478
0.015625000000, 0.004150390625, 0.098876953125, -166.500000000000, -65.679687500000, -17.453125000000, 1490856478
0.015625000000, 0.004150390625, 0.098876953125, -166.500000000000, -65.679687500000, -17.453125000000, 1490856478
0.015625000000, 0.004150390625, 0.098876953125, -166.500000000000, -65.679687500000, -17.453125000000, 1490856478
0.030517578125, -0.029541015625, -0.007080078125, -90.734375000000, 98.585937500000, -27.562500000000, 1490856478
0.030517578125, -0.029541015625, -0.007080078125, -90.734375000000, 98.585937500000, -27.562500000000, 1490856478
0.030517578125, -0.029541015625, -0.007080078125, -90.734375000000, 98.585937500000, -27.562500000000, 1490856478
0.030517578125, -0.029541015625, -0.007080078125, -90.734375000000, 98.585937500000, -27.562500000000, 1490856478
0.086181640625, 0.024414062500, -0.016357421875, -183.523437500000, 119.742187500000, -85.093750000000, 1490856478
0.086181640625, 0.024414062500, -0.016357421875, -183.523437500000, 119.742187500000, -85.093750000000, 1490856478
0.086181640625, 0.024414062500, -0.016357421875, -183.523437500000, 119.742187500000, -85.093750000000, 1490856478
0.072753906250, -0.012695312500, -0.042968750000, -177.289062500000, 138.320312500000, -112.164062500000, 1490856478
0.072753906250, -0.012695312500, -0.042968750000, -177.289062500000, 138.320312500000, -112.164062500000, 1490856478
0.072753906250, -0.012695312500, -0.042968750000, -177.289062500000, 138.320312500000, -112.164062500000, 1490856478
-0.075195312500, 0.129638671875, 0.036132812500, -149.710937500000, 175.109375000000, -59.296875000000, 1490856478
-0.075195312500, 0.129638671875, 0.036132812500, -149.710937500000, 175.109375000000, -59.296875000000, 1490856478
0.072021484375, -0.073242187500, -0.002197265625, -151.531250000000, -40.125000000000, -75.132812500000, 1490856478
0.072021484375, -0.073242187500, -0.002197265625, -151.531250000000, -40.125000000000, -75.132812500000, 1490856478
0.072021484375, -0.073242187500, -0.002197265625, -151.531250000000, -40.125000000000, -75.132812500000, 1490856478
0.072021484375, -0.073242187500, -0.002197265625, -151.531250000000, -40.125000000000, -75.132812500000, 1490856478
0.072021484375, -0.073242187500, -0.002197265625, -151.531250000000, -40.125000000000, -75.132812500000, 1490856478
0.069335937500, -0.039550781250, 0.020019531250, -162.531250000000, -138.992187500000, -2.875000000000, 1490856478
0.069335937500, -0.039550781250, 0.020019531250, -162.531250000000, -138.992187500000, -2.875000000000, 1490856478
0.069335937500, -0.039550781250, 0.020019531250, -162.531250000000, -138.992187500000, -2.875000000000, 1490856478
-0.012695312500, -0.557373046875, -0.145751953125, -149.656250000000, -175.195312500000, -7.429687500000, 1490856478
-0.012695312500, -0.557373046875, -0.145751953125, -149.656250000000, -175.195312500000, -7.429687500000, 1490856478
-0.012695312500, -0.557373046875, -0.145751953125, -149.656250000000, -175.195312500000, -7.429687500000, 1490856478
0.111083984375, -1.321044921875, -0.141845703125, -132.101562500000, -256.000000000000, 29.703125000000, 1490856478
0.111083984375, -1.321044921875, -0.141845703125, -132.101562500000, -256.000000000000, 29.703125000000, 1490856478
-0.650634765625, -3.091064453125, 0.053955078125, 253.992187500000, 96.929687500000, -64.523437500000, 1490856478
-0.650634765625, -3.091064453125, 0.053955078125, 253.992187500000, 96.929687500000, -64.523437500000, 1490856478
-0.650634765625, -3.091064453125, 0.053955078125, 253.992187500000, 96.929687500000, -64.523437500000, 1490856478
-0.650634765625, -3.091064453125, 0.053955078125, 253.992187500000, 96.929687500000, -64.523437500000, 1490856478
0.120849609375, -4.404541015625, -0.530517578125, 253.992187500000, 215.070312500000, 70.820312500000, 1490856479
0.120849609375, -4.404541015625, -0.530517578125, 253.992187500000, 215.070312500000, 70.820312500000, 1490856479
0.120849609375, -4.404541015625, -0.530517578125, 253.992187500000, 215.070312500000, 70.820312500000, 1490856479
0.120849609375, -4.404541015625, -0.530517578125, 253.992187500000, 215.070312500000, 70.820312500000, 1490856479
-0.120849609375, -1.574462890625, -0.385986328125, -256.000000000000, 52.320312500000, -66.570312500000, 1490856479
-0.120849609375, -1.574462890625, -0.385986328125, -256.000000000000, 52.320312500000, -66.570312500000, 1490856479
-0.120849609375, -1.574462890625, -0.385986328125, -256.000000000000, 52.320312500000, -66.570312500000, 1490856479
-0.008544921875, -0.742431640625, 0.001708984375, -230.570312500000, -225.304687500000, 72.148437500000, 1490856479
-0.008544921875, -0.742431640625, 0.001708984375, -230.570312500000, -225.304687500000, 72.148437500000, 1490856479
-0.008544921875, -0.742431640625, 0.001708984375, -230.570312500000, -225.304687500000, 72.148437500000, 1490856479
0.006591796875, -0.327880859375, -0.066894531250, -35.140625000000, 11.515625000000, -10.968750000000, 1490856479
0.006591796875, -0.327880859375, -0.066894531250, -35.140625000000, 11.515625000000, -10.968750000000, 1490856479
0.006591796875, -0.327880859375, -0.066894531250, -35.140625000000, 11.515625000000, -10.968750000000, 1490856479
0.006591796875, -0.327880859375, -0.066894531250, -35.140625000000, 11.515625000000, -10.968750000000, 1490856479
0.003173828125, -0.528564453125, -0.127197265625, -97.476562500000, 9.781250000000, -22.476562500000, 1490856479
0.003173828125, -0.528564453125, -0.127197265625, -97.476562500000, 9.781250000000, -22.476562500000, 1490856479
0.003173828125, -0.528564453125, -0.127197265625, -97.476562500000, 9.781250000000, -22.476562500000, 1490856479
-0.023925781250, -1.168945312500, -0.199218750000, -117.351562500000, -3.921875000000, 4.789062500000, 1490856479
-0.023925781250, -1.168945312500, -0.199218750000, -117.351562500000, -3.921875000000, 4.789062500000, 1490856479
-0.023925781250, -1.168945312500, -0.199218750000, -117.351562500000, -3.921875000000, 4.789062500000, 1490856479
0.010498046875, -0.924072265625, -0.066406250000, 127.195312500000, 48.898437500000, -68.789062500000, 1490856479
0.010498046875, -0.924072265625, -0.066406250000, 127.195312500000, 48.898437500000, -68.789062500000, 1490856479
0.010498046875, -0.924072265625, -0.066406250000, 127.195312500000, 48.898437500000, -68.789062500000, 1490856479
-0.074462890625, -0.913085937500, -0.124023437500, 144.328125000000, -36.757812500000, -17.554687500000, 1490856479
-0.074462890625, -0.913085937500, -0.124023437500, 144.328125000000, -36.757812500000, -17.554687500000, 1490856479
-0.074462890625, -0.913085937500, -0.124023437500, 144.328125000000, -36.757812500000, -17.554687500000, 1490856479
-0.074462890625, -0.913085937500, -0.124023437500, 144.328125000000, -36.757812500000, -17.554687500000, 1490856479
-0.115966796875, -1.313720703125, 0.241210937500, 253.992187500000, 253.992187500000, -83.140625000000, 1490856479
-0.115966796875, -1.313720703125, 0.241210937500, 253.992187500000, 253.992187500000, -83.140625000000, 1490856479
-0.115966796875, -1.313720703125, 0.241210937500, 253.992187500000, 253.992187500000, -83.140625000000, 1490856479
-0.081298828125, -1.212158203125, 0.240478515625, -246.937500000000, -40.367187500000, -18.328125000000, 1490856479
-0.081298828125, -1.212158203125, 0.240478515625, -246.937500000000, -40.367187500000, -18.328125000000, 1490856479
-0.081298828125, -1.212158203125, 0.240478515625, -246.937500000000, -40.367187500000, -18.328125000000, 1490856479
-0.174072265625, -0.972167968750, -0.154785156250, -191.609375000000, -256.726562500000, 24.953125000000, 1490856479
-0.174072265625, -0.972167968750, -0.154785156250, -191.609375000000, -256.726562500000, 24.953125000000, 1490856479
-0.174072265625, -0.972167968750, -0.154785156250, -191.609375000000, -256.726562500000, 24.953125000000, 1490856479
-0.175048828125, -0.915283203125, -0.035400390625, 7.484375000000, -134.664062500000, -3.726562500000, 1490856479
-0.175048828125, -0.915283203125, -0.035400390625, 7.484375000000, -134.664062500000, -3.726562500000, 1490856479
-0.175048828125, -0.915283203125, -0.035400390625, 7.484375000000, -134.664062500000, -3.726562500000, 1490856479
-0.175048828125, -0.915283203125, -0.035400390625, 7.484375000000, -134.664062500000, -3.726562500000, 1490856479
-0.251708984375, -1.027587890625, 0.067382812500, 92.812500000000, 76.273437500000, -44.289062500000, 1490856479
-0.251708984375, -1.027587890625, 0.067382812500, 92.812500000000, 76.273437500000, -44.289062500000, 1490856479
-0.251708984375, -1.027587890625, 0.067382812500, 92.812500000000, 76.273437500000, -44.289062500000, 1490856479
0.005126953125, -0.997802734375, 0.061035156250, 173.000000000000, 129.906250000000, -54.320312500000, 1490856479
0.005126953125, -0.997802734375, 0.061035156250, 173.000000000000, 129.906250000000, -54.320312500000, 1490856479
0.005126953125, -0.997802734375, 0.061035156250, 173.000000000000, 129.906250000000, -54.320312500000, 1490856479
-0.256835937500, -0.979980468750, 0.266113281250, -48.882812500000, -6.773437500000, -6.703125000000, 1490856479
-0.256835937500, -0.979980468750, 0.266113281250, -48.882812500000, -6.773437500000, -6.703125000000, 1490856479
-0.256835937500, -0.979980468750, 0.266113281250, -48.882812500000, -6.773437500000, -6.703125000000, 1490856479
-0.180419921875, -1.003662109375, -0.129150390625, -25.023437500000, -37.398437500000, 6.843750000000, 1490856479
-0.180419921875, -1.003662109375, -0.129150390625, -25.023437500000, -37.398437500000, 6.843750000000, 1490856479
-0.180419921875, -1.003662109375, -0.129150390625, -25.023437500000, -37.398437500000, 6.843750000000, 1490856479
-0.180419921875, -1.003662109375, -0.129150390625, -25.023437500000, -37.398437500000, 6.843750000000, 1490856479
-0.191650390625, -0.927246093750, -0.088623046875, 24.250000000000, 19.570312500000, -3.804687500000, 1490856479
-0.191650390625, -0.927246093750, -0.088623046875, 24.250000000000, 19.570312500000, -3.804687500000, 1490856479
-0.191650390625, -0.927246093750, -0.088623046875, 24.250000000000, 19.570312500000, -3.804687500000, 1490856479
-0.218017578125, -0.989013671875, 0.052246093750, 23.906250000000, 29.273437500000, -4.468750000000, 1490856479
-0.218017578125, -0.989013671875, 0.052246093750, 23.906250000000, 29.273437500000, -4.468750000000, 1490856479
-0.218017578125, -0.989013671875, 0.052246093750, 23.906250000000, 29.273437500000, -4.468750000000, 1490856479
-0.252685546875, -1.007568359375, 0.085449218750, -26.703125000000, 9.101562500000, -4.828125000000, 1490856479
-0.252685546875, -1.007568359375, 0.085449218750, -26.703125000000, 9.101562500000, -4.828125000000, 1490856479
-0.252685546875, -1.007568359375, 0.085449218750, -26.703125000000, 9.101562500000, -4.828125000000, 1490856479
-0.168701171875, -0.967041015625, 0.021728515625, -5.390625000000, 16.250000000000, -2.656250000000, 1490856479
-0.168701171875, -0.967041015625, 0.021728515625, -5.390625000000, 16.250000000000, -2.656250000000, 1490856479
-0.168701171875, -0.967041015625, 0.021728515625, -5.390625000000, 16.250000000000, -2.656250000000, 1490856479
-0.168701171875, -0.967041015625, 0.021728515625, -5.390625000000, 16.250000000000, -2.656250000000, 1490856479
-0.143066406250, -0.924560546875, -0.015136718750, 2.656250000000, 17.429687500000, -4.625000000000, 1490856479
-0.143066406250, -0.924560546875, -0.015136718750, 2.656250000000, 17.429687500000, -4.625000000000, 1490856479
-0.143066406250, -0.924560546875, -0.015136718750, 2.656250000000, 17.429687500000, -4.625000000000, 1490856479
-0.168701171875, -0.984619140625, -0.021240234375, -5.328125000000, 14.984375000000, 0.085937500000, 1490856480
-0.168701171875, -0.984619140625, -0.021240234375, -5.328125000000, 14.984375000000, 0.085937500000, 1490856480
-0.168701171875, -0.984619140625, -0.021240234375, -5.328125000000, 14.984375000000, 0.085937500000, 1490856480
-0.257080078125, -1.005371093750, -0.027832031250, -5.507812500000, 14.226562500000, 4.242187500000, 1490856480
-0.257080078125, -1.005371093750, -0.027832031250, -5.507812500000, 14.226562500000, 4.242187500000, 1490856480
-0.257080078125, -1.005371093750, -0.027832031250, -5.507812500000, 14.226562500000, 4.242187500000, 1490856480
-0.136230468750, -1.000244140625, 0.001220703125, -10.210937500000, 5.140625000000, 3.453125000000, 1490856480
-0.136230468750, -1.000244140625, 0.001220703125, -10.210937500000, 5.140625000000, 3.453125000000, 1490856480
-0.136230468750, -1.000244140625, 0.001220703125, -10.210937500000, 5.140625000000, 3.453125000000, 1490856480
-0.136230468750, -1.000244140625, 0.001220703125, -10.210937500000, 5.140625000000, 3.453125000000, 1490856480
-0.262939453125, -0.993896484375, 0.073730468750, -3.851562500000, -1.101562500000, -2.656250000000, 1490856480
-0.262939453125, -0.993896484375, 0.073730468750, -3.851562500000, -1.101562500000, -2.656250000000, 1490856480
-0.262939453125, -0.993896484375, 0.073730468750, -3.851562500000, -1.101562500000, -2.656250000000, 1490856480
-0.081542968750, -0.974121093750, 0.011230468750, 8.421875000000, 2.398437500000, -10.062500000000, 1490856480
-0.081542968750, -0.974121093750, 0.011230468750, 8.421875000000, 2.398437500000, -10.062500000000, 1490856480
-0.081542968750, -0.974121093750, 0.011230468750, 8.421875000000, 2.398437500000, -10.062500000000, 1490856480
-0.050292968750, -0.916259765625, -0.026367187500, 7.734375000000, 12.546875000000, -3.046875000000, 1490856480
-0.050292968750, -0.916259765625, -0.026367187500, 7.734375000000, 12.546875000000, -3.046875000000, 1490856480
-0.050292968750, -0.916259765625, -0.026367187500, 7.734375000000, 12.546875000000, -3.046875000000, 1490856480
-0.156250000000, -0.935302734375, -0.030761718750, -12.945312500000, 18.531250000000, -6.046875000000, 1490856480
-0.156250000000, -0.935302734375, -0.030761718750, -12.945312500000, 18.531250000000, -6.046875000000, 1490856480
-0.156250000000, -0.935302734375, -0.030761718750, -12.945312500000, 18.531250000000, -6.046875000000, 1490856480
-0.156250000000, -0.935302734375, -0.030761718750, -12.945312500000, 18.531250000000, -6.046875000000, 1490856480
-0.173095703125, -0.963378906250, -0.068359375000, -5.148437500000, 17.921875000000, -3.320312500000, 1490856480
-0.173095703125, -0.963378906250, -0.068359375000, -5.148437500000, 17.921875000000, -3.320312500000, 1490856480
-0.173095703125, -0.963378906250, -0.068359375000, -5.148437500000, 17.921875000000, -3.320312500000, 1490856480
-0.143310546875, -0.853027343750, 0.021972656250, 0.773437500000, 18.773437500000, -5.273437500000, 1490856480
-0.143310546875, -0.853027343750, 0.021972656250, 0.773437500000, 18.773437500000, -5.273437500000, 1490856480
-0.143310546875, -0.853027343750, 0.021972656250, 0.773437500000, 18.773437500000, -5.273437500000, 1490856480
-0.179443359375, -0.937744140625, -0.007812500000, -10.820312500000, 6.929687500000, -10.992187500000, 1490856480
-0.179443359375, -0.937744140625, -0.007812500000, -10.820312500000, 6.929687500000, -10.992187500000, 1490856480
-0.179443359375, -0.937744140625, -0.007812500000, -10.820312500000, 6.929687500000, -10.992187500000, 1490856480
-0.226074218750, -0.845947265625, -0.018798828125, 0.765625000000, 6.265625000000, -7.546875000000, 1490856480
-0.226074218750, -0.845947265625, -0.018798828125, 0.765625000000, 6.265625000000, -7.546875000000, 1490856480
-0.226074218750, -0.845947265625, -0.018798828125, 0.765625000000, 6.265625000000, -7.546875000000, 1490856480
-0.226074218750, -0.845947265625, -0.018798828125, 0.765625000000, 6.265625000000, -7.546875000000, 1490856480
-0.118896484375, -1.016601562500, -0.029541015625, -3.953125000000, -4.921875000000, -7.140625000000, 1490856480
-0.118896484375, -1.016601562500, -0.029541015625, -3.953125000000, -4.921875000000, -7.140625000000, 1490856480
-0.118896484375, -1.016601562500, -0.029541015625, -3.953125000000, -4.921875000000, -7.140625000000, 1490856480
-0.158935546875, -0.920410156250, -0.030029296875, -5.320312500000, -10.437500000000, -9.867187500000, 1490856480
-0.158935546875, -0.920410156250, -0.030029296875, -5.320312500000, -10.437500000000, -9.867187500000, 1490856480
-0.158935546875, -0.920410156250, -0.030029296875, -5.320312500000, -10.437500000000, -9.867187500000, 1490856480
-0.179443359375, -1.004638671875, 0.008789062500, -3.210937500000, -12.765625000000, -5.484375000000, 1490856480
-0.179443359375, -1.004638671875, 0.008789062500, -3.210937500000, -12.765625000000, -5.484375000000, 1490856480
-0.179443359375, -1.004638671875, 0.008789062500, -3.210937500000, -12.765625000000, -5.484375000000, 1490856480
-0.167236328125, -1.014404296875, 0.078369140625, -0.671875000000, -7.132812500000, -3.601562500000, 1490856480
-0.167236328125, -1.014404296875, 0.078369140625, -0.671875000000, -7.132812500000, -3.601562500000, 1490856480
-0.167236328125, -1.014404296875, 0.078369140625, -0.671875000000, -7.132812500000, -3.601562500000, 1490856480
-0.167236328125, -1.014404296875, 0.078369140625, -0.671875000000, -7.132812500000, -3.601562500000, 1490856480
-0.250000000000, -1.013916015625, 0.020996093750, 1.968750000000, 3.296875000000, -5.062500000000, 1490856480
-0.250000000000, -1.013916015625, 0.020996093750, 1.968750000000, 3.296875000000, -5.062500000000, 1490856480
-0.250000000000, -1.013916015625, 0.020996093750, 1.968750000000, 3.296875000000, -5.062500000000, 1490856480
-0.214111328125, -1.001708984375, -0.036132812500, 3.601562500000, -6.375000000000, -1.750000000000, 1490856480
-0.214111328125, -1.001708984375, -0.036132812500, 3.601562500000, -6.375000000000, -1.750000000000, 1490856480
-0.214111328125, -1.001708984375, -0.036132812500, 3.601562500000, -6.375000000000, -1.750000000000, 1490856480
-0.157470703125, -1.077148437500, -0.049316406250, -2.382812500000, -1.726562500000, -6.375000000000, 1490856480
-0.157470703125, -1.077148437500, -0.049316406250, -2.382812500000, -1.726562500000, -6.375000000000, 1490856480
-0.157470703125, -1.077148437500, -0.049316406250, -2.382812500000, -1.726562500000, -6.375000000000, 1490856480
-0.094726562500, -0.917968750000, -0.039062500000, -6.437500000000, -2.039062500000, -3.062500000000, 1490856480
-0.094726562500, -0.917968750000, -0.039062500000, -6.437500000000, -2.039062500000, -3.062500000000, 1490856480
-0.094726562500, -0.917968750000, -0.039062500000, -6.437500000000, -2.039062500000, -3.062500000000, 1490856480
-0.094726562500, -0.917968750000, -0.039062500000, -6.437500000000, -2.039062500000, -3.062500000000, 1490856480
-0.159667968750, -1.015380859375, -0.080810546875, -4.312500000000, 1.773437500000, -6.320312500000, 1490856480
-0.159667968750, -1.015380859375, -0.080810546875, -4.312500000000, 1.773437500000, -6.320312500000, 1490856480
-0.159667968750, -1.015380859375, -0.080810546875, -4.312500000000, 1.773437500000, -6.320312500000, 1490856480
-0.341552734375, -1.009765625000, 0.016357421875, -2.976562500000, 11.031250000000, -3.210937500000, 1490856481
-0.341552734375, -1.009765625000, 0.016357421875, -2.976562500000, 11.031250000000, -3.210937500000, 1490856481
-0.341552734375, -1.009765625000, 0.016357421875, -2.976562500000, 11.031250000000, -3.210937500000, 1490856481
-0.111572265625, -1.018798828125, -0.045166015625, -1.429687500000, 10.484375000000, -4.210937500000, 1490856481
-0.111572265625, -1.018798828125, -0.045166015625, -1.429687500000, 10.484375000000, -4.210937500000, 1490856481
-0.111572265625, -1.018798828125, -0.045166015625, -1.429687500000, 10.484375000000, -4.210937500000, 1490856481
-0.184326171875, -1.036621093750, -0.088134765625, -4.304687500000, 9.500000000000, -6.007812500000, 1490856481
-0.184326171875, -1.036621093750, -0.088134765625, -4.304687500000, 9.500000000000, -6.007812500000, 1490856481
-0.184326171875, -1.036621093750, -0.088134765625, -4.304687500000, 9.500000000000, -6.007812500000, 1490856481
-0.184326171875, -1.036621093750, -0.088134765625, -4.304687500000, 9.500000000000, -6.007812500000, 1490856481
-0.196777343750, -1.031250000000, -0.069824218750, -4.828125000000, 6.914062500000, -3.351562500000, 1490856481
-0.196777343750, -1.031250000000, -0.069824218750, -4.828125000000, 6.914062500000, -3.351562500000, 1490856481
-0.196777343750, -1.031250000000, -0.069824218750, -4.828125000000, 6.914062500000, -3.351562500000, 1490856481
-0.202392578125, -0.993652343750, -0.144287109375, -4.781250000000, 4.718750000000, -3.640625000000, 1490856481
-0.202392578125, -0.993652343750, -0.144287109375, -4.781250000000, 4.718750000000, -3.640625000000, 1490856481
-0.202392578125, -0.993652343750, -0.144287109375, -4.781250000000, 4.718750000000, -3.640625000000, 1490856481
-0.225585937500, -0.875000000000, -0.042724609375, 0.265625000000, 1.601562500000, -6.929687500000, 1490856481
-0.225585937500, -0.875000000000, -0.042724609375, 0.265625000000, 1.601562500000, -6.929687500000, 1490856481
-0.225585937500, -0.875000000000, -0.042724609375, 0.265625000000, 1.601562500000, -6.929687500000, 1490856481
-0.112792968750, -0.934326171875, 0.021240234375, -2.703125000000, 5.687500000000, -6.078125000000, 1490856481
-0.112792968750, -0.934326171875, 0.021240234375, -2.703125000000, 5.687500000000, -6.078125000000, 1490856481
-0.112792968750, -0.934326171875, 0.021240234375, -2.703125000000, 5.687500000000, -6.078125000000, 1490856481
-0.112792968750, -0.934326171875, 0.021240234375, -2.703125000000, 5.687500000000, -6.078125000000, 1490856481
-0.113037109375, -1.004394531250, 0.021972656250, -1.140625000000, -4.812500000000, -4.953125000000, 1490856481
-0.113037109375, -1.004394531250, 0.021972656250, -1.140625000000, -4.812500000000, -4.953125000000, 1490856481
-0.113037109375, -1.004394531250, 0.021972656250, -1.140625000000, -4.812500000000, -4.953125000000, 1490856481
-0.230957031250, -0.970703125000, -0.087158203125, -3.476562500000, 4.359375000000, -5.226562500000, 1490856481
-0.230957031250, -0.970703125000, -0.087158203125, -3.476562500000, 4.359375000000, -5.226562500000, 1490856481
-0.230957031250, -0.970703125000, -0.087158203125, -3.476562500000, 4.359375000000, -5.226562500000, 1490856481
-0.176757812500, -0.865722656250, 0.007812500000, -6.382812500000, 2.757812500000, -4.914062500000, 1490856481
-0.176757812500, -0.865722656250, 0.007812500000, -6.382812500000, 2.757812500000, -4.914062500000, 1490856481
-0.176757812500, -0.865722656250, 0.007812500000, -6.382812500000, 2.757812500000, -4.914062500000, 1490856481
-0.253173828125, -0.854248046875, -0.079833984375, -5.414062500000, 6.906250000000, -6.812500000000, 1490856481
-0.253173828125, -0.854248046875, -0.079833984375, -5.414062500000, 6.906250000000, -6.812500000000, 1490856481
-0.253173828125, -0.854248046875, -0.079833984375, -5.414062500000, 6.906250000000, -6.812500000000, 1490856481
-0.253173828125, -0.854248046875, -0.079833984375, -5.414062500000, 6.906250000000, -6.812500000000, 1490856481
-0.184326171875, -0.854248046875, -0.078125000000, -5.343750000000, 7.398437500000, -3.148437500000, 1490856481
-0.184326171875, -0.854248046875, -0.078125000000, -5.343750000000, 7.398437500000, -3.148437500000, 1490856481
-0.184326171875, -0.854248046875, -0.078125000000, -5.343750000000, 7.398437500000, -3.148437500000, 1490856481
-0.256347656250, -0.928955078125, -0.064697265625, -3.679687500000, 5.976562500000, -3.757812500000, 1490856481
-0.256347656250, -0.928955078125, -0.064697265625, -3.679687500000, 5.976562500000, -3.757812500000, 1490856481
-0.256347656250, -0.928955078125, -0.064697265625, -3.679687500000, 5.976562500000, -3.757812500000, 1490856481
-0.272949218750, -1.011230468750, -0.020507812500, -1.031250000000, 4.093750000000, -6.343750000000, 1490856481
-0.272949218750, -1.011230468750, -0.020507812500, -1.031250000000, 4.093750000000, -6.343750000000, 1490856481
-0.272949218750, -1.011230468750, -0.020507812500, -1.031250000000, 4.093750000000, -6.343750000000, 1490856481
-0.184082031250, -0.909667968750, -0.080810546875, -1.835937500000, -4.960937500000, -6.335937500000, 1490856481
-0.184082031250, -0.909667968750, -0.080810546875, -1.835937500000, -4.960937500000, -6.335937500000, 1490856481
-0.184082031250, -0.909667968750, -0.080810546875, -1.835937500000, -4.960937500000, -6.335937500000, 1490856481
-0.184082031250, -0.909667968750, -0.080810546875, -1.835937500000, -4.960937500000, -6.335937500000, 1490856481
-0.177246093750, -0.936035156250, 0.005859375000, -1.523437500000, -3.726562500000, -6.257812500000, 1490856481
-0.177246093750, -0.936035156250, 0.005859375000, -1.523437500000, -3.726562500000, -6.257812500000, 1490856481
-0.177246093750, -0.936035156250, 0.005859375000, -1.523437500000, -3.726562500000, -6.257812500000, 1490856481
-0.100097656250, -0.933349609375, -0.080810546875, -4.531250000000, -3.687500000000, -8.210937500000, 1490856481
-0.277343750000, -0.951904296875, -0.039306640625, -4.953125000000, -3.984375000000, 0.304687500000, 1490856481
-0.277343750000, -0.951904296875, -0.039306640625, -4.953125000000, -3.984375000000, 0.304687500000, 1490856481
-0.343017578125, -1.014892578125, -0.143066406250, -1.796875000000, -8.984375000000, -6.226562500000, 1490856481
-0.343017578125, -1.014892578125, -0.143066406250, -1.796875000000, -8.984375000000, -6.226562500000, 1490856481
-0.199707031250, -0.936279296875, -0.058837890625, -8.046875000000, -3.921875000000, -6.656250000000, 1490856481
-0.199707031250, -0.936279296875, -0.058837890625, -8.046875000000, -3.921875000000, -6.656250000000, 1490856481
-0.199707031250, -0.936279296875, -0.058837890625, -8.046875000000, -3.921875000000, -6.656250000000, 1490856481
-0.199707031250, -0.936279296875, -0.058837890625, -8.046875000000, -3.921875000000, -6.656250000000, 1490856481
-0.199707031250, -0.936279296875, -0.058837890625, -8.046875000000, -3.921875000000, -6.656250000000, 1490856481
-0.168701171875, -0.895507812500, -0.067871093750, -1.164062500000, 0.421875000000, -6.703125000000, 1490856481
-0.168701171875, -0.895507812500, -0.067871093750, -1.164062500000, 0.421875000000, -6.703125000000, 1490856481
-0.168701171875, -0.895507812500, -0.067871093750, -1.164062500000, 0.421875000000, -6.703125000000, 1490856481
-0.272705078125, -1.026123046875, -0.037841796875, -1.695312500000, -1.695312500000, -1.656250000000, 1490856481
-0.272705078125, -1.026123046875, -0.037841796875, -1.695312500000, -1.695312500000, -1.656250000000, 1490856481
-0.272705078125, -1.026123046875, -0.037841796875, -1.695312500000, -1.695312500000, -1.656250000000, 1490856481
