ACC_X,ACC_Y,ACC_Z,G_X,G_Y,G_Z,Unix Time
0.288574218750, -0.945556640625, -0.070800781250, -35.203125000000, 54.460937500000, 10.828125000000, 1490856430
0.288574218750, -0.945556640625, -0.070800781250, -35.203125000000, 54.460937500000, 10.828125000000, 1490856430
0.288574218750, -0.945556640625, -0.070800781250, -35.203125000000, 54.460937500000, 10.828125000000, 1490856430
0.324707031250, -0.967773437500, -0.139648437500, -15.468750000000, 64.054687500000, -0.898437500000, 1490856430
0.324707031250, -0.967773437500, -0.139648437500, -15.468750000000, 64.054687500000, -0.898437500000, 1490856430
0.324707031250, -0.967773437500, -0.139648437500, -15.468750000000, 64.054687500000, -0.898437500000, 1490856430
0.410400390625, -0.810791015625, -0.128417968750, 20.570312500000, 78.101562500000, -10.296875000000, 1490856430
0.410400390625, -0.810791015625, -0.128417968750, 20.570312500000, 78.101562500000, -10.296875000000, 1490856430
0.410400390625, -0.810791015625, -0.128417968750, 20.570312500000, 78.101562500000, -10.296875000000, 1490856430
0.285156250000, -1.004638671875, 0.091552734375, 13.765625000000, 107.507812500000, 6.789062500000, 1490856430
0.285156250000, -1.004638671875, 0.091552734375, 13.765625000000, 107.507812500000, 6.789062500000, 1490856430
0.252197265625, -1.073486328125, -0.082275390625, -36.960937500000, 94.734375000000, 22.085937500000, 1490856430
0.206787109375, -1.153808593750, 0.033935546875, -36.960937500000, 94.734375000000, 22.085937500000, 1490856430
0.206787109375, -1.153808593750, 0.033935546875, -36.960937500000, 94.734375000000, 22.085937500000, 1490856430
0.206787109375, -1.153808593750, 0.033935546875, -36.960937500000, 94.734375000000, 22.085937500000, 1490856430
0.206787109375, -1.153808593750, 0.033935546875, -36.960937500000, 94.734375000000, 22.085937500000, 1490856430
0.052490234375, -0.962646484375, 0.021728515625, -6.968750000000, 64.867187500000, 15.937500000000, 1490856430
0.052490234375, -0.962646484375, 0.021728515625, -6.968750000000, 64.867187500000, 15.937500000000, 1490856430
0.052490234375, -0.962646484375, 0.021728515625, -6.968750000000, 64.867187500000, 15.937500000000, 1490856430
-0.073486328125, -0.890869140625, 0.028076171875, -7.085937500000, 50.492187500000, -12.414062500000, 1490856430
-0.073486328125, -0.890869140625, 0.028076171875, -7.085937500000, 50.492187500000, -12.414062500000, 1490856430
-0.073486328125, -0.890869140625, 0.028076171875, -7.085937500000, 50.492187500000, -12.414062500000, 1490856430
0.330810546875, -0.872314453125, -0.006347656250, -13.320312500000, 73.625000000000, -18.718750000000, 1490856430
0.330810546875, -0.872314453125, -0.006347656250, -13.320312500000, 73.625000000000, -18.718750000000, 1490856430
0.330810546875, -0.872314453125, -0.006347656250, -13.320312500000, 73.625000000000, -18.718750000000, 1490856430
0.330810546875, -0.872314453125, -0.006347656250, -13.320312500000, 73.625000000000, -18.718750000000, 1490856430
0.105712890625, -1.003173828125, -0.033203125000, -16.898437500000, 65.000000000000, 18.132812500000, 1490856430
0.105712890625, -1.003173828125, -0.033203125000, -16.898437500000, 65.000000000000, 18.132812500000, 1490856430
0.105712890625, -1.003173828125, -0.033203125000, -16.898437500000, 65.000000000000, 18.132812500000, 1490856430
-0.011230468750, -1.127685546875, -0.054687500000, -16.414062500000, 53.328125000000, 8.671875000000, 1490856430
-0.011230468750, -1.127685546875, -0.054687500000, -16.414062500000, 53.328125000000, 8.671875000000, 1490856430
-0.011230468750, -1.127685546875, -0.054687500000, -16.414062500000, 53.328125000000, 8.671875000000, 1490856430
0.213134765625, -1.156250000000, -0.067382812500, 22.406250000000, 32.585937500000, 2.773437500000, 1490856430
0.213134765625, -1.156250000000, -0.067382812500, 22.406250000000, 32.585937500000, 2.773437500000, 1490856430
0.213134765625, -1.156250000000, -0.067382812500, 22.406250000000, 32.585937500000, 2.773437500000, 1490856431
0.275878906250, -1.138671875000, 0.057128906250, 40.250000000000, 35.070312500000, 1.328125000000, 1490856431
0.275878906250, -1.138671875000, 0.057128906250, 40.250000000000, 35.070312500000, 1.328125000000, 1490856431
0.275878906250, -1.138671875000, 0.057128906250, 40.250000000000, 35.070312500000, 1.328125000000, 1490856431
0.275878906250, -1.138671875000, 0.057128906250, 40.250000000000, 35.070312500000, 1.328125000000, 1490856431
0.209228515625, -0.986328125000, 0.033691406250, 10.335937500000, 42.382812500000, -8.835937500000, 1490856431
0.209228515625, -0.986328125000, 0.033691406250, 10.335937500000, 42.382812500000, -8.835937500000, 1490856431
0.209228515625, -0.986328125000, 0.033691406250, 10.335937500000, 42.382812500000, -8.835937500000, 1490856431
0.116210937500, -0.915527343750, -0.086669921875, -21.078125000000, 42.320312500000, 0.710937500000, 1490856431
0.116210937500, -0.915527343750, -0.086669921875, -21.078125000000, 42.320312500000, 0.710937500000, 1490856431
0.116210937500, -0.915527343750, -0.086669921875, -21.078125000000, 42.320312500000, 0.710937500000, 1490856431
0.083007812500, -0.844238281250, -0.071044921875, -25.875000000000, 19.710937500000, 6.062500000000, 1490856431
0.083007812500, -0.844238281250, -0.071044921875, -25.875000000000, 19.710937500000, 6.062500000000, 1490856431
0.083007812500, -0.844238281250, -0.071044921875, -25.875000000000, 19.710937500000, 6.062500000000, 1490856431
0.137695312500, -0.871826171875, 0.000976562500, -1.906250000000, 11.445312500000, -15.234375000000, 1490856431
0.137695312500, -0.871826171875, 0.000976562500, -1.906250000000, 11.445312500000, -15.234375000000, 1490856431
0.137695312500, -0.871826171875, 0.000976562500, -1.906250000000, 11.445312500000, -15.234375000000, 1490856431
0.137695312500, -0.871826171875, 0.000976562500, -1.906250000000, 11.445312500000, -15.234375000000, 1490856431
0.155517578125, -0.936523437500, -0.126220703125, -6.523437500000, -7.515625000000, -24.617187500000, 1490856431
0.155517578125, -0.936523437500, -0.126220703125, -6.523437500000, -7.515625000000, -24.617187500000, 1490856431
0.155517578125, -0.936523437500, -0.126220703125, -6.523437500000, -7.515625000000, -24.617187500000, 1490856431
0.161621093750, -1.055664062500, -0.033935546875, 35.195312500000, 6.812500000000, -31.007812500000, 1490856431
0.161621093750, -1.055664062500, -0.033935546875, 35.195312500000, 6.812500000000, -31.007812500000, 1490856431
0.161621093750, -1.055664062500, -0.033935546875, 35.195312500000, 6.812500000000, -31.007812500000, 1490856431
0.187744140625, -1.039794921875, 0.073242187500, 59.796875000000, 24.929687500000, -33.210937500000, 1490856431
0.187744140625, -1.039794921875, 0.073242187500, 59.796875000000, 24.929687500000, -33.210937500000, 1490856431
0.187744140625, -1.039794921875, 0.073242187500, 59.796875000000, 24.929687500000, -33.210937500000, 1490856431
0.196289062500, -1.048339843750, 0.145507812500, 1.578125000000, 5.171875000000, -27.835937500000, 1490856431
0.196289062500, -1.048339843750, 0.145507812500, 1.578125000000, 5.171875000000, -27.835937500000, 1490856431
0.196289062500, -1.048339843750, 0.145507812500, 1.578125000000, 5.171875000000, -27.835937500000, 1490856431
0.196289062500, -1.048339843750, 0.145507812500, 1.578125000000, 5.171875000000, -27.835937500000, 1490856431
0.201171875000, -0.936523437500, -0.024414062500, -39.046875000000, -3.773437500000, -22.320312500000, 1490856431
0.201171875000, -0.936523437500, -0.024414062500, -39.046875000000, -3.773437500000, -22.320312500000, 1490856431
0.201171875000, -0.936523437500, -0.024414062500, -39.046875000000, -3.773437500000, -22.320312500000, 1490856431
0.156250000000, -0.881835937500, 0.021484375000, -50.789062500000, -12.117187500000, -10.617187500000, 1490856431
0.156250000000, -0.881835937500, 0.021484375000, -50.789062500000, -12.117187500000, -10.617187500000, 1490856431
0.156250000000, -0.881835937500, 0.021484375000, -50.789062500000, -12.117187500000, -10.617187500000, 1490856431
0.099609375000, -0.960693359375, -0.071777343750, -33.382812500000, -4.250000000000, -13.765625000000, 1490856431
0.099609375000, -0.960693359375, -0.071777343750, -33.382812500000, -4.250000000000, -13.765625000000, 1490856431
0.099609375000, -0.960693359375, -0.071777343750, -33.382812500000, -4.250000000000, -13.765625000000, 1490856431
0.191162109375, -1.030273437500, -0.059082031250, 9.656250000000, -0.171875000000, -24.351562500000, 1490856431
0.191162109375, -1.030273437500, -0.059082031250, 9.656250000000, -0.171875000000, -24.351562500000, 1490856431
0.191162109375, -1.030273437500, -0.059082031250, 9.656250000000, -0.171875000000, -24.351562500000, 1490856431
0.191162109375, -1.030273437500, -0.059082031250, 9.656250000000, -0.171875000000, -24.351562500000, 1490856431
0.125244140625, -0.980224609375, 0.001220703125, 43.773437500000, 2.203125000000, -25.945312500000, 1490856431
0.125244140625, -0.980224609375, 0.001220703125, 43.773437500000, 2.203125000000, -25.945312500000, 1490856431
0.125244140625, -0.980224609375, 0.001220703125, 43.773437500000, 2.203125000000, -25.945312500000, 1490856431
-0.010253906250, -1.059570312500, 0.149658203125, 47.375000000000, -19.757812500000, -27.921875000000, 1490856431
-0.010253906250, -1.059570312500, 0.149658203125, 47.375000000000, -19.757812500000, -27.921875000000, 1490856431
-0.010253906250, -1.059570312500, 0.149658203125, 47.375000000000, -19.757812500000, -27.921875000000, 1490856431
-0.073242187500, -1.086914062500, 0.040039062500, 5.328125000000, -39.031250000000, -21.835937500000, 1490856431
-0.073242187500, -1.086914062500, 0.040039062500, 5.328125000000, -39.031250000000, -21.835937500000, 1490856431
-0.073242187500, -1.086914062500, 0.040039062500, 5.328125000000, -39.031250000000, -21.835937500000, 1490856431
-0.066162109375, -1.008056640625, 0.004882812500, -27.789062500000, -40.679687500000, -13.781250000000, 1490856431
-0.066162109375, -1.008056640625, 0.004882812500, -27.789062500000, -40.679687500000, -13.781250000000, 1490856431
-0.066162109375, -1.008056640625, 0.004882812500, -27.789062500000, -40.679687500000, -13.781250000000, 1490856431
-0.066162109375, -1.008056640625, 0.004882812500, -27.789062500000, -40.679687500000, -13.781250000000, 1490856431
0.015625000000, -0.988281250000, -0.074218750000, -16.140625000000, -20.250000000000, -8.773437500000, 1490856431
0.015625000000, -0.988281250000, -0.074218750000, -16.140625000000, -20.250000000000, -8.773437500000, 1490856431
0.015625000000, -0.988281250000, -0.074218750000, -16.140625000000, -20.250000000000, -8.773437500000, 1490856431
0.019042968750, -0.995117187500, -0.022949218750, 12.710937500000, -30.140625000000, -10.187500000000, 1490856431
0.019042968750, -0.995117187500, -0.022949218750, 12.710937500000, -30.140625000000, -10.187500000000, 1490856431
0.019042968750, -0.995117187500, -0.022949218750, 12.710937500000, -30.140625000000, -10.187500000000, 1490856431
-0.020263671875, -1.087890625000, -0.063476562500, 2.640625000000, -17.968750000000, -15.703125000000, 1490856431
-0.020263671875, -1.087890625000, -0.063476562500, 2.640625000000, -17.968750000000, -15.703125000000, 1490856431
-0.020263671875, -1.087890625000, -0.063476562500, 2.640625000000, -17.968750000000, -15.703125000000, 1490856431
0.096435546875, -0.985839843750, -0.070800781250, -23.312500000000, -13.726562500000, -18.710937500000, 1490856432
0.096435546875, -0.985839843750, -0.070800781250, -23.312500000000, -13.726562500000, -18.710937500000, 1490856432
0.096435546875, -0.985839843750, -0.070800781250, -23.312500000000, -13.726562500000, -18.710937500000, 1490856432
0.096435546875, -0.985839843750, -0.070800781250, -23.312500000000, -13.726562500000, -18.710937500000, 1490856432
0.129882812500, -1.054687500000, -0.087158203125, -22.937500000000, -4.929687500000, -10.921875000000, 1490856432
0.129882812500, -1.054687500000, -0.087158203125, -22.937500000000, -4.929687500000, -10.921875000000, 1490856432
0.129882812500, -1.054687500000, -0.087158203125, -22.937500000000, -4.929687500000, -10.921875000000, 1490856432
-0.010009765625, -0.914794921875, -0.020751953125, 3.281250000000, 7.796875000000, -16.664062500000, 1490856432
-0.010009765625, -0.914794921875, -0.020751953125, 3.281250000000, 7.796875000000, -16.664062500000, 1490856432
-0.010009765625, -0.914794921875, -0.020751953125, 3.281250000000, 7.796875000000, -16.664062500000, 1490856432
0.003173828125, -0.958251953125, -0.022216796875, -12.593750000000, -2.648437500000, -10.171875000000, 1490856432
0.003173828125, -0.958251953125, -0.022216796875, -12.593750000000, -2.648437500000, -10.171875000000, 1490856432
0.003173828125, -0.958251953125, -0.022216796875, -12.593750000000, -2.648437500000, -10.171875000000, 1490856432
0.003173828125, -0.958251953125, -0.022216796875, -12.593750000000, -2.648437500000, -10.171875000000, 1490856432
0.003173828125, -0.958251953125, -0.022216796875, -12.593750000000, -2.648437500000, -10.171875000000, 1490856432
0.003173828125, -0.958251953125, -0.022216796875, -12.593750000000, -2.648437500000, -10.171875000000, 1490856432
-0.065185546875, -0.875000000000, -0.026611328125, -15.914062500000, -13.039062500000, -6.625000000000, 1490856432
0.047363281250, -0.979980468750, 0.007812500000, -20.937500000000, -19.367187500000, 6.078125000000, 1490856432
0.047363281250, -0.979980468750, 0.007812500000, -20.937500000000, -19.367187500000, 6.078125000000, 1490856432
0.047363281250, -0.979980468750, 0.007812500000, -20.937500000000, -19.367187500000, 6.078125000000, 1490856432
-0.111816406250, -0.952148437500, 0.014892578125, -5.242187500000, -14.085937500000, 4.023437500000, 1490856432
-0.111816406250, -0.952148437500, 0.014892578125, -5.242187500000, -14.085937500000, 4.023437500000, 1490856432
-0.111816406250, -0.952148437500, 0.014892578125, -5.242187500000, -14.085937500000, 4.023437500000, 1490856432
-0.093505859375, -1.031982421875, -0.031250000000, 1.945312500000, -14.593750000000, -9.101562500000, 1490856432
-0.086181640625, -1.070312500000, 0.037109375000, 5.359375000000, -20.296875000000, -14.906250000000, 1490856432
-0.086181640625, -1.070312500000, 0.037109375000, 5.359375000000, -20.296875000000, -14.906250000000, 1490856432
-0.067138671875, -0.973144531250, 0.051513671875, -2.218750000000, -13.171875000000, -8.281250000000, 1490856432
-0.067138671875, -0.973144531250, 0.051513671875, -2.218750000000, -13.171875000000, -8.281250000000, 1490856432
-0.067138671875, -0.973144531250, 0.051513671875, -2.218750000000, -13.171875000000, -8.281250000000, 1490856432
-0.067138671875, -0.973144531250, 0.051513671875, -2.218750000000, -13.171875000000, -8.281250000000, 1490856432
-0.007080078125, -0.992187500000, -0.004150390625, -3.250000000000, -17.890625000000, -5.687500000000, 1490856432
-0.026855468750, -1.012451171875, 0.019042968750, -12.437500000000, -3.945312500000, -3.515625000000, 1490856432
-0.026855468750, -1.012451171875, 0.019042968750, -12.437500000000, -3.945312500000, -3.515625000000, 1490856432
-0.026855468750, -1.012451171875, 0.019042968750, -12.437500000000, -3.945312500000, -3.515625000000, 1490856432
-0.026855468750, -1.012451171875, 0.019042968750, -12.437500000000, -3.945312500000, -3.515625000000, 1490856432
-0.026855468750, -1.012451171875, 0.019042968750, -12.437500000000, -3.945312500000, -3.515625000000, 1490856432
-0.151611328125, -1.093750000000, 0.030273437500, -2.640625000000, 7.546875000000, -4.968750000000, 1490856432
-0.151611328125, -1.093750000000, 0.030273437500, -2.640625000000, 7.546875000000, -4.968750000000, 1490856432
-0.017089843750, -1.065429687500, 0.074462890625, 5.140625000000, 13.101562500000, -3.679687500000, 1490856432
-0.017089843750, -1.065429687500, 0.074462890625, 5.140625000000, 13.101562500000, -3.679687500000, 1490856432
-0.017089843750, -1.065429687500, 0.074462890625, 5.140625000000, 13.101562500000, -3.679687500000, 1490856432
-0.017089843750, -1.065429687500, 0.074462890625, 5.140625000000, 13.101562500000, -3.679687500000, 1490856432
-0.017089843750, -1.065429687500, 0.074462890625, 5.140625000000, 13.101562500000, -3.679687500000, 1490856432
-0.064697265625, -1.015869140625, -0.007568359375, -7.320312500000, 15.851562500000, 0.562500000000, 1490856432
-0.064697265625, -1.015869140625, -0.007568359375, -7.320312500000, 15.851562500000, 0.562500000000, 1490856432
-0.064697265625, -1.015869140625, -0.007568359375, -7.320312500000, 15.851562500000, 0.562500000000, 1490856432
-0.014160156250, -0.918945312500, 0.020019531250, -14.781250000000, 15.156250000000, -0.898437500000, 1490856432
-0.014160156250, -0.918945312500, 0.020019531250, -14.781250000000, 15.156250000000, -0.898437500000, 1490856432
-0.037597656250, -0.925292968750, 0.090576171875, -11.679687500000, 7.179687500000, -3.640625000000, 1490856432
-0.037597656250, -0.925292968750, 0.090576171875, -11.679687500000, 7.179687500000, -3.640625000000, 1490856432
-0.037597656250, -0.925292968750, 0.090576171875, -11.679687500000, 7.179687500000, -3.640625000000, 1490856432
-0.037597656250, -0.925292968750, 0.090576171875, -11.679687500000, 7.179687500000, -3.640625000000, 1490856432
-0.037597656250, -0.925292968750, 0.090576171875, -11.679687500000, 7.179687500000, -3.640625000000, 1490856432
0.063476562500, -0.950439453125, 0.023681640625, 0.078125000000, 6.390625000000, -5.437500000000, 1490856432
0.063476562500, -0.950439453125, 0.023681640625, 0.078125000000, 6.390625000000, -5.437500000000, 1490856432
0.063476562500, -0.950439453125, 0.023681640625, 0.078125000000, 6.390625000000, -5.437500000000, 1490856432
0.013183593750, -0.974121093750, 0.070068359375, 4.085937500000, 3.921875000000, -10.382812500000, 1490856432
0.013183593750, -0.974121093750, 0.070068359375, 4.085937500000, 3.921875000000, -10.382812500000, 1490856432
0.013183593750, -0.974121093750, 0.070068359375, 4.085937500000, 3.921875000000, -10.382812500000, 1490856432
-0.144042968750, -0.913818359375, 0.071044921875, 4.875000000000, 3.109375000000, -5.695312500000, 1490856432
-0.144042968750, -0.913818359375, 0.071044921875, 4.875000000000, 3.109375000000, -5.695312500000, 1490856432
-0.144042968750, -0.913818359375, 0.071044921875, 4.875000000000, 3.109375000000, -5.695312500000, 1490856432
0.018310546875, -1.153808593750, 0.011230468750, -0.976562500000, 8.632812500000, -10.390625000000, 1490856432
0.018310546875, -1.153808593750, 0.011230468750, -0.976562500000, 8.632812500000, -10.390625000000, 1490856432
0.018310546875, -1.153808593750, 0.011230468750, -0.976562500000, 8.632812500000, -10.390625000000, 1490856432
-0.083251953125, -0.930175781250, 0.063232421875, -5.070312500000, -4.078125000000, -7.773437500000, 1490856432
-0.083251953125, -0.930175781250, 0.063232421875, -5.070312500000, -4.078125000000, -7.773437500000, 1490856432
-0.083251953125, -0.930175781250, 0.063232421875, -5.070312500000, -4.078125000000, -7.773437500000, 1490856433
-0.083251953125, -0.930175781250, 0.063232421875, -5.070312500000, -4.078125000000, -7.773437500000, 1490856433
0.021972656250, -0.981933593750, 0.020019531250, -7.289062500000, -0.015625000000, -4.523437500000, 1490856433
0.021972656250, -0.981933593750, 0.020019531250, -7.289062500000, -0.015625000000, -4.523437500000, 1490856433
0.021972656250, -0.981933593750, 0.020019531250, -7.289062500000, -0.015625000000, -4.523437500000, 1490856433
-0.033447265625, -0.990722656250, 0.021484375000, -5.718750000000, -2.500000000000, -3.953125000000, 1490856433
-0.033447265625, -0.990722656250, 0.021484375000, -5.718750000000, -2.500000000000, -3.953125000000, 1490856433
-0.033447265625, -0.990722656250, 0.021484375000, -5.718750000000, -2.500000000000, -3.953125000000, 1490856433
0.015136718750, -0.986572265625, -0.076660156250, -4.140625000000, 0.523437500000, -2.078125000000, 1490856433
0.015136718750, -0.986572265625, -0.076660156250, -4.140625000000, 0.523437500000, -2.078125000000, 1490856433
0.015136718750, -0.986572265625, -0.076660156250, -4.140625000000, 0.523437500000, -2.078125000000, 1490856433
-0.131103515625, -0.925292968750, -0.005126953125, 2.343750000000, 0.554687500000, -4.312500000000, 1490856433
-0.131103515625, -0.925292968750, -0.005126953125, 2.343750000000, 0.554687500000, -4.312500000000, 1490856433
-0.131103515625, -0.925292968750, -0.005126953125, 2.343750000000, 0.554687500000, -4.312500000000, 1490856433
-0.131103515625, -0.925292968750, -0.005126953125, 2.343750000000, 0.554687500000, -4.312500000000, 1490856433
0.076171875000, -0.936767578125, 0.009033203125, 1.296875000000, 0.546875000000, -8.796875000000, 1490856433
0.076171875000, -0.936767578125, 0.009033203125, 1.296875000000, 0.546875000000, -8.796875000000, 1490856433
0.076171875000, -0.936767578125, 0.009033203125, 1.296875000000, 0.546875000000, -8.796875000000, 1490856433
-0.137207031250, -0.937500000000, -0.018554687500, -2.382812500000, -2.601562500000, -5.562500000000, 1490856433
-0.137207031250, -0.937500000000, -0.018554687500, -2.382812500000, -2.601562500000, -5.562500000000, 1490856433
-0.137207031250, -0.937500000000, -0.018554687500, -2.382812500000, -2.601562500000, -5.562500000000, 1490856433
-0.066406250000, -1.049072265625, -0.009033203125, -3.375000000000, -6.078125000000, -6.960937500000, 1490856433
-0.066406250000, -1.049072265625, -0.009033203125, -3.375000000000, -6.078125000000, -6.960937500000, 1490856433
-0.066406250000, -1.049072265625, -0.009033203125, -3.375000000000, -6.078125000000, -6.960937500000, 1490856433
-0.147460937500, -1.016357421875, -0.029296875000, -2.656250000000, -4.843750000000, -10.125000000000, 1490856433
-0.147460937500, -1.016357421875, -0.029296875000, -2.656250000000, -4.843750000000, -10.125000000000, 1490856433
-0.147460937500, -1.016357421875, -0.029296875000, -2.656250000000, -4.843750000000, -10.125000000000, 1490856433
-0.147460937500, -1.016357421875, -0.029296875000, -2.656250000000, -4.843750000000, -10.125000000000, 1490856433
-0.155761718750, -0.933105468750, -0.083496093750, 4.914062500000, -2.468750000000, -6.695312500000, 1490856433
-0.155761718750, -0.933105468750, -0.083496093750, 4.914062500000, -2.468750000000, -6.695312500000, 1490856433
-0.155761718750, -0.933105468750, -0.083496093750, 4.914062500000, -2.468750000000, -6.695312500000, 1490856433
0.013916015625, -0.969482421875, 0.016845703125, 5.820312500000, 5.640625000000, -5.210937500000, 1490856433
0.013916015625, -0.969482421875, 0.016845703125, 5.820312500000, 5.640625000000, -5.210937500000, 1490856433
0.013916015625, -0.969482421875, 0.016845703125, 5.820312500000, 5.640625000000, -5.210937500000, 1490856433
-0.128662109375, -0.920166015625, 0.067382812500, 4.812500000000, -2.265625000000, -4.328125000000, 1490856433
-0.128662109375, -0.920166015625, 0.067382812500, 4.812500000000, -2.265625000000, -4.328125000000, 1490856433
-0.128662109375, -0.920166015625, 0.067382812500, 4.812500000000, -2.265625000000, -4.328125000000, 1490856433
-0.091064453125, -1.029541015625, 0.027099609375, 1.734375000000, 4.828125000000, -3.289062500000, 1490856433
-0.091064453125, -1.029541015625, 0.027099609375, 1.734375000000, 4.828125000000, -3.289062500000, 1490856433
-0.091064453125, -1.029541015625, 0.027099609375, 1.734375000000, 4.828125000000, -3.289062500000, 1490856433
-0.091064453125, -1.029541015625, 0.027099609375, 1.734375000000, 4.828125000000, -3.289062500000, 1490856433
-0.019287109375, -0.914306640625, 0.026123046875, 2.546875000000, 4.453125000000, 0.101562500000, 1490856433
-0.019287109375, -0.914306640625, 0.026123046875, 2.546875000000, 4.453125000000, 0.101562500000, 1490856433
-0.019287109375, -0.914306640625, 0.026123046875, 2.546875000000, 4.453125000000, 0.101562500000, 1490856433
0.074951171875, -0.925048828125, 0.013916015625, 6.750000000000, 10.960937500000, 1.703125000000, 1490856433
0.074951171875, -0.925048828125, 0.013916015625, 6.750000000000, 10.960937500000, 1.703125000000, 1490856433
0.074951171875, -0.925048828125, 0.013916015625, 6.750000000000, 10.960937500000, 1.703125000000, 1490856433
0.010498046875, -0.797607421875, -0.127441406250, 18.343750000000, 14.476562500000, 4.453125000000, 1490856433
0.010498046875, -0.797607421875, -0.127441406250, 18.343750000000, 14.476562500000, 4.453125000000, 1490856433
0.010498046875, -0.797607421875, -0.127441406250, 18.343750000000, 14.476562500000, 4.453125000000, 1490856433
-0.049072265625, -0.448730468750, 0.067138671875, 56.718750000000, 16.640625000000, 2.421875000000, 1490856433
-0.049072265625, -0.448730468750, 0.067138671875, 56.718750000000, 16.640625000000, 2.421875000000, 1490856433
-0.049072265625, -0.448730468750, 0.067138671875, 56.718750000000, 16.640625000000, 2.421875000000, 1490856433
-0.049072265625, -0.448730468750, 0.067138671875, 56.718750000000, 16.640625000000, 2.421875000000, 1490856433
-0.155517578125, -0.294677734375, -0.052490234375, 27.789062500000, -5.789062500000, 20.023437500000, 1490856433
-0.155517578125, -0.294677734375, -0.052490234375, 27.789062500000, -5.789062500000, 20.023437500000, 1490856433
-0.155517578125, -0.294677734375, -0.052490234375, 27.789062500000, -5.789062500000, 20.023437500000, 1490856433
-0.084472656250, -0.858398437500, -0.203125000000, -101.117187500000, -77.085937500000, 44.460937500000, 1490856433
-0.084472656250, -0.858398437500, -0.203125000000, -101.117187500000, -77.085937500000, 44.460937500000, 1490856433
-0.084472656250, -0.858398437500, -0.203125000000, -101.117187500000, -77.085937500000, 44.460937500000, 1490856433
0.014892578125, -1.639892578125, -0.270751953125, -91.445312500000, 71.585937500000, -26.664062500000, 1490856433
0.014892578125, -1.639892578125, -0.270751953125, -91.445312500000, 71.585937500000, -26.664062500000, 1490856433
0.014892578125, -1.639892578125, -0.270751953125, -91.445312500000, 71.585937500000, -26.664062500000, 1490856433
0.075439453125, -2.069580078125, -0.335205078125, 0.554687500000, -1.734375000000, -15.445312500000, 1490856433
0.075439453125, -2.069580078125, -0.335205078125, 0.554687500000, -1.734375000000, -15.445312500000, 1490856433
-0.317626953125, -3.010253906250, 0.538085937500, 3.742187500000, -12.234375000000, -17.250000000000, 1490856434
-0.317626953125, -3.010253906250, 0.538085937500, 3.742187500000, -12.234375000000, -17.250000000000, 1490856434
-0.317626953125, -3.010253906250, 0.538085937500, 3.742187500000, -12.234375000000, -17.250000000000, 1490856434
-0.107177734375, -1.791015625000, -0.112792968750, -160.375000000000, -53.687500000000, -20.703125000000, 1490856434
-0.107177734375, -1.791015625000, -0.112792968750, -160.375000000000, -53.687500000000, -20.703125000000, 1490856434
-0.107177734375, -1.791015625000, -0.112792968750, -160.375000000000, -53.687500000000, -20.703125000000, 1490856434
-0.107177734375, -1.791015625000, -0.112792968750, -160.375000000000, -53.687500000000, -20.703125000000, 1490856434
-0.148681640625, -0.790283203125, -0.055664062500, -102.804687500000, -79.820312500000, 1.968750000000, 1490856434
-0.148681640625, -0.790283203125, -0.055664062500, -102.804687500000, -79.820312500000, 1.968750000000, 1490856434
-0.148681640625, -0.790283203125, -0.055664062500, -102.804687500000, -79.820312500000, 1.968750000000, 1490856434
-0.148681640625, -0.790283203125, -0.055664062500, -102.804687500000, -79.820312500000, 1.968750000000, 1490856434
0.025146484375, -0.003173828125, -0.003173828125, -22.781250000000, 33.015625000000, -22.476562500000, 1490856434
0.025146484375, -0.003173828125, -0.003173828125, -22.781250000000, 33.015625000000, -22.476562500000, 1490856434
0.025146484375, -0.003173828125, -0.003173828125, -22.781250000000, 33.015625000000, -22.476562500000, 1490856434
0.025146484375, -0.003173828125, -0.003173828125, -22.781250000000, 33.015625000000, -22.476562500000, 1490856434
0.066162109375, -0.004638671875, -0.009277343750, -11.140625000000, 47.507812500000, -22.515625000000, 1490856434
0.066162109375, -0.004638671875, -0.009277343750, -11.140625000000, 47.507812500000, -22.515625000000, 1490856434
0.066162109375, -0.004638671875, -0.009277343750, -11.140625000000, 47.507812500000, -22.515625000000, 1490856434
0.063476562500, 0.084228515625, 0.033691406250, -54.335937500000, 24.390625000000, -43.734375000000, 1490856434
0.063476562500, 0.084228515625, 0.033691406250, -54.335937500000, 24.390625000000, -43.734375000000, 1490856434
0.063476562500, 0.084228515625, 0.033691406250, -54.335937500000, 24.390625000000, -43.734375000000, 1490856434
0.079589843750, 0.027099609375, -0.015136718750, -70.945312500000, -11.320312500000, -17.914062500000, 1490856434
0.079589843750, 0.027099609375, -0.015136718750, -70.945312500000, -11.320312500000, -17.914062500000, 1490856434
0.079589843750, 0.027099609375, -0.015136718750, -70.945312500000, -11.320312500000, -17.914062500000, 1490856434
-0.063232421875, -0.074462890625, -0.126708984375, -104.828125000000, -90.726562500000, 15.000000000000, 1490856434
-0.063232421875, -0.074462890625, -0.126708984375, -104.828125000000, -90.726562500000, 15.000000000000, 1490856434
-0.063232421875, -0.074462890625, -0.126708984375, -104.828125000000, -90.726562500000, 15.000000000000, 1490856434
-0.063232421875, -0.074462890625, -0.126708984375, -104.828125000000, -90.726562500000, 15.000000000000, 1490856434
-0.072753906250, -0.360107421875, -0.113525390625, -200.851562500000, -196.914062500000, 37.734375000000, 1490856434
-0.072753906250, -0.360107421875, -0.113525390625, -200.851562500000, -196.914062500000, 37.734375000000, 1490856434
-0.072753906250, -0.360107421875, -0.113525390625, -200.851562500000, -196.914062500000, 37.734375000000, 1490856434
0.141357421875, -1.880371093750, -0.412841796875, -256.000000000000, -256.000000000000, 102.304687500000, 1490856434
0.141357421875, -1.880371093750, -0.412841796875, -256.000000000000, -256.000000000000, 102.304687500000, 1490856434
0.141357421875, -1.880371093750, -0.412841796875, -256.000000000000, -256.000000000000, 102.304687500000, 1490856434
0.160644531250, -2.147460937500, -0.042480468750, 253.992187500000, -109.914062500000, -80.000000000000, 1490856434
0.160644531250, -2.147460937500, -0.042480468750, 253.992187500000, -109.914062500000, -80.000000000000, 1490856434
0.160644531250, -2.147460937500, -0.042480468750, 253.992187500000, -109.914062500000, -80.000000000000, 1490856434
2.483154296875, -4.119384765625, 4.734130859375, 253.992187500000, 253.992187500000, -256.000000000000, 1490856434
2.483154296875, -4.119384765625, 4.734130859375, 253.992187500000, 253.992187500000, -256.000000000000, 1490856434
2.483154296875, -4.119384765625, 4.734130859375, 253.992187500000, 253.992187500000, -256.000000000000, 1490856434
2.483154296875, -4.119384765625, 4.734130859375, 253.992187500000, 253.992187500000, -256.000000000000, 1490856434
0.343750000000, -1.187988281250, 0.285644531250, -256.000000000000, 129.593750000000, 7.859375000000, 1490856434
0.343750000000, -1.187988281250, 0.285644531250, -256.000000000000, 129.593750000000, 7.859375000000, 1490856434
0.343750000000, -1.187988281250, 0.285644531250, -256.000000000000, 129.593750000000, 7.859375000000, 1490856434
0.081298828125, -0.652587890625, -0.028320312500, -256.000000000000, -114.867187500000, 74.937500000000, 1490856434
0.081298828125, -0.652587890625, -0.028320312500, -256.000000000000, -114.867187500000, 74.937500000000, 1490856434
0.081298828125, -0.652587890625, -0.028320312500, -256.000000000000, -114.867187500000, 74.937500000000, 1490856434
-0.001220703125, -0.401367187500, 0.010253906250, -120.070312500000, -82.726562500000, 13.929687500000, 1490856434
-0.001220703125, -0.401367187500, 0.010253906250, -120.070312500000, -82.726562500000, 13.929687500000, 1490856434
-0.001220703125, -0.401367187500, 0.010253906250, -120.070312500000, -82.726562500000, 13.929687500000, 1490856434
-0.030517578125, -0.631835937500, -0.066650390625, -40.875000000000, 40.039062500000, -18.968750000000, 1490856434
-0.030517578125, -0.631835937500, -0.066650390625, -40.875000000000, 40.039062500000, -18.968750000000, 1490856434
-0.030517578125, -0.631835937500, -0.066650390625, -40.875000000000, 40.039062500000, -18.968750000000, 1490856434
-0.030517578125, -0.631835937500, -0.066650390625, -40.875000000000, 40.039062500000, -18.968750000000, 1490856434
-0.006591796875, -1.218994140625, -0.180664062500, -35.359375000000, -18.062500000000, 7.945312500000, 1490856434
-0.006591796875, -1.218994140625, -0.180664062500, -35.359375000000, -18.062500000000, 7.945312500000, 1490856434
-0.006591796875, -1.218994140625, -0.180664062500, -35.359375000000, -18.062500000000, 7.945312500000, 1490856434
0.138916015625, -0.823730468750, -0.062988281250, 76.281250000000, -38.148437500000, 17.250000000000, 1490856434
0.138916015625, -0.823730468750, -0.062988281250, 76.281250000000, -38.148437500000, 17.250000000000, 1490856434
0.138916015625, -0.823730468750, -0.062988281250, 76.281250000000, -38.148437500000, 17.250000000000, 1490856434
0.213623046875, -1.202392578125, -0.098876953125, 189.398437500000, 57.429687500000, -88.101562500000, 1490856434
0.213623046875, -1.202392578125, -0.098876953125, 189.398437500000, 57.429687500000, -88.101562500000, 1490856434
0.213623046875, -1.202392578125, -0.098876953125, 189.398437500000, 57.429687500000, -88.101562500000, 1490856434
-0.332275390625, -1.497314453125, 3.619140625000, 100.734375000000, -256.000000000000, -19.671875000000, 1490856434
-0.332275390625, -1.497314453125, 3.619140625000, 100.734375000000, -256.000000000000, -19.671875000000, 1490856434
-0.332275390625, -1.497314453125, 3.619140625000, 100.734375000000, -256.000000000000, -19.671875000000, 1490856434
-0.332275390625, -1.497314453125, 3.619140625000, 100.734375000000, -256.000000000000, -19.671875000000, 1490856434
-0.040527343750, -1.045410156250, 0.093261718750, -256.000000000000, -93.523437500000, 74.562500000000, 1490856434
-0.040527343750, -1.045410156250, 0.093261718750, -256.000000000000, -93.523437500000, 74.562500000000, 1490856434
-0.040527343750, -1.045410156250, 0.093261718750, -256.000000000000, -93.523437500000, 74.562500000000, 1490856434
0.033203125000, -0.922607421875, -0.052734375000, -145.359375000000, -59.468750000000, 39.617187500000, 1490856435
0.033203125000, -0.922607421875, -0.052734375000, -145.359375000000, -59.468750000000, 39.617187500000, 1490856435
0.033203125000, -0.922607421875, -0.052734375000, -145.359375000000, -59.468750000000, 39.617187500000, 1490856435
-0.028564453125, -0.958740234375, -0.095214843750, 40.984375000000, -10.656250000000, -16.210937500000, 1490856435
-0.028564453125, -0.958740234375, -0.095214843750, 40.984375000000, -10.656250000000, -16.210937500000, 1490856435
-0.028564453125, -0.958740234375, -0.095214843750, 40.984375000000, -10.656250000000, -16.210937500000, 1490856435
0.057128906250, -1.022216796875, 0.437011718750, 45.343750000000, -10.976562500000, -16.531250000000, 1490856435
0.170410156250, -1.053710937500, 0.750488281250, 45.343750000000, -10.976562500000, -16.531250000000, 1490856435
0.033447265625, -0.997802734375, 0.053466796875, -148.328125000000, -16.015625000000, 17.289062500000, 1490856435
0.033447265625, -0.997802734375, 0.053466796875, -148.328125000000, -16.015625000000, 17.289062500000, 1490856435
0.033447265625, -0.997802734375, 0.053466796875, -148.328125000000, -16.015625000000, 17.289062500000, 1490856435
0.033447265625, -0.997802734375, 0.053466796875, -148.328125000000, -16.015625000000, 17.289062500000, 1490856435
0.033447265625, -0.997802734375, 0.053466796875, -148.328125000000, -16.015625000000, 17.289062500000, 1490856435
0.033447265625, -0.997802734375, 0.053466796875, -148.328125000000, -16.015625000000, 17.289062500000, 1490856435
0.033447265625, -0.997802734375, 0.053466796875, -148.328125000000, -16.015625000000, 17.289062500000, 1490856435
0.033447265625, -0.997802734375, 0.053466796875, -148.328125000000, -16.015625000000, 17.289062500000, 1490856435
-0.028564453125, -0.996093750000, 0.082275390625, 61.390625000000, -8.320312500000, -20.875000000000, 1490856435
-0.028564453125, -0.996093750000, 0.082275390625, 61.390625000000, -8.320312500000, -20.875000000000, 1490856435
-0.028564453125, -0.996093750000, 0.082275390625, 61.390625000000, -8.320312500000, -20.875000000000, 1490856435
-0.028564453125, -0.996093750000, 0.082275390625, 61.390625000000, -8.320312500000, -20.875000000000, 1490856435
-0.028564453125, -0.996093750000, 0.082275390625, 61.390625000000, -8.320312500000, -20.875000000000, 1490856435
-0.028564453125, -0.996093750000, 0.082275390625, 90.757812500000, 0.914062500000, -25.945312500000, 1490856435
0.118164062500, -0.969482421875, 0.222900390625, 105.695312500000, 10.632812500000, -26.703125000000, 1490856435
0.118164062500, -0.969482421875, 0.222900390625, 105.695312500000, 10.632812500000, -26.703125000000, 1490856435
0.118164062500, -0.969482421875, 0.222900390625, 105.695312500000, 10.632812500000, -26.703125000000, 1490856435
0.118164062500, -0.969482421875, 0.222900390625, 105.695312500000, 10.632812500000, -26.703125000000, 1490856435
0.120849609375, -0.998046875000, 0.302734375000, 1.109375000000, -10.695312500000, -8.765625000000, 1490856435
0.120849609375, -0.998046875000, 0.302734375000, 1.109375000000, -10.695312500000, -8.765625000000, 1490856435
0.120849609375, -0.998046875000, 0.302734375000, 1.109375000000, -10.695312500000, -8.765625000000, 1490856435
0.085449218750, -1.009033203125, 0.139892578125, -57.312500000000, -19.750000000000, 1.773437500000, 1490856435
0.085449218750, -1.009033203125, 0.139892578125, -57.312500000000, -19.750000000000, 1.773437500000, 1490856435
0.085449218750, -1.009033203125, 0.139892578125, -57.312500000000, -19.750000000000, 1.773437500000, 1490856435
0.051757812500, -0.862304687500, 0.051513671875, -5.531250000000, -9.359375000000, 0.351562500000, 1490856435
0.051757812500, -0.862304687500, 0.051513671875, -5.531250000000, -9.359375000000, 0.351562500000, 1490856435
0.051757812500, -0.862304687500, 0.051513671875, -5.531250000000, -9.359375000000, 0.351562500000, 1490856435
0.051757812500, -0.862304687500, 0.051513671875, -5.531250000000, -9.359375000000, 0.351562500000, 1490856435
0.140380859375, -0.952392578125, 0.041503906250, 26.296875000000, -0.523437500000, -7.937500000000, 1490856435
0.140380859375, -0.952392578125, 0.041503906250, 26.296875000000, -0.523437500000, -7.937500000000, 1490856435
