ACC_X,ACC_Y,ACC_Z,G_X,G_Y,G_Z,Unix Time
0.086425781250, 0.177490234375, 0.983886718750, 4.500000000000, 1.015625000000, -1.875000000000, 1490855211
0.086425781250, 0.177490234375, 0.983886718750, 4.500000000000, 1.015625000000, -1.875000000000, 1490855211
0.086425781250, 0.177490234375, 0.983886718750, 4.500000000000, 1.015625000000, -1.875000000000, 1490855211
0.086425781250, 0.177490234375, 0.983886718750, 4.500000000000, 1.015625000000, -1.875000000000, 1490855211
0.086425781250, 0.177490234375, 0.983886718750, 4.500000000000, 1.015625000000, -1.875000000000, 1490855211
0.097412109375, 0.047119140625, 1.025878906250, -2.187500000000, -3.539062500000, -4.843750000000, 1490855211
0.146972656250, 0.129882812500, 1.017822265625, -4.453125000000, -0.710937500000, -1.812500000000, 1490855211
0.146972656250, 0.129882812500, 1.017822265625, -4.453125000000, -0.710937500000, -1.812500000000, 1490855211
0.146972656250, 0.129882812500, 1.017822265625, -4.453125000000, -0.710937500000, -1.812500000000, 1490855211
0.118408203125, 0.158935546875, 1.001464843750, -1.117187500000, 4.007812500000, -0.976562500000, 1490855211
0.118408203125, 0.158935546875, 1.001464843750, -1.117187500000, 4.007812500000, -0.976562500000, 1490855211
0.118408203125, 0.158935546875, 1.001464843750, -1.117187500000, 4.007812500000, -0.976562500000, 1490855211
0.118408203125, 0.158935546875, 1.001464843750, -1.117187500000, 4.007812500000, -0.976562500000, 1490855211
0.058105468750, 0.098144531250, 1.066406250000, 0.023437500000, 2.125000000000, -5.945312500000, 1490855211
0.058105468750, 0.098144531250, 1.066406250000, 0.023437500000, 2.125000000000, -5.945312500000, 1490855211
0.058105468750, 0.098144531250, 1.066406250000, 0.023437500000, 2.125000000000, -5.945312500000, 1490855211
0.052001953125, 0.053466796875, 1.043701171875, -6.117187500000, 0.976562500000, -4.640625000000, 1490855211
0.052001953125, 0.053466796875, 1.043701171875, -6.117187500000, 0.976562500000, -4.640625000000, 1490855211
0.052001953125, 0.053466796875, 1.043701171875, -6.117187500000, 0.976562500000, -4.640625000000, 1490855211
0.148437500000, 0.182373046875, 0.919189453125, -6.148437500000, 5.335937500000, 0.242187500000, 1490855211
0.062500000000, 0.135986328125, 0.992187500000, -8.851562500000, 8.031250000000, -2.343750000000, 1490855212
0.062500000000, 0.135986328125, 0.992187500000, -8.851562500000, 8.031250000000, -2.343750000000, 1490855212
0.143066406250, 0.194091796875, 0.970214843750, -9.351562500000, 8.687500000000, -0.265625000000, 1490855212
0.143066406250, 0.194091796875, 0.970214843750, -9.351562500000, 8.687500000000, -0.265625000000, 1490855212
0.143066406250, 0.194091796875, 0.970214843750, -9.351562500000, 8.687500000000, -0.265625000000, 1490855212
0.143066406250, 0.194091796875, 0.970214843750, -9.351562500000, 8.687500000000, -0.265625000000, 1490855212
0.131591796875, 0.114501953125, 1.086669921875, -8.804687500000, 3.765625000000, -1.265625000000, 1490855212
0.133300781250, 0.122314453125, 1.019287109375, -8.804687500000, 3.765625000000, -1.265625000000, 1490855212
0.133300781250, 0.122314453125, 1.019287109375, -8.804687500000, 3.765625000000, -1.265625000000, 1490855212
0.133300781250, 0.122314453125, 1.019287109375, -8.804687500000, 3.765625000000, -1.265625000000, 1490855212
0.133300781250, 0.122314453125, 1.019287109375, -8.804687500000, 3.765625000000, -1.265625000000, 1490855212
-0.077148437500, 0.118408203125, 0.968017578125, -6.875000000000, -0.437500000000, -3.906250000000, 1490855212
-0.077148437500, 0.118408203125, 0.968017578125, -6.875000000000, -0.437500000000, -3.906250000000, 1490855212
-0.077148437500, 0.118408203125, 0.968017578125, -6.875000000000, -0.437500000000, -3.906250000000, 1490855212
-0.077148437500, 0.118408203125, 0.968017578125, -6.875000000000, -0.437500000000, -3.906250000000, 1490855212
-0.077148437500, 0.118408203125, 0.968017578125, -6.875000000000, -0.437500000000, -3.906250000000, 1490855212
-0.005859375000, 0.208251953125, 1.018798828125, 0.976562500000, -2.382812500000, -1.242187500000, 1490855212
-0.005859375000, 0.208251953125, 1.018798828125, 0.976562500000, -2.382812500000, -1.242187500000, 1490855212
-0.005859375000, 0.208251953125, 1.018798828125, 0.976562500000, -2.382812500000, -1.242187500000, 1490855212
0.034667968750, 0.137695312500, 0.928222656250, -3.992187500000, -5.734375000000, -3.031250000000, 1490855212
0.034667968750, 0.137695312500, 0.928222656250, -3.992187500000, -5.734375000000, -3.031250000000, 1490855212
0.034667968750, 0.137695312500, 0.928222656250, -3.992187500000, -5.734375000000, -3.031250000000, 1490855212
0.118408203125, 0.200439453125, 1.041015625000, 0.101562500000, -0.351562500000, -4.125000000000, 1490855212
0.118408203125, 0.200439453125, 1.041015625000, 0.101562500000, -0.351562500000, -4.125000000000, 1490855212
0.118408203125, 0.200439453125, 1.041015625000, 0.101562500000, -0.351562500000, -4.125000000000, 1490855212
0.076171875000, 0.122314453125, 1.004394531250, -5.617187500000, 2.671875000000, -4.132812500000, 1490855212
0.076171875000, 0.122314453125, 1.004394531250, -5.617187500000, 2.671875000000, -4.132812500000, 1490855212
0.076171875000, 0.122314453125, 1.004394531250, -5.617187500000, 2.671875000000, -4.132812500000, 1490855212
0.038085937500, 0.264892578125, 1.003173828125, -5.843750000000, -1.210937500000, -9.539062500000, 1490855212
0.125244140625, 0.218994140625, 1.027832031250, -5.843750000000, -1.210937500000, -9.539062500000, 1490855212
0.125244140625, 0.218994140625, 1.027832031250, -5.843750000000, -1.210937500000, -9.539062500000, 1490855212
0.125244140625, 0.218994140625, 1.027832031250, -5.843750000000, -1.210937500000, -9.539062500000, 1490855212
0.125244140625, 0.218994140625, 1.027832031250, -5.843750000000, -1.210937500000, -9.539062500000, 1490855212
0.125244140625, 0.218994140625, 1.027832031250, -5.843750000000, -1.210937500000, -9.539062500000, 1490855212
0.125244140625, 0.218994140625, 1.027832031250, -5.843750000000, -1.210937500000, -9.539062500000, 1490855212
0.203613281250, 0.305175781250, 1.065429687500, -5.976562500000, -1.601562500000, -4.625000000000, 1490855212
0.196289062500, 0.250732421875, 0.999755859375, -10.914062500000, 0.078125000000, -1.703125000000, 1490855212
0.196289062500, 0.250732421875, 0.999755859375, -10.914062500000, 0.078125000000, -1.703125000000, 1490855212
0.196289062500, 0.250732421875, 0.999755859375, -10.914062500000, 0.078125000000, -1.703125000000, 1490855212
0.196289062500, 0.250732421875, 0.999755859375, -10.914062500000, 0.078125000000, -1.703125000000, 1490855212
0.196289062500, 0.250732421875, 0.999755859375, -10.914062500000, 0.078125000000, -1.703125000000, 1490855212
0.196289062500, 0.250732421875, 0.999755859375, -10.914062500000, 0.078125000000, -1.703125000000, 1490855212
0.145996093750, 0.122802734375, 1.077636718750, -1.312500000000, 6.312500000000, 0.789062500000, 1490855212
0.145996093750, 0.122802734375, 1.077636718750, -1.312500000000, 6.312500000000, 0.789062500000, 1490855212
0.145996093750, 0.122802734375, 1.077636718750, -1.312500000000, 6.312500000000, 0.789062500000, 1490855212
0.145996093750, 0.122802734375, 1.077636718750, -1.312500000000, 6.312500000000, 0.789062500000, 1490855212
0.145996093750, 0.122802734375, 1.077636718750, -1.312500000000, 6.312500000000, 0.789062500000, 1490855212
0.145996093750, 0.122802734375, 1.077636718750, -1.312500000000, 6.312500000000, 0.789062500000, 1490855212
0.050781250000, 0.273925781250, 0.935058593750, -4.585937500000, 1.539062500000, 0.632812500000, 1490855212
0.050781250000, 0.273925781250, 0.935058593750, -4.585937500000, 1.539062500000, 0.632812500000, 1490855212
0.050781250000, 0.273925781250, 0.935058593750, -4.585937500000, 1.539062500000, 0.632812500000, 1490855212
0.050781250000, 0.273925781250, 0.935058593750, -4.585937500000, 1.539062500000, 0.632812500000, 1490855212
0.055175781250, 0.045898437500, 0.997314453125, -4.062500000000, -1.367187500000, -6.562500000000, 1490855212
-0.017822265625, 0.201904296875, 1.041992187500, -9.765625000000, -3.421875000000, -6.007812500000, 1490855212
-0.017822265625, 0.201904296875, 1.041992187500, -9.765625000000, -3.421875000000, -6.007812500000, 1490855212
-0.017822265625, 0.201904296875, 1.041992187500, -9.765625000000, -3.421875000000, -6.007812500000, 1490855212
0.033935546875, 0.121582031250, 1.027587890625, -5.562500000000, -1.312500000000, -1.585937500000, 1490855212
0.033935546875, 0.121582031250, 1.027587890625, -5.562500000000, -1.312500000000, -1.585937500000, 1490855212
0.033935546875, 0.121582031250, 1.027587890625, -5.562500000000, -1.312500000000, -1.585937500000, 1490855212
0.033935546875, 0.121582031250, 1.027587890625, -5.562500000000, -1.312500000000, -1.585937500000, 1490855212
0.033935546875, 0.121582031250, 1.027587890625, -5.562500000000, -1.312500000000, -1.585937500000, 1490855212
0.033935546875, 0.121582031250, 1.027587890625, -5.562500000000, -1.312500000000, -1.585937500000, 1490855212
0.139404296875, 0.113525390625, 1.067626953125, -0.664062500000, -1.648437500000, -1.703125000000, 1490855212
0.139404296875, 0.113525390625, 1.067626953125, -0.664062500000, -1.648437500000, -1.703125000000, 1490855212
0.139404296875, 0.113525390625, 1.067626953125, -0.664062500000, -1.648437500000, -1.703125000000, 1490855212
0.139404296875, 0.113525390625, 1.067626953125, -0.664062500000, -1.648437500000, -1.703125000000, 1490855212
0.139404296875, 0.113525390625, 1.067626953125, -0.664062500000, -1.648437500000, -1.703125000000, 1490855212
0.139404296875, 0.113525390625, 1.067626953125, -0.664062500000, -1.648437500000, -1.703125000000, 1490855212
0.044433593750, 0.185058593750, 1.040283203125, -4.882812500000, -0.210937500000, 1.554687500000, 1490855213
0.044433593750, 0.185058593750, 1.040283203125, -4.882812500000, -0.210937500000, 1.554687500000, 1490855213
0.044433593750, 0.185058593750, 1.040283203125, -4.882812500000, -0.210937500000, 1.554687500000, 1490855213
0.044433593750, 0.185058593750, 1.040283203125, -4.882812500000, -0.210937500000, 1.554687500000, 1490855213
0.044433593750, 0.185058593750, 1.040283203125, -4.882812500000, -0.210937500000, 1.554687500000, 1490855213
0.151367187500, 0.101562500000, 0.978027343750, -5.046875000000, -0.406250000000, -2.382812500000, 1490855213
0.151367187500, 0.101562500000, 0.978027343750, -5.046875000000, -0.406250000000, -2.382812500000, 1490855213
0.019531250000, 0.156494140625, 0.978759765625, -6.507812500000, 0.757812500000, -4.835937500000, 1490855213
0.066894531250, 0.105224609375, 0.971679687500, -5.859375000000, 0.820312500000, -2.937500000000, 1490855213
0.066894531250, 0.105224609375, 0.971679687500, -5.859375000000, 0.820312500000, -2.937500000000, 1490855213
0.066894531250, 0.105224609375, 0.971679687500, -5.859375000000, 0.820312500000, -2.937500000000, 1490855213
0.092529296875, 0.149414062500, 0.976318359375, -6.148437500000, 0.445312500000, -2.539062500000, 1490855213
0.060058593750, 0.201416015625, 0.991210937500, -5.992187500000, -0.375000000000, -1.609375000000, 1490855213
0.060058593750, 0.201416015625, 0.991210937500, -5.992187500000, -0.375000000000, -1.609375000000, 1490855213
0.060058593750, 0.201416015625, 0.991210937500, -5.992187500000, -0.375000000000, -1.609375000000, 1490855213
0.060058593750, 0.201416015625, 0.991210937500, -5.992187500000, -0.375000000000, -1.609375000000, 1490855213
0.063720703125, 0.255615234375, 1.046386718750, -1.453125000000, 4.562500000000, 0.531250000000, 1490855213
0.063720703125, 0.255615234375, 1.046386718750, -1.453125000000, 4.562500000000, 0.531250000000, 1490855213
0.063720703125, 0.255615234375, 1.046386718750, -1.453125000000, 4.562500000000, 0.531250000000, 1490855213
0.063720703125, 0.255615234375, 1.046386718750, -1.453125000000, 4.562500000000, 0.531250000000, 1490855213
0.063720703125, 0.255615234375, 1.046386718750, -1.453125000000, 4.562500000000, 0.531250000000, 1490855213
0.063720703125, 0.255615234375, 1.046386718750, -1.453125000000, 4.562500000000, 0.531250000000, 1490855213
0.080810546875, 0.183837890625, 1.091064453125, -2.757812500000, 5.421875000000, -5.609375000000, 1490855213
0.080810546875, 0.183837890625, 1.091064453125, -2.757812500000, 5.421875000000, -5.609375000000, 1490855213
0.080810546875, 0.183837890625, 1.091064453125, -2.757812500000, 5.421875000000, -5.609375000000, 1490855213
0.080810546875, 0.183837890625, 1.091064453125, -2.757812500000, 5.421875000000, -5.609375000000, 1490855213
0.134277343750, 0.179687500000, 1.080322265625, -12.039062500000, 2.234375000000, -10.054687500000, 1490855213
0.134277343750, 0.179687500000, 1.080322265625, -12.039062500000, 2.234375000000, -10.054687500000, 1490855213
0.134277343750, 0.179687500000, 1.080322265625, -12.039062500000, 2.234375000000, -10.054687500000, 1490855213
0.134277343750, 0.179687500000, 1.080322265625, -12.039062500000, 2.234375000000, -10.054687500000, 1490855213
0.135498046875, 0.200927734375, 0.970458984375, -13.531250000000, 0.390625000000, -10.609375000000, 1490855213
0.103759765625, 0.216552734375, 1.017822265625, -13.531250000000, 0.390625000000, -10.609375000000, 1490855213
0.103759765625, 0.216552734375, 1.017822265625, -13.531250000000, 0.390625000000, -10.609375000000, 1490855213
0.103759765625, 0.216552734375, 1.017822265625, -13.531250000000, 0.390625000000, -10.609375000000, 1490855213
0.103759765625, 0.216552734375, 1.017822265625, -13.531250000000, 0.390625000000, -10.609375000000, 1490855213
0.056152343750, 0.328369140625, 1.061279296875, 6.796875000000, -14.148437500000, 6.898437500000, 1490855213
0.056152343750, 0.328369140625, 1.061279296875, 6.796875000000, -14.148437500000, 6.898437500000, 1490855213
0.056152343750, 0.328369140625, 1.061279296875, 6.796875000000, -14.148437500000, 6.898437500000, 1490855213
0.056152343750, 0.328369140625, 1.061279296875, 6.796875000000, -14.148437500000, 6.898437500000, 1490855213
0.210693359375, 0.271484375000, 0.976806640625, -4.835937500000, -12.843750000000, -1.421875000000, 1490855213
0.210693359375, 0.271484375000, 0.976806640625, -4.835937500000, -12.843750000000, -1.421875000000, 1490855213
0.210693359375, 0.271484375000, 0.976806640625, -4.835937500000, -12.843750000000, -1.421875000000, 1490855213
0.210693359375, 0.271484375000, 0.976806640625, -4.835937500000, -12.843750000000, -1.421875000000, 1490855213
0.210693359375, 0.271484375000, 0.976806640625, -4.835937500000, -12.843750000000, -1.421875000000, 1490855213
0.210693359375, 0.271484375000, 0.976806640625, -4.835937500000, -12.843750000000, -1.421875000000, 1490855213
0.092529296875, 0.213867187500, 0.933837890625, -6.320312500000, -6.429687500000, -3.914062500000, 1490855213
0.092529296875, 0.213867187500, 0.933837890625, -6.320312500000, -6.429687500000, -3.914062500000, 1490855213
0.092529296875, 0.213867187500, 0.933837890625, -6.320312500000, -6.429687500000, -3.914062500000, 1490855213
0.181640625000, 0.215576171875, 0.980712890625, 0.015625000000, 6.515625000000, -5.414062500000, 1490855213
0.111816406250, 0.219482421875, 0.959228515625, -4.328125000000, 6.656250000000, -3.562500000000, 1490855213
0.111816406250, 0.219482421875, 0.959228515625, -4.328125000000, 6.656250000000, -3.562500000000, 1490855213
0.111816406250, 0.219482421875, 0.959228515625, -4.328125000000, 6.656250000000, -3.562500000000, 1490855213
0.191650390625, 0.179443359375, 1.089843750000, -1.468750000000, 4.867187500000, -4.859375000000, 1490855213
0.191650390625, 0.179443359375, 1.089843750000, -1.468750000000, 4.867187500000, -4.859375000000, 1490855213
0.191650390625, 0.179443359375, 1.089843750000, -1.468750000000, 4.867187500000, -4.859375000000, 1490855213
0.191650390625, 0.179443359375, 1.089843750000, -1.468750000000, 4.867187500000, -4.859375000000, 1490855213
0.191650390625, 0.179443359375, 1.089843750000, -1.468750000000, 4.867187500000, -4.859375000000, 1490855213
0.191650390625, 0.179443359375, 1.089843750000, -1.468750000000, 4.867187500000, -4.859375000000, 1490855213
0.191650390625, 0.179443359375, 1.089843750000, -1.468750000000, 4.867187500000, -4.859375000000, 1490855213
0.071533203125, 0.211425781250, 0.980468750000, -5.968750000000, 1.882812500000, -1.296875000000, 1490855213
0.071533203125, 0.211425781250, 0.980468750000, -5.968750000000, 1.882812500000, -1.296875000000, 1490855213
0.071533203125, 0.211425781250, 0.980468750000, -5.968750000000, 1.882812500000, -1.296875000000, 1490855213
0.071533203125, 0.211425781250, 0.980468750000, -5.968750000000, 1.882812500000, -1.296875000000, 1490855213
0.033935546875, 0.174804687500, 0.968505859375, -5.078125000000, -4.039062500000, -1.257812500000, 1490855213
0.033935546875, 0.174804687500, 0.968505859375, -5.078125000000, -4.039062500000, -1.257812500000, 1490855213
0.033935546875, 0.174804687500, 0.968505859375, -5.078125000000, -4.039062500000, -1.257812500000, 1490855213
0.033935546875, 0.174804687500, 0.968505859375, -5.078125000000, -4.039062500000, -1.257812500000, 1490855213
0.033935546875, 0.174804687500, 0.968505859375, -5.078125000000, -4.039062500000, -1.257812500000, 1490855213
0.058105468750, 0.209716796875, 1.069824218750, -8.179687500000, 0.851562500000, -6.617187500000, 1490855214
0.058105468750, 0.209716796875, 1.069824218750, -8.179687500000, 0.851562500000, -6.617187500000, 1490855214
0.058105468750, 0.209716796875, 1.069824218750, -8.179687500000, 0.851562500000, -6.617187500000, 1490855214
0.058105468750, 0.209716796875, 1.069824218750, -8.179687500000, 0.851562500000, -6.617187500000, 1490855214
0.058105468750, 0.209716796875, 1.069824218750, -8.179687500000, 0.851562500000, -6.617187500000, 1490855214
0.058105468750, 0.209716796875, 1.069824218750, -8.179687500000, 0.851562500000, -6.617187500000, 1490855214
0.038085937500, 0.098876953125, 1.071533203125, -5.046875000000, 2.460937500000, -1.398437500000, 1490855214
0.038085937500, 0.098876953125, 1.071533203125, -5.046875000000, 2.460937500000, -1.398437500000, 1490855214
0.038085937500, 0.098876953125, 1.071533203125, -5.046875000000, 2.460937500000, -1.398437500000, 1490855214
0.038085937500, 0.098876953125, 1.071533203125, -5.046875000000, 2.460937500000, -1.398437500000, 1490855214
0.043457031250, 0.192626953125, 0.986572265625, -4.343750000000, 0.398437500000, -4.406250000000, 1490855214
0.105957031250, 0.181640625000, 1.077148437500, -8.593750000000, -2.328125000000, -3.070312500000, 1490855214
0.105957031250, 0.181640625000, 1.077148437500, -8.593750000000, -2.328125000000, -3.070312500000, 1490855214
0.105957031250, 0.181640625000, 1.077148437500, -8.593750000000, -2.328125000000, -3.070312500000, 1490855214
0.105957031250, 0.181640625000, 1.077148437500, -8.593750000000, -2.328125000000, -3.070312500000, 1490855214
0.105957031250, 0.181640625000, 1.077148437500, -8.593750000000, -2.328125000000, -3.070312500000, 1490855214
0.136230468750, 0.112060546875, 0.991943359375, -6.906250000000, 2.406250000000, -1.203125000000, 1490855214
0.136230468750, 0.112060546875, 0.991943359375, -6.906250000000, 2.406250000000, -1.203125000000, 1490855214
0.136230468750, 0.112060546875, 0.991943359375, -6.906250000000, 2.406250000000, -1.203125000000, 1490855214
0.136230468750, 0.112060546875, 0.991943359375, -6.906250000000, 2.406250000000, -1.203125000000, 1490855214
0.136230468750, 0.112060546875, 0.991943359375, -6.906250000000, 2.406250000000, -1.203125000000, 1490855214
0.136230468750, 0.112060546875, 0.991943359375, -6.906250000000, 2.406250000000, -1.203125000000, 1490855214
0.206054687500, 0.277343750000, 0.968994140625, -5.476562500000, -0.273437500000, -1.046875000000, 1490855214
0.206054687500, 0.277343750000, 0.968994140625, -5.476562500000, -0.273437500000, -1.046875000000, 1490855214
0.206054687500, 0.277343750000, 0.968994140625, -5.476562500000, -0.273437500000, -1.046875000000, 1490855214
0.077392578125, 0.196533203125, 1.015136718750, -5.406250000000, 0.117187500000, 0.281250000000, 1490855214
0.077392578125, 0.196533203125, 1.015136718750, -5.406250000000, 0.117187500000, 0.281250000000, 1490855214
0.077392578125, 0.196533203125, 1.015136718750, -5.406250000000, 0.117187500000, 0.281250000000, 1490855214
0.077392578125, 0.196533203125, 1.015136718750, -5.406250000000, 0.117187500000, 0.281250000000, 1490855214
-0.004638671875, 0.204345703125, 0.987060546875, -10.156250000000, 4.875000000000, 0.437500000000, 1490855214
-0.004638671875, 0.204345703125, 0.987060546875, -10.156250000000, 4.875000000000, 0.437500000000, 1490855214
-0.004638671875, 0.204345703125, 0.987060546875, -10.156250000000, 4.875000000000, 0.437500000000, 1490855214
0.131347656250, 0.254882812500, 1.089355468750, -11.000000000000, -0.781250000000, -4.867187500000, 1490855214
0.131347656250, 0.254882812500, 1.089355468750, -11.000000000000, -0.781250000000, -4.867187500000, 1490855214
0.131347656250, 0.254882812500, 1.089355468750, -11.000000000000, -0.781250000000, -4.867187500000, 1490855214
0.131347656250, 0.254882812500, 1.089355468750, -11.000000000000, -0.781250000000, -4.867187500000, 1490855214
0.057373046875, 0.193359375000, 0.985839843750, -8.445312500000, -2.210937500000, -4.164062500000, 1490855214
0.040283203125, 0.209228515625, 1.064697265625, -9.273437500000, -2.828125000000, -2.265625000000, 1490855214
0.040283203125, 0.209228515625, 1.064697265625, -9.273437500000, -2.828125000000, -2.265625000000, 1490855214
0.040283203125, 0.209228515625, 1.064697265625, -9.273437500000, -2.828125000000, -2.265625000000, 1490855214
0.040283203125, 0.209228515625, 1.064697265625, -9.273437500000, -2.828125000000, -2.265625000000, 1490855214
0.040283203125, 0.209228515625, 1.064697265625, -9.273437500000, -2.828125000000, -2.265625000000, 1490855214
0.038574218750, 0.204589843750, 1.049072265625, -9.421875000000, -2.609375000000, 0.226562500000, 1490855214
0.038574218750, 0.204589843750, 1.049072265625, -9.421875000000, -2.609375000000, 0.226562500000, 1490855214
0.038574218750, 0.204589843750, 1.049072265625, -9.421875000000, -2.609375000000, 0.226562500000, 1490855214
0.052490234375, 0.278320312500, 1.005126953125, -2.414062500000, 4.828125000000, -4.992187500000, 1490855214
0.052490234375, 0.278320312500, 1.005126953125, -2.414062500000, 4.828125000000, -4.992187500000, 1490855214
0.052490234375, 0.278320312500, 1.005126953125, -2.414062500000, 4.828125000000, -4.992187500000, 1490855214
0.039062500000, 0.214599609375, 1.029052734375, -1.914062500000, 0.460937500000, -4.593750000000, 1490855214
0.032958984375, 0.174560546875, 0.981933593750, -4.265625000000, -2.007812500000, -2.664062500000, 1490855214
0.032958984375, 0.174560546875, 0.981933593750, -4.265625000000, -2.007812500000, -2.664062500000, 1490855214
0.032958984375, 0.174560546875, 0.981933593750, -4.265625000000, -2.007812500000, -2.664062500000, 1490855214
0.103759765625, 0.244628906250, 1.015136718750, -3.843750000000, -0.171875000000, -2.718750000000, 1490855214
0.103759765625, 0.244628906250, 1.015136718750, -3.843750000000, -0.171875000000, -2.718750000000, 1490855214
0.103759765625, 0.244628906250, 1.015136718750, -3.843750000000, -0.171875000000, -2.718750000000, 1490855214
0.103759765625, 0.244628906250, 1.015136718750, -3.843750000000, -0.171875000000, -2.718750000000, 1490855214
0.103759765625, 0.244628906250, 1.015136718750, -3.843750000000, -0.171875000000, -2.718750000000, 1490855214
0.103759765625, 0.244628906250, 1.015136718750, -3.843750000000, -0.171875000000, -2.718750000000, 1490855214
0.152343750000, 0.222656250000, 1.072509765625, -3.015625000000, 0.468750000000, -4.468750000000, 1490855214
0.152343750000, 0.222656250000, 1.072509765625, -3.015625000000, 0.468750000000, -4.468750000000, 1490855214
0.152343750000, 0.222656250000, 1.072509765625, -3.015625000000, 0.468750000000, -4.468750000000, 1490855214
0.152343750000, 0.222656250000, 1.072509765625, -3.015625000000, 0.468750000000, -4.468750000000, 1490855214
0.042968750000, 0.162841796875, 1.068115234375, -3.875000000000, -0.679687500000, -4.335937500000, 1490855214
0.042968750000, 0.162841796875, 1.068115234375, -3.875000000000, -0.679687500000, -4.335937500000, 1490855214
0.042968750000, 0.162841796875, 1.068115234375, -3.875000000000, -0.679687500000, -4.335937500000, 1490855214
0.099121093750, 0.107421875000, 1.067871093750, -6.828125000000, -2.390625000000, -3.171875000000, 1490855214
0.099121093750, 0.107421875000, 1.067871093750, -6.828125000000, -2.390625000000, -3.171875000000, 1490855214
0.099121093750, 0.107421875000, 1.067871093750, -6.828125000000, -2.390625000000, -3.171875000000, 1490855214
0.045898437500, 0.233398437500, 1.035888671875, -3.968750000000, -0.203125000000, 0.125000000000, 1490855215
0.045898437500, 0.233398437500, 1.035888671875, -3.968750000000, -0.203125000000, 0.125000000000, 1490855215
0.045898437500, 0.233398437500, 1.035888671875, -3.968750000000, -0.203125000000, 0.125000000000, 1490855215
0.071289062500, 0.188232421875, 0.910644531250, -6.914062500000, 2.304687500000, -6.085937500000, 1490855215
0.071289062500, 0.188232421875, 0.910644531250, -6.914062500000, 2.304687500000, -6.085937500000, 1490855215
0.071289062500, 0.188232421875, 0.910644531250, -6.914062500000, 2.304687500000, -6.085937500000, 1490855215
0.071289062500, 0.188232421875, 0.910644531250, -6.914062500000, 2.304687500000, -6.085937500000, 1490855215
0.047119140625, 0.175048828125, 0.982421875000, -4.000000000000, 0.289062500000, -4.460937500000, 1490855215
0.047119140625, 0.175048828125, 0.982421875000, -4.000000000000, 0.289062500000, -4.460937500000, 1490855215
0.047119140625, 0.175048828125, 0.982421875000, -4.000000000000, 0.289062500000, -4.460937500000, 1490855215
0.047119140625, 0.175048828125, 0.982421875000, -4.000000000000, 0.289062500000, -4.460937500000, 1490855215
0.047119140625, 0.175048828125, 0.982421875000, -4.000000000000, 0.289062500000, -4.460937500000, 1490855215
-0.003417968750, 0.221923828125, 1.024169921875, -6.421875000000, -2.593750000000, -4.242187500000, 1490855215
-0.003417968750, 0.221923828125, 1.024169921875, -6.421875000000, -2.593750000000, -4.242187500000, 1490855215
-0.003417968750, 0.221923828125, 1.024169921875, -6.421875000000, -2.593750000000, -4.242187500000, 1490855215
-0.003417968750, 0.221923828125, 1.024169921875, -6.421875000000, -2.593750000000, -4.242187500000, 1490855215
0.129638671875, 0.201171875000, 0.968505859375, -5.820312500000, 1.781250000000, -4.539062500000, 1490855215
0.129638671875, 0.201171875000, 0.968505859375, -5.820312500000, 1.781250000000, -4.539062500000, 1490855215
0.129638671875, 0.201171875000, 0.968505859375, -5.820312500000, 1.781250000000, -4.539062500000, 1490855215
0.129638671875, 0.201171875000, 0.968505859375, -5.820312500000, 1.781250000000, -4.539062500000, 1490855215
0.129638671875, 0.201171875000, 0.968505859375, -5.820312500000, 1.781250000000, -4.539062500000, 1490855215
0.129638671875, 0.201171875000, 0.968505859375, -5.820312500000, 1.781250000000, -4.539062500000, 1490855215
0.051513671875, 0.218261718750, 1.065429687500, -5.062500000000, -2.554687500000, -1.476562500000, 1490855215
