ACC_X,ACC_Y,ACC_Z,G_X,G_Y,G_Z,Unix Time
0.184814453125, -0.986328125000, 0.205566406250, -1.562500000000, 0.812500000000, -10.945312500000, 1491818692
0.184814453125, -0.986328125000, 0.205566406250, -1.562500000000, 0.812500000000, -10.945312500000, 1491818692
0.184814453125, -0.986328125000, 0.205566406250, -1.562500000000, 0.812500000000, -10.945312500000, 1491818692
0.157470703125, -1.020996093750, 0.182128906250, -2.085937500000, 2.710937500000, -4.765625000000, 1491818692
0.157470703125, -1.020996093750, 0.182128906250, -2.085937500000, 2.710937500000, -4.765625000000, 1491818692
0.157470703125, -1.020996093750, 0.182128906250, -2.085937500000, 2.710937500000, -4.765625000000, 1491818692
0.157470703125, -1.020996093750, 0.182128906250, -2.085937500000, 2.710937500000, -4.765625000000, 1491818692
0.185546875000, -0.961425781250, 0.199951171875, -4.898437500000, 3.070312500000, 2.875000000000, 1491818692
0.185546875000, -0.961425781250, 0.199951171875, -4.898437500000, 3.070312500000, 2.875000000000, 1491818692
0.185546875000, -0.961425781250, 0.199951171875, -4.898437500000, 3.070312500000, 2.875000000000, 1491818692
0.180175781250, -0.967773437500, 0.197509765625, -6.609375000000, 2.531250000000, -4.343750000000, 1491818692
0.180175781250, -0.967773437500, 0.197509765625, -6.609375000000, 2.531250000000, -4.343750000000, 1491818692
0.180175781250, -0.967773437500, 0.197509765625, -6.609375000000, 2.531250000000, -4.343750000000, 1491818692
0.278564453125, -1.006835937500, 0.214843750000, -3.984375000000, 3.539062500000, -1.125000000000, 1491818692
0.278564453125, -1.006835937500, 0.214843750000, -3.984375000000, 3.539062500000, -1.125000000000, 1491818692
0.278564453125, -1.006835937500, 0.214843750000, -3.984375000000, 3.539062500000, -1.125000000000, 1491818692
0.221191406250, -0.955322265625, 0.123046875000, -6.648437500000, 4.570312500000, -1.757812500000, 1491818692
0.221191406250, -0.955322265625, 0.123046875000, -6.648437500000, 4.570312500000, -1.757812500000, 1491818692
0.221191406250, -0.955322265625, 0.123046875000, -6.648437500000, 4.570312500000, -1.757812500000, 1491818692
0.221191406250, -0.955322265625, 0.123046875000, -6.648437500000, 4.570312500000, -1.757812500000, 1491818692
0.277099609375, -0.953613281250, 0.193847656250, -3.718750000000, 2.148437500000, -2.140625000000, 1491818692
0.277099609375, -0.953613281250, 0.193847656250, -3.718750000000, 2.148437500000, -2.140625000000, 1491818692
0.277099609375, -0.953613281250, 0.193847656250, -3.718750000000, 2.148437500000, -2.140625000000, 1491818692
0.222900390625, -0.921142578125, 0.166748046875, -3.492187500000, 1.250000000000, -4.062500000000, 1491818692
0.222900390625, -0.921142578125, 0.166748046875, -3.492187500000, 1.250000000000, -4.062500000000, 1491818692
0.222900390625, -0.921142578125, 0.166748046875, -3.492187500000, 1.250000000000, -4.062500000000, 1491818692
0.190673828125, -0.958496093750, 0.168457031250, -3.687500000000, 3.187500000000, -2.070312500000, 1491818692
0.190673828125, -0.958496093750, 0.168457031250, -3.687500000000, 3.187500000000, -2.070312500000, 1491818692
0.190673828125, -0.958496093750, 0.168457031250, -3.687500000000, 3.187500000000, -2.070312500000, 1491818692
0.172607421875, -0.860839843750, 0.194824218750, -8.046875000000, 2.078125000000, -5.562500000000, 1491818692
0.172607421875, -0.860839843750, 0.194824218750, -8.046875000000, 2.078125000000, -5.562500000000, 1491818692
0.172607421875, -0.860839843750, 0.194824218750, -8.046875000000, 2.078125000000, -5.562500000000, 1491818692
0.172607421875, -0.860839843750, 0.194824218750, -8.046875000000, 2.078125000000, -5.562500000000, 1491818692
0.172607421875, -0.860839843750, 0.194824218750, -8.046875000000, 2.078125000000, -5.562500000000, 1491818692
0.172607421875, -0.860839843750, 0.194824218750, -8.046875000000, 2.078125000000, -5.562500000000, 1491818692
0.229248046875, -0.869628906250, 0.151123046875, -6.265625000000, 1.289062500000, -2.500000000000, 1491818692
0.229248046875, -0.869628906250, 0.151123046875, -6.265625000000, 1.289062500000, -2.500000000000, 1491818692
0.229248046875, -0.869628906250, 0.151123046875, -6.265625000000, 1.289062500000, -2.500000000000, 1491818692
0.229248046875, -0.869628906250, 0.151123046875, -6.265625000000, 1.289062500000, -2.500000000000, 1491818692
0.217041015625, -0.932373046875, 0.208496093750, -5.812500000000, 2.695312500000, -4.203125000000, 1491818692
0.217041015625, -0.932373046875, 0.208496093750, -5.812500000000, 2.695312500000, -4.203125000000, 1491818692
0.217041015625, -0.932373046875, 0.208496093750, -5.812500000000, 2.695312500000, -4.203125000000, 1491818692
0.166015625000, -1.007568359375, 0.204345703125, -3.710937500000, -0.554687500000, -3.085937500000, 1491818692
0.166015625000, -1.007568359375, 0.204345703125, -3.710937500000, -0.554687500000, -3.085937500000, 1491818692
0.166015625000, -1.007568359375, 0.204345703125, -3.710937500000, -0.554687500000, -3.085937500000, 1491818692
0.166015625000, -1.007568359375, 0.204345703125, -3.710937500000, -0.554687500000, -3.085937500000, 1491818692
0.187500000000, -0.930664062500, 0.204833984375, -4.812500000000, 0.359375000000, -2.273437500000, 1491818692
0.187500000000, -0.930664062500, 0.204833984375, -4.812500000000, 0.359375000000, -2.273437500000, 1491818692
0.187500000000, -0.930664062500, 0.204833984375, -4.812500000000, 0.359375000000, -2.273437500000, 1491818692
0.108154296875, -0.956054687500, 0.170410156250, -3.671875000000, 3.203125000000, 0.406250000000, 1491818692
0.108154296875, -0.956054687500, 0.170410156250, -3.671875000000, 3.203125000000, 0.406250000000, 1491818692
0.108154296875, -0.956054687500, 0.170410156250, -3.671875000000, 3.203125000000, 0.406250000000, 1491818692
0.103027343750, -0.955810546875, 0.207275390625, -8.046875000000, -2.976562500000, -1.851562500000, 1491818692
0.103027343750, -0.955810546875, 0.207275390625, -8.046875000000, -2.976562500000, -1.851562500000, 1491818692
0.103027343750, -0.955810546875, 0.207275390625, -8.046875000000, -2.976562500000, -1.851562500000, 1491818692
0.228515625000, -1.009033203125, 0.195068359375, -3.585937500000, 1.960937500000, 2.906250000000, 1491818692
0.228515625000, -1.009033203125, 0.195068359375, -3.585937500000, 1.960937500000, 2.906250000000, 1491818692
0.240722656250, -0.918701171875, 0.206542968750, -7.117187500000, -4.492187500000, -1.976562500000, 1491818693
0.240722656250, -0.918701171875, 0.206542968750, -7.117187500000, -4.492187500000, -1.976562500000, 1491818693
0.240722656250, -0.918701171875, 0.206542968750, -7.117187500000, -4.492187500000, -1.976562500000, 1491818693
0.240722656250, -0.918701171875, 0.206542968750, -7.117187500000, -4.492187500000, -1.976562500000, 1491818693
0.259277343750, -1.013671875000, 0.250488281250, -9.867187500000, -6.312500000000, 0.703125000000, 1491818693
0.259277343750, -1.013671875000, 0.250488281250, -9.867187500000, -6.312500000000, 0.703125000000, 1491818693
0.259277343750, -1.013671875000, 0.250488281250, -9.867187500000, -6.312500000000, 0.703125000000, 1491818693
0.259277343750, -1.013671875000, 0.250488281250, -9.867187500000, -6.312500000000, 0.703125000000, 1491818693
0.202392578125, -0.935302734375, 0.217041015625, -15.312500000000, -11.132812500000, -4.218750000000, 1491818693
0.202392578125, -0.935302734375, 0.217041015625, -15.312500000000, -11.132812500000, -4.218750000000, 1491818693
0.202392578125, -0.935302734375, 0.217041015625, -15.312500000000, -11.132812500000, -4.218750000000, 1491818693
0.276367187500, -0.896728515625, 0.186767578125, -12.726562500000, -13.421875000000, -6.945312500000, 1491818693
0.276367187500, -0.896728515625, 0.186767578125, -12.726562500000, -13.421875000000, -6.945312500000, 1491818693
0.276367187500, -0.896728515625, 0.186767578125, -12.726562500000, -13.421875000000, -6.945312500000, 1491818693
0.276367187500, -0.896728515625, 0.186767578125, -12.726562500000, -13.421875000000, -6.945312500000, 1491818693
0.277832031250, -0.928955078125, 0.250244140625, -11.789062500000, -14.757812500000, -13.023437500000, 1491818693
0.277832031250, -0.928955078125, 0.250244140625, -11.789062500000, -14.757812500000, -13.023437500000, 1491818693
0.277832031250, -0.928955078125, 0.250244140625, -11.789062500000, -14.757812500000, -13.023437500000, 1491818693
0.158691406250, -0.962890625000, 0.158203125000, -9.679687500000, -11.007812500000, -8.351562500000, 1491818693
0.158691406250, -0.962890625000, 0.158203125000, -9.679687500000, -11.007812500000, -8.351562500000, 1491818693
0.158691406250, -0.962890625000, 0.158203125000, -9.679687500000, -11.007812500000, -8.351562500000, 1491818693
0.211181640625, -0.947753906250, 0.201904296875, -12.367187500000, -3.000000000000, -10.171875000000, 1491818693
0.211181640625, -0.947753906250, 0.201904296875, -12.367187500000, -3.000000000000, -10.171875000000, 1491818693
0.211181640625, -0.947753906250, 0.201904296875, -12.367187500000, -3.000000000000, -10.171875000000, 1491818693
0.255859375000, -0.955810546875, 0.180664062500, -3.398437500000, 0.976562500000, -2.960937500000, 1491818693
0.255859375000, -0.955810546875, 0.180664062500, -3.398437500000, 0.976562500000, -2.960937500000, 1491818693
0.255859375000, -0.955810546875, 0.180664062500, -3.398437500000, 0.976562500000, -2.960937500000, 1491818693
0.255859375000, -0.955810546875, 0.180664062500, -3.398437500000, 0.976562500000, -2.960937500000, 1491818693
0.120605468750, -0.907226562500, 0.187500000000, -1.703125000000, -2.437500000000, -4.148437500000, 1491818693
0.120605468750, -0.907226562500, 0.187500000000, -1.703125000000, -2.437500000000, -4.148437500000, 1491818693
0.120605468750, -0.907226562500, 0.187500000000, -1.703125000000, -2.437500000000, -4.148437500000, 1491818693
0.120605468750, -0.907226562500, 0.187500000000, -1.703125000000, -2.437500000000, -4.148437500000, 1491818693
0.120605468750, -0.907226562500, 0.187500000000, -1.703125000000, -2.437500000000, -4.148437500000, 1491818693
0.210449218750, -0.962646484375, 0.230224609375, -4.882812500000, 0.492187500000, -0.132812500000, 1491818693
0.269531250000, -0.938964843750, 0.226318359375, -2.875000000000, -1.914062500000, -1.812500000000, 1491818693
0.269531250000, -0.938964843750, 0.226318359375, -2.875000000000, -1.914062500000, -1.812500000000, 1491818693
0.269531250000, -0.938964843750, 0.226318359375, -2.875000000000, -1.914062500000, -1.812500000000, 1491818693
0.253173828125, -0.915283203125, 0.178466796875, 0.101562500000, -4.421875000000, -4.468750000000, 1491818693
0.253173828125, -0.915283203125, 0.178466796875, 0.101562500000, -4.421875000000, -4.468750000000, 1491818693
0.253173828125, -0.915283203125, 0.178466796875, 0.101562500000, -4.421875000000, -4.468750000000, 1491818693
0.253173828125, -0.915283203125, 0.178466796875, 0.101562500000, -4.421875000000, -4.468750000000, 1491818693
0.119384765625, -0.851074218750, 0.262207031250, -2.703125000000, -1.179687500000, -2.359375000000, 1491818693
0.119384765625, -0.851074218750, 0.262207031250, -2.703125000000, -1.179687500000, -2.359375000000, 1491818693
0.119384765625, -0.851074218750, 0.262207031250, -2.703125000000, -1.179687500000, -2.359375000000, 1491818693
0.159179687500, -0.874755859375, 0.260498046875, -1.906250000000, -4.820312500000, -4.546875000000, 1491818693
0.159179687500, -0.874755859375, 0.260498046875, -1.906250000000, -4.820312500000, -4.546875000000, 1491818693
0.159179687500, -0.874755859375, 0.260498046875, -1.906250000000, -4.820312500000, -4.546875000000, 1491818693
0.210449218750, -0.966064453125, 0.232177734375, -3.585937500000, 2.132812500000, -6.890625000000, 1491818693
0.210449218750, -0.966064453125, 0.232177734375, -3.585937500000, 2.132812500000, -6.890625000000, 1491818693
0.210449218750, -0.966064453125, 0.232177734375, -3.585937500000, 2.132812500000, -6.890625000000, 1491818693
0.099853515625, -0.958984375000, 0.234130859375, -6.335937500000, 1.007812500000, -2.484375000000, 1491818693
0.099853515625, -0.958984375000, 0.234130859375, -6.335937500000, 1.007812500000, -2.484375000000, 1491818693
0.099853515625, -0.958984375000, 0.234130859375, -6.335937500000, 1.007812500000, -2.484375000000, 1491818693
0.099853515625, -0.958984375000, 0.234130859375, -6.335937500000, 1.007812500000, -2.484375000000, 1491818693
0.197509765625, -0.917968750000, 0.157226562500, -6.156250000000, 0.671875000000, -6.875000000000, 1491818693
0.197509765625, -0.917968750000, 0.157226562500, -6.156250000000, 0.671875000000, -6.875000000000, 1491818693
0.197509765625, -0.917968750000, 0.157226562500, -6.156250000000, 0.671875000000, -6.875000000000, 1491818693
0.176025390625, -0.949218750000, 0.216064453125, -6.226562500000, 0.460937500000, -2.312500000000, 1491818693
0.176025390625, -0.949218750000, 0.216064453125, -6.226562500000, 0.460937500000, -2.312500000000, 1491818693
0.176025390625, -0.949218750000, 0.216064453125, -6.226562500000, 0.460937500000, -2.312500000000, 1491818693
0.112060546875, -0.923095703125, 0.169189453125, -4.968750000000, 0.554687500000, -2.273437500000, 1491818693
0.112060546875, -0.923095703125, 0.169189453125, -4.968750000000, 0.554687500000, -2.273437500000, 1491818693
0.112060546875, -0.923095703125, 0.169189453125, -4.968750000000, 0.554687500000, -2.273437500000, 1491818693
0.253662109375, -0.906738281250, 0.174072265625, -6.640625000000, -0.250000000000, -1.648437500000, 1491818693
0.253662109375, -0.906738281250, 0.174072265625, -6.640625000000, -0.250000000000, -1.648437500000, 1491818693
0.253662109375, -0.906738281250, 0.174072265625, -6.640625000000, -0.250000000000, -1.648437500000, 1491818693
0.253662109375, -0.906738281250, 0.174072265625, -6.640625000000, -0.250000000000, -1.648437500000, 1491818693
0.229003906250, -0.954345703125, 0.217773437500, -3.835937500000, 2.593750000000, -4.015625000000, 1491818694
0.229003906250, -0.954345703125, 0.217773437500, -3.835937500000, 2.593750000000, -4.015625000000, 1491818694
0.229003906250, -0.954345703125, 0.217773437500, -3.835937500000, 2.593750000000, -4.015625000000, 1491818694
0.200439453125, -1.002197265625, 0.209228515625, -6.210937500000, 0.851562500000, -1.679687500000, 1491818694
0.200439453125, -1.002197265625, 0.209228515625, -6.210937500000, 0.851562500000, -1.679687500000, 1491818694
0.200439453125, -1.002197265625, 0.209228515625, -6.210937500000, 0.851562500000, -1.679687500000, 1491818694
0.206298828125, -0.875732421875, 0.181152343750, 0.617187500000, 11.390625000000, 3.039062500000, 1491818694
0.206298828125, -0.875732421875, 0.181152343750, 0.617187500000, 11.390625000000, 3.039062500000, 1491818694
0.206298828125, -0.875732421875, 0.181152343750, 0.617187500000, 11.390625000000, 3.039062500000, 1491818694
0.296142578125, -1.026123046875, 0.240966796875, 4.132812500000, 10.601562500000, -13.359375000000, 1491818694
0.296142578125, -1.026123046875, 0.240966796875, 4.132812500000, 10.601562500000, -13.359375000000, 1491818694
0.296142578125, -1.026123046875, 0.240966796875, 4.132812500000, 10.601562500000, -13.359375000000, 1491818694
0.296142578125, -1.026123046875, 0.240966796875, 4.132812500000, 10.601562500000, -13.359375000000, 1491818694
0.386230468750, -1.013183593750, 0.383544921875, 17.367187500000, 20.062500000000, -13.414062500000, 1491818694
0.386230468750, -1.013183593750, 0.383544921875, 17.367187500000, 20.062500000000, -13.414062500000, 1491818694
0.386230468750, -1.013183593750, 0.383544921875, 17.367187500000, 20.062500000000, -13.414062500000, 1491818694
0.504882812500, -0.920166015625, 0.451660156250, 48.906250000000, 47.382812500000, 7.867187500000, 1491818694
0.504882812500, -0.920166015625, 0.451660156250, 48.906250000000, 47.382812500000, 7.867187500000, 1491818694
0.504882812500, -0.920166015625, 0.451660156250, 48.906250000000, 47.382812500000, 7.867187500000, 1491818694
0.347900390625, -0.906005859375, 0.508056640625, 90.054687500000, -7.070312500000, -17.882812500000, 1491818694
0.347900390625, -0.906005859375, 0.508056640625, 90.054687500000, -7.070312500000, -17.882812500000, 1491818694
0.347900390625, -0.906005859375, 0.508056640625, 90.054687500000, -7.070312500000, -17.882812500000, 1491818694
0.666015625000, -0.705078125000, 0.613525390625, -1.359375000000, 17.523437500000, -45.000000000000, 1491818694
0.666015625000, -0.705078125000, 0.613525390625, -1.359375000000, 17.523437500000, -45.000000000000, 1491818694
0.666015625000, -0.705078125000, 0.613525390625, -1.359375000000, 17.523437500000, -45.000000000000, 1491818694
0.666015625000, -0.705078125000, 0.613525390625, -1.359375000000, 17.523437500000, -45.000000000000, 1491818694
0.305175781250, -0.544189453125, 0.417724609375, -2.750000000000, 14.710937500000, -28.765625000000, 1491818694
0.305175781250, -0.544189453125, 0.417724609375, -2.750000000000, 14.710937500000, -28.765625000000, 1491818694
0.305175781250, -0.544189453125, 0.417724609375, -2.750000000000, 14.710937500000, -28.765625000000, 1491818694
0.305175781250, -0.544189453125, 0.417724609375, -2.750000000000, 14.710937500000, -28.765625000000, 1491818694
0.122558593750, -0.688720703125, 0.280761718750, -24.953125000000, -8.007812500000, -31.476562500000, 1491818694
0.122558593750, -0.688720703125, 0.280761718750, -24.953125000000, -8.007812500000, -31.476562500000, 1491818694
0.122558593750, -0.688720703125, 0.280761718750, -24.953125000000, -8.007812500000, -31.476562500000, 1491818694
0.122558593750, -0.688720703125, 0.280761718750, -24.953125000000, -8.007812500000, -31.476562500000, 1491818694
0.122558593750, -0.688720703125, 0.280761718750, -24.953125000000, -8.007812500000, -31.476562500000, 1491818694
0.169677734375, -0.648681640625, 0.044677734375, -19.101562500000, -64.664062500000, -74.335937500000, 1491818694
0.169677734375, -0.648681640625, 0.044677734375, -19.101562500000, -64.664062500000, -74.335937500000, 1491818694
0.169677734375, -0.648681640625, 0.044677734375, -19.101562500000, -64.664062500000, -74.335937500000, 1491818694
0.169677734375, -0.648681640625, 0.044677734375, -19.101562500000, -64.664062500000, -74.335937500000, 1491818694
0.142822265625, -0.635742187500, 0.099365234375, -6.929687500000, -9.468750000000, -9.000000000000, 1491818694
0.142822265625, -0.635742187500, 0.099365234375, -6.929687500000, -9.468750000000, -9.000000000000, 1491818694
0.142822265625, -0.635742187500, 0.099365234375, -6.929687500000, -9.468750000000, -9.000000000000, 1491818694
0.007568359375, -0.211914062500, 0.087158203125, -47.890625000000, 41.007812500000, -10.851562500000, 1491818694
0.007568359375, -0.211914062500, 0.087158203125, -47.890625000000, 41.007812500000, -10.851562500000, 1491818694
0.007568359375, -0.211914062500, 0.087158203125, -47.890625000000, 41.007812500000, -10.851562500000, 1491818694
-0.043212890625, -0.164794921875, 0.174072265625, -31.695312500000, 84.250000000000, 27.296875000000, 1491818694
-0.043212890625, -0.164794921875, 0.174072265625, -31.695312500000, 84.250000000000, 27.296875000000, 1491818694
-0.043212890625, -0.164794921875, 0.174072265625, -31.695312500000, 84.250000000000, 27.296875000000, 1491818694
0.093750000000, -0.211669921875, -0.027099609375, -68.953125000000, 69.296875000000, -23.953125000000, 1491818694
0.093750000000, -0.211669921875, -0.027099609375, -68.953125000000, 69.296875000000, -23.953125000000, 1491818694
0.093750000000, -0.211669921875, -0.027099609375, -68.953125000000, 69.296875000000, -23.953125000000, 1491818694
0.093750000000, -0.211669921875, -0.027099609375, -68.953125000000, 69.296875000000, -23.953125000000, 1491818694
-0.001708984375, -0.049560546875, -0.138671875000, -75.843750000000, 121.656250000000, -23.046875000000, 1491818694
-0.001708984375, -0.049560546875, -0.138671875000, -75.843750000000, 121.656250000000, -23.046875000000, 1491818694
-0.001708984375, -0.049560546875, -0.138671875000, -75.843750000000, 121.656250000000, -23.046875000000, 1491818694
-0.005371093750, -0.141357421875, -0.061767578125, -60.250000000000, 253.992187500000, 19.914062500000, 1491818694
-0.005371093750, -0.141357421875, -0.061767578125, -60.250000000000, 253.992187500000, 19.914062500000, 1491818694
-0.005371093750, -0.141357421875, -0.061767578125, -60.250000000000, 253.992187500000, 19.914062500000, 1491818694
0.127441406250, -0.126464843750, -0.227783203125, -6.476562500000, 202.906250000000, 49.945312500000, 1491818694
0.127441406250, -0.126464843750, -0.227783203125, -6.476562500000, 202.906250000000, 49.945312500000, 1491818694
0.127441406250, -0.126464843750, -0.227783203125, -6.476562500000, 202.906250000000, 49.945312500000, 1491818694
-0.105957031250, -0.687988281250, 0.039550781250, 198.437500000000, -127.585937500000, -9.132812500000, 1491818694
-0.105957031250, -0.687988281250, 0.039550781250, 198.437500000000, -127.585937500000, -9.132812500000, 1491818694
-0.105957031250, -0.687988281250, 0.039550781250, 198.437500000000, -127.585937500000, -9.132812500000, 1491818694
-0.105957031250, -0.687988281250, 0.039550781250, 198.437500000000, -127.585937500000, -9.132812500000, 1491818694
-0.989257812500, -3.215576171875, -0.233886718750, 253.992187500000, -16.179687500000, 80.031250000000, 1491818694
-0.989257812500, -3.215576171875, -0.233886718750, 253.992187500000, -16.179687500000, 80.031250000000, 1491818694
-0.989257812500, -3.215576171875, -0.233886718750, 253.992187500000, -16.179687500000, 80.031250000000, 1491818694
-0.367919921875, -2.646484375000, 0.092529296875, 236.875000000000, -256.000000000000, -19.835937500000, 1491818695
-0.367919921875, -2.646484375000, 0.092529296875, 236.875000000000, -256.000000000000, -19.835937500000, 1491818695
-0.367919921875, -2.646484375000, 0.092529296875, 236.875000000000, -256.000000000000, -19.835937500000, 1491818695
0.781494140625, -0.631591796875, -0.296142578125, 103.007812500000, -256.000000000000, -256.000000000000, 1491818695
0.781494140625, -0.631591796875, -0.296142578125, 103.007812500000, -256.000000000000, -256.000000000000, 1491818695
0.781494140625, -0.631591796875, -0.296142578125, 103.007812500000, -256.000000000000, -256.000000000000, 1491818695
0.395751953125, 0.072509765625, -1.289550781250, 109.718750000000, -192.429687500000, -12.531250000000, 1491818695
0.395751953125, 0.072509765625, -1.289550781250, 109.718750000000, -192.429687500000, -12.531250000000, 1491818695
0.395751953125, 0.072509765625, -1.289550781250, 109.718750000000, -192.429687500000, -12.531250000000, 1491818695
0.395751953125, 0.072509765625, -1.289550781250, 109.718750000000, -192.429687500000, -12.531250000000, 1491818695
-1.037841796875, -0.703125000000, -2.215820312500, 253.992187500000, 121.937500000000, 44.289062500000, 1491818695
-1.037841796875, -0.703125000000, -2.215820312500, 253.992187500000, 121.937500000000, 44.289062500000, 1491818695
-0.430175781250, -0.362548828125, -2.758300781250, 253.992187500000, -31.554687500000, 124.664062500000, 1491818695
-0.159667968750, -0.165771484375, -0.205810546875, -256.000000000000, -36.335937500000, 244.429687500000, 1491818695
-0.159667968750, -0.165771484375, -0.205810546875, -256.000000000000, -36.335937500000, 244.429687500000, 1491818695
-0.159667968750, -0.165771484375, -0.205810546875, -256.000000000000, -36.335937500000, 244.429687500000, 1491818695
-0.068359375000, -0.093505859375, -0.250488281250, -227.968750000000, 54.007812500000, 155.062500000000, 1491818695
-0.068359375000, -0.093505859375, -0.250488281250, -227.968750000000, 54.007812500000, 155.062500000000, 1491818695
-0.068359375000, -0.093505859375, -0.250488281250, -227.968750000000, 54.007812500000, 155.062500000000, 1491818695
-0.209472656250, -0.232666015625, 0.253173828125, -116.125000000000, -256.000000000000, -111.210937500000, 1491818695
-0.209472656250, -0.232666015625, 0.253173828125, -116.125000000000, -256.000000000000, -111.210937500000, 1491818695
-0.209472656250, -0.232666015625, 0.253173828125, -116.125000000000, -256.000000000000, -111.210937500000, 1491818695
-0.209472656250, -0.232666015625, 0.253173828125, -116.125000000000, -256.000000000000, -111.210937500000, 1491818695
0.044677734375, 0.258300781250, -0.251708984375, -53.218750000000, 48.617187500000, -118.039062500000, 1491818695
0.044677734375, 0.258300781250, -0.251708984375, -53.218750000000, 48.617187500000, -118.039062500000, 1491818695
0.044677734375, 0.258300781250, -0.251708984375, -53.218750000000, 48.617187500000, -118.039062500000, 1491818695
-0.057373046875, 0.072265625000, 0.042968750000, -48.867187500000, -43.640625000000, 253.992187500000, 1491818695
-0.057373046875, 0.072265625000, 0.042968750000, -48.867187500000, -43.640625000000, 253.992187500000, 1491818695
-0.057373046875, 0.072265625000, 0.042968750000, -48.867187500000, -43.640625000000, 253.992187500000, 1491818695
-1.160156250000, -2.626464843750, -4.343750000000, 253.992187500000, -256.000000000000, -108.156250000000, 1491818695
-1.160156250000, -2.626464843750, -4.343750000000, 253.992187500000, -256.000000000000, -108.156250000000, 1491818695
-1.160156250000, -2.626464843750, -4.343750000000, 253.992187500000, -256.000000000000, -108.156250000000, 1491818695
-0.626708984375, -0.927734375000, -0.523925781250, 169.554687500000, 46.781250000000, 159.007812500000, 1491818695
-0.626708984375, -0.927734375000, -0.523925781250, 169.554687500000, 46.781250000000, 159.007812500000, 1491818695
-0.626708984375, -0.927734375000, -0.523925781250, 169.554687500000, 46.781250000000, 159.007812500000, 1491818695
-0.879150390625, -1.293212890625, -0.693847656250, -83.898437500000, 68.976562500000, 109.835937500000, 1491818695
-0.879150390625, -1.293212890625, -0.693847656250, -83.898437500000, 68.976562500000, 109.835937500000, 1491818695
-0.879150390625, -1.293212890625, -0.693847656250, -83.898437500000, 68.976562500000, 109.835937500000, 1491818695
-0.879150390625, -1.293212890625, -0.693847656250, -83.898437500000, 68.976562500000, 109.835937500000, 1491818695
-0.603271484375, -1.042968750000, -0.792480468750, 88.945312500000, -80.382812500000, 49.007812500000, 1491818695
-0.603271484375, -1.042968750000, -0.792480468750, 88.945312500000, -80.382812500000, 49.007812500000, 1491818695
-0.603271484375, -1.042968750000, -0.792480468750, 88.945312500000, -80.382812500000, 49.007812500000, 1491818695
-0.233886718750, 0.013427734375, -0.504150390625, -95.312500000000, -38.929687500000, 7.679687500000, 1491818695
-0.233886718750, 0.013427734375, -0.504150390625, -95.312500000000, -38.929687500000, 7.679687500000, 1491818695
-0.233886718750, 0.013427734375, -0.504150390625, -95.312500000000, -38.929687500000, 7.679687500000, 1491818695
-0.233886718750, 0.013427734375, -0.504150390625, -95.312500000000, -38.929687500000, 7.679687500000, 1491818695
-0.233886718750, 0.013427734375, -0.504150390625, -95.312500000000, -38.929687500000, 7.679687500000, 1491818695
-0.006591796875, -0.974121093750, 0.014892578125, -140.828125000000, 50.828125000000, -19.570312500000, 1491818695
-0.006591796875, -0.974121093750, 0.014892578125, -140.828125000000, 50.828125000000, -19.570312500000, 1491818695
-0.006591796875, -0.974121093750, 0.014892578125, -140.828125000000, 50.828125000000, -19.570312500000, 1491818695
-0.006591796875, -0.974121093750, 0.014892578125, -140.828125000000, 50.828125000000, -19.570312500000, 1491818695
-0.006591796875, -0.974121093750, 0.014892578125, -140.828125000000, 50.828125000000, -19.570312500000, 1491818695
0.198242187500, -0.888427734375, -0.260742187500, -31.382812500000, -12.031250000000, 12.140625000000, 1491818695
0.198242187500, -0.888427734375, -0.260742187500, -31.382812500000, -12.031250000000, 12.140625000000, 1491818695
0.198242187500, -0.888427734375, -0.260742187500, -31.382812500000, -12.031250000000, 12.140625000000, 1491818695
0.114990234375, -0.634521484375, -0.127197265625, 51.585937500000, -256.000000000000, 17.867187500000, 1491818695
0.119140625000, -0.978271484375, -0.061035156250, 8.039062500000, 47.039062500000, 64.117187500000, 1491818695
0.119140625000, -0.978271484375, -0.061035156250, 8.039062500000, 47.039062500000, 64.117187500000, 1491818695
0.119140625000, -0.978271484375, -0.061035156250, 8.039062500000, 47.039062500000, 64.117187500000, 1491818695
0.210449218750, -1.063476562500, -0.196289062500, 16.710937500000, 38.070312500000, 51.148437500000, 1491818695
0.040527343750, -1.134033203125, -0.388427734375, -8.804687500000, -23.078125000000, -0.085937500000, 1491818695
0.040527343750, -1.134033203125, -0.388427734375, -8.804687500000, -23.078125000000, -0.085937500000, 1491818695
0.040527343750, -1.134033203125, -0.388427734375, -8.804687500000, -23.078125000000, -0.085937500000, 1491818695
0.040527343750, -1.134033203125, -0.388427734375, -8.804687500000, -23.078125000000, -0.085937500000, 1491818695
0.040527343750, -1.134033203125, -0.388427734375, -8.804687500000, -23.078125000000, -0.085937500000, 1491818695
-0.065673828125, -0.877441406250, -0.379150390625, -45.382812500000, -20.945312500000, -100.015625000000, 1491818696
-0.065673828125, -0.877441406250, -0.379150390625, -45.382812500000, -20.945312500000, -100.015625000000, 1491818696
-0.065673828125, -0.877441406250, -0.379150390625, -45.382812500000, -20.945312500000, -100.015625000000, 1491818696
-0.245117187500, -0.948242187500, -0.190917968750, -35.375000000000, 21.148437500000, -65.984375000000, 1491818696
-0.245117187500, -0.948242187500, -0.190917968750, -35.375000000000, 21.148437500000, -65.984375000000, 1491818696
-0.245117187500, -0.948242187500, -0.190917968750, -35.375000000000, 21.148437500000, -65.984375000000, 1491818696
-0.320556640625, -1.016845703125, -0.382568359375, 0.226562500000, 111.460937500000, 13.257812500000, 1491818696
-0.320556640625, -1.016845703125, -0.382568359375, 0.226562500000, 111.460937500000, 13.257812500000, 1491818696
-0.320556640625, -1.016845703125, -0.382568359375, 0.226562500000, 111.460937500000, 13.257812500000, 1491818696
-0.320556640625, -1.016845703125, -0.382568359375, 0.226562500000, 111.460937500000, 13.257812500000, 1491818696
-0.193603515625, -0.608642578125, -0.397460937500, -34.718750000000, 150.406250000000, 61.929687500000, 1491818696
-0.193603515625, -0.608642578125, -0.397460937500, -34.718750000000, 150.406250000000, 61.929687500000, 1491818696
-0.193603515625, -0.608642578125, -0.397460937500, -34.718750000000, 150.406250000000, 61.929687500000, 1491818696
-0.047607421875, -0.708496093750, -0.231689453125, -0.500000000000, 119.406250000000, 75.851562500000, 1491818696
-0.047607421875, -0.708496093750, -0.231689453125, -0.500000000000, 119.406250000000, 75.851562500000, 1491818696
-0.181152343750, -0.998779296875, -0.152099609375, -54.617187500000, 50.742187500000, 58.476562500000, 1491818696
-0.181152343750, -0.998779296875, -0.152099609375, -54.617187500000, 50.742187500000, 58.476562500000, 1491818696
-0.181152343750, -0.998779296875, -0.152099609375, -54.617187500000, 50.742187500000, 58.476562500000, 1491818696
0.148925781250, -0.785400390625, -0.469970703125, 40.343750000000, 46.304687500000, 26.445312500000, 1491818696
0.148925781250, -0.785400390625, -0.469970703125, 40.343750000000, 46.304687500000, 26.445312500000, 1491818696
0.148925781250, -0.785400390625, -0.469970703125, 40.343750000000, 46.304687500000, 26.445312500000, 1491818696
0.148925781250, -0.785400390625, -0.469970703125, 40.343750000000, 46.304687500000, 26.445312500000, 1491818696
0.132080078125, -1.253173828125, 0.024902343750, -23.906250000000, 29.531250000000, -38.656250000000, 1491818696
0.132080078125, -1.253173828125, 0.024902343750, -23.906250000000, 29.531250000000, -38.656250000000, 1491818696
0.132080078125, -1.253173828125, 0.024902343750, -23.906250000000, 29.531250000000, -38.656250000000, 1491818696
0.132080078125, -1.253173828125, 0.024902343750, -23.906250000000, 29.531250000000, -38.656250000000, 1491818696
0.016113281250, -1.155761718750, -0.209228515625, -10.500000000000, 51.960937500000, -10.812500000000, 1491818696
0.016113281250, -1.155761718750, -0.209228515625, -10.500000000000, 51.960937500000, -10.812500000000, 1491818696
0.016113281250, -1.155761718750, -0.209228515625, -10.500000000000, 51.960937500000, -10.812500000000, 1491818696
-0.106445312500, -0.596923828125, -0.177978515625, 19.515625000000, -1.359375000000, 36.148437500000, 1491818696
-0.106445312500, -0.596923828125, -0.177978515625, 19.515625000000, -1.359375000000, 36.148437500000, 1491818696
-0.106445312500, -0.596923828125, -0.177978515625, 19.515625000000, -1.359375000000, 36.148437500000, 1491818696
0.020751953125, -1.085205078125, -0.112548828125, 0.921875000000, -21.078125000000, 0.835937500000, 1491818696
0.020751953125, -1.085205078125, -0.112548828125, 0.921875000000, -21.078125000000, 0.835937500000, 1491818696
0.020751953125, -1.085205078125, -0.112548828125, 0.921875000000, -21.078125000000, 0.835937500000, 1491818696
0.020751953125, -1.085205078125, -0.112548828125, 0.921875000000, -21.078125000000, 0.835937500000, 1491818696
0.138916015625, -0.900878906250, -0.219726562500, -9.929687500000, -8.953125000000, -19.242187500000, 1491818696
0.138916015625, -0.900878906250, -0.219726562500, -9.929687500000, -8.953125000000, -19.242187500000, 1491818696
0.138916015625, -0.900878906250, -0.219726562500, -9.929687500000, -8.953125000000, -19.242187500000, 1491818696
-0.006103515625, -0.447509765625, -0.325683593750, 4.695312500000, 10.625000000000, 54.679687500000, 1491818696
-0.006103515625, -0.447509765625, -0.325683593750, 4.695312500000, 10.625000000000, 54.679687500000, 1491818696
-0.006103515625, -0.447509765625, -0.325683593750, 4.695312500000, 10.625000000000, 54.679687500000, 1491818696
-0.316650390625, -1.478759765625, -0.319580078125, -18.187500000000, 37.890625000000, -18.000000000000, 1491818696
-0.316650390625, -1.478759765625, -0.319580078125, -18.187500000000, 37.890625000000, -18.000000000000, 1491818696
-0.316650390625, -1.478759765625, -0.319580078125, -18.187500000000, 37.890625000000, -18.000000000000, 1491818696
-0.053710937500, -1.005126953125, -0.216552734375, -18.492187500000, 0.539062500000, -29.898437500000, 1491818696
-0.053710937500, -1.005126953125, -0.216552734375, -18.492187500000, 0.539062500000, -29.898437500000, 1491818696
-0.053710937500, -1.005126953125, -0.216552734375, -18.492187500000, 0.539062500000, -29.898437500000, 1491818696
-0.053710937500, -1.005126953125, -0.216552734375, -18.492187500000, 0.539062500000, -29.898437500000, 1491818696
0.013183593750, -0.847412109375, -0.263183593750, -10.835937500000, 2.921875000000, -5.992187500000, 1491818696
0.013183593750, -0.847412109375, -0.263183593750, -10.835937500000, 2.921875000000, -5.992187500000, 1491818696
0.013183593750, -0.847412109375, -0.263183593750, -10.835937500000, 2.921875000000, -5.992187500000, 1491818696
-0.114501953125, -0.868652343750, -0.183837890625, -5.492187500000, -1.968750000000, -11.609375000000, 1491818696
-0.114501953125, -0.868652343750, -0.183837890625, -5.492187500000, -1.968750000000, -11.609375000000, 1491818696
-0.114501953125, -0.868652343750, -0.183837890625, -5.492187500000, -1.968750000000, -11.609375000000, 1491818696
-0.048828125000, -0.993652343750, -0.260009765625, -5.054687500000, -4.382812500000, -5.593750000000, 1491818696
-0.048828125000, -0.993652343750, -0.260009765625, -5.054687500000, -4.382812500000, -5.593750000000, 1491818696
-0.048828125000, -0.993652343750, -0.260009765625, -5.054687500000, -4.382812500000, -5.593750000000, 1491818696
0.013427734375, -0.900634765625, -0.232421875000, -4.398437500000, -2.328125000000, 0.156250000000, 1491818696
0.013427734375, -0.900634765625, -0.232421875000, -4.398437500000, -2.328125000000, 0.156250000000, 1491818696
0.013427734375, -0.900634765625, -0.232421875000, -4.398437500000, -2.328125000000, 0.156250000000, 1491818696
0.013427734375, -0.900634765625, -0.232421875000, -4.398437500000, -2.328125000000, 0.156250000000, 1491818696
-0.071777343750, -0.932617187500, -0.259033203125, 2.929687500000, -0.335937500000, 0.679687500000, 1491818696
-0.071777343750, -0.932617187500, -0.259033203125, 2.929687500000, -0.335937500000, 0.679687500000, 1491818696
-0.071777343750, -0.932617187500, -0.259033203125, 2.929687500000, -0.335937500000, 0.679687500000, 1491818696
-0.066650390625, -1.011962890625, -0.257324218750, 6.640625000000, 12.585937500000, -6.578125000000, 1491818696
-0.066650390625, -1.011962890625, -0.257324218750, 6.640625000000, 12.585937500000, -6.578125000000, 1491818696
-0.066650390625, -1.011962890625, -0.257324218750, 6.640625000000, 12.585937500000, -6.578125000000, 1491818696
-0.060302734375, -1.008544921875, -0.266845703125, 8.656250000000, 11.398437500000, -2.148437500000, 1491818697
-0.060302734375, -1.008544921875, -0.266845703125, 8.656250000000, 11.398437500000, -2.148437500000, 1491818697
-0.060302734375, -1.008544921875, -0.266845703125, 8.656250000000, 11.398437500000, -2.148437500000, 1491818697
-0.039794921875, -0.917724609375, -0.159423828125, -0.648437500000, 18.656250000000, 5.671875000000, 1491818697
-0.039794921875, -0.917724609375, -0.159423828125, -0.648437500000, 18.656250000000, 5.671875000000, 1491818697
-0.039794921875, -0.917724609375, -0.159423828125, -0.648437500000, 18.656250000000, 5.671875000000, 1491818697
-0.039794921875, -0.917724609375, -0.159423828125, -0.648437500000, 18.656250000000, 5.671875000000, 1491818697
-0.010742187500, -0.950195312500, -0.184814453125, -24.023437500000, 17.132812500000, 14.765625000000, 1491818697
-0.010742187500, -0.950195312500, -0.184814453125, -24.023437500000, 17.132812500000, 14.765625000000, 1491818697
-0.010742187500, -0.950195312500, -0.184814453125, -24.023437500000, 17.132812500000, 14.765625000000, 1491818697
-0.002197265625, -0.954345703125, -0.335937500000, -25.242187500000, 25.023437500000, 12.437500000000, 1491818697
-0.002197265625, -0.954345703125, -0.335937500000, -25.242187500000, 25.023437500000, 12.437500000000, 1491818697
-0.002197265625, -0.954345703125, -0.335937500000, -25.242187500000, 25.023437500000, 12.437500000000, 1491818697
-0.019042968750, -0.925781250000, -0.260742187500, -3.085937500000, 15.710937500000, -12.125000000000, 1491818697
-0.019042968750, -0.925781250000, -0.260742187500, -3.085937500000, 15.710937500000, -12.125000000000, 1491818697
-0.019042968750, -0.925781250000, -0.260742187500, -3.085937500000, 15.710937500000, -12.125000000000, 1491818697
-0.050292968750, -0.913818359375, -0.176513671875, -6.421875000000, 6.468750000000, -11.554687500000, 1491818697
-0.050292968750, -0.913818359375, -0.176513671875, -6.421875000000, 6.468750000000, -11.554687500000, 1491818697
-0.050292968750, -0.913818359375, -0.176513671875, -6.421875000000, 6.468750000000, -11.554687500000, 1491818697
-0.050292968750, -0.913818359375, -0.176513671875, -6.421875000000, 6.468750000000, -11.554687500000, 1491818697
0.010009765625, -0.976806640625, -0.175781250000, -10.679687500000, 3.109375000000, -8.132812500000, 1491818697
0.010009765625, -0.976806640625, -0.175781250000, -10.679687500000, 3.109375000000, -8.132812500000, 1491818697
0.010009765625, -0.976806640625, -0.175781250000, -10.679687500000, 3.109375000000, -8.132812500000, 1491818697
0.005859375000, -0.967529296875, -0.252441406250, -16.664062500000, -1.117187500000, 2.671875000000, 1491818697
0.005859375000, -0.967529296875, -0.252441406250, -16.664062500000, -1.117187500000, 2.671875000000, 1491818697
0.005859375000, -0.967529296875, -0.252441406250, -16.664062500000, -1.117187500000, 2.671875000000, 1491818697
-0.049072265625, -0.958251953125, -0.267089843750, -5.273437500000, 3.515625000000, -1.851562500000, 1491818697
-0.049072265625, -0.958251953125, -0.267089843750, -5.273437500000, 3.515625000000, -1.851562500000, 1491818697
-0.049072265625, -0.958251953125, -0.267089843750, -5.273437500000, 3.515625000000, -1.851562500000, 1491818697
-0.090087890625, -0.856689453125, -0.190917968750, -5.476562500000, 4.312500000000, -5.429687500000, 1491818697
-0.090087890625, -0.856689453125, -0.190917968750, -5.476562500000, 4.312500000000, -5.429687500000, 1491818697
-0.090087890625, -0.856689453125, -0.190917968750, -5.476562500000, 4.312500000000, -5.429687500000, 1491818697
-0.062500000000, -1.011962890625, -0.209716796875, -2.179687500000, 3.210937500000, -8.671875000000, 1491818697
-0.062500000000, -1.011962890625, -0.209716796875, -2.179687500000, 3.210937500000, -8.671875000000, 1491818697
-0.062500000000, -1.011962890625, -0.209716796875, -3.531250000000, -0.054687500000, -2.000000000000, 1491818697
-0.020263671875, -0.862060546875, -0.269775390625, -6.656250000000, 2.960937500000, -7.015625000000, 1491818697
-0.020263671875, -0.862060546875, -0.269775390625, -6.656250000000, 2.960937500000, -7.015625000000, 1491818697
-0.020263671875, -0.862060546875, -0.269775390625, -6.656250000000, 2.960937500000, -7.015625000000, 1491818697
-0.020263671875, -0.862060546875, -0.269775390625, -6.656250000000, 2.960937500000, -7.015625000000, 1491818697
0.008300781250, -0.927734375000, -0.268066406250, -3.945312500000, -0.562500000000, -6.398437500000, 1491818697
0.008300781250, -0.927734375000, -0.268066406250, -3.945312500000, -0.562500000000, -6.398437500000, 1491818697
0.008300781250, -0.927734375000, -0.268066406250, -3.945312500000, -0.562500000000, -6.398437500000, 1491818697
0.024169921875, -1.007812500000, -0.197265625000, -6.062500000000, 0.492187500000, -6.429687500000, 1491818697
0.024169921875, -1.007812500000, -0.197265625000, -6.062500000000, 0.492187500000, -6.429687500000, 1491818697
0.024169921875, -1.007812500000, -0.197265625000, -6.062500000000, 0.492187500000, -6.429687500000, 1491818697
0.024169921875, -1.007812500000, -0.197265625000, -6.062500000000, 0.492187500000, -6.429687500000, 1491818697
-0.012451171875, -0.995361328125, -0.253417968750, -3.156250000000, -0.250000000000, -4.406250000000, 1491818697
-0.012451171875, -0.995361328125, -0.253417968750, -3.156250000000, -0.250000000000, -4.406250000000, 1491818697
-0.012451171875, -0.995361328125, -0.253417968750, -3.156250000000, -0.250000000000, -4.406250000000, 1491818697
-0.010498046875, -0.873046875000, -0.260009765625, -1.804687500000, 3.218750000000, -5.085937500000, 1491818697
-0.010498046875, -0.873046875000, -0.260009765625, -1.804687500000, 3.218750000000, -5.085937500000, 1491818697
-0.010498046875, -0.873046875000, -0.260009765625, -1.804687500000, 3.218750000000, -5.085937500000, 1491818697
0.009765625000, -0.939941406250, -0.167968750000, -5.062500000000, 4.000000000000, -1.500000000000, 1491818697
0.009765625000, -0.939941406250, -0.167968750000, -5.062500000000, 4.000000000000, -1.500000000000, 1491818697
0.009765625000, -0.939941406250, -0.167968750000, -5.062500000000, 4.000000000000, -1.500000000000, 1491818697
-0.079589843750, -0.908447265625, -0.177246093750, -4.789062500000, 4.757812500000, -4.757812500000, 1491818697
-0.079589843750, -0.908447265625, -0.177246093750, -4.789062500000, 4.757812500000, -4.757812500000, 1491818697
-0.079589843750, -0.908447265625, -0.177246093750, -4.789062500000, 4.757812500000, -4.757812500000, 1491818697
-0.079589843750, -0.908447265625, -0.177246093750, -4.789062500000, 4.757812500000, -4.757812500000, 1491818697
-0.079589843750, -0.908447265625, -0.177246093750, -4.789062500000, 4.757812500000, -4.757812500000, 1491818697
-0.079589843750, -0.908447265625, -0.177246093750, -4.789062500000, 4.757812500000, -4.757812500000, 1491818697
-0.042480468750, -1.011718750000, -0.257324218750, -4.695312500000, 3.656250000000, -7.140625000000, 1491818697
-0.042480468750, -1.011718750000, -0.257324218750, -4.695312500000, 3.656250000000, -7.140625000000, 1491818697
-0.042480468750, -1.011718750000, -0.257324218750, -4.695312500000, 3.656250000000, -7.140625000000, 1491818697
-0.042480468750, -1.011718750000, -0.257324218750, -4.695312500000, 3.656250000000, -7.140625000000, 1491818697
-0.084716796875, -0.858398437500, -0.336425781250, -4.109375000000, 2.585937500000, -3.656250000000, 1491818697
-0.084716796875, -0.858398437500, -0.336425781250, -4.109375000000, 2.585937500000, -3.656250000000, 1491818698
-0.084716796875, -0.858398437500, -0.336425781250, -4.109375000000, 2.585937500000, -3.656250000000, 1491818698
0.029785156250, -0.916748046875, -0.269287109375, -3.429687500000, -0.242187500000, -4.359375000000, 1491818698
0.001953125000, -0.912841796875, -0.214111328125, -2.812500000000, 4.460937500000, -1.726562500000, 1491818698
0.001953125000, -0.912841796875, -0.214111328125, -2.812500000000, 4.460937500000, -1.726562500000, 1491818698
-0.040527343750, -0.928710937500, -0.252929687500, -6.125000000000, 2.375000000000, -6.742187500000, 1491818698
-0.020019531250, -0.970458984375, -0.272460937500, -5.031250000000, -0.468750000000, -4.195312500000, 1491818698
-0.020019531250, -0.970458984375, -0.272460937500, -5.031250000000, -0.468750000000, -4.195312500000, 1491818698
0.037353515625, -0.965332031250, -0.275634765625, -4.679687500000, 0.953125000000, -3.281250000000, 1491818698
0.037353515625, -0.965332031250, -0.275634765625, -4.679687500000, 0.953125000000, -3.281250000000, 1491818698
0.037353515625, -0.965332031250, -0.275634765625, -4.679687500000, 0.953125000000, -3.281250000000, 1491818698
0.037353515625, -0.965332031250, -0.275634765625, -4.679687500000, 0.953125000000, -3.281250000000, 1491818698
0.037353515625, -0.965332031250, -0.275634765625, -4.679687500000, 0.953125000000, -3.281250000000, 1491818698
0.019287109375, -0.969482421875, -0.218750000000, -4.625000000000, -0.664062500000, 0.515625000000, 1491818698
0.019287109375, -0.969482421875, -0.218750000000, -4.625000000000, -0.664062500000, 0.515625000000, 1491818698
0.019287109375, -0.969482421875, -0.218750000000, -4.625000000000, -0.664062500000, 0.515625000000, 1491818698
0.019287109375, -0.969482421875, -0.218750000000, -4.625000000000, -0.664062500000, 0.515625000000, 1491818698
0.019287109375, -0.969482421875, -0.218750000000, -4.625000000000, -0.664062500000, 0.515625000000, 1491818698
0.003662109375, -0.931884765625, -0.262207031250, -4.500000000000, 2.835937500000, -1.421875000000, 1491818698
0.003662109375, -0.931884765625, -0.262207031250, -4.500000000000, 2.835937500000, -1.421875000000, 1491818698
0.003662109375, -0.931884765625, -0.262207031250, -4.500000000000, 2.835937500000, -1.421875000000, 1491818698
0.003662109375, -0.931884765625, -0.262207031250, -4.500000000000, 2.835937500000, -1.421875000000, 1491818698
-0.017822265625, -1.015869140625, -0.255371093750, -4.992187500000, -0.101562500000, -4.757812500000, 1491818698
-0.017822265625, -1.015869140625, -0.255371093750, -4.992187500000, -0.101562500000, -4.757812500000, 1491818698
-0.017822265625, -1.015869140625, -0.255371093750, -4.992187500000, -0.101562500000, -4.757812500000, 1491818698
0.012207031250, -0.904052734375, -0.163330078125, -3.640625000000, -0.359375000000, -2.640625000000, 1491818698
0.012207031250, -0.904052734375, -0.163330078125, -3.640625000000, -0.359375000000, -2.640625000000, 1491818698
0.012207031250, -0.904052734375, -0.163330078125, -3.640625000000, -0.359375000000, -2.640625000000, 1491818698
-0.063964843750, -1.007568359375, -0.261718750000, 0.773437500000, 1.273437500000, 0.546875000000, 1491818698
-0.063964843750, -1.007568359375, -0.261718750000, 0.773437500000, 1.273437500000, 0.546875000000, 1491818698
-0.063964843750, -1.007568359375, -0.261718750000, 0.773437500000, 1.273437500000, 0.546875000000, 1491818698
-0.063964843750, -1.007568359375, -0.261718750000, 0.773437500000, 1.273437500000, 0.546875000000, 1491818698
-0.071533203125, -0.925781250000, -0.271972656250, -4.265625000000, 0.335937500000, -0.468750000000, 1491818698
-0.071533203125, -0.925781250000, -0.271972656250, -4.265625000000, 0.335937500000, -0.468750000000, 1491818698
-0.071533203125, -0.925781250000, -0.271972656250, -4.265625000000, 0.335937500000, -0.468750000000, 1491818698
0.027343750000, -0.917480468750, -0.279785156250, -4.531250000000, -0.953125000000, 2.421875000000, 1491818698
0.027343750000, -0.917480468750, -0.279785156250, -4.531250000000, -0.953125000000, 2.421875000000, 1491818698
0.027343750000, -0.917480468750, -0.279785156250, -4.531250000000, -0.953125000000, 2.421875000000, 1491818698
0.022460937500, -1.003906250000, -0.279052734375, -4.445312500000, 0.367187500000, 2.265625000000, 1491818698
0.022460937500, -1.003906250000, -0.279052734375, -4.445312500000, 0.367187500000, 2.265625000000, 1491818698
0.022460937500, -1.003906250000, -0.279052734375, -4.445312500000, 0.367187500000, 2.265625000000, 1491818698
0.025146484375, -0.913085937500, -0.253417968750, -4.882812500000, 0.382812500000, -6.226562500000, 1491818698
0.025146484375, -0.913085937500, -0.253417968750, -4.882812500000, 0.382812500000, -6.226562500000, 1491818698
0.025146484375, -0.913085937500, -0.253417968750, -4.882812500000, 0.382812500000, -6.226562500000, 1491818698
0.025146484375, -0.913085937500, -0.253417968750, -4.882812500000, 0.382812500000, -6.226562500000, 1491818698
-0.014892578125, -1.001953125000, -0.203857421875, -4.507812500000, -0.117187500000, -2.257812500000, 1491818698
-0.014892578125, -1.001953125000, -0.203857421875, -4.507812500000, -0.117187500000, -2.257812500000, 1491818698
-0.014892578125, -1.001953125000, -0.203857421875, -4.507812500000, -0.117187500000, -2.257812500000, 1491818698
-0.014892578125, -1.001953125000, -0.203857421875, -4.507812500000, -0.117187500000, -2.257812500000, 1491818698
0.060058593750, -1.002197265625, -0.178222656250, -0.898437500000, 2.484375000000, 2.921875000000, 1491818698
-0.007080078125, -0.938720703125, -0.251708984375, -0.898437500000, 2.484375000000, 2.921875000000, 1491818698
-0.007080078125, -0.938720703125, -0.251708984375, -0.898437500000, 2.484375000000, 2.921875000000, 1491818698
-0.007080078125, -0.938720703125, -0.251708984375, -0.898437500000, 2.484375000000, 2.921875000000, 1491818698
-0.009033203125, -0.951660156250, -0.222412109375, -4.359375000000, -0.531250000000, -1.953125000000, 1491818698
-0.021728515625, -1.019287109375, -0.242919921875, -6.867187500000, -0.132812500000, -5.382812500000, 1491818698
-0.021728515625, -1.019287109375, -0.242919921875, -6.867187500000, -0.132812500000, -5.382812500000, 1491818698
-0.021728515625, -1.019287109375, -0.242919921875, -6.867187500000, -0.132812500000, -5.382812500000, 1491818698
-0.021728515625, -1.019287109375, -0.242919921875, -6.867187500000, -0.132812500000, -5.382812500000, 1491818698
-0.020263671875, -0.930908203125, -0.253906250000, -5.328125000000, 0.890625000000, -1.515625000000, 1491818698
-0.020263671875, -0.930908203125, -0.253906250000, -5.328125000000, 0.890625000000, -1.515625000000, 1491818698
-0.020263671875, -0.930908203125, -0.253906250000, -5.328125000000, 0.890625000000, -1.515625000000, 1491818698
-0.054199218750, -0.870605468750, -0.171630859375, -6.367187500000, -0.484375000000, -5.203125000000, 1491818698
-0.054199218750, -0.870605468750, -0.171630859375, -6.367187500000, -0.484375000000, -5.203125000000, 1491818698
-0.054199218750, -0.870605468750, -0.171630859375, -6.367187500000, -0.484375000000, -5.203125000000, 1491818698
-0.090576171875, -0.917968750000, -0.258056640625, -6.679687500000, -0.828125000000, -4.343750000000, 1491818699
0.016357421875, -0.963623046875, -0.281005859375, -4.968750000000, -2.148437500000, -6.085937500000, 1491818699
0.016357421875, -0.963623046875, -0.281005859375, -4.968750000000, -2.148437500000, -6.085937500000, 1491818699
-0.026855468750, -1.027587890625, -0.159912109375, -3.289062500000, 0.531250000000, -3.781250000000, 1491818699
0.027099609375, -1.023437500000, -0.190185546875, -4.203125000000, 0.125000000000, -1.218750000000, 1491818699
0.027099609375, -1.023437500000, -0.190185546875, -4.203125000000, 0.125000000000, -1.218750000000, 1491818699
0.027099609375, -1.023437500000, -0.190185546875, -4.203125000000, 0.125000000000, -1.218750000000, 1491818699
0.027099609375, -1.023437500000, -0.190185546875, -4.203125000000, 0.125000000000, -1.218750000000, 1491818699
0.027099609375, -1.023437500000, -0.190185546875, -4.203125000000, 0.125000000000, -1.218750000000, 1491818699
0.027099609375, -1.023437500000, -0.190185546875, -4.203125000000, 0.125000000000, -1.218750000000, 1491818699
-0.075683593750, -0.928710937500, -0.175048828125, -3.789062500000, -0.843750000000, -2.085937500000, 1491818699
-0.075683593750, -0.928710937500, -0.175048828125, -3.789062500000, -0.843750000000, -2.085937500000, 1491818699
-0.075683593750, -0.928710937500, -0.175048828125, -3.789062500000, -0.843750000000, -2.085937500000, 1491818699
0.025146484375, -0.928466796875, -0.221191406250, -1.578125000000, 2.195312500000, 2.328125000000, 1491818699
0.025146484375, -0.928466796875, -0.221191406250, -1.578125000000, 2.195312500000, 2.328125000000, 1491818699
0.025146484375, -0.928466796875, -0.221191406250, -1.578125000000, 2.195312500000, 2.328125000000, 1491818699
0.021484375000, -0.932617187500, -0.221679687500, -1.789062500000, 2.804687500000, -1.054687500000, 1491818699
0.021484375000, -0.932617187500, -0.221679687500, -1.789062500000, 2.804687500000, -1.054687500000, 1491818699
0.021484375000, -0.932617187500, -0.221679687500, -1.789062500000, 2.804687500000, -1.054687500000, 1491818699
0.021484375000, -0.932617187500, -0.221679687500, -1.789062500000, 2.804687500000, -1.054687500000, 1491818699
-0.019531250000, -1.026855468750, -0.250976562500, -1.500000000000, 2.046875000000, -1.789062500000, 1491818699
-0.019531250000, -1.026855468750, -0.250976562500, -1.500000000000, 2.046875000000, -1.789062500000, 1491818699
-0.019531250000, -1.026855468750, -0.250976562500, -1.500000000000, 2.046875000000, -1.789062500000, 1491818699
-0.046875000000, -1.022705078125, -0.280761718750, -2.828125000000, 1.492187500000, -3.085937500000, 1491818699
-0.046875000000, -1.022705078125, -0.280761718750, -2.828125000000, 1.492187500000, -3.085937500000, 1491818699
-0.046875000000, -1.022705078125, -0.280761718750, -2.828125000000, 1.492187500000, -3.085937500000, 1491818699
0.007080078125, -0.955078125000, -0.265136718750, -4.757812500000, -0.140625000000, -5.101562500000, 1491818699
0.007080078125, -0.955078125000, -0.265136718750, -4.757812500000, -0.140625000000, -5.101562500000, 1491818699
0.007080078125, -0.955078125000, -0.265136718750, -4.757812500000, -0.140625000000, -5.101562500000, 1491818699
0.072998046875, -0.929931640625, -0.261474609375, -6.039062500000, -0.773437500000, -1.132812500000, 1491818699
0.072998046875, -0.929931640625, -0.261474609375, -6.039062500000, -0.773437500000, -1.132812500000, 1491818699
0.072998046875, -0.929931640625, -0.261474609375, -6.039062500000, -0.773437500000, -1.132812500000, 1491818699
0.072998046875, -0.929931640625, -0.261474609375, -6.039062500000, -0.773437500000, -1.132812500000, 1491818699
0.077392578125, -1.010742187500, -0.184814453125, -3.507812500000, -0.140625000000, -4.117187500000, 1491818699
0.077392578125, -1.010742187500, -0.184814453125, -3.507812500000, -0.140625000000, -4.117187500000, 1491818699
0.077392578125, -1.010742187500, -0.184814453125, -3.507812500000, -0.140625000000, -4.117187500000, 1491818699
0.077392578125, -1.010742187500, -0.184814453125, -3.507812500000, -0.140625000000, -4.117187500000, 1491818699
0.077392578125, -1.010742187500, -0.184814453125, -3.507812500000, -0.140625000000, -4.117187500000, 1491818699
-0.079589843750, -0.922119140625, -0.182617187500, -3.757812500000, -0.898437500000, -4.648437500000, 1491818699
-0.079589843750, -0.922119140625, -0.182617187500, -3.757812500000, -0.898437500000, -4.648437500000, 1491818699
-0.079589843750, -0.922119140625, -0.182617187500, -3.757812500000, -0.898437500000, -4.648437500000, 1491818699
-0.079589843750, -0.922119140625, -0.182617187500, -3.757812500000, -0.898437500000, -4.648437500000, 1491818699
0.093261718750, -0.949707031250, -0.223876953125, -3.679687500000, -0.796875000000, -2.742187500000, 1491818699
0.093261718750, -0.949707031250, -0.223876953125, -3.679687500000, -0.796875000000, -2.742187500000, 1491818699
0.093261718750, -0.949707031250, -0.223876953125, -3.679687500000, -0.796875000000, -2.742187500000, 1491818699
0.093261718750, -0.949707031250, -0.223876953125, -3.679687500000, -0.796875000000, -2.742187500000, 1491818699
-0.087646484375, -1.018066406250, -0.185302734375, -4.796875000000, 2.531250000000, -3.664062500000, 1491818699
-0.087646484375, -1.018066406250, -0.185302734375, -4.796875000000, 2.531250000000, -3.664062500000, 1491818699
-0.087646484375, -1.018066406250, -0.185302734375, -4.796875000000, 2.531250000000, -3.664062500000, 1491818699
0.065673828125, -0.909423828125, -0.258056640625, -2.382812500000, 2.046875000000, -0.804687500000, 1491818699
0.065673828125, -0.909423828125, -0.258056640625, -2.382812500000, 2.046875000000, -0.804687500000, 1491818699
0.065673828125, -0.909423828125, -0.258056640625, -2.382812500000, 2.046875000000, -0.804687500000, 1491818699
-0.066894531250, -0.923339843750, -0.170898437500, -2.523437500000, -0.742187500000, -3.242187500000, 1491818699
-0.066894531250, -0.923339843750, -0.170898437500, -2.523437500000, -0.742187500000, -3.242187500000, 1491818699
-0.066894531250, -0.923339843750, -0.170898437500, -2.523437500000, -0.742187500000, -3.242187500000, 1491818699
-0.063232421875, -0.937500000000, -0.177978515625, -3.710937500000, 2.140625000000, -1.531250000000, 1491818699
-0.063232421875, -0.937500000000, -0.177978515625, -3.710937500000, 2.140625000000, -1.531250000000, 1491818699
-0.063232421875, -0.937500000000, -0.177978515625, -3.710937500000, 2.140625000000, -1.531250000000, 1491818699
-0.063232421875, -0.937500000000, -0.177978515625, -3.710937500000, 2.140625000000, -1.531250000000, 1491818699
-0.078125000000, -0.983154296875, -0.251953125000, -4.914062500000, 2.343750000000, -2.835937500000, 1491818699
-0.078125000000, -0.983154296875, -0.251953125000, -4.914062500000, 2.343750000000, -2.835937500000, 1491818699
-0.078125000000, -0.983154296875, -0.251953125000, -4.914062500000, 2.343750000000, -2.835937500000, 1491818699
0.027343750000, -0.971923828125, -0.339599609375, -4.023437500000, -0.835937500000, -1.148437500000, 1491818699
0.027343750000, -0.971923828125, -0.339599609375, -4.023437500000, -0.835937500000, -1.148437500000, 1491818699
0.027343750000, -0.971923828125, -0.339599609375, -4.023437500000, -0.835937500000, -1.148437500000, 1491818699
-0.077636718750, -1.008300781250, -0.186279296875, -8.992187500000, -0.929687500000, 4.617187500000, 1491818699
-0.077636718750, -1.008300781250, -0.186279296875, -8.992187500000, -0.929687500000, 4.617187500000, 1491818699
-0.077636718750, -1.008300781250, -0.186279296875, -8.992187500000, -0.929687500000, 4.617187500000, 1491818699
-0.029052734375, -0.932373046875, -0.177246093750, -9.875000000000, -2.039062500000, 0.695312500000, 1491818700
-0.029052734375, -0.932373046875, -0.177246093750, -9.875000000000, -2.039062500000, 0.695312500000, 1491818700
0.010498046875, -1.066894531250, -0.180175781250, -4.851562500000, -3.265625000000, 4.304687500000, 1491818700
0.010498046875, -1.066894531250, -0.180175781250, -4.851562500000, -3.265625000000, 4.304687500000, 1491818700
0.010498046875, -1.066894531250, -0.180175781250, -4.851562500000, -3.265625000000, 4.304687500000, 1491818700
0.010498046875, -1.066894531250, -0.180175781250, -4.851562500000, -3.265625000000, 4.304687500000, 1491818700
0.038085937500, -0.927978515625, -0.189208984375, -6.210937500000, -3.851562500000, 1.367187500000, 1491818700
0.038085937500, -0.927978515625, -0.189208984375, -6.210937500000, -3.851562500000, 1.367187500000, 1491818700
0.038085937500, -0.927978515625, -0.189208984375, -6.210937500000, -3.851562500000, 1.367187500000, 1491818700
0.038085937500, -0.927978515625, -0.189208984375, -6.210937500000, -3.851562500000, 1.367187500000, 1491818700
-0.005615234375, -0.920410156250, -0.201171875000, -1.531250000000, -2.695312500000, 8.375000000000, 1491818700
0.067871093750, -1.018798828125, -0.172363281250, 6.960937500000, 14.640625000000, 10.093750000000, 1491818700
0.093505859375, -1.030517578125, -0.270019531250, 7.960937500000, 8.843750000000, -4.710937500000, 1491818700
0.093505859375, -1.030517578125, -0.270019531250, 7.960937500000, 8.843750000000, -4.710937500000, 1491818700
0.093505859375, -1.030517578125, -0.270019531250, 7.960937500000, 8.843750000000, -4.710937500000, 1491818700
0.093505859375, -1.030517578125, -0.270019531250, 7.960937500000, 8.843750000000, -4.710937500000, 1491818700
0.093505859375, -1.030517578125, -0.270019531250, 7.960937500000, 8.843750000000, -4.710937500000, 1491818700
0.109863281250, -0.972656250000, -0.138427734375, 41.796875000000, -26.257812500000, 14.187500000000, 1491818700
0.109863281250, -0.972656250000, -0.138427734375, 41.796875000000, -26.257812500000, 14.187500000000, 1491818700
0.109863281250, -0.972656250000, -0.138427734375, 41.796875000000, -26.257812500000, 14.187500000000, 1491818700
-0.056640625000, -1.179443359375, -0.219726562500, 20.523437500000, -30.968750000000, 17.390625000000, 1491818700
-0.056640625000, -1.179443359375, -0.219726562500, 20.523437500000, -30.968750000000, 17.390625000000, 1491818700
-0.056640625000, -1.179443359375, -0.219726562500, 20.523437500000, -30.968750000000, 17.390625000000, 1491818700
