ACC_X,ACC_Y,ACC_Z,G_X,G_Y,G_Z,Unix Time
-0.068359375000, -1.006103515625, -0.212402343750, -5.515625000000, -1.796875000000, -7.328125000000, 1491818631
-0.068359375000, -1.006103515625, -0.212402343750, -5.515625000000, -1.796875000000, -7.328125000000, 1491818631
-0.068359375000, -1.006103515625, -0.212402343750, -5.515625000000, -1.796875000000, -7.328125000000, 1491818631
-0.145263671875, -0.874755859375, -0.199951171875, -3.601562500000, -1.890625000000, -4.281250000000, 1491818631
-0.145263671875, -0.874755859375, -0.199951171875, -3.601562500000, -1.890625000000, -4.281250000000, 1491818631
-0.145263671875, -0.874755859375, -0.199951171875, -3.601562500000, -1.890625000000, -4.281250000000, 1491818631
-0.107666015625, -0.906982421875, -0.226562500000, -1.562500000000, -0.210937500000, -6.703125000000, 1491818631
-0.107666015625, -0.906982421875, -0.226562500000, -1.562500000000, -0.210937500000, -6.703125000000, 1491818631
-0.107666015625, -0.906982421875, -0.226562500000, -1.562500000000, -0.210937500000, -6.703125000000, 1491818631
-0.134033203125, -0.958496093750, -0.211914062500, -1.578125000000, 2.773437500000, -3.851562500000, 1491818632
-0.134033203125, -0.958496093750, -0.211914062500, -1.578125000000, 2.773437500000, -3.851562500000, 1491818632
-0.134033203125, -0.958496093750, -0.211914062500, -1.578125000000, 2.773437500000, -3.851562500000, 1491818632
-0.134033203125, -0.958496093750, -0.211914062500, -1.578125000000, 2.773437500000, -3.851562500000, 1491818632
-0.055908203125, -0.908691406250, -0.242919921875, -2.023437500000, -0.656250000000, -6.445312500000, 1491818632
-0.055908203125, -0.908691406250, -0.242919921875, -2.023437500000, -0.656250000000, -6.445312500000, 1491818632
-0.055908203125, -0.908691406250, -0.242919921875, -2.023437500000, -0.656250000000, -6.445312500000, 1491818632
-0.043701171875, -0.932861328125, -0.225830078125, -1.734375000000, 6.992187500000, -0.851562500000, 1491818632
-0.043701171875, -0.932861328125, -0.225830078125, -1.734375000000, 6.992187500000, -0.851562500000, 1491818632
-0.043701171875, -0.932861328125, -0.225830078125, -1.734375000000, 6.992187500000, -0.851562500000, 1491818632
-0.045654296875, -0.926025390625, -0.170166015625, -6.507812500000, 2.343750000000, -2.289062500000, 1491818632
-0.045654296875, -0.926025390625, -0.170166015625, -6.507812500000, 2.343750000000, -2.289062500000, 1491818632
-0.045654296875, -0.926025390625, -0.170166015625, -6.507812500000, 2.343750000000, -2.289062500000, 1491818632
-0.134277343750, -1.014648437500, -0.215576171875, -1.367187500000, 4.921875000000, -4.195312500000, 1491818632
-0.134277343750, -1.014648437500, -0.215576171875, -1.367187500000, 4.921875000000, -4.195312500000, 1491818632
-0.134277343750, -1.014648437500, -0.215576171875, -1.367187500000, 4.921875000000, -4.195312500000, 1491818632
-0.134277343750, -1.014648437500, -0.215576171875, -1.367187500000, 4.921875000000, -4.195312500000, 1491818632
-0.050781250000, -1.073486328125, -0.208007812500, -4.140625000000, -0.046875000000, -1.796875000000, 1491818632
-0.050781250000, -1.073486328125, -0.208007812500, -4.140625000000, -0.046875000000, -1.796875000000, 1491818632
-0.050781250000, -1.073486328125, -0.208007812500, -4.140625000000, -0.046875000000, -1.796875000000, 1491818632
-0.052246093750, -0.917968750000, -0.255859375000, 0.656250000000, 6.304687500000, -3.914062500000, 1491818632
-0.052246093750, -0.917968750000, -0.255859375000, 0.656250000000, 6.304687500000, -3.914062500000, 1491818632
-0.052246093750, -0.917968750000, -0.255859375000, 0.656250000000, 6.304687500000, -3.914062500000, 1491818632
-0.093750000000, -0.947998046875, -0.163574218750, -5.578125000000, -0.585937500000, -1.078125000000, 1491818632
-0.093750000000, -0.947998046875, -0.163574218750, -5.578125000000, -0.585937500000, -1.078125000000, 1491818632
-0.093750000000, -0.947998046875, -0.163574218750, -5.578125000000, -0.585937500000, -1.078125000000, 1491818632
-0.147216796875, -1.013671875000, -0.196777343750, -3.132812500000, 6.789062500000, -8.687500000000, 1491818632
-0.147216796875, -1.013671875000, -0.196777343750, -3.132812500000, 6.789062500000, -8.687500000000, 1491818632
-0.117919921875, -0.936035156250, -0.239013671875, -2.617187500000, 5.023437500000, -8.687500000000, 1491818632
-0.117919921875, -0.936035156250, -0.239013671875, -2.617187500000, 5.023437500000, -8.687500000000, 1491818632
-0.117919921875, -0.936035156250, -0.239013671875, -2.617187500000, 5.023437500000, -8.687500000000, 1491818632
-0.117919921875, -0.936035156250, -0.239013671875, -2.617187500000, 5.023437500000, -8.687500000000, 1491818632
-0.117919921875, -0.936035156250, -0.239013671875, -2.617187500000, 5.023437500000, -8.687500000000, 1491818632
-0.258789062500, -0.999755859375, -0.265625000000, 6.054687500000, 9.117187500000, -18.000000000000, 1491818632
-0.258789062500, -0.999755859375, -0.265625000000, 6.054687500000, 9.117187500000, -18.000000000000, 1491818632
-0.258789062500, -0.999755859375, -0.265625000000, 6.054687500000, 9.117187500000, -18.000000000000, 1491818632
-0.118408203125, -0.888427734375, -0.219726562500, 5.820312500000, 25.968750000000, -21.554687500000, 1491818632
-0.118408203125, -0.888427734375, -0.219726562500, 5.820312500000, 25.968750000000, -21.554687500000, 1491818632
-0.118408203125, -0.888427734375, -0.219726562500, 5.820312500000, 25.968750000000, -21.554687500000, 1491818632
-0.031738281250, -0.790283203125, -0.177246093750, 1.656250000000, 22.671875000000, -22.593750000000, 1491818632
-0.031738281250, -0.790283203125, -0.177246093750, 1.656250000000, 22.671875000000, -22.593750000000, 1491818632
-0.031738281250, -0.790283203125, -0.177246093750, 1.656250000000, 22.671875000000, -22.593750000000, 1491818632
-0.031738281250, -0.790283203125, -0.177246093750, 1.656250000000, 22.671875000000, -22.593750000000, 1491818632
-0.103759765625, -0.966064453125, -0.165283203125, -9.718750000000, -18.421875000000, -2.328125000000, 1491818632
-0.103759765625, -0.966064453125, -0.165283203125, -9.718750000000, -18.421875000000, -2.328125000000, 1491818632
-0.103759765625, -0.966064453125, -0.165283203125, -9.718750000000, -18.421875000000, -2.328125000000, 1491818632
-0.171875000000, -0.945312500000, -0.282958984375, -6.414062500000, -11.953125000000, -8.601562500000, 1491818632
-0.171875000000, -0.945312500000, -0.282958984375, -6.414062500000, -11.953125000000, -8.601562500000, 1491818632
-0.171875000000, -0.945312500000, -0.282958984375, -6.414062500000, -11.953125000000, -8.601562500000, 1491818632
-0.117675781250, -0.925048828125, -0.321289062500, -0.656250000000, 8.414062500000, -2.515625000000, 1491818632
-0.117675781250, -0.925048828125, -0.321289062500, -0.656250000000, 8.414062500000, -2.515625000000, 1491818632
-0.117675781250, -0.925048828125, -0.321289062500, -0.656250000000, 8.414062500000, -2.515625000000, 1491818632
-0.195800781250, -0.931884765625, -0.317382812500, -6.453125000000, -11.734375000000, 0.929687500000, 1491818632
-0.195800781250, -0.931884765625, -0.317382812500, -6.453125000000, -11.734375000000, 0.929687500000, 1491818632
-0.195800781250, -0.931884765625, -0.317382812500, -6.453125000000, -11.734375000000, 0.929687500000, 1491818632
-0.195800781250, -0.931884765625, -0.317382812500, -6.453125000000, -11.734375000000, 0.929687500000, 1491818632
-0.213867187500, -0.906494140625, -0.265380859375, -3.054687500000, -4.156250000000, 2.265625000000, 1491818632
-0.213867187500, -0.906494140625, -0.265380859375, -3.054687500000, -4.156250000000, 2.265625000000, 1491818632
-0.213867187500, -0.906494140625, -0.265380859375, -3.054687500000, -4.156250000000, 2.265625000000, 1491818632
-0.171630859375, -0.951171875000, -0.334960937500, -3.250000000000, -8.773437500000, -1.562500000000, 1491818632
-0.171630859375, -0.951171875000, -0.334960937500, -3.250000000000, -8.773437500000, -1.562500000000, 1491818632
-0.171630859375, -0.951171875000, -0.334960937500, -3.250000000000, -8.773437500000, -1.562500000000, 1491818632
-0.100097656250, -0.966064453125, -0.325683593750, -3.226562500000, -8.515625000000, -6.625000000000, 1491818632
-0.100097656250, -0.966064453125, -0.325683593750, -3.226562500000, -8.515625000000, -6.625000000000, 1491818632
-0.100097656250, -0.966064453125, -0.325683593750, -3.226562500000, -8.515625000000, -6.625000000000, 1491818632
-0.152099609375, -0.947753906250, -0.177001953125, -2.015625000000, -1.867187500000, 2.757812500000, 1491818632
-0.152099609375, -0.947753906250, -0.177001953125, -2.015625000000, -1.867187500000, 2.757812500000, 1491818632
-0.152099609375, -0.947753906250, -0.177001953125, -2.015625000000, -1.867187500000, 2.757812500000, 1491818632
-0.152099609375, -0.947753906250, -0.177001953125, -2.015625000000, -1.867187500000, 2.757812500000, 1491818632
-0.273681640625, -0.926269531250, -0.229003906250, -5.875000000000, 1.945312500000, 0.625000000000, 1491818633
-0.273681640625, -0.926269531250, -0.229003906250, -5.875000000000, 1.945312500000, 0.625000000000, 1491818633
-0.197753906250, -0.956542968750, -0.263183593750, -1.867187500000, -6.796875000000, -2.296875000000, 1491818633
-0.197753906250, -0.956542968750, -0.263183593750, -1.867187500000, -6.796875000000, -2.296875000000, 1491818633
-0.197753906250, -0.956542968750, -0.263183593750, -1.867187500000, -6.796875000000, -2.296875000000, 1491818633
-0.197753906250, -0.956542968750, -0.263183593750, -1.867187500000, -6.796875000000, -2.296875000000, 1491818633
-0.204101562500, -0.965332031250, -0.159179687500, 0.000000000000, 4.265625000000, 0.757812500000, 1491818633
-0.204101562500, -0.965332031250, -0.159179687500, 0.000000000000, 4.265625000000, 0.757812500000, 1491818633
-0.204101562500, -0.965332031250, -0.159179687500, 0.000000000000, 4.265625000000, 0.757812500000, 1491818633
-0.191894531250, -0.934570312500, -0.246337890625, -3.867187500000, -6.726562500000, 0.031250000000, 1491818633
-0.191894531250, -0.934570312500, -0.246337890625, -3.867187500000, -6.726562500000, 0.031250000000, 1491818633
-0.191894531250, -0.934570312500, -0.246337890625, -3.867187500000, -6.726562500000, 0.031250000000, 1491818633
-0.191894531250, -0.934570312500, -0.246337890625, -3.867187500000, -6.726562500000, 0.031250000000, 1491818633
-0.117675781250, -0.912597656250, -0.242187500000, -1.703125000000, 0.437500000000, -0.367187500000, 1491818633
-0.117675781250, -0.912597656250, -0.242187500000, -1.703125000000, 0.437500000000, -0.367187500000, 1491818633
-0.117675781250, -0.912597656250, -0.242187500000, -1.703125000000, 0.437500000000, -0.367187500000, 1491818633
-0.145996093750, -0.906982421875, -0.318359375000, -4.718750000000, -5.625000000000, -2.445312500000, 1491818633
-0.145996093750, -0.906982421875, -0.318359375000, -4.718750000000, -5.625000000000, -2.445312500000, 1491818633
-0.145996093750, -0.906982421875, -0.318359375000, -4.718750000000, -5.625000000000, -2.445312500000, 1491818633
-0.202392578125, -0.949951171875, -0.265869140625, 0.679687500000, -4.679687500000, -0.085937500000, 1491818633
-0.202392578125, -0.949951171875, -0.265869140625, 0.679687500000, -4.679687500000, -0.085937500000, 1491818633
-0.202392578125, -0.949951171875, -0.265869140625, 0.679687500000, -4.679687500000, -0.085937500000, 1491818633
-0.210693359375, -0.914550781250, -0.233154296875, -4.585937500000, -8.234375000000, 0.187500000000, 1491818633
-0.210693359375, -0.914550781250, -0.233154296875, -4.585937500000, -8.234375000000, 0.187500000000, 1491818633
-0.210693359375, -0.914550781250, -0.233154296875, -4.585937500000, -8.234375000000, 0.187500000000, 1491818633
-0.210693359375, -0.914550781250, -0.233154296875, -4.585937500000, -8.234375000000, 0.187500000000, 1491818633
-0.139404296875, -0.913085937500, -0.321533203125, -3.273437500000, -3.976562500000, -0.031250000000, 1491818633
-0.139404296875, -0.913085937500, -0.321533203125, -3.273437500000, -3.976562500000, -0.031250000000, 1491818633
-0.112548828125, -0.847656250000, -0.256103515625, -6.984375000000, -1.023437500000, -0.703125000000, 1491818633
-0.112548828125, -0.847656250000, -0.256103515625, -6.984375000000, -1.023437500000, -0.703125000000, 1491818633
-0.112548828125, -0.847656250000, -0.256103515625, -6.984375000000, -1.023437500000, -0.703125000000, 1491818633
-0.112548828125, -0.847656250000, -0.256103515625, -6.984375000000, -1.023437500000, -0.703125000000, 1491818633
-0.106445312500, -0.880859375000, -0.326171875000, -6.468750000000, -1.328125000000, -3.750000000000, 1491818633
-0.106445312500, -0.880859375000, -0.326171875000, -6.468750000000, -1.328125000000, -3.750000000000, 1491818633
-0.106445312500, -0.880859375000, -0.326171875000, -6.468750000000, -1.328125000000, -3.750000000000, 1491818633
-0.164062500000, -0.957519531250, -0.229003906250, -6.375000000000, 0.093750000000, -2.843750000000, 1491818633
-0.164062500000, -0.957519531250, -0.229003906250, -6.375000000000, 0.093750000000, -2.843750000000, 1491818633
-0.164062500000, -0.957519531250, -0.229003906250, -6.375000000000, 0.093750000000, -2.843750000000, 1491818633
-0.164062500000, -0.957519531250, -0.229003906250, -6.375000000000, 0.093750000000, -2.843750000000, 1491818633
-0.151123046875, -0.964843750000, -0.219238281250, -5.250000000000, -0.789062500000, -6.921875000000, 1491818633
-0.151123046875, -0.964843750000, -0.219238281250, -5.250000000000, -0.789062500000, -6.921875000000, 1491818633
-0.151123046875, -0.964843750000, -0.219238281250, -5.250000000000, -0.789062500000, -6.921875000000, 1491818633
-0.217529296875, -0.917968750000, -0.205810546875, -4.914062500000, 3.500000000000, -1.343750000000, 1491818633
-0.217529296875, -0.917968750000, -0.205810546875, -4.914062500000, 3.500000000000, -1.343750000000, 1491818633
-0.217529296875, -0.917968750000, -0.205810546875, -4.914062500000, 3.500000000000, -1.343750000000, 1491818633
-0.195312500000, -0.970703125000, -0.184082031250, -9.421875000000, 2.679687500000, -2.695312500000, 1491818633
-0.195312500000, -0.970703125000, -0.184082031250, -9.421875000000, 2.679687500000, -2.695312500000, 1491818633
-0.195312500000, -0.970703125000, -0.184082031250, -9.421875000000, 2.679687500000, -2.695312500000, 1491818633
-0.162353515625, -0.917724609375, -0.339843750000, -7.562500000000, 5.203125000000, -4.578125000000, 1491818633
-0.162353515625, -0.917724609375, -0.339843750000, -7.562500000000, 5.203125000000, -4.578125000000, 1491818633
-0.158203125000, -0.915039062500, -0.252197265625, -4.078125000000, 4.578125000000, -1.726562500000, 1491818633
-0.158203125000, -0.915039062500, -0.252197265625, -4.078125000000, 4.578125000000, -1.726562500000, 1491818633
-0.158203125000, -0.915039062500, -0.252197265625, -4.078125000000, 4.578125000000, -1.726562500000, 1491818633
-0.158203125000, -0.915039062500, -0.252197265625, -4.078125000000, 4.578125000000, -1.726562500000, 1491818633
-0.158203125000, -0.915039062500, -0.252197265625, -4.078125000000, 4.578125000000, -1.726562500000, 1491818633
-0.050537109375, -0.847412109375, -0.282470703125, 0.601562500000, 2.320312500000, 4.445312500000, 1491818633
-0.050537109375, -0.847412109375, -0.282470703125, 0.601562500000, 2.320312500000, 4.445312500000, 1491818633
-0.050537109375, -0.847412109375, -0.282470703125, 0.601562500000, 2.320312500000, 4.445312500000, 1491818633
-0.050537109375, -0.847412109375, -0.282470703125, 0.601562500000, 2.320312500000, 4.445312500000, 1491818633
-0.192138671875, -0.889892578125, -0.276123046875, -4.984375000000, 6.125000000000, 1.609375000000, 1491818633
-0.187500000000, -0.865966796875, -0.231445312500, -7.210937500000, 3.671875000000, 2.156250000000, 1491818633
-0.187500000000, -0.865966796875, -0.231445312500, -7.210937500000, 3.671875000000, 2.156250000000, 1491818633
-0.187500000000, -0.865966796875, -0.231445312500, -7.210937500000, 3.671875000000, 2.156250000000, 1491818633
-0.187500000000, -0.865966796875, -0.231445312500, -7.210937500000, 3.671875000000, 2.156250000000, 1491818633
-0.187500000000, -0.865966796875, -0.231445312500, -7.210937500000, 3.671875000000, 2.156250000000, 1491818633
-0.143310546875, -0.963623046875, -0.228759765625, -17.968750000000, -5.367187500000, 3.757812500000, 1491818633
-0.143310546875, -0.963623046875, -0.228759765625, -17.968750000000, -5.367187500000, 3.757812500000, 1491818634
-0.143310546875, -0.963623046875, -0.228759765625, -17.968750000000, -5.367187500000, 3.757812500000, 1491818634
-0.215820312500, -0.954345703125, -0.244628906250, -13.757812500000, -0.671875000000, 5.515625000000, 1491818634
-0.215820312500, -0.954345703125, -0.244628906250, -13.757812500000, -0.671875000000, 5.515625000000, 1491818634
-0.215820312500, -0.954345703125, -0.244628906250, -13.757812500000, -0.671875000000, 5.515625000000, 1491818634
-0.097167968750, -0.875488281250, -0.158935546875, -14.484375000000, -1.609375000000, 12.695312500000, 1491818634
-0.097167968750, -0.875488281250, -0.158935546875, -14.484375000000, -1.609375000000, 12.695312500000, 1491818634
-0.097167968750, -0.875488281250, -0.158935546875, -14.484375000000, -1.609375000000, 12.695312500000, 1491818634
-0.070068359375, -0.957519531250, -0.273437500000, -20.593750000000, -9.250000000000, 11.320312500000, 1491818634
-0.070068359375, -0.957519531250, -0.273437500000, -20.593750000000, -9.250000000000, 11.320312500000, 1491818634
-0.070068359375, -0.957519531250, -0.273437500000, -20.593750000000, -9.250000000000, 11.320312500000, 1491818634
-0.070068359375, -0.957519531250, -0.273437500000, -20.593750000000, -9.250000000000, 11.320312500000, 1491818634
-0.087890625000, -1.000488281250, -0.267089843750, -32.367187500000, -21.031250000000, 21.710937500000, 1491818634
-0.087890625000, -1.000488281250, -0.267089843750, -32.367187500000, -21.031250000000, 21.710937500000, 1491818634
-0.087890625000, -1.000488281250, -0.267089843750, -32.367187500000, -21.031250000000, 21.710937500000, 1491818634
-0.068603515625, -1.029541015625, -0.232666015625, -19.679687500000, -16.523437500000, 17.187500000000, 1491818634
-0.068603515625, -1.029541015625, -0.232666015625, -19.679687500000, -16.523437500000, 17.187500000000, 1491818634
-0.068603515625, -1.029541015625, -0.232666015625, -19.679687500000, -16.523437500000, 17.187500000000, 1491818634
-0.030029296875, -1.027099609375, -0.248779296875, -21.351562500000, -23.687500000000, 15.187500000000, 1491818634
-0.030029296875, -1.027099609375, -0.248779296875, -21.351562500000, -23.687500000000, 15.187500000000, 1491818634
-0.030029296875, -1.027099609375, -0.248779296875, -21.351562500000, -23.687500000000, 15.187500000000, 1491818634
-0.020019531250, -0.963867187500, -0.248535156250, -11.023437500000, -12.882812500000, 14.406250000000, 1491818634
-0.020019531250, -0.963867187500, -0.248535156250, -11.023437500000, -12.882812500000, 14.406250000000, 1491818634
-0.020019531250, -0.963867187500, -0.248535156250, -11.023437500000, -12.882812500000, 14.406250000000, 1491818634
-0.020019531250, -0.963867187500, -0.248535156250, -11.023437500000, -12.882812500000, 14.406250000000, 1491818634
-0.013183593750, -0.920166015625, -0.171630859375, -15.953125000000, -18.367187500000, 7.687500000000, 1491818634
-0.013183593750, -0.920166015625, -0.171630859375, -15.953125000000, -18.367187500000, 7.687500000000, 1491818634
-0.013183593750, -0.920166015625, -0.171630859375, -15.953125000000, -18.367187500000, 7.687500000000, 1491818634
0.086181640625, -1.078125000000, -0.158691406250, -26.937500000000, -28.492187500000, -6.406250000000, 1491818634
0.086181640625, -1.078125000000, -0.158691406250, -26.937500000000, -28.492187500000, -6.406250000000, 1491818634
0.086181640625, -1.078125000000, -0.158691406250, -26.937500000000, -28.492187500000, -6.406250000000, 1491818634
-0.020996093750, -1.087158203125, -0.194335937500, -14.945312500000, -10.195312500000, -7.695312500000, 1491818634
0.012451171875, -0.917480468750, -0.192626953125, -12.328125000000, -2.953125000000, -14.718750000000, 1491818634
0.012451171875, -0.917480468750, -0.192626953125, -12.328125000000, -2.953125000000, -14.718750000000, 1491818634
0.012451171875, -0.917480468750, -0.192626953125, -12.328125000000, -2.953125000000, -14.718750000000, 1491818634
0.012451171875, -0.917480468750, -0.192626953125, -12.328125000000, -2.953125000000, -14.718750000000, 1491818634
0.012451171875, -0.917480468750, -0.192626953125, -12.328125000000, -2.953125000000, -14.718750000000, 1491818634
0.028076171875, -0.968994140625, -0.275390625000, -4.664062500000, 0.046875000000, -40.015625000000, 1491818634
0.028076171875, -0.968994140625, -0.275390625000, -4.664062500000, 0.046875000000, -40.015625000000, 1491818634
0.028076171875, -0.968994140625, -0.275390625000, -4.664062500000, 0.046875000000, -40.015625000000, 1491818634
0.028076171875, -0.968994140625, -0.275390625000, -4.664062500000, 0.046875000000, -40.015625000000, 1491818634
-0.188476562500, -1.021728515625, -0.174804687500, 15.039062500000, 9.031250000000, -47.585937500000, 1491818634
-0.188476562500, -1.021728515625, -0.174804687500, 15.039062500000, 9.031250000000, -47.585937500000, 1491818634
-0.188476562500, -1.021728515625, -0.174804687500, 15.039062500000, 9.031250000000, -47.585937500000, 1491818634
-0.003173828125, -0.856201171875, -0.043457031250, 20.765625000000, 31.632812500000, -46.453125000000, 1491818634
-0.003173828125, -0.856201171875, -0.043457031250, 20.765625000000, 31.632812500000, -46.453125000000, 1491818634
-0.003173828125, -0.856201171875, -0.043457031250, 20.765625000000, 31.632812500000, -46.453125000000, 1491818634
-0.197998046875, -0.852050781250, -0.030273437500, 7.289062500000, -13.351562500000, -18.132812500000, 1491818634
-0.197998046875, -0.852050781250, -0.030273437500, 7.289062500000, -13.351562500000, -18.132812500000, 1491818634
-0.197998046875, -0.852050781250, -0.030273437500, 7.289062500000, -13.351562500000, -18.132812500000, 1491818634
-0.197998046875, -0.852050781250, -0.030273437500, 7.289062500000, -13.351562500000, -18.132812500000, 1491818634
-0.168457031250, -0.951904296875, -0.144531250000, -47.992187500000, 34.789062500000, -8.617187500000, 1491818634
-0.168457031250, -0.951904296875, -0.144531250000, -47.992187500000, 34.789062500000, -8.617187500000, 1491818634
-0.168457031250, -0.951904296875, -0.144531250000, -47.992187500000, 34.789062500000, -8.617187500000, 1491818634
-0.242675781250, -0.854248046875, -0.155517578125, -67.226562500000, -87.289062500000, -25.281250000000, 1491818634
-0.242675781250, -0.854248046875, -0.155517578125, -67.226562500000, -87.289062500000, -25.281250000000, 1491818634
-0.242675781250, -0.854248046875, -0.155517578125, -67.226562500000, -87.289062500000, -25.281250000000, 1491818634
-0.281738281250, -0.745361328125, -0.401855468750, -4.703125000000, -60.164062500000, -9.921875000000, 1491818634
-0.281738281250, -0.745361328125, -0.401855468750, -4.703125000000, -60.164062500000, -9.921875000000, 1491818634
-0.281738281250, -0.745361328125, -0.401855468750, -4.703125000000, -60.164062500000, -9.921875000000, 1491818634
-0.202392578125, -0.767822265625, -0.094482421875, -22.750000000000, 74.757812500000, 7.546875000000, 1491818634
-0.202392578125, -0.767822265625, -0.094482421875, -22.750000000000, 74.757812500000, 7.546875000000, 1491818634
-0.202392578125, -0.767822265625, -0.094482421875, -22.750000000000, 74.757812500000, 7.546875000000, 1491818634
-0.202392578125, -0.767822265625, -0.094482421875, -22.750000000000, 74.757812500000, 7.546875000000, 1491818634
-0.217285156250, -0.739257812500, -0.081298828125, -19.273437500000, -5.328125000000, 2.843750000000, 1491818634
-0.217285156250, -0.739257812500, -0.081298828125, -19.273437500000, -5.328125000000, 2.843750000000, 1491818634
-0.217285156250, -0.739257812500, -0.081298828125, -19.273437500000, -5.328125000000, 2.843750000000, 1491818634
-0.273925781250, -0.945068359375, -0.033447265625, -41.906250000000, -32.679687500000, -6.882812500000, 1491818635
-0.273925781250, -0.945068359375, -0.033447265625, -41.906250000000, -32.679687500000, -6.882812500000, 1491818635
-0.273925781250, -0.945068359375, -0.033447265625, -41.906250000000, -32.679687500000, -6.882812500000, 1491818635
-0.140869140625, -0.877929687500, -0.138671875000, -59.414062500000, -71.781250000000, 24.007812500000, 1491818635
-0.140869140625, -0.877929687500, -0.138671875000, -59.414062500000, -71.781250000000, 24.007812500000, 1491818635
-0.140869140625, -0.877929687500, -0.138671875000, -59.414062500000, -71.781250000000, 24.007812500000, 1491818635
-0.341796875000, -0.735595703125, -0.289794921875, -41.343750000000, -84.750000000000, 37.484375000000, 1491818635
-0.341796875000, -0.735595703125, -0.289794921875, -41.343750000000, -84.750000000000, 37.484375000000, 1491818635
-0.341796875000, -0.735595703125, -0.289794921875, -41.343750000000, -84.750000000000, 37.484375000000, 1491818635
-0.341796875000, -0.735595703125, -0.289794921875, -41.343750000000, -84.750000000000, 37.484375000000, 1491818635
-0.282226562500, -0.878906250000, -0.223632812500, -9.710937500000, -20.296875000000, 5.945312500000, 1491818635
-0.282226562500, -0.878906250000, -0.223632812500, -9.710937500000, -20.296875000000, 5.945312500000, 1491818635
-0.201171875000, -1.280273437500, -0.223876953125, -47.015625000000, -29.406250000000, 10.523437500000, 1491818635
-0.201171875000, -1.280273437500, -0.223876953125, -47.015625000000, -29.406250000000, 10.523437500000, 1491818635
-0.201171875000, -1.280273437500, -0.223876953125, -47.015625000000, -29.406250000000, 10.523437500000, 1491818635
-0.201171875000, -1.280273437500, -0.223876953125, -47.015625000000, -29.406250000000, 10.523437500000, 1491818635
-0.169921875000, -1.279541015625, -0.161376953125, -17.890625000000, -34.812500000000, 22.843750000000, 1491818635
-0.169921875000, -1.279541015625, -0.161376953125, -17.890625000000, -34.812500000000, 22.843750000000, 1491818635
-0.169921875000, -1.279541015625, -0.161376953125, -17.890625000000, -34.812500000000, 22.843750000000, 1491818635
0.033447265625, -1.289062500000, -0.108154296875, -5.750000000000, -77.531250000000, 1.773437500000, 1491818635
0.033447265625, -1.289062500000, -0.108154296875, -5.750000000000, -77.531250000000, 1.773437500000, 1491818635
0.033447265625, -1.289062500000, -0.108154296875, -5.750000000000, -77.531250000000, 1.773437500000, 1491818635
0.033447265625, -1.289062500000, -0.108154296875, -5.750000000000, -77.531250000000, 1.773437500000, 1491818635
-0.082519531250, -0.397705078125, -0.341796875000, -9.484375000000, 40.976562500000, 54.781250000000, 1491818635
-0.082519531250, -0.397705078125, -0.341796875000, -9.484375000000, 40.976562500000, 54.781250000000, 1491818635
-0.082519531250, -0.397705078125, -0.341796875000, -9.484375000000, 40.976562500000, 54.781250000000, 1491818635
-0.018066406250, 0.182128906250, -0.150878906250, 90.312500000000, 115.210937500000, 166.757812500000, 1491818635
-0.018066406250, 0.182128906250, -0.150878906250, 90.312500000000, 115.210937500000, 166.757812500000, 1491818635
-0.018066406250, 0.182128906250, -0.150878906250, 90.312500000000, 115.210937500000, 166.757812500000, 1491818635
0.070068359375, 0.256347656250, 0.001464843750, 85.804687500000, 82.156250000000, 186.445312500000, 1491818635
0.070068359375, 0.256347656250, 0.001464843750, 85.804687500000, 82.156250000000, 186.445312500000, 1491818635
0.070068359375, 0.256347656250, 0.001464843750, 85.804687500000, 82.156250000000, 186.445312500000, 1491818635
0.086181640625, 0.178222656250, -0.031738281250, -3.210937500000, 87.187500000000, 88.453125000000, 1491818635
0.086181640625, 0.178222656250, -0.031738281250, -3.210937500000, 87.187500000000, 88.453125000000, 1491818635
0.086181640625, 0.178222656250, -0.031738281250, -3.210937500000, 87.187500000000, 88.453125000000, 1491818635
0.086181640625, 0.178222656250, -0.031738281250, -3.210937500000, 87.187500000000, 88.453125000000, 1491818635
-0.069091796875, 0.005371093750, 0.082763671875, 170.960937500000, 125.523437500000, 41.062500000000, 1491818635
-0.069091796875, 0.005371093750, 0.082763671875, 170.960937500000, 125.523437500000, 41.062500000000, 1491818635
-0.069091796875, 0.005371093750, 0.082763671875, 170.960937500000, 125.523437500000, 41.062500000000, 1491818635
-0.071044921875, -0.057373046875, 0.081054687500, 135.085937500000, 218.289062500000, 80.484375000000, 1491818635
-0.071044921875, -0.057373046875, 0.081054687500, 135.085937500000, 218.289062500000, 80.484375000000, 1491818635
-0.071044921875, -0.057373046875, 0.081054687500, 135.085937500000, 218.289062500000, 80.484375000000, 1491818635
0.052734375000, 0.194091796875, 0.070068359375, 84.992187500000, 159.312500000000, 183.414062500000, 1491818635
0.052734375000, 0.194091796875, 0.070068359375, 84.992187500000, 159.312500000000, 183.414062500000, 1491818635
0.052734375000, 0.194091796875, 0.070068359375, 84.992187500000, 159.312500000000, 183.414062500000, 1491818635
1.512207031250, 0.668701171875, 0.120361328125, -256.000000000000, 253.992187500000, -24.570312500000, 1491818635
1.512207031250, 0.668701171875, 0.120361328125, -256.000000000000, 253.992187500000, -24.570312500000, 1491818635
1.512207031250, 0.668701171875, 0.120361328125, -256.000000000000, 253.992187500000, -24.570312500000, 1491818635
3.824218750000, 3.953369140625, -7.937255859375, -256.000000000000, 253.992187500000, -256.000000000000, 1491818635
8.000000000000, -8.000000000000, 8.000000000000, -256.000000000000, -256.000000000000, 253.992187500000, 1491818635
8.000000000000, -8.000000000000, 8.000000000000, -256.000000000000, -256.000000000000, 253.992187500000, 1491818635
8.000000000000, -8.000000000000, 8.000000000000, -256.000000000000, -256.000000000000, 253.992187500000, 1491818635
-1.136230468750, -0.052978515625, 2.799804687500, 191.156250000000, -146.164062500000, -73.554687500000, 1491818635
-1.136230468750, -0.052978515625, 2.799804687500, 191.156250000000, -146.164062500000, -73.554687500000, 1491818635
-1.136230468750, -0.052978515625, 2.799804687500, 191.156250000000, -146.164062500000, -73.554687500000, 1491818635
0.226074218750, -0.587646484375, 0.256347656250, -0.914062500000, 253.992187500000, -98.390625000000, 1491818635
0.226074218750, -0.587646484375, 0.256347656250, -0.914062500000, 253.992187500000, -98.390625000000, 1491818635
0.226074218750, -0.587646484375, 0.256347656250, -0.914062500000, 253.992187500000, -98.390625000000, 1491818635
-0.043701171875, -0.017822265625, -0.207519531250, 253.992187500000, -116.437500000000, -171.507812500000, 1491818635
-0.043701171875, -0.017822265625, -0.207519531250, 253.992187500000, -116.437500000000, -171.507812500000, 1491818635
-0.043701171875, -0.017822265625, -0.207519531250, 253.992187500000, -116.437500000000, -171.507812500000, 1491818635
-0.043701171875, -0.017822265625, -0.207519531250, 253.992187500000, -116.437500000000, -171.507812500000, 1491818635
0.753173828125, -0.044677734375, 1.815429687500, 4.812500000000, -256.000000000000, -256.000000000000, 1491818635
0.753173828125, -0.044677734375, 1.815429687500, 4.812500000000, -256.000000000000, -256.000000000000, 1491818635
0.753173828125, -0.044677734375, 1.815429687500, 4.812500000000, -256.000000000000, -256.000000000000, 1491818635
0.289306640625, -0.172607421875, 0.575683593750, 234.226562500000, 253.992187500000, -129.515625000000, 1491818635
0.289306640625, -0.172607421875, 0.575683593750, 234.226562500000, 253.992187500000, -129.515625000000, 1491818636
0.289306640625, -0.172607421875, 0.575683593750, 234.226562500000, 253.992187500000, -129.515625000000, 1491818636
0.050292968750, -0.417236328125, 0.787353515625, -168.500000000000, -5.992187500000, 28.890625000000, 1491818636
0.050292968750, -0.417236328125, 0.787353515625, -168.500000000000, -5.992187500000, 28.890625000000, 1491818636
0.050292968750, -0.417236328125, 0.787353515625, -168.500000000000, -5.992187500000, 28.890625000000, 1491818636
-0.053710937500, 0.022705078125, 1.014892578125, -256.000000000000, -13.664062500000, 36.515625000000, 1491818636
-0.053710937500, 0.022705078125, 1.014892578125, -256.000000000000, -13.664062500000, 36.515625000000, 1491818636
-0.053710937500, 0.022705078125, 1.014892578125, -256.000000000000, -13.664062500000, 36.515625000000, 1491818636
-0.053710937500, 0.022705078125, 1.014892578125, -256.000000000000, -13.664062500000, 36.515625000000, 1491818636
0.140136718750, 0.226806640625, 1.504882812500, -181.507812500000, -40.851562500000, 7.218750000000, 1491818636
0.140136718750, 0.226806640625, 1.504882812500, -181.507812500000, -40.851562500000, 7.218750000000, 1491818636
0.140136718750, 0.226806640625, 1.504882812500, -181.507812500000, -40.851562500000, 7.218750000000, 1491818636
-0.091064453125, 0.072021484375, 0.347412109375, -255.226562500000, 59.078125000000, 57.937500000000, 1491818636
-0.091064453125, 0.072021484375, 0.347412109375, -255.226562500000, 59.078125000000, 57.937500000000, 1491818636
-0.091064453125, 0.072021484375, 0.347412109375, -255.226562500000, 59.078125000000, 57.937500000000, 1491818636
0.055908203125, 0.322998046875, 0.983154296875, 49.375000000000, -236.734375000000, -63.781250000000, 1491818636
0.055908203125, 0.322998046875, 0.983154296875, 49.375000000000, -236.734375000000, -63.781250000000, 1491818636
0.055908203125, 0.322998046875, 0.983154296875, 49.375000000000, -236.734375000000, -63.781250000000, 1491818636
0.311767578125, 0.201416015625, 1.143798828125, -122.359375000000, 69.093750000000, 106.906250000000, 1491818636
0.311767578125, 0.201416015625, 1.143798828125, -122.359375000000, 69.093750000000, 106.906250000000, 1491818636
0.311767578125, 0.201416015625, 1.143798828125, -122.359375000000, 69.093750000000, 106.906250000000, 1491818636
0.311767578125, 0.201416015625, 1.143798828125, -122.359375000000, 69.093750000000, 106.906250000000, 1491818636
0.076171875000, 0.401855468750, 0.717285156250, 31.742187500000, -5.203125000000, 32.562500000000, 1491818636
0.076171875000, 0.401855468750, 0.717285156250, 31.742187500000, -5.203125000000, 32.562500000000, 1491818636
0.076171875000, 0.401855468750, 0.717285156250, 31.742187500000, -5.203125000000, 32.562500000000, 1491818636
0.076416015625, 0.270996093750, 1.338867187500, 253.992187500000, 13.968750000000, 119.546875000000, 1491818636
0.076416015625, 0.270996093750, 1.338867187500, 253.992187500000, 13.968750000000, 119.546875000000, 1491818636
0.076416015625, 0.270996093750, 1.338867187500, 253.992187500000, 13.968750000000, 119.546875000000, 1491818636
-0.130615234375, 0.085937500000, 0.631347656250, 33.710937500000, 34.054687500000, 79.937500000000, 1491818636
-0.130615234375, 0.085937500000, 0.631347656250, 33.710937500000, 34.054687500000, 79.937500000000, 1491818636
-0.130615234375, 0.085937500000, 0.631347656250, 33.710937500000, 34.054687500000, 79.937500000000, 1491818636
0.256347656250, -0.021728515625, 1.370605468750, 69.750000000000, -100.335937500000, -24.265625000000, 1491818636
0.256347656250, -0.021728515625, 1.370605468750, 69.750000000000, -100.335937500000, -24.265625000000, 1491818636
0.256347656250, -0.021728515625, 1.370605468750, 69.750000000000, -100.335937500000, -24.265625000000, 1491818636
0.256347656250, -0.021728515625, 1.370605468750, 69.750000000000, -100.335937500000, -24.265625000000, 1491818636
-0.188964843750, 0.129150390625, 0.878662109375, -82.148437500000, 52.171875000000, 1.312500000000, 1491818636
-0.188964843750, 0.129150390625, 0.878662109375, -82.148437500000, 52.171875000000, 1.312500000000, 1491818636
-0.188964843750, 0.129150390625, 0.878662109375, -82.148437500000, 52.171875000000, 1.312500000000, 1491818636
0.121093750000, -0.027099609375, 0.945068359375, -127.328125000000, -18.375000000000, -37.898437500000, 1491818636
0.121093750000, -0.027099609375, 0.945068359375, -127.328125000000, -18.375000000000, -37.898437500000, 1491818636
0.121093750000, -0.027099609375, 0.945068359375, -127.328125000000, -18.375000000000, -37.898437500000, 1491818636
0.172119140625, 0.176269531250, 1.052734375000, -153.742187500000, 14.281250000000, -22.898437500000, 1491818636
0.172119140625, 0.176269531250, 1.052734375000, -153.742187500000, 14.281250000000, -22.898437500000, 1491818636
0.172119140625, 0.176269531250, 1.052734375000, -153.742187500000, 14.281250000000, -22.898437500000, 1491818636
0.106933593750, 0.332275390625, 0.849853515625, -45.320312500000, 12.390625000000, 4.890625000000, 1491818636
0.106933593750, 0.332275390625, 0.849853515625, -45.320312500000, 12.390625000000, 4.890625000000, 1491818636
0.106933593750, 0.332275390625, 0.849853515625, -45.320312500000, 12.390625000000, 4.890625000000, 1491818636
0.106933593750, 0.332275390625, 0.849853515625, -45.320312500000, 12.390625000000, 4.890625000000, 1491818636
0.030761718750, 0.577392578125, 1.045898437500, 37.257812500000, 29.453125000000, 3.148437500000, 1491818636
0.030761718750, 0.577392578125, 1.045898437500, 37.257812500000, 29.453125000000, 3.148437500000, 1491818636
0.030761718750, 0.577392578125, 1.045898437500, 37.257812500000, 29.453125000000, 3.148437500000, 1491818636
-0.070312500000, 0.290771484375, 0.783203125000, 38.531250000000, 37.718750000000, 6.843750000000, 1491818636
-0.070312500000, 0.290771484375, 0.783203125000, 38.531250000000, 37.718750000000, 6.843750000000, 1491818636
-0.070312500000, 0.290771484375, 0.783203125000, 38.531250000000, 37.718750000000, 6.843750000000, 1491818636
-0.033691406250, 0.225097656250, 0.953369140625, 62.500000000000, -60.992187500000, -20.351562500000, 1491818636
-0.033691406250, 0.225097656250, 0.953369140625, 62.500000000000, -60.992187500000, -20.351562500000, 1491818636
-0.033691406250, 0.225097656250, 0.953369140625, 62.500000000000, -60.992187500000, -20.351562500000, 1491818636
-0.002441406250, 0.121093750000, 0.955566406250, 49.585937500000, -52.023437500000, -76.382812500000, 1491818636
-0.002441406250, 0.121093750000, 0.955566406250, 49.585937500000, -52.023437500000, -76.382812500000, 1491818636
-0.002441406250, 0.121093750000, 0.955566406250, 49.585937500000, -52.023437500000, -76.382812500000, 1491818636
-0.002441406250, 0.121093750000, 0.955566406250, 49.585937500000, -52.023437500000, -76.382812500000, 1491818636
0.160400390625, 0.257568359375, 1.131835937500, -38.351562500000, 20.351562500000, 6.273437500000, 1491818636
0.160400390625, 0.257568359375, 1.131835937500, -38.351562500000, 20.351562500000, 6.273437500000, 1491818636
0.160400390625, 0.257568359375, 1.131835937500, -38.351562500000, 20.351562500000, 6.273437500000, 1491818636
0.160400390625, 0.257568359375, 1.131835937500, -38.351562500000, 20.351562500000, 6.273437500000, 1491818636
0.181152343750, 0.231933593750, 0.977783203125, -27.609375000000, 29.828125000000, 2.507812500000, 1491818637
0.044921875000, 0.221191406250, 1.079833984375, -31.421875000000, 34.703125000000, -4.125000000000, 1491818637
0.044921875000, 0.221191406250, 1.079833984375, -31.421875000000, 34.703125000000, -4.125000000000, 1491818637
0.044921875000, 0.221191406250, 1.079833984375, -31.421875000000, 34.703125000000, -4.125000000000, 1491818637
0.044921875000, 0.221191406250, 1.079833984375, -31.421875000000, 34.703125000000, -4.125000000000, 1491818637
-0.018554687500, 0.293457031250, 0.807128906250, -23.937500000000, 22.578125000000, 6.312500000000, 1491818637
-0.018554687500, 0.293457031250, 0.807128906250, -23.937500000000, 22.578125000000, 6.312500000000, 1491818637
-0.018554687500, 0.293457031250, 0.807128906250, -23.937500000000, 22.578125000000, 6.312500000000, 1491818637
-0.018554687500, 0.293457031250, 0.807128906250, -23.937500000000, 22.578125000000, 6.312500000000, 1491818637
0.024658203125, 0.233154296875, 0.907714843750, 10.671875000000, -7.117187500000, -10.070312500000, 1491818637
0.024658203125, 0.233154296875, 0.907714843750, 10.671875000000, -7.117187500000, -10.070312500000, 1491818637
0.024658203125, 0.233154296875, 0.907714843750, 10.671875000000, -7.117187500000, -10.070312500000, 1491818637
0.071044921875, 0.318359375000, 0.960205078125, -28.406250000000, -9.140625000000, -9.507812500000, 1491818637
0.071044921875, 0.318359375000, 0.960205078125, -28.406250000000, -9.140625000000, -9.507812500000, 1491818637
0.071044921875, 0.318359375000, 0.960205078125, -28.406250000000, -9.140625000000, -9.507812500000, 1491818637
0.038574218750, 0.403564453125, 1.015136718750, -11.656250000000, -10.890625000000, -7.203125000000, 1491818637
0.038574218750, 0.403564453125, 1.015136718750, -11.656250000000, -10.890625000000, -7.203125000000, 1491818637
0.038574218750, 0.403564453125, 1.015136718750, -11.656250000000, -10.890625000000, -7.203125000000, 1491818637
0.046630859375, 0.283691406250, 0.965087890625, -26.226562500000, 3.484375000000, -4.289062500000, 1491818637
0.046630859375, 0.283691406250, 0.965087890625, -26.226562500000, 3.484375000000, -4.289062500000, 1491818637
0.046630859375, 0.283691406250, 0.965087890625, -26.226562500000, 3.484375000000, -4.289062500000, 1491818637
0.046630859375, 0.283691406250, 0.965087890625, -26.226562500000, 3.484375000000, -4.289062500000, 1491818637
0.120849609375, 0.338378906250, 0.976562500000, -2.992187500000, 8.171875000000, -2.242187500000, 1491818637
0.120849609375, 0.338378906250, 0.976562500000, -2.992187500000, 8.171875000000, -2.242187500000, 1491818637
0.120849609375, 0.338378906250, 0.976562500000, -2.992187500000, 8.171875000000, -2.242187500000, 1491818637
0.200927734375, 0.390625000000, 0.893066406250, -8.773437500000, 2.015625000000, -1.187500000000, 1491818637
0.200927734375, 0.390625000000, 0.893066406250, -8.773437500000, 2.015625000000, -1.187500000000, 1491818637
0.200927734375, 0.390625000000, 0.893066406250, -8.773437500000, 2.015625000000, -1.187500000000, 1491818637
-0.010253906250, 0.291503906250, 0.946044921875, -3.617187500000, 3.156250000000, 1.335937500000, 1491818637
-0.010253906250, 0.291503906250, 0.946044921875, -3.617187500000, 3.156250000000, 1.335937500000, 1491818637
-0.010253906250, 0.291503906250, 0.946044921875, -3.617187500000, 3.156250000000, 1.335937500000, 1491818637
0.086669921875, 0.327636718750, 0.931396484375, -5.367187500000, -1.171875000000, -1.179687500000, 1491818637
0.086669921875, 0.327636718750, 0.931396484375, -5.367187500000, -1.171875000000, -1.179687500000, 1491818637
0.086669921875, 0.327636718750, 0.931396484375, -5.367187500000, -1.171875000000, -1.179687500000, 1491818637
0.086669921875, 0.327636718750, 0.931396484375, -5.367187500000, -1.171875000000, -1.179687500000, 1491818637
0.099365234375, 0.383789062500, 1.000732421875, -11.796875000000, -4.914062500000, -8.750000000000, 1491818637
0.099365234375, 0.383789062500, 1.000732421875, -11.796875000000, -4.914062500000, -8.750000000000, 1491818637
0.099365234375, 0.383789062500, 1.000732421875, -11.796875000000, -4.914062500000, -8.750000000000, 1491818637
0.195312500000, 0.290283203125, 1.026367187500, -15.070312500000, -4.078125000000, -8.750000000000, 1491818637
0.195312500000, 0.290283203125, 1.026367187500, -15.070312500000, -4.078125000000, -8.750000000000, 1491818637
0.195312500000, 0.290283203125, 1.026367187500, -15.070312500000, -4.078125000000, -8.750000000000, 1491818637
0.154785156250, 0.310791015625, 1.013427734375, -14.710937500000, -0.148437500000, -1.546875000000, 1491818637
0.154785156250, 0.310791015625, 1.013427734375, -14.710937500000, -0.148437500000, -1.546875000000, 1491818637
0.154785156250, 0.310791015625, 1.013427734375, -14.710937500000, -0.148437500000, -1.546875000000, 1491818637
0.058349609375, 0.357666015625, 0.965820312500, -7.960937500000, 4.234375000000, -4.140625000000, 1491818637
0.058349609375, 0.357666015625, 0.965820312500, -7.960937500000, 4.234375000000, -4.140625000000, 1491818637
0.058349609375, 0.357666015625, 0.965820312500, -7.960937500000, 4.234375000000, -4.140625000000, 1491818637
0.058349609375, 0.357666015625, 0.965820312500, -7.960937500000, 4.234375000000, -4.140625000000, 1491818637
0.125732421875, 0.376708984375, 0.930908203125, -0.312500000000, -1.515625000000, -5.140625000000, 1491818637
0.125732421875, 0.376708984375, 0.930908203125, -0.312500000000, -1.515625000000, -5.140625000000, 1491818637
0.125732421875, 0.376708984375, 0.930908203125, -0.312500000000, -1.515625000000, -5.140625000000, 1491818637
0.093750000000, 0.308837890625, 0.966064453125, -3.062500000000, -1.484375000000, -1.265625000000, 1491818637
0.093750000000, 0.308837890625, 0.966064453125, -3.062500000000, -1.484375000000, -1.265625000000, 1491818637
0.093750000000, 0.308837890625, 0.966064453125, -3.062500000000, -1.484375000000, -1.265625000000, 1491818637
0.053955078125, 0.395507812500, 0.917236328125, -2.085937500000, 0.234375000000, -5.507812500000, 1491818637
0.053955078125, 0.395507812500, 0.917236328125, -2.085937500000, 0.234375000000, -5.507812500000, 1491818637
0.053955078125, 0.395507812500, 0.917236328125, -2.085937500000, 0.234375000000, -5.507812500000, 1491818637
0.110839843750, 0.290283203125, 1.015136718750, -2.875000000000, 2.351562500000, -6.500000000000, 1491818637
0.110839843750, 0.290283203125, 1.015136718750, -2.875000000000, 2.351562500000, -6.500000000000, 1491818637
0.110839843750, 0.290283203125, 1.015136718750, -2.875000000000, 2.351562500000, -6.500000000000, 1491818637
0.110839843750, 0.290283203125, 1.015136718750, -2.875000000000, 2.351562500000, -6.500000000000, 1491818637
0.098388671875, 0.292236328125, 1.008544921875, -6.710937500000, 2.843750000000, -5.875000000000, 1491818637
0.098388671875, 0.292236328125, 1.008544921875, -6.710937500000, 2.843750000000, -5.875000000000, 1491818637
0.098388671875, 0.292236328125, 1.008544921875, -6.710937500000, 2.843750000000, -5.875000000000, 1491818637
0.149658203125, 0.446777343750, 0.861083984375, -6.687500000000, 1.023437500000, -4.101562500000, 1491818637
0.149658203125, 0.446777343750, 0.861083984375, -6.687500000000, 1.023437500000, -4.101562500000, 1491818637
0.149658203125, 0.446777343750, 0.861083984375, -6.687500000000, 1.023437500000, -4.101562500000, 1491818637
0.092285156250, 0.218750000000, 0.919433593750, -1.976562500000, 0.593750000000, -4.765625000000, 1491818637
0.092285156250, 0.218750000000, 0.919433593750, -1.976562500000, 0.593750000000, -4.765625000000, 1491818638
0.092285156250, 0.218750000000, 0.919433593750, -1.976562500000, 0.593750000000, -4.765625000000, 1491818638
0.101074218750, 0.241943359375, 0.872070312500, -1.640625000000, -2.687500000000, -1.945312500000, 1491818638
0.101074218750, 0.241943359375, 0.872070312500, -1.640625000000, -2.687500000000, -1.945312500000, 1491818638
0.101074218750, 0.241943359375, 0.872070312500, -1.640625000000, -2.687500000000, -1.945312500000, 1491818638
0.101074218750, 0.241943359375, 0.872070312500, -1.640625000000, -2.687500000000, -1.945312500000, 1491818638
0.097900390625, 0.359375000000, 0.915283203125, -1.382812500000, -0.695312500000, -2.226562500000, 1491818638
0.097900390625, 0.359375000000, 0.915283203125, -1.382812500000, -0.695312500000, -2.226562500000, 1491818638
0.097900390625, 0.359375000000, 0.915283203125, -1.382812500000, -0.695312500000, -2.226562500000, 1491818638
0.148193359375, 0.310546875000, 0.907714843750, -3.484375000000, 2.234375000000, -5.484375000000, 1491818638
0.148193359375, 0.310546875000, 0.907714843750, -3.484375000000, 2.234375000000, -5.484375000000, 1491818638
0.148193359375, 0.310546875000, 0.907714843750, -3.484375000000, 2.234375000000, -5.484375000000, 1491818638
0.083740234375, 0.376464843750, 0.924804687500, -1.914062500000, -0.210937500000, -6.460937500000, 1491818638
0.083740234375, 0.376464843750, 0.924804687500, -1.914062500000, -0.210937500000, -6.460937500000, 1491818638
0.083740234375, 0.376464843750, 0.924804687500, -1.914062500000, -0.210937500000, -6.460937500000, 1491818638
0.032714843750, 0.388427734375, 0.938232421875, -3.125000000000, 2.289062500000, -8.085937500000, 1491818638
0.032714843750, 0.388427734375, 0.938232421875, -3.125000000000, 2.289062500000, -8.085937500000, 1491818638
0.032714843750, 0.388427734375, 0.938232421875, -3.125000000000, 2.289062500000, -8.085937500000, 1491818638
0.032714843750, 0.388427734375, 0.938232421875, -3.125000000000, 2.289062500000, -8.085937500000, 1491818638
0.055664062500, 0.375976562500, 0.960937500000, -6.031250000000, 2.367187500000, -3.437500000000, 1491818638
0.055664062500, 0.375976562500, 0.960937500000, -6.031250000000, 2.367187500000, -3.437500000000, 1491818638
0.055664062500, 0.375976562500, 0.960937500000, -6.031250000000, 2.367187500000, -3.437500000000, 1491818638
0.112304687500, 0.286376953125, 0.939941406250, -6.351562500000, -0.992187500000, -2.070312500000, 1491818638
0.112304687500, 0.286376953125, 0.939941406250, -6.351562500000, -0.992187500000, -2.070312500000, 1491818638
0.112304687500, 0.286376953125, 0.939941406250, -6.351562500000, -0.992187500000, -2.070312500000, 1491818638
0.046630859375, 0.299316406250, 0.961425781250, -3.421875000000, 2.789062500000, -8.468750000000, 1491818638
0.046630859375, 0.299316406250, 0.961425781250, -3.421875000000, 2.789062500000, -8.468750000000, 1491818638
0.046630859375, 0.299316406250, 0.961425781250, -3.421875000000, 2.789062500000, -8.468750000000, 1491818638
0.127441406250, 0.362548828125, 0.941162109375, -4.703125000000, 0.703125000000, -1.523437500000, 1491818638
0.127441406250, 0.362548828125, 0.941162109375, -4.703125000000, 0.703125000000, -1.523437500000, 1491818638
0.127441406250, 0.362548828125, 0.941162109375, -4.703125000000, 0.703125000000, -1.523437500000, 1491818638
0.127441406250, 0.362548828125, 0.941162109375, -4.703125000000, 0.703125000000, -1.523437500000, 1491818638
0.034912109375, 0.282958984375, 0.899414062500, -1.726562500000, -0.820312500000, -6.773437500000, 1491818638
0.034912109375, 0.282958984375, 0.899414062500, -1.726562500000, -0.820312500000, -6.773437500000, 1491818638
0.034912109375, 0.282958984375, 0.899414062500, -1.726562500000, -0.820312500000, -6.773437500000, 1491818638
0.051513671875, 0.400146484375, 1.007080078125, -3.031250000000, 0.054687500000, -2.398437500000, 1491818638
0.051513671875, 0.400146484375, 1.007080078125, -3.031250000000, 0.054687500000, -2.398437500000, 1491818638
0.051513671875, 0.400146484375, 1.007080078125, -3.031250000000, 0.054687500000, -2.398437500000, 1491818638
0.141113281250, 0.348388671875, 0.912353515625, -4.734375000000, 0.539062500000, -6.750000000000, 1491818638
0.141113281250, 0.348388671875, 0.912353515625, -4.734375000000, 0.539062500000, -6.750000000000, 1491818638
0.141113281250, 0.348388671875, 0.912353515625, -4.734375000000, 0.539062500000, -6.750000000000, 1491818638
0.155029296875, 0.293701171875, 0.918945312500, -3.757812500000, -0.640625000000, -8.289062500000, 1491818638
0.155029296875, 0.293701171875, 0.918945312500, -3.757812500000, -0.640625000000, -8.289062500000, 1491818638
0.155029296875, 0.293701171875, 0.918945312500, -3.757812500000, -0.640625000000, -8.289062500000, 1491818638
0.155029296875, 0.293701171875, 0.918945312500, -3.757812500000, -0.640625000000, -8.289062500000, 1491818638
0.044189453125, 0.398193359375, 1.009521484375, -4.796875000000, 2.054687500000, -3.453125000000, 1491818638
0.044189453125, 0.398193359375, 1.009521484375, -4.796875000000, 2.054687500000, -3.453125000000, 1491818638
0.143798828125, 0.301513671875, 0.959960937500, -3.671875000000, 0.601562500000, -1.296875000000, 1491818638
0.143798828125, 0.301513671875, 0.959960937500, -3.671875000000, 0.601562500000, -1.296875000000, 1491818638
0.143798828125, 0.301513671875, 0.959960937500, -3.671875000000, 0.601562500000, -1.296875000000, 1491818638
0.143798828125, 0.301513671875, 0.959960937500, -3.671875000000, 0.601562500000, -1.296875000000, 1491818638
0.115722656250, 0.322998046875, 0.968017578125, -4.460937500000, -0.382812500000, -3.335937500000, 1491818638
0.115722656250, 0.322998046875, 0.968017578125, -4.460937500000, -0.382812500000, -3.335937500000, 1491818638
0.115722656250, 0.322998046875, 0.968017578125, -4.460937500000, -0.382812500000, -3.335937500000, 1491818638
0.127929687500, 0.379638671875, 0.960693359375, -4.968750000000, 0.312500000000, -6.273437500000, 1491818638
0.127929687500, 0.379638671875, 0.960693359375, -4.968750000000, 0.312500000000, -6.273437500000, 1491818638
0.127929687500, 0.379638671875, 0.960693359375, -4.968750000000, 0.312500000000, -6.273437500000, 1491818638
0.127929687500, 0.379638671875, 0.960693359375, -4.968750000000, 0.312500000000, -6.273437500000, 1491818638
0.045898437500, 0.383300781250, 0.937500000000, -3.585937500000, -0.250000000000, -1.929687500000, 1491818638
0.045898437500, 0.383300781250, 0.937500000000, -3.585937500000, -0.250000000000, -1.929687500000, 1491818638
0.045898437500, 0.383300781250, 0.937500000000, -3.585937500000, -0.250000000000, -1.929687500000, 1491818638
0.100341796875, 0.400146484375, 0.957519531250, -4.140625000000, 0.523437500000, -2.679687500000, 1491818638
0.100341796875, 0.400146484375, 0.957519531250, -4.140625000000, 0.523437500000, -2.679687500000, 1491818638
0.100341796875, 0.400146484375, 0.957519531250, -4.140625000000, 0.523437500000, -2.679687500000, 1491818638
0.098876953125, 0.295166015625, 0.954833984375, -4.867187500000, -0.453125000000, -2.937500000000, 1491818638
0.098876953125, 0.295166015625, 0.954833984375, -4.867187500000, -0.453125000000, -2.937500000000, 1491818638
0.098876953125, 0.295166015625, 0.954833984375, -4.867187500000, -0.453125000000, -2.937500000000, 1491818638
0.089111328125, 0.290283203125, 0.915527343750, -4.257812500000, 0.835937500000, -4.015625000000, 1491818639
0.089111328125, 0.290283203125, 0.915527343750, -4.257812500000, 0.835937500000, -4.015625000000, 1491818639
0.089111328125, 0.290283203125, 0.915527343750, -4.257812500000, 0.835937500000, -4.015625000000, 1491818639
0.089111328125, 0.290283203125, 0.915527343750, -4.257812500000, 0.835937500000, -4.015625000000, 1491818639
0.052734375000, 0.307128906250, 0.965820312500, -1.968750000000, 0.617187500000, -3.273437500000, 1491818639
0.052734375000, 0.307128906250, 0.965820312500, -1.968750000000, 0.617187500000, -3.273437500000, 1491818639
0.052734375000, 0.307128906250, 0.965820312500, -1.968750000000, 0.617187500000, -3.273437500000, 1491818639
0.103027343750, 0.352539062500, 0.956542968750, -3.921875000000, -0.835937500000, -4.578125000000, 1491818639
0.103027343750, 0.352539062500, 0.956542968750, -3.921875000000, -0.835937500000, -4.578125000000, 1491818639
0.103027343750, 0.352539062500, 0.956542968750, -3.921875000000, -0.835937500000, -4.578125000000, 1491818639
0.144531250000, 0.243896484375, 1.020263671875, -6.437500000000, 0.218750000000, -4.687500000000, 1491818639
0.144531250000, 0.243896484375, 1.020263671875, -6.437500000000, 0.218750000000, -4.687500000000, 1491818639
0.144531250000, 0.243896484375, 1.020263671875, -6.437500000000, 0.218750000000, -4.687500000000, 1491818639
0.062011718750, 0.466796875000, 1.014404296875, -4.171875000000, -2.296875000000, -1.171875000000, 1491818639
0.062011718750, 0.466796875000, 1.014404296875, -4.171875000000, -2.296875000000, -1.171875000000, 1491818639
0.062011718750, 0.466796875000, 1.014404296875, -4.171875000000, -2.296875000000, -1.171875000000, 1491818639
0.062011718750, 0.466796875000, 1.014404296875, -4.171875000000, -2.296875000000, -1.171875000000, 1491818639
0.143798828125, 0.311523437500, 1.005859375000, -4.343750000000, 0.945312500000, -3.156250000000, 1491818639
0.143798828125, 0.311523437500, 1.005859375000, -4.343750000000, 0.945312500000, -3.156250000000, 1491818639
0.143798828125, 0.311523437500, 1.005859375000, -4.343750000000, 0.945312500000, -3.156250000000, 1491818639
0.109863281250, 0.403076171875, 0.957519531250, -4.992187500000, 0.312500000000, -1.187500000000, 1491818639
0.109863281250, 0.403076171875, 0.957519531250, -4.992187500000, 0.312500000000, -1.187500000000, 1491818639
0.109863281250, 0.403076171875, 0.957519531250, -4.992187500000, 0.312500000000, -1.187500000000, 1491818639
0.125732421875, 0.288330078125, 0.924560546875, -3.320312500000, 2.164062500000, -2.468750000000, 1491818639
0.125732421875, 0.288330078125, 0.924560546875, -3.320312500000, 2.164062500000, -2.468750000000, 1491818639
0.044921875000, 0.316650390625, 0.917968750000, -4.554687500000, -0.679687500000, -1.648437500000, 1491818639
0.044921875000, 0.316650390625, 0.917968750000, -4.554687500000, -0.679687500000, -1.648437500000, 1491818639
0.044921875000, 0.316650390625, 0.917968750000, -4.554687500000, -0.679687500000, -1.648437500000, 1491818639
0.044921875000, 0.316650390625, 0.917968750000, -4.554687500000, -0.679687500000, -1.648437500000, 1491818639
0.044921875000, 0.316650390625, 0.917968750000, -4.554687500000, -0.679687500000, -1.648437500000, 1491818639
0.127685546875, 0.388183593750, 1.007080078125, -4.914062500000, 0.406250000000, 0.367187500000, 1491818639
0.127685546875, 0.388183593750, 1.007080078125, -4.914062500000, 0.406250000000, 0.367187500000, 1491818639
0.127685546875, 0.388183593750, 1.007080078125, -4.914062500000, 0.406250000000, 0.367187500000, 1491818639
0.110351562500, 0.341308593750, 0.965576171875, -4.257812500000, 0.359375000000, -5.968750000000, 1491818639
0.110351562500, 0.341308593750, 0.965576171875, -4.257812500000, 0.359375000000, -5.968750000000, 1491818639
0.110351562500, 0.341308593750, 0.965576171875, -4.257812500000, 0.359375000000, -5.968750000000, 1491818639
0.151855468750, 0.461914062500, 0.912597656250, -1.414062500000, 2.187500000000, -8.234375000000, 1491818639
0.151855468750, 0.461914062500, 0.912597656250, -1.414062500000, 2.187500000000, -8.234375000000, 1491818639
0.151855468750, 0.461914062500, 0.912597656250, -1.414062500000, 2.187500000000, -8.234375000000, 1491818639
0.154052734375, 0.296875000000, 0.923828125000, -4.843750000000, 0.500000000000, -4.156250000000, 1491818639
0.154052734375, 0.296875000000, 0.923828125000, -4.843750000000, 0.500000000000, -4.156250000000, 1491818639
0.154052734375, 0.296875000000, 0.923828125000, -4.843750000000, 0.500000000000, -4.156250000000, 1491818639
0.154052734375, 0.296875000000, 0.923828125000, -4.843750000000, 0.500000000000, -4.156250000000, 1491818639
0.044433593750, 0.375244140625, 0.908447265625, -3.937500000000, 2.195312500000, -6.031250000000, 1491818639
0.044433593750, 0.375244140625, 0.908447265625, -3.937500000000, 2.195312500000, -6.031250000000, 1491818639
0.044433593750, 0.375244140625, 0.908447265625, -3.937500000000, 2.195312500000, -6.031250000000, 1491818639
0.048339843750, 0.286621093750, 0.919433593750, -6.687500000000, -0.320312500000, -8.437500000000, 1491818639
0.048339843750, 0.286621093750, 0.919433593750, -6.687500000000, -0.320312500000, -8.437500000000, 1491818639
0.048339843750, 0.286621093750, 0.919433593750, -6.687500000000, -0.320312500000, -8.437500000000, 1491818639
0.053222656250, 0.300781250000, 0.943603515625, -3.343750000000, 2.289062500000, -1.296875000000, 1491818639
0.053222656250, 0.300781250000, 0.943603515625, -3.343750000000, 2.289062500000, -1.296875000000, 1491818639
0.046142578125, 0.339599609375, 0.975341796875, -3.226562500000, -0.007812500000, 0.789062500000, 1491818639
0.211425781250, 0.281250000000, 0.968750000000, -3.226562500000, -0.007812500000, 0.789062500000, 1491818639
0.211425781250, 0.281250000000, 0.968750000000, -3.226562500000, -0.007812500000, 0.789062500000, 1491818639
0.211425781250, 0.281250000000, 0.968750000000, -3.226562500000, -0.007812500000, 0.789062500000, 1491818639
0.211425781250, 0.281250000000, 0.968750000000, -3.226562500000, -0.007812500000, 0.789062500000, 1491818639
0.149658203125, 0.238037109375, 0.930664062500, -3.414062500000, -0.906250000000, -3.382812500000, 1491818639
0.149658203125, 0.238037109375, 0.930664062500, -3.414062500000, -0.906250000000, -3.382812500000, 1491818639
0.149658203125, 0.238037109375, 0.930664062500, -3.414062500000, -0.906250000000, -3.382812500000, 1491818639
0.144531250000, 0.355712890625, 0.925537109375, -4.367187500000, -0.890625000000, -3.546875000000, 1491818639
0.144531250000, 0.355712890625, 0.925537109375, -4.367187500000, -0.890625000000, -3.546875000000, 1491818639
0.144531250000, 0.355712890625, 0.925537109375, -4.367187500000, -0.890625000000, -3.546875000000, 1491818639
0.138671875000, 0.308105468750, 1.018310546875, -3.164062500000, 0.273437500000, -1.257812500000, 1491818639
0.138671875000, 0.308105468750, 1.018310546875, -3.164062500000, 0.273437500000, -1.257812500000, 1491818639
0.138671875000, 0.308105468750, 1.018310546875, -3.164062500000, 0.273437500000, -1.257812500000, 1491818639
0.073730468750, 0.334716796875, 0.844726562500, -4.226562500000, 2.234375000000, -8.757812500000, 1491818640
0.153320312500, 0.327392578125, 0.916015625000, -4.304687500000, -0.890625000000, -8.515625000000, 1491818640
0.104980468750, 0.347167968750, 0.913085937500, 0.062500000000, -1.093750000000, -2.039062500000, 1491818640
0.129394531250, 0.381103515625, 1.008300781250, -1.585937500000, -2.429687500000, -3.992187500000, 1491818640
0.131103515625, 0.302734375000, 0.953125000000, -2.742187500000, -1.593750000000, -3.375000000000, 1491818640
0.141113281250, 0.380126953125, 0.874267578125, -1.242187500000, 2.718750000000, -6.437500000000, 1491818640
0.141113281250, 0.380126953125, 0.874267578125, -1.242187500000, 2.718750000000, -6.437500000000, 1491818640
0.141113281250, 0.380126953125, 0.874267578125, -1.242187500000, 2.718750000000, -6.437500000000, 1491818640
0.141113281250, 0.380126953125, 0.874267578125, -1.242187500000, 2.718750000000, -6.437500000000, 1491818640
0.141113281250, 0.380126953125, 0.874267578125, -1.242187500000, 2.718750000000, -6.437500000000, 1491818640
0.141113281250, 0.380126953125, 0.874267578125, -1.242187500000, 2.718750000000, -6.437500000000, 1491818640
0.141113281250, 0.380126953125, 0.874267578125, -1.242187500000, 2.718750000000, -6.437500000000, 1491818640
0.141113281250, 0.380126953125, 0.874267578125, -1.242187500000, 2.718750000000, -6.437500000000, 1491818640
0.037597656250, 0.390625000000, 0.972412109375, -6.031250000000, -0.742187500000, -1.585937500000, 1491818640
0.037597656250, 0.390625000000, 0.972412109375, -6.031250000000, -0.742187500000, -1.585937500000, 1491818640
0.037597656250, 0.390625000000, 0.972412109375, -6.031250000000, -0.742187500000, -1.585937500000, 1491818640
0.037597656250, 0.390625000000, 0.972412109375, -6.031250000000, -0.742187500000, -1.585937500000, 1491818640
0.093505859375, 0.297119140625, 1.007812500000, -4.937500000000, 0.320312500000, -1.945312500000, 1491818640
0.093505859375, 0.297119140625, 1.007812500000, -4.937500000000, 0.320312500000, -1.945312500000, 1491818640
0.093505859375, 0.297119140625, 1.007812500000, -4.937500000000, 0.320312500000, -1.945312500000, 1491818640
0.112060546875, 0.300537109375, 0.951416015625, -4.414062500000, -0.156250000000, -4.890625000000, 1491818640
0.112060546875, 0.300537109375, 0.951416015625, -4.414062500000, -0.156250000000, -4.890625000000, 1491818640
0.112060546875, 0.300537109375, 0.951416015625, -4.414062500000, -0.156250000000, -4.890625000000, 1491818640
0.205322265625, 0.302001953125, 1.021484375000, -4.664062500000, 0.968750000000, -2.437500000000, 1491818640
0.205322265625, 0.302001953125, 1.021484375000, -4.664062500000, 0.968750000000, -2.437500000000, 1491818640
0.205322265625, 0.302001953125, 1.021484375000, -4.664062500000, 0.968750000000, -2.437500000000, 1491818640
0.094238281250, 0.383056640625, 0.909667968750, -3.117187500000, 1.757812500000, -2.007812500000, 1491818640
0.094238281250, 0.383056640625, 0.909667968750, -3.117187500000, 1.757812500000, -2.007812500000, 1491818640
0.094238281250, 0.383056640625, 0.909667968750, -3.117187500000, 1.757812500000, -2.007812500000, 1491818640
0.094238281250, 0.383056640625, 0.909667968750, -3.117187500000, 1.757812500000, -2.007812500000, 1491818640
0.122070312500, 0.338623046875, 0.972167968750, -1.945312500000, -0.148437500000, -1.656250000000, 1491818640
0.122070312500, 0.338623046875, 0.972167968750, -1.945312500000, -0.148437500000, -1.656250000000, 1491818640
0.122070312500, 0.338623046875, 0.972167968750, -1.945312500000, -0.148437500000, -1.656250000000, 1491818640
0.105957031250, 0.300292968750, 0.908935546875, -1.382812500000, -2.046875000000, -6.812500000000, 1491818640
0.105957031250, 0.300292968750, 0.908935546875, -1.382812500000, -2.046875000000, -6.812500000000, 1491818640
0.105957031250, 0.300292968750, 0.908935546875, -1.382812500000, -2.046875000000, -6.812500000000, 1491818640
0.148437500000, 0.392822265625, 1.000976562500, -3.109375000000, 0.843750000000, -3.656250000000, 1491818640
0.148437500000, 0.392822265625, 1.000976562500, -3.109375000000, 0.843750000000, -3.656250000000, 1491818640
0.148437500000, 0.392822265625, 1.000976562500, -3.109375000000, 0.843750000000, -3.656250000000, 1491818640
0.045166015625, 0.457763671875, 0.927978515625, -4.429687500000, -0.453125000000, -3.515625000000, 1491818640
0.045166015625, 0.457763671875, 0.927978515625, -4.429687500000, -0.453125000000, -3.515625000000, 1491818640
0.045166015625, 0.457763671875, 0.927978515625, -4.429687500000, -0.453125000000, -3.515625000000, 1491818640
0.045166015625, 0.457763671875, 0.927978515625, -4.429687500000, -0.453125000000, -3.515625000000, 1491818640
0.092773437500, 0.392333984375, 0.912597656250, -6.015625000000, -0.867187500000, -6.359375000000, 1491818640
0.092773437500, 0.392333984375, 0.912597656250, -6.015625000000, -0.867187500000, -6.359375000000, 1491818640
0.092773437500, 0.392333984375, 0.912597656250, -6.015625000000, -0.867187500000, -6.359375000000, 1491818640
0.083984375000, 0.300537109375, 0.971679687500, -3.882812500000, 2.007812500000, -6.312500000000, 1491818640
0.083984375000, 0.300537109375, 0.971679687500, -3.882812500000, 2.007812500000, -6.312500000000, 1491818640
0.083984375000, 0.300537109375, 0.971679687500, -3.882812500000, 2.007812500000, -6.312500000000, 1491818640
0.037841796875, 0.281494140625, 1.012451171875, -4.250000000000, -0.281250000000, -4.734375000000, 1491818640
0.037841796875, 0.281494140625, 1.012451171875, -4.250000000000, -0.281250000000, -4.734375000000, 1491818640
0.037841796875, 0.281494140625, 1.012451171875, -4.250000000000, -0.281250000000, -4.734375000000, 1491818640
0.061279296875, 0.343994140625, 0.943603515625, -4.429687500000, 0.781250000000, -4.132812500000, 1491818640
0.061279296875, 0.343994140625, 0.943603515625, -4.429687500000, 0.781250000000, -4.132812500000, 1491818640
0.061279296875, 0.343994140625, 0.943603515625, -4.429687500000, 0.781250000000, -4.132812500000, 1491818640
0.061279296875, 0.343994140625, 0.943603515625, -3.156250000000, 2.093750000000, -3.703125000000, 1491818640
0.160644531250, 0.376953125000, 0.944580078125, -6.117187500000, 2.046875000000, -2.578125000000, 1491818640
0.160644531250, 0.376953125000, 0.944580078125, -6.117187500000, 2.046875000000, -2.578125000000, 1491818640
0.160644531250, 0.376953125000, 0.944580078125, -6.117187500000, 2.046875000000, -2.578125000000, 1491818640
0.153076171875, 0.448486328125, 0.965332031250, -3.929687500000, 0.382812500000, -2.062500000000, 1491818640
0.153076171875, 0.448486328125, 0.965332031250, -3.929687500000, 0.382812500000, -2.062500000000, 1491818640
0.153076171875, 0.448486328125, 0.965332031250, -3.929687500000, 0.382812500000, -2.062500000000, 1491818640
0.140136718750, 0.362304687500, 0.962646484375, -3.523437500000, -0.992187500000, -2.515625000000, 1491818640
0.140136718750, 0.362304687500, 0.962646484375, -3.523437500000, -0.992187500000, -2.515625000000, 1491818640
0.140136718750, 0.362304687500, 0.962646484375, -3.523437500000, -0.992187500000, -2.515625000000, 1491818640
-0.005859375000, 0.294433593750, 0.862792968750, -4.601562500000, 0.421875000000, -4.617187500000, 1491818640
-0.005859375000, 0.294433593750, 0.862792968750, -4.601562500000, 0.421875000000, -4.617187500000, 1491818640
-0.005859375000, 0.294433593750, 0.862792968750, -4.601562500000, 0.421875000000, -4.617187500000, 1491818640
-0.005859375000, 0.294433593750, 0.862792968750, -4.601562500000, 0.421875000000, -4.617187500000, 1491818640
