ACC_X,ACC_Y,ACC_Z,G_X,G_Y,G_Z,Unix Time
0.047607421875, 0.948486328125, -0.357910156250, -0.562500000000, 1.757812500000, -7.742187500000, 1490778199
0.047607421875, 0.948486328125, -0.357910156250, -0.562500000000, 1.757812500000, -7.742187500000, 1490778199
0.047607421875, 0.948486328125, -0.357910156250, -0.562500000000, 1.757812500000, -7.742187500000, 1490778199
0.069091796875, 0.848876953125, -0.281494140625, 0.171875000000, 4.328125000000, -3.640625000000, 1490778199
0.069091796875, 0.848876953125, -0.281494140625, 0.171875000000, 4.328125000000, -3.640625000000, 1490778199
0.069091796875, 0.848876953125, -0.281494140625, 0.171875000000, 4.328125000000, -3.640625000000, 1490778199
0.069091796875, 0.848876953125, -0.281494140625, 0.171875000000, 4.328125000000, -3.640625000000, 1490778199
0.069091796875, 0.848876953125, -0.281494140625, 0.171875000000, 4.328125000000, -3.640625000000, 1490778199
0.069091796875, 0.848876953125, -0.281494140625, 0.171875000000, 4.328125000000, -3.640625000000, 1490778199
0.069091796875, 0.848876953125, -0.281494140625, 0.171875000000, 4.328125000000, -3.640625000000, 1490778199
0.093261718750, 0.965820312500, -0.385009765625, -1.984375000000, 1.882812500000, -3.710937500000, 1490778199
0.093261718750, 0.965820312500, -0.385009765625, -1.984375000000, 1.882812500000, -3.710937500000, 1490778199
0.093261718750, 0.965820312500, -0.385009765625, -1.984375000000, 1.882812500000, -3.710937500000, 1490778199
-0.006103515625, 1.028564453125, -0.367187500000, -0.148437500000, 4.343750000000, -1.375000000000, 1490778199
-0.006103515625, 1.028564453125, -0.367187500000, -0.148437500000, 4.343750000000, -1.375000000000, 1490778199
-0.006103515625, 1.028564453125, -0.367187500000, -0.148437500000, 4.343750000000, -1.375000000000, 1490778199
0.002929687500, 0.792968750000, -0.342285156250, 0.843750000000, 3.648437500000, -6.710937500000, 1490778199
0.002929687500, 0.792968750000, -0.342285156250, 0.843750000000, 3.648437500000, -6.710937500000, 1490778199
0.002929687500, 0.792968750000, -0.342285156250, 0.843750000000, 3.648437500000, -6.710937500000, 1490778199
-0.030761718750, 0.908691406250, -0.309082031250, 0.750000000000, 5.351562500000, -18.796875000000, 1490778199
-0.030761718750, 0.908691406250, -0.309082031250, 0.750000000000, 5.351562500000, -18.796875000000, 1490778199
-0.030761718750, 0.908691406250, -0.309082031250, 0.750000000000, 5.351562500000, -18.796875000000, 1490778199
-0.030761718750, 0.908691406250, -0.309082031250, 0.750000000000, 5.351562500000, -18.796875000000, 1490778199
0.106689453125, 0.909179687500, -0.297607421875, -3.000000000000, 4.593750000000, -29.023437500000, 1490778199
0.106689453125, 0.909179687500, -0.297607421875, -3.000000000000, 4.593750000000, -29.023437500000, 1490778199
0.106689453125, 0.909179687500, -0.297607421875, -3.000000000000, 4.593750000000, -29.023437500000, 1490778199
0.153808593750, 0.852783203125, -0.233398437500, -1.117187500000, 3.257812500000, -18.781250000000, 1490778199
0.076660156250, 0.930175781250, -0.306396484375, 4.398437500000, 3.921875000000, -15.351562500000, 1490778199
0.076660156250, 0.930175781250, -0.306396484375, 4.398437500000, 3.921875000000, -15.351562500000, 1490778199
0.076660156250, 0.930175781250, -0.306396484375, 4.398437500000, 3.921875000000, -15.351562500000, 1490778199
0.049804687500, 0.978027343750, -0.462646484375, -3.281250000000, -20.664062500000, -11.093750000000, 1490778199
0.049804687500, 0.978027343750, -0.462646484375, -3.281250000000, -20.664062500000, -11.093750000000, 1490778199
0.049804687500, 0.978027343750, -0.462646484375, -3.281250000000, -20.664062500000, -11.093750000000, 1490778199
0.049804687500, 0.978027343750, -0.462646484375, -3.281250000000, -20.664062500000, -11.093750000000, 1490778199
0.039794921875, 0.923828125000, -0.308837890625, -3.125000000000, -14.898437500000, -14.390625000000, 1490778199
0.039794921875, 0.923828125000, -0.308837890625, -3.125000000000, -14.898437500000, -14.390625000000, 1490778199
0.039794921875, 0.923828125000, -0.308837890625, -3.125000000000, -14.898437500000, -14.390625000000, 1490778199
0.125244140625, 0.928466796875, -0.302001953125, -5.742187500000, -9.328125000000, -11.289062500000, 1490778199
0.125244140625, 0.928466796875, -0.302001953125, -5.742187500000, -9.328125000000, -11.289062500000, 1490778199
0.125244140625, 0.928466796875, -0.302001953125, -5.742187500000, -9.328125000000, -11.289062500000, 1490778199
0.125244140625, 0.928466796875, -0.302001953125, -5.742187500000, -9.328125000000, -11.289062500000, 1490778199
0.125244140625, 0.928466796875, -0.302001953125, -5.742187500000, -9.328125000000, -11.289062500000, 1490778199
0.053955078125, 0.936523437500, -0.405517578125, 7.132812500000, -35.007812500000, -28.835937500000, 1490778200
0.053955078125, 0.936523437500, -0.405517578125, 7.132812500000, -35.007812500000, -28.835937500000, 1490778200
0.053955078125, 0.936523437500, -0.405517578125, 7.132812500000, -35.007812500000, -28.835937500000, 1490778200
-0.091308593750, 0.980224609375, -0.368164062500, 8.023437500000, 18.437500000000, -13.968750000000, 1490778200
-0.091308593750, 0.980224609375, -0.368164062500, 8.023437500000, 18.437500000000, -13.968750000000, 1490778200
-0.091308593750, 0.980224609375, -0.368164062500, 8.023437500000, 18.437500000000, -13.968750000000, 1490778200
-0.091308593750, 0.980224609375, -0.368164062500, 8.023437500000, 18.437500000000, -13.968750000000, 1490778200
-0.006347656250, 1.026855468750, -0.240966796875, 5.617187500000, 20.242187500000, -4.796875000000, 1490778200
-0.006347656250, 1.026855468750, -0.240966796875, 5.617187500000, 20.242187500000, -4.796875000000, 1490778200
-0.006347656250, 1.026855468750, -0.240966796875, 5.617187500000, 20.242187500000, -4.796875000000, 1490778200
0.089111328125, 0.906738281250, -0.240722656250, -0.031250000000, 28.804687500000, 4.031250000000, 1490778200
0.089111328125, 0.906738281250, -0.240722656250, -0.031250000000, 28.804687500000, 4.031250000000, 1490778200
0.089111328125, 0.906738281250, -0.240722656250, -0.031250000000, 28.804687500000, 4.031250000000, 1490778200
0.194335937500, 0.860107421875, -0.167724609375, 4.367187500000, 23.453125000000, -8.367187500000, 1490778200
0.194335937500, 0.860107421875, -0.167724609375, 4.367187500000, 23.453125000000, -8.367187500000, 1490778200
0.194335937500, 0.860107421875, -0.167724609375, 4.367187500000, 23.453125000000, -8.367187500000, 1490778200
0.124023437500, 0.872802734375, -0.215087890625, 5.414062500000, 14.367187500000, -14.031250000000, 1490778200
0.124023437500, 0.872802734375, -0.215087890625, 5.414062500000, 14.367187500000, -14.031250000000, 1490778200
0.124023437500, 0.872802734375, -0.215087890625, 5.414062500000, 14.367187500000, -14.031250000000, 1490778200
0.124023437500, 0.872802734375, -0.215087890625, 5.414062500000, 14.367187500000, -14.031250000000, 1490778200
0.108398437500, 0.917724609375, -0.273681640625, 2.898437500000, 30.828125000000, -9.828125000000, 1490778200
0.168945312500, 0.939697265625, -0.340576171875, 2.742187500000, 16.648437500000, -10.320312500000, 1490778200
0.168945312500, 0.939697265625, -0.340576171875, 2.742187500000, 16.648437500000, -10.320312500000, 1490778200
0.168945312500, 0.939697265625, -0.340576171875, 2.742187500000, 16.648437500000, -10.320312500000, 1490778200
0.168945312500, 0.939697265625, -0.340576171875, 2.742187500000, 16.648437500000, -10.320312500000, 1490778200
0.114990234375, 0.869384765625, -0.338867187500, -5.625000000000, 17.742187500000, -7.304687500000, 1490778200
0.114990234375, 0.869384765625, -0.338867187500, -5.625000000000, 17.742187500000, -7.304687500000, 1490778200
0.114990234375, 0.869384765625, -0.338867187500, -5.625000000000, 17.742187500000, -7.304687500000, 1490778200
0.114990234375, 0.869384765625, -0.338867187500, -5.625000000000, 17.742187500000, -7.304687500000, 1490778200
0.313232421875, 0.940917968750, -0.197265625000, -15.882812500000, 41.750000000000, -14.101562500000, 1490778200
0.313232421875, 0.940917968750, -0.197265625000, -15.882812500000, 41.750000000000, -14.101562500000, 1490778200
0.313232421875, 0.940917968750, -0.197265625000, -15.882812500000, 41.750000000000, -14.101562500000, 1490778200
0.272216796875, 0.925292968750, -0.260009765625, 3.250000000000, -7.484375000000, -14.304687500000, 1490778200
0.272216796875, 0.925292968750, -0.260009765625, 3.250000000000, -7.484375000000, -14.304687500000, 1490778200
0.272216796875, 0.925292968750, -0.260009765625, 3.250000000000, -7.484375000000, -14.304687500000, 1490778200
0.272216796875, 0.925292968750, -0.260009765625, 3.250000000000, -7.484375000000, -14.304687500000, 1490778200
0.146240234375, 1.013671875000, -0.326904296875, 26.734375000000, -36.671875000000, -14.367187500000, 1490778200
0.146240234375, 1.013671875000, -0.326904296875, 26.734375000000, -36.671875000000, -14.367187500000, 1490778200
0.146240234375, 1.013671875000, -0.326904296875, 26.734375000000, -36.671875000000, -14.367187500000, 1490778200
0.113037109375, 0.851806640625, -0.181884765625, -6.046875000000, -0.656250000000, -7.992187500000, 1490778200
0.113037109375, 0.851806640625, -0.181884765625, -6.046875000000, -0.656250000000, -7.992187500000, 1490778200
0.113037109375, 0.851806640625, -0.181884765625, -6.046875000000, -0.656250000000, -7.992187500000, 1490778200
0.237548828125, 1.024658203125, -0.279296875000, -2.835937500000, -5.554687500000, -0.148437500000, 1490778200
0.237548828125, 1.024658203125, -0.279296875000, -2.835937500000, -5.554687500000, -0.148437500000, 1490778200
0.237548828125, 1.024658203125, -0.279296875000, -2.835937500000, -5.554687500000, -0.148437500000, 1490778200
0.237548828125, 1.024658203125, -0.279296875000, -2.835937500000, -5.554687500000, -0.148437500000, 1490778200
0.167236328125, 0.990966796875, -0.265136718750, 12.820312500000, -36.531250000000, 0.414062500000, 1490778200
0.167236328125, 0.990966796875, -0.265136718750, 12.820312500000, -36.531250000000, 0.414062500000, 1490778200
0.167236328125, 0.990966796875, -0.265136718750, 12.820312500000, -36.531250000000, 0.414062500000, 1490778200
0.106201171875, 0.923828125000, -0.231201171875, -2.132812500000, -23.546875000000, 6.414062500000, 1490778200
0.106201171875, 0.923828125000, -0.231201171875, -2.132812500000, -23.546875000000, 6.414062500000, 1490778200
0.106201171875, 0.923828125000, -0.231201171875, -2.132812500000, -23.546875000000, 6.414062500000, 1490778200
0.055664062500, 1.076171875000, -0.316650390625, -16.914062500000, 12.890625000000, 7.007812500000, 1490778200
0.055664062500, 1.076171875000, -0.316650390625, -16.914062500000, 12.890625000000, 7.007812500000, 1490778200
0.055664062500, 1.076171875000, -0.316650390625, -16.914062500000, 12.890625000000, 7.007812500000, 1490778200
0.061523437500, 1.024414062500, -0.216796875000, -19.007812500000, 18.242187500000, 8.890625000000, 1490778200
0.061523437500, 1.024414062500, -0.216796875000, -19.007812500000, 18.242187500000, 8.890625000000, 1490778200
0.061523437500, 1.024414062500, -0.216796875000, -19.007812500000, 18.242187500000, 8.890625000000, 1490778200
0.133300781250, 0.902099609375, -0.214843750000, -18.210937500000, 23.484375000000, 8.000000000000, 1490778200
0.164062500000, 0.929687500000, -0.257324218750, -17.476562500000, 42.078125000000, 5.976562500000, 1490778200
0.164062500000, 0.929687500000, -0.257324218750, -17.476562500000, 42.078125000000, 5.976562500000, 1490778200
0.164062500000, 0.929687500000, -0.257324218750, -17.476562500000, 42.078125000000, 5.976562500000, 1490778200
0.053466796875, 0.980957031250, -0.220214843750, -0.328125000000, 15.632812500000, -1.531250000000, 1490778200
0.098632812500, 0.997802734375, -0.325195312500, -0.328125000000, 15.632812500000, -1.531250000000, 1490778201
0.098632812500, 0.997802734375, -0.325195312500, -0.328125000000, 15.632812500000, -1.531250000000, 1490778201
0.098632812500, 0.997802734375, -0.325195312500, -0.328125000000, 15.632812500000, -1.531250000000, 1490778201
0.108886718750, 0.975097656250, -0.163085937500, -1.960937500000, 53.031250000000, -0.171875000000, 1490778201
0.132324218750, 0.979248046875, -0.168945312500, -1.960937500000, 53.031250000000, -0.171875000000, 1490778201
0.132324218750, 0.979248046875, -0.168945312500, -1.960937500000, 53.031250000000, -0.171875000000, 1490778201
0.132324218750, 0.979248046875, -0.168945312500, -1.960937500000, 53.031250000000, -0.171875000000, 1490778201
0.132324218750, 0.979248046875, -0.168945312500, -1.960937500000, 53.031250000000, -0.171875000000, 1490778201
0.255859375000, 0.866210937500, -0.213134765625, -0.445312500000, 11.828125000000, -8.140625000000, 1490778201
0.255859375000, 0.866210937500, -0.213134765625, -0.445312500000, 11.828125000000, -8.140625000000, 1490778201
0.255859375000, 0.866210937500, -0.213134765625, -0.445312500000, 11.828125000000, -8.140625000000, 1490778201
0.255859375000, 0.866210937500, -0.213134765625, -0.445312500000, 11.828125000000, -8.140625000000, 1490778201
0.112548828125, 0.926025390625, -0.246337890625, 14.937500000000, 10.906250000000, 4.398437500000, 1490778201
0.112548828125, 0.926025390625, -0.246337890625, 14.937500000000, 10.906250000000, 4.398437500000, 1490778201
0.112548828125, 0.926025390625, -0.246337890625, 14.937500000000, 10.906250000000, 4.398437500000, 1490778201
0.280273437500, 0.919189453125, -0.156494140625, 8.453125000000, 11.632812500000, -1.203125000000, 1490778201
0.280273437500, 0.919189453125, -0.156494140625, 8.453125000000, 11.632812500000, -1.203125000000, 1490778201
0.280273437500, 0.919189453125, -0.156494140625, 8.453125000000, 11.632812500000, -1.203125000000, 1490778201
0.157714843750, 0.994873046875, -0.211914062500, 1.734375000000, -10.273437500000, -5.210937500000, 1490778201
0.157714843750, 0.994873046875, -0.211914062500, 1.734375000000, -10.273437500000, -5.210937500000, 1490778201
0.157714843750, 0.994873046875, -0.211914062500, 1.734375000000, -10.273437500000, -5.210937500000, 1490778201
0.157714843750, 0.994873046875, -0.211914062500, 1.734375000000, -10.273437500000, -5.210937500000, 1490778201
0.239013671875, 0.976806640625, -0.278564453125, 4.695312500000, -11.906250000000, -10.265625000000, 1490778201
0.239013671875, 0.976806640625, -0.278564453125, 4.695312500000, -11.906250000000, -10.265625000000, 1490778201
0.239013671875, 0.976806640625, -0.278564453125, 4.695312500000, -11.906250000000, -10.265625000000, 1490778201
0.290283203125, 0.913818359375, -0.135986328125, -0.546875000000, -8.359375000000, -10.164062500000, 1490778201
0.290283203125, 0.913818359375, -0.135986328125, -0.546875000000, -8.359375000000, -10.164062500000, 1490778201
0.290283203125, 0.913818359375, -0.135986328125, -0.546875000000, -8.359375000000, -10.164062500000, 1490778201
0.174804687500, 1.063476562500, -0.106689453125, 12.234375000000, -23.039062500000, -12.140625000000, 1490778201
0.174804687500, 1.063476562500, -0.106689453125, 12.234375000000, -23.039062500000, -12.140625000000, 1490778201
0.174804687500, 1.063476562500, -0.106689453125, 12.234375000000, -23.039062500000, -12.140625000000, 1490778201
0.270996093750, 1.009033203125, -0.212402343750, 11.242187500000, -42.843750000000, -7.648437500000, 1490778201
0.270996093750, 1.009033203125, -0.212402343750, 11.242187500000, -42.843750000000, -7.648437500000, 1490778201
0.270996093750, 1.009033203125, -0.212402343750, 11.242187500000, -42.843750000000, -7.648437500000, 1490778201
0.270996093750, 1.009033203125, -0.212402343750, 11.242187500000, -42.843750000000, -7.648437500000, 1490778201
0.168212890625, 1.028320312500, -0.183837890625, -12.132812500000, -25.476562500000, -5.656250000000, 1490778201
0.168212890625, 1.028320312500, -0.183837890625, -12.132812500000, -25.476562500000, -5.656250000000, 1490778201
0.168212890625, 1.028320312500, -0.183837890625, -12.132812500000, -25.476562500000, -5.656250000000, 1490778201
0.129638671875, 1.011962890625, -0.172851562500, -22.976562500000, 1.507812500000, -8.632812500000, 1490778201
0.129638671875, 1.011962890625, -0.172851562500, -22.976562500000, 1.507812500000, -8.632812500000, 1490778201
0.129638671875, 1.011962890625, -0.172851562500, -22.976562500000, 1.507812500000, -8.632812500000, 1490778201
0.138671875000, 0.854492187500, -0.273437500000, -25.546875000000, 13.187500000000, -4.039062500000, 1490778201
0.138671875000, 0.854492187500, -0.273437500000, -25.546875000000, 13.187500000000, -4.039062500000, 1490778201
0.138671875000, 0.854492187500, -0.273437500000, -25.546875000000, 13.187500000000, -4.039062500000, 1490778201
0.111083984375, 0.906738281250, -0.222656250000, -13.328125000000, 9.328125000000, -6.343750000000, 1490778201
0.111083984375, 0.906738281250, -0.222656250000, -13.328125000000, 9.328125000000, -6.343750000000, 1490778201
0.111083984375, 0.906738281250, -0.222656250000, -13.328125000000, 9.328125000000, -6.343750000000, 1490778201
0.111083984375, 0.906738281250, -0.222656250000, -13.328125000000, 9.328125000000, -6.343750000000, 1490778201
0.126464843750, 1.025878906250, -0.187255859375, -21.101562500000, -4.757812500000, -3.187500000000, 1490778201
0.126464843750, 1.025878906250, -0.187255859375, -21.101562500000, -4.757812500000, -3.187500000000, 1490778201
0.126464843750, 1.025878906250, -0.187255859375, -21.101562500000, -4.757812500000, -3.187500000000, 1490778201
0.102783203125, 0.966552734375, -0.263183593750, -24.257812500000, 48.031250000000, 4.742187500000, 1490778201
0.102783203125, 0.966552734375, -0.263183593750, -24.257812500000, 48.031250000000, 4.742187500000, 1490778201
0.102783203125, 0.966552734375, -0.263183593750, -24.257812500000, 48.031250000000, 4.742187500000, 1490778201
0.133056640625, 1.073486328125, -0.259033203125, -18.382812500000, 32.304687500000, 3.781250000000, 1490778201
0.133056640625, 1.073486328125, -0.259033203125, -18.382812500000, 32.304687500000, 3.781250000000, 1490778201
0.133056640625, 1.073486328125, -0.259033203125, -18.382812500000, 32.304687500000, 3.781250000000, 1490778201
0.155761718750, 0.985107421875, -0.251953125000, -3.039062500000, 9.125000000000, 15.054687500000, 1490778201
0.155761718750, 0.985107421875, -0.251953125000, -3.039062500000, 9.125000000000, 15.054687500000, 1490778201
0.155761718750, 0.985107421875, -0.251953125000, -3.039062500000, 9.125000000000, 15.054687500000, 1490778201
0.155761718750, 0.985107421875, -0.251953125000, -3.039062500000, 9.125000000000, 15.054687500000, 1490778201
-0.028320312500, 0.937255859375, -0.340332031250, -5.554687500000, 38.976562500000, 14.031250000000, 1490778201
-0.028320312500, 0.937255859375, -0.340332031250, -5.554687500000, 38.976562500000, 14.031250000000, 1490778201
-0.028320312500, 0.937255859375, -0.340332031250, -5.554687500000, 38.976562500000, 14.031250000000, 1490778201
0.037597656250, 0.869628906250, -0.253906250000, -26.968750000000, 75.898437500000, 26.468750000000, 1490778201
0.037597656250, 0.869628906250, -0.253906250000, -26.968750000000, 75.898437500000, 26.468750000000, 1490778201
0.037597656250, 0.869628906250, -0.253906250000, -26.968750000000, 75.898437500000, 26.468750000000, 1490778201
0.162109375000, 0.921142578125, -0.231445312500, -34.062500000000, 69.882812500000, 24.929687500000, 1490778201
0.162109375000, 0.921142578125, -0.231445312500, -34.062500000000, 69.882812500000, 24.929687500000, 1490778201
0.162109375000, 0.921142578125, -0.231445312500, -34.062500000000, 69.882812500000, 24.929687500000, 1490778201
0.289306640625, 0.864501953125, -0.117431640625, -10.039062500000, 47.101562500000, 19.476562500000, 1490778202
0.289306640625, 0.864501953125, -0.117431640625, -10.039062500000, 47.101562500000, 19.476562500000, 1490778202
0.289306640625, 0.864501953125, -0.117431640625, -10.039062500000, 47.101562500000, 19.476562500000, 1490778202
0.289306640625, 0.864501953125, -0.117431640625, -10.039062500000, 47.101562500000, 19.476562500000, 1490778202
0.101318359375, 0.985351562500, -0.162109375000, 14.632812500000, 7.546875000000, 16.132812500000, 1490778202
0.101318359375, 0.985351562500, -0.162109375000, 14.632812500000, 7.546875000000, 16.132812500000, 1490778202
0.101318359375, 0.985351562500, -0.162109375000, 14.632812500000, 7.546875000000, 16.132812500000, 1490778202
0.106933593750, 0.912597656250, -0.391357421875, 0.484375000000, -57.125000000000, 14.671875000000, 1490778202
0.106933593750, 0.912597656250, -0.391357421875, 0.484375000000, -57.125000000000, 14.671875000000, 1490778202
0.106933593750, 0.912597656250, -0.391357421875, 0.484375000000, -57.125000000000, 14.671875000000, 1490778202
-0.001708984375, 0.989746093750, -0.341308593750, -29.851562500000, 5.914062500000, 8.937500000000, 1490778202
-0.001708984375, 0.989746093750, -0.341308593750, -29.851562500000, 5.914062500000, 8.937500000000, 1490778202
-0.001708984375, 0.989746093750, -0.341308593750, -29.851562500000, 5.914062500000, 8.937500000000, 1490778202
0.092529296875, 0.937255859375, -0.327148437500, -18.562500000000, 27.031250000000, 11.156250000000, 1490778202
0.092529296875, 0.937255859375, -0.327148437500, -18.562500000000, 27.031250000000, 11.156250000000, 1490778202
0.092529296875, 0.937255859375, -0.327148437500, -18.562500000000, 27.031250000000, 11.156250000000, 1490778202
0.092529296875, 0.937255859375, -0.327148437500, -18.562500000000, 27.031250000000, 11.156250000000, 1490778202
-0.071777343750, 0.866699218750, -0.331787109375, -8.867187500000, -3.007812500000, 11.718750000000, 1490778202
-0.071777343750, 0.866699218750, -0.331787109375, -8.867187500000, -3.007812500000, 11.718750000000, 1490778202
-0.071777343750, 0.866699218750, -0.331787109375, -8.867187500000, -3.007812500000, 11.718750000000, 1490778202
-0.001464843750, 0.915771484375, -0.320312500000, -9.531250000000, 11.687500000000, 14.757812500000, 1490778202
-0.001464843750, 0.915771484375, -0.320312500000, -9.531250000000, 11.687500000000, 14.757812500000, 1490778202
-0.001464843750, 0.915771484375, -0.320312500000, -9.531250000000, 11.687500000000, 14.757812500000, 1490778202
0.016845703125, 1.075195312500, -0.306152343750, -13.054687500000, 30.414062500000, 13.070312500000, 1490778202
0.016845703125, 1.075195312500, -0.306152343750, -13.054687500000, 30.414062500000, 13.070312500000, 1490778202
-0.089355468750, 0.966308593750, -0.402343750000, -16.312500000000, 35.937500000000, 11.125000000000, 1490778202
-0.089355468750, 0.966308593750, -0.402343750000, -16.312500000000, 35.937500000000, 11.125000000000, 1490778202
-0.089355468750, 0.966308593750, -0.402343750000, -16.312500000000, 35.937500000000, 11.125000000000, 1490778202
-0.089355468750, 0.966308593750, -0.402343750000, -16.312500000000, 35.937500000000, 11.125000000000, 1490778202
-0.057861328125, 0.966308593750, -0.328125000000, -12.007812500000, 36.406250000000, 16.351562500000, 1490778202
-0.057861328125, 0.966308593750, -0.328125000000, -12.007812500000, 36.406250000000, 16.351562500000, 1490778202
-0.057861328125, 0.966308593750, -0.328125000000, -12.007812500000, 36.406250000000, 16.351562500000, 1490778202
-0.057861328125, 0.966308593750, -0.328125000000, -12.007812500000, 36.406250000000, 16.351562500000, 1490778202
-0.074951171875, 0.957031250000, -0.281982421875, -9.468750000000, 46.984375000000, 13.828125000000, 1490778202
-0.074951171875, 0.957031250000, -0.281982421875, -9.468750000000, 46.984375000000, 13.828125000000, 1490778202
-0.074951171875, 0.957031250000, -0.281982421875, -9.468750000000, 46.984375000000, 13.828125000000, 1490778202
0.067138671875, 0.927734375000, -0.338867187500, -5.625000000000, 62.117187500000, 13.726562500000, 1490778202
0.067138671875, 0.927734375000, -0.338867187500, -5.625000000000, 62.117187500000, 13.726562500000, 1490778202
0.067138671875, 0.927734375000, -0.338867187500, -5.625000000000, 62.117187500000, 13.726562500000, 1490778202
-0.064941406250, 0.968505859375, -0.368652343750, 2.023437500000, 63.859375000000, 11.960937500000, 1490778202
-0.064941406250, 0.968505859375, -0.368652343750, 2.023437500000, 63.859375000000, 11.960937500000, 1490778202
-0.064941406250, 0.968505859375, -0.368652343750, 2.023437500000, 63.859375000000, 11.960937500000, 1490778202
-0.064941406250, 0.968505859375, -0.368652343750, 2.023437500000, 63.859375000000, 11.960937500000, 1490778202
0.045654296875, 1.004150390625, -0.303466796875, -8.257812500000, 53.648437500000, 12.031250000000, 1490778202
0.045654296875, 1.004150390625, -0.303466796875, -8.257812500000, 53.648437500000, 12.031250000000, 1490778202
0.045654296875, 1.004150390625, -0.303466796875, -8.257812500000, 53.648437500000, 12.031250000000, 1490778202
0.033935546875, 1.000000000000, -0.323974609375, -4.140625000000, 48.429687500000, 10.648437500000, 1490778202
0.134521484375, 0.874267578125, -0.319091796875, -4.203125000000, 36.164062500000, 8.328125000000, 1490778202
0.134521484375, 0.874267578125, -0.319091796875, -4.203125000000, 36.164062500000, 8.328125000000, 1490778202
-0.011718750000, 0.941650390625, -0.318359375000, -9.132812500000, 36.093750000000, -0.804687500000, 1490778202
-0.011718750000, 0.941650390625, -0.318359375000, -9.132812500000, 36.093750000000, -0.804687500000, 1490778202
-0.011718750000, 0.941650390625, -0.318359375000, -9.132812500000, 36.093750000000, -0.804687500000, 1490778202
-0.011718750000, 0.941650390625, -0.318359375000, -9.132812500000, 36.093750000000, -0.804687500000, 1490778202
0.088378906250, 0.923095703125, -0.342285156250, -7.843750000000, 42.359375000000, -0.914062500000, 1490778202
0.084716796875, 0.846191406250, -0.244384765625, -5.320312500000, 6.460937500000, 2.296875000000, 1490778202
0.128906250000, 0.968505859375, -0.246826171875, -8.031250000000, -12.765625000000, 2.078125000000, 1490778202
0.029052734375, 0.976074218750, -0.405273437500, -6.984375000000, -29.289062500000, -1.203125000000, 1490778202
0.029052734375, 0.976074218750, -0.405273437500, -6.984375000000, -29.289062500000, -1.203125000000, 1490778202
0.029052734375, 0.976074218750, -0.405273437500, -6.984375000000, -29.289062500000, -1.203125000000, 1490778202
0.029052734375, 0.976074218750, -0.405273437500, -6.984375000000, -29.289062500000, -1.203125000000, 1490778202
0.029052734375, 0.976074218750, -0.405273437500, -6.984375000000, -29.289062500000, -1.203125000000, 1490778202
-0.081054687500, 0.960693359375, -0.294677734375, -5.843750000000, -27.703125000000, -5.601562500000, 1490778202
-0.081054687500, 0.960693359375, -0.294677734375, -5.843750000000, -27.703125000000, -5.601562500000, 1490778202
-0.081054687500, 0.960693359375, -0.294677734375, -5.843750000000, -27.703125000000, -5.601562500000, 1490778202
-0.081054687500, 0.960693359375, -0.294677734375, -5.843750000000, -27.703125000000, -5.601562500000, 1490778202
0.016601562500, 0.899169921875, -0.286621093750, -1.390625000000, -19.656250000000, -13.406250000000, 1490778202
0.016601562500, 0.899169921875, -0.286621093750, -1.390625000000, -19.656250000000, -13.406250000000, 1490778202
0.016601562500, 0.899169921875, -0.286621093750, -1.390625000000, -19.656250000000, -13.406250000000, 1490778202
0.016601562500, 0.899169921875, -0.286621093750, -1.390625000000, -19.656250000000, -13.406250000000, 1490778202
-0.138671875000, 0.998779296875, -0.224365234375, -4.554687500000, -19.859375000000, -15.031250000000, 1490778203
-0.138671875000, 0.998779296875, -0.224365234375, -4.554687500000, -19.859375000000, -15.031250000000, 1490778203
-0.138671875000, 0.998779296875, -0.224365234375, -4.554687500000, -19.859375000000, -15.031250000000, 1490778203
0.023681640625, 0.916015625000, -0.377197265625, -0.710937500000, -14.210937500000, -22.593750000000, 1490778203
0.023681640625, 0.916015625000, -0.377197265625, -0.710937500000, -14.210937500000, -22.593750000000, 1490778203
0.023681640625, 0.916015625000, -0.377197265625, -0.710937500000, -14.210937500000, -22.593750000000, 1490778203
-0.018798828125, 0.916748046875, -0.371582031250, -6.250000000000, 2.851562500000, -16.929687500000, 1490778203
-0.018798828125, 0.916748046875, -0.371582031250, -6.250000000000, 2.851562500000, -16.929687500000, 1490778203
-0.018798828125, 0.916748046875, -0.371582031250, -6.250000000000, 2.851562500000, -16.929687500000, 1490778203
0.076660156250, 1.008789062500, -0.314453125000, -6.585937500000, -5.351562500000, -18.117187500000, 1490778203
0.076660156250, 1.008789062500, -0.314453125000, -6.585937500000, -5.351562500000, -18.117187500000, 1490778203
0.076660156250, 1.008789062500, -0.314453125000, -6.585937500000, -5.351562500000, -18.117187500000, 1490778203
0.076660156250, 1.008789062500, -0.314453125000, -6.585937500000, -5.351562500000, -18.117187500000, 1490778203
0.070312500000, 0.919189453125, -0.388916015625, -6.796875000000, -13.046875000000, -16.734375000000, 1490778203
0.070312500000, 0.919189453125, -0.388916015625, -6.796875000000, -13.046875000000, -16.734375000000, 1490778203
0.070312500000, 0.919189453125, -0.388916015625, -6.796875000000, -13.046875000000, -16.734375000000, 1490778203
-0.005126953125, 0.941162109375, -0.356445312500, -6.484375000000, 0.609375000000, -17.054687500000, 1490778203
-0.005126953125, 0.941162109375, -0.356445312500, -6.484375000000, 0.609375000000, -17.054687500000, 1490778203
-0.005126953125, 0.941162109375, -0.356445312500, -6.484375000000, 0.609375000000, -17.054687500000, 1490778203
0.040283203125, 0.993408203125, -0.244628906250, -5.960937500000, -0.343750000000, -15.312500000000, 1490778203
0.040283203125, 0.993408203125, -0.244628906250, -5.960937500000, -0.343750000000, -15.312500000000, 1490778203
0.040283203125, 0.993408203125, -0.244628906250, -5.960937500000, -0.343750000000, -15.312500000000, 1490778203
