ACC_X,ACC_Y,ACC_Z,G_X,G_Y,G_Z,Unix Time
0.051025390625, 1.055664062500, -0.075683593750, -3.148437500000, 8.085937500000, -15.664062500000, 1490778168
0.051025390625, 1.055664062500, -0.075683593750, -3.148437500000, 8.085937500000, -15.664062500000, 1490778168
0.051025390625, 1.055664062500, -0.075683593750, -3.148437500000, 8.085937500000, -15.664062500000, 1490778168
0.019042968750, 1.025634765625, -0.139892578125, 7.773437500000, 17.773437500000, -10.632812500000, 1490778168
0.019042968750, 1.025634765625, -0.139892578125, 7.773437500000, 17.773437500000, -10.632812500000, 1490778168
0.019042968750, 1.025634765625, -0.139892578125, 7.773437500000, 17.773437500000, -10.632812500000, 1490778168
0.014648437500, 0.984619140625, -0.065429687500, 9.296875000000, 16.195312500000, -10.375000000000, 1490778168
0.014648437500, 0.984619140625, -0.065429687500, 9.296875000000, 16.195312500000, -10.375000000000, 1490778168
0.082275390625, 1.026611328125, -0.142333984375, 2.507812500000, 14.195312500000, -10.890625000000, 1490778168
0.082275390625, 1.026611328125, -0.142333984375, 2.507812500000, 14.195312500000, -10.890625000000, 1490778168
0.082275390625, 1.026611328125, -0.142333984375, 2.507812500000, 14.195312500000, -10.890625000000, 1490778168
0.082275390625, 1.026611328125, -0.142333984375, 2.507812500000, 14.195312500000, -10.890625000000, 1490778168
0.089843750000, 0.919189453125, -0.060302734375, -2.296875000000, 12.023437500000, -7.867187500000, 1490778168
0.045898437500, 0.937011718750, -0.154296875000, -9.906250000000, 10.445312500000, -9.234375000000, 1490778168
0.045898437500, 0.937011718750, -0.154296875000, -9.906250000000, 10.445312500000, -9.234375000000, 1490778168
0.045898437500, 0.937011718750, -0.154296875000, -9.906250000000, 10.445312500000, -9.234375000000, 1490778168
0.074218750000, 1.019775390625, 0.027099609375, -15.718750000000, 12.515625000000, -16.257812500000, 1490778168
0.074218750000, 1.019775390625, 0.027099609375, -15.718750000000, 12.515625000000, -16.257812500000, 1490778168
0.074218750000, 1.019775390625, 0.027099609375, -15.718750000000, 12.515625000000, -16.257812500000, 1490778168
0.045898437500, 0.924804687500, -0.132568359375, -11.843750000000, 1.843750000000, -15.554687500000, 1490778168
0.045898437500, 0.924804687500, -0.132568359375, -11.843750000000, 1.843750000000, -15.554687500000, 1490778168
-0.004150390625, 0.973876953125, -0.063964843750, -4.726562500000, 3.023437500000, -7.570312500000, 1490778168
-0.004150390625, 0.973876953125, -0.063964843750, -4.726562500000, 3.023437500000, -7.570312500000, 1490778168
-0.004150390625, 0.973876953125, -0.063964843750, -4.726562500000, 3.023437500000, -7.570312500000, 1490778168
-0.004150390625, 0.973876953125, -0.063964843750, -4.726562500000, 3.023437500000, -7.570312500000, 1490778168
-0.004150390625, 0.973876953125, -0.063964843750, -4.726562500000, 3.023437500000, -7.570312500000, 1490778168
0.055908203125, 1.014160156250, -0.131347656250, -8.031250000000, 3.968750000000, -5.703125000000, 1490778168
0.055908203125, 1.014160156250, -0.131347656250, -8.031250000000, 3.968750000000, -5.703125000000, 1490778168
0.055908203125, 1.014160156250, -0.131347656250, -8.031250000000, 3.968750000000, -5.703125000000, 1490778168
0.128417968750, 0.955566406250, -0.129638671875, -6.914062500000, 9.101562500000, -3.468750000000, 1490778168
0.128417968750, 0.955566406250, -0.129638671875, -6.914062500000, 9.101562500000, -3.468750000000, 1490778168
0.128417968750, 0.955566406250, -0.129638671875, -6.914062500000, 9.101562500000, -3.468750000000, 1490778168
0.072753906250, 0.984863281250, -0.076171875000, -2.796875000000, 12.320312500000, -8.796875000000, 1490778168
0.072753906250, 0.984863281250, -0.076171875000, -2.796875000000, 12.320312500000, -8.796875000000, 1490778168
0.072753906250, 0.984863281250, -0.076171875000, -2.796875000000, 12.320312500000, -8.796875000000, 1490778168
0.259033203125, 0.911621093750, -0.084716796875, -7.500000000000, 13.617187500000, -25.250000000000, 1490778168
0.259033203125, 0.911621093750, -0.084716796875, -7.500000000000, 13.617187500000, -25.250000000000, 1490778168
0.259033203125, 0.911621093750, -0.084716796875, -7.500000000000, 13.617187500000, -25.250000000000, 1490778168
0.259033203125, 0.911621093750, -0.084716796875, -7.500000000000, 13.617187500000, -25.250000000000, 1490778168
0.059814453125, 0.968750000000, -0.141357421875, 14.132812500000, 14.609375000000, -16.726562500000, 1490778168
0.059814453125, 0.968750000000, -0.141357421875, 14.132812500000, 14.609375000000, -16.726562500000, 1490778168
0.059814453125, 0.968750000000, -0.141357421875, 14.132812500000, 14.609375000000, -16.726562500000, 1490778168
0.080078125000, 0.994384765625, -0.133544921875, -2.078125000000, 6.843750000000, -17.679687500000, 1490778168
0.080078125000, 0.994384765625, -0.133544921875, -2.078125000000, 6.843750000000, -17.679687500000, 1490778168
0.080078125000, 0.994384765625, -0.133544921875, -2.078125000000, 6.843750000000, -17.679687500000, 1490778168
0.172607421875, 1.082519531250, -0.014648437500, -13.226562500000, 33.203125000000, -26.515625000000, 1490778169
0.172607421875, 1.082519531250, -0.014648437500, -13.226562500000, 33.203125000000, -26.515625000000, 1490778169
0.172607421875, 1.082519531250, -0.014648437500, -13.226562500000, 33.203125000000, -26.515625000000, 1490778169
0.375244140625, 1.092041015625, -0.035400390625, 2.445312500000, -3.429687500000, -25.710937500000, 1490778169
0.375244140625, 1.092041015625, -0.035400390625, 2.445312500000, -3.429687500000, -25.710937500000, 1490778169
0.375244140625, 1.092041015625, -0.035400390625, 2.445312500000, -3.429687500000, -25.710937500000, 1490778169
0.375244140625, 1.092041015625, -0.035400390625, 2.445312500000, -3.429687500000, -25.710937500000, 1490778169
0.166015625000, 1.077392578125, -0.006591796875, 23.781250000000, -30.578125000000, -27.476562500000, 1490778169
0.166015625000, 1.077392578125, -0.006591796875, 23.781250000000, -30.578125000000, -27.476562500000, 1490778169
0.166015625000, 1.077392578125, -0.006591796875, 23.781250000000, -30.578125000000, -27.476562500000, 1490778169
0.163818359375, 0.984619140625, -0.059326171875, 6.554687500000, -5.125000000000, -27.453125000000, 1490778169
0.163818359375, 0.984619140625, -0.059326171875, 6.554687500000, -5.125000000000, -27.453125000000, 1490778169
0.163818359375, 0.984619140625, -0.059326171875, 6.554687500000, -5.125000000000, -27.453125000000, 1490778169
0.115966796875, 0.964843750000, 0.006347656250, 11.851562500000, -5.648437500000, -24.117187500000, 1490778169
0.115966796875, 0.964843750000, 0.006347656250, 11.851562500000, -5.648437500000, -24.117187500000, 1490778169
0.115966796875, 0.964843750000, 0.006347656250, 11.851562500000, -5.648437500000, -24.117187500000, 1490778169
0.256103515625, 0.973876953125, -0.049804687500, 30.609375000000, -1.914062500000, -4.000000000000, 1490778169
0.256103515625, 0.973876953125, -0.049804687500, 30.609375000000, -1.914062500000, -4.000000000000, 1490778169
0.256103515625, 0.973876953125, -0.049804687500, 30.609375000000, -1.914062500000, -4.000000000000, 1490778169
0.256103515625, 0.973876953125, -0.049804687500, 30.609375000000, -1.914062500000, -4.000000000000, 1490778169
0.181396484375, 0.980224609375, -0.136962890625, 26.617187500000, 10.031250000000, 8.429687500000, 1490778169
0.181396484375, 0.980224609375, -0.136962890625, 26.617187500000, 10.031250000000, 8.429687500000, 1490778169
0.181396484375, 0.980224609375, -0.136962890625, 26.617187500000, 10.031250000000, 8.429687500000, 1490778169
0.264404296875, 0.994873046875, -0.101318359375, -12.250000000000, 19.421875000000, 2.992187500000, 1490778169
0.264404296875, 0.994873046875, -0.101318359375, -12.250000000000, 19.421875000000, 2.992187500000, 1490778169
0.264404296875, 0.994873046875, -0.101318359375, -12.250000000000, 19.421875000000, 2.992187500000, 1490778169
0.188964843750, 1.051269531250, -0.026123046875, -28.179687500000, -10.875000000000, -6.234375000000, 1490778169
0.188964843750, 1.051269531250, -0.026123046875, -28.179687500000, -10.875000000000, -6.234375000000, 1490778169
0.188964843750, 1.051269531250, -0.026123046875, -28.179687500000, -10.875000000000, -6.234375000000, 1490778169
0.286621093750, 0.978027343750, -0.015136718750, -22.984375000000, 5.757812500000, -6.625000000000, 1490778169
0.286621093750, 0.978027343750, -0.015136718750, -22.984375000000, 5.757812500000, -6.625000000000, 1490778169
0.286621093750, 0.978027343750, -0.015136718750, -22.984375000000, 5.757812500000, -6.625000000000, 1490778169
0.182373046875, 0.995849609375, 0.086425781250, -19.562500000000, 7.515625000000, -6.906250000000, 1490778169
0.317626953125, 0.916992187500, 0.069335937500, -6.023437500000, -2.984375000000, -13.234375000000, 1490778169
0.317626953125, 0.916992187500, 0.069335937500, -6.023437500000, -2.984375000000, -13.234375000000, 1490778169
0.317626953125, 0.916992187500, 0.069335937500, -6.023437500000, -2.984375000000, -13.234375000000, 1490778169
0.194824218750, 0.880859375000, -0.025878906250, 27.015625000000, 25.570312500000, 7.460937500000, 1490778169
0.194824218750, 0.880859375000, -0.025878906250, 27.015625000000, 25.570312500000, 7.460937500000, 1490778169
0.194824218750, 0.880859375000, -0.025878906250, 27.015625000000, 25.570312500000, 7.460937500000, 1490778169
0.040283203125, 1.089843750000, -0.055419921875, -1.320312500000, 8.843750000000, 29.359375000000, 1490778169
0.040283203125, 1.089843750000, -0.055419921875, -1.320312500000, 8.843750000000, 29.359375000000, 1490778169
0.040283203125, 1.089843750000, -0.055419921875, -1.320312500000, 8.843750000000, 29.359375000000, 1490778169
0.270996093750, 1.152587890625, -0.006347656250, -14.812500000000, -15.562500000000, 7.281250000000, 1490778169
0.270996093750, 1.152587890625, -0.006347656250, -14.812500000000, -15.562500000000, 7.281250000000, 1490778169
0.270996093750, 1.152587890625, -0.006347656250, -14.812500000000, -15.562500000000, 7.281250000000, 1490778169
0.270996093750, 1.152587890625, -0.006347656250, -14.812500000000, -15.562500000000, 7.281250000000, 1490778169
0.336669921875, 1.111328125000, 0.075439453125, 7.085937500000, -27.828125000000, 2.414062500000, 1490778169
0.336669921875, 1.111328125000, 0.075439453125, 7.085937500000, -27.828125000000, 2.414062500000, 1490778169
0.336669921875, 1.111328125000, 0.075439453125, 7.085937500000, -27.828125000000, 2.414062500000, 1490778169
0.104980468750, 1.075195312500, 0.011718750000, 32.882812500000, -26.671875000000, -4.531250000000, 1490778169
0.104980468750, 1.075195312500, 0.011718750000, 32.882812500000, -26.671875000000, -4.531250000000, 1490778169
0.104980468750, 1.075195312500, 0.011718750000, 32.882812500000, -26.671875000000, -4.531250000000, 1490778169
0.054931640625, 0.919189453125, 0.067382812500, 23.148437500000, -49.242187500000, 16.210937500000, 1490778169
0.054931640625, 0.919189453125, 0.067382812500, 23.148437500000, -49.242187500000, 16.210937500000, 1490778169
0.081298828125, 1.006591796875, 0.069335937500, 19.562500000000, 2.570312500000, 19.289062500000, 1490778169
0.011230468750, 0.849853515625, 0.027343750000, 17.078125000000, 16.242187500000, 17.804687500000, 1490778169
0.011230468750, 0.849853515625, 0.027343750000, 17.078125000000, 16.242187500000, 17.804687500000, 1490778169
0.011230468750, 0.849853515625, 0.027343750000, 17.078125000000, 16.242187500000, 17.804687500000, 1490778169
0.011230468750, 0.849853515625, 0.027343750000, 17.078125000000, 16.242187500000, 17.804687500000, 1490778169
0.011962890625, 0.952148437500, -0.049804687500, -14.523437500000, 68.367187500000, 25.054687500000, 1490778169
0.011962890625, 0.952148437500, -0.049804687500, -14.523437500000, 68.367187500000, 25.054687500000, 1490778169
0.011962890625, 0.952148437500, -0.049804687500, -14.523437500000, 68.367187500000, 25.054687500000, 1490778169
0.026123046875, 0.880615234375, -0.053222656250, -70.992187500000, 64.703125000000, 19.312500000000, 1490778169
0.048095703125, 1.045410156250, -0.134521484375, -165.390625000000, -107.671875000000, -94.351562500000, 1490778169
0.048095703125, 1.045410156250, -0.134521484375, -165.390625000000, -107.671875000000, -94.351562500000, 1490778169
0.048095703125, 1.045410156250, -0.134521484375, -165.390625000000, -107.671875000000, -94.351562500000, 1490778169
0.048095703125, 1.045410156250, -0.134521484375, -165.390625000000, -107.671875000000, -94.351562500000, 1490778170
0.048095703125, 1.045410156250, -0.134521484375, -165.390625000000, -107.671875000000, -94.351562500000, 1490778170
0.163330078125, 1.129150390625, 0.061523437500, -37.992187500000, 5.460937500000, 12.710937500000, 1490778170
0.163330078125, 1.129150390625, 0.061523437500, -37.992187500000, 5.460937500000, 12.710937500000, 1490778170
0.163330078125, 1.129150390625, 0.061523437500, -37.992187500000, 5.460937500000, 12.710937500000, 1490778170
0.163330078125, 1.129150390625, 0.061523437500, -37.992187500000, 5.460937500000, 12.710937500000, 1490778170
0.094726562500, 0.853759765625, -0.069335937500, -9.164062500000, 83.109375000000, 8.460937500000, 1490778170
0.094726562500, 0.853759765625, -0.069335937500, -9.164062500000, 83.109375000000, 8.460937500000, 1490778170
0.094726562500, 0.853759765625, -0.069335937500, -9.164062500000, 83.109375000000, 8.460937500000, 1490778170
-0.009521484375, 1.234130859375, -0.065673828125, 1.750000000000, -16.781250000000, -11.242187500000, 1490778170
-0.009521484375, 1.234130859375, -0.065673828125, 1.750000000000, -16.781250000000, -11.242187500000, 1490778170
-0.009521484375, 1.234130859375, -0.065673828125, 1.750000000000, -16.781250000000, -11.242187500000, 1490778170
-0.023437500000, 1.158691406250, -0.050781250000, 2.812500000000, -13.085937500000, -5.648437500000, 1490778170
-0.023437500000, 1.158691406250, -0.050781250000, 2.812500000000, -13.085937500000, -5.648437500000, 1490778170
-0.023437500000, 1.158691406250, -0.050781250000, 2.812500000000, -13.085937500000, -5.648437500000, 1490778170
-0.024414062500, 0.996826171875, -0.092041015625, 8.617187500000, 78.781250000000, 3.218750000000, 1490778170
-0.024414062500, 0.996826171875, -0.092041015625, 8.617187500000, 78.781250000000, 3.218750000000, 1490778170
-0.024414062500, 0.996826171875, -0.092041015625, 8.617187500000, 78.781250000000, 3.218750000000, 1490778170
-0.024414062500, 0.996826171875, -0.092041015625, 8.617187500000, 78.781250000000, 3.218750000000, 1490778170
-0.146728515625, 0.927978515625, -0.129638671875, 36.656250000000, 45.656250000000, 1.765625000000, 1490778170
-0.146728515625, 0.927978515625, -0.129638671875, 36.656250000000, 45.656250000000, 1.765625000000, 1490778170
-0.146728515625, 0.927978515625, -0.129638671875, 36.656250000000, 45.656250000000, 1.765625000000, 1490778170
0.045410156250, 1.017822265625, -0.052490234375, -5.210937500000, -60.609375000000, -3.656250000000, 1490778170
0.045410156250, 1.017822265625, -0.052490234375, -5.210937500000, -60.609375000000, -3.656250000000, 1490778170
0.045410156250, 1.017822265625, -0.052490234375, -5.210937500000, -60.609375000000, -3.656250000000, 1490778170
0.127685546875, 1.020263671875, -0.017089843750, -2.421875000000, -106.429687500000, -19.648437500000, 1490778170
0.127685546875, 1.020263671875, -0.017089843750, -2.421875000000, -106.429687500000, -19.648437500000, 1490778170
0.127685546875, 1.020263671875, -0.017089843750, -2.421875000000, -106.429687500000, -19.648437500000, 1490778170
0.143310546875, 0.931396484375, -0.014404296875, 27.210937500000, -47.921875000000, -26.562500000000, 1490778170
0.143310546875, 0.931396484375, -0.014404296875, 27.210937500000, -47.921875000000, -26.562500000000, 1490778170
0.143310546875, 0.931396484375, -0.014404296875, 27.210937500000, -47.921875000000, -26.562500000000, 1490778170
-0.088867187500, 0.917236328125, -0.187988281250, 11.382812500000, 40.843750000000, 3.265625000000, 1490778170
-0.088867187500, 0.917236328125, -0.187988281250, 11.382812500000, 40.843750000000, 3.265625000000, 1490778170
-0.088867187500, 0.917236328125, -0.187988281250, 11.382812500000, 40.843750000000, 3.265625000000, 1490778170
-0.088867187500, 0.917236328125, -0.187988281250, 11.382812500000, 40.843750000000, 3.265625000000, 1490778170
-0.079345703125, 0.886962890625, -0.126708984375, 0.750000000000, -5.906250000000, -14.007812500000, 1490778170
-0.079345703125, 0.886962890625, -0.126708984375, 0.750000000000, -5.906250000000, -14.007812500000, 1490778170
-0.079345703125, 0.886962890625, -0.126708984375, 0.750000000000, -5.906250000000, -14.007812500000, 1490778170
0.029541015625, 0.956542968750, -0.034912109375, -28.117187500000, -58.929687500000, -14.093750000000, 1490778170
0.029541015625, 0.956542968750, -0.034912109375, -28.117187500000, -58.929687500000, -14.093750000000, 1490778170
0.029541015625, 0.956542968750, -0.034912109375, -28.117187500000, -58.929687500000, -14.093750000000, 1490778170
0.099853515625, 1.031005859375, 0.076416015625, -8.367187500000, -10.687500000000, -23.257812500000, 1490778170
0.099853515625, 1.031005859375, 0.076416015625, -8.367187500000, -10.687500000000, -23.257812500000, 1490778170
0.099853515625, 1.031005859375, 0.076416015625, -8.367187500000, -10.687500000000, -23.257812500000, 1490778170
0.099853515625, 1.031005859375, 0.076416015625, -8.367187500000, -10.687500000000, -23.257812500000, 1490778170
0.103515625000, 1.031005859375, -0.065185546875, -12.843750000000, 21.718750000000, -14.367187500000, 1490778170
0.103515625000, 1.031005859375, -0.065185546875, -12.843750000000, 21.718750000000, -14.367187500000, 1490778170
0.103515625000, 1.031005859375, -0.065185546875, -12.843750000000, 21.718750000000, -14.367187500000, 1490778170
-0.018066406250, 0.975097656250, -0.020996093750, -12.843750000000, 9.484375000000, -16.179687500000, 1490778170
-0.018066406250, 0.975097656250, -0.020996093750, -12.843750000000, 9.484375000000, -16.179687500000, 1490778170
-0.018066406250, 0.975097656250, -0.020996093750, -12.843750000000, 9.484375000000, -16.179687500000, 1490778170
-0.027832031250, 1.082763671875, -0.041503906250, -17.507812500000, -1.609375000000, -16.937500000000, 1490778170
-0.027832031250, 1.082763671875, -0.041503906250, -17.507812500000, -1.609375000000, -16.937500000000, 1490778170
-0.027832031250, 1.082763671875, -0.041503906250, -17.507812500000, -1.609375000000, -16.937500000000, 1490778170
0.150146484375, 1.022705078125, 0.026611328125, -11.132812500000, 6.164062500000, -5.960937500000, 1490778170
0.150146484375, 1.022705078125, 0.026611328125, -11.132812500000, 6.164062500000, -5.960937500000, 1490778170
0.150146484375, 1.022705078125, 0.026611328125, -11.132812500000, 6.164062500000, -5.960937500000, 1490778170
0.150146484375, 1.022705078125, 0.026611328125, -11.132812500000, 6.164062500000, -5.960937500000, 1490778170
0.142578125000, 0.937744140625, 0.029052734375, -5.039062500000, 1.695312500000, -8.070312500000, 1490778170
0.142578125000, 0.937744140625, 0.029052734375, -5.039062500000, 1.695312500000, -8.070312500000, 1490778170
0.142578125000, 0.937744140625, 0.029052734375, -5.039062500000, 1.695312500000, -8.070312500000, 1490778170
0.042480468750, 0.953613281250, -0.031494140625, -0.125000000000, 1.828125000000, 2.132812500000, 1490778170
0.042480468750, 0.953613281250, -0.031494140625, -0.125000000000, 1.828125000000, 2.132812500000, 1490778170
0.042480468750, 0.953613281250, -0.031494140625, -0.125000000000, 1.828125000000, 2.132812500000, 1490778170
0.129150390625, 0.969238281250, -0.050048828125, 6.523437500000, 7.632812500000, 0.578125000000, 1490778170
0.129150390625, 0.969238281250, -0.050048828125, 6.523437500000, 7.632812500000, 0.578125000000, 1490778170
0.129150390625, 0.969238281250, -0.050048828125, 6.523437500000, 7.632812500000, 0.578125000000, 1490778170
0.047363281250, 0.985839843750, 0.024658203125, 0.023437500000, 7.789062500000, -2.218750000000, 1490778171
0.047363281250, 0.985839843750, 0.024658203125, 0.023437500000, 7.789062500000, -2.218750000000, 1490778171
0.047363281250, 0.985839843750, 0.024658203125, 0.023437500000, 7.789062500000, -2.218750000000, 1490778171
0.047363281250, 0.985839843750, 0.024658203125, 0.023437500000, 7.789062500000, -2.218750000000, 1490778171
0.156250000000, 1.092041015625, 0.019287109375, 4.023437500000, -7.898437500000, -10.531250000000, 1490778171
0.156250000000, 1.092041015625, 0.019287109375, 4.023437500000, -7.898437500000, -10.531250000000, 1490778171
0.156250000000, 1.092041015625, 0.019287109375, 4.023437500000, -7.898437500000, -10.531250000000, 1490778171
0.095703125000, 1.079101562500, -0.070068359375, 11.421875000000, -12.203125000000, -6.968750000000, 1490778171
0.095703125000, 1.079101562500, -0.070068359375, 11.421875000000, -12.203125000000, -6.968750000000, 1490778171
0.095703125000, 1.079101562500, -0.070068359375, 11.421875000000, -12.203125000000, -6.968750000000, 1490778171
0.070068359375, 1.024414062500, -0.070312500000, 4.312500000000, -1.531250000000, -3.187500000000, 1490778171
0.070068359375, 1.024414062500, -0.070312500000, 4.312500000000, -1.531250000000, -3.187500000000, 1490778171
0.070068359375, 1.024414062500, -0.070312500000, 4.312500000000, -1.531250000000, -3.187500000000, 1490778171
0.056884765625, 0.957275390625, -0.102050781250, -8.437500000000, -0.710937500000, -4.406250000000, 1490778171
0.056884765625, 0.957275390625, -0.102050781250, -8.437500000000, -0.710937500000, -4.406250000000, 1490778171
0.056884765625, 0.957275390625, -0.102050781250, -8.437500000000, -0.710937500000, -4.406250000000, 1490778171
0.056884765625, 0.957275390625, -0.102050781250, -8.437500000000, -0.710937500000, -4.406250000000, 1490778171
0.091308593750, 1.009033203125, -0.089355468750, -9.671875000000, -12.109375000000, -2.593750000000, 1490778171
0.091308593750, 1.009033203125, -0.089355468750, -9.671875000000, -12.109375000000, -2.593750000000, 1490778171
0.091308593750, 1.009033203125, -0.089355468750, -9.671875000000, -12.109375000000, -2.593750000000, 1490778171
0.217529296875, 0.915283203125, 0.000732421875, -9.062500000000, -0.687500000000, -7.046875000000, 1490778171
0.217529296875, 0.915283203125, 0.000732421875, -9.062500000000, -0.687500000000, -7.046875000000, 1490778171
0.217529296875, 0.915283203125, 0.000732421875, -9.062500000000, -0.687500000000, -7.046875000000, 1490778171
0.057861328125, 0.950195312500, -0.024902343750, -16.257812500000, 2.992187500000, -14.851562500000, 1490778171
0.057861328125, 0.950195312500, -0.024902343750, -16.257812500000, 2.992187500000, -14.851562500000, 1490778171
0.057861328125, 0.950195312500, -0.024902343750, -16.257812500000, 2.992187500000, -14.851562500000, 1490778171
0.126708984375, 0.972412109375, 0.008056640625, -11.031250000000, -11.585937500000, -14.570312500000, 1490778171
0.126708984375, 0.972412109375, 0.008056640625, -11.031250000000, -11.585937500000, -14.570312500000, 1490778171
0.126708984375, 0.972412109375, 0.008056640625, -11.031250000000, -11.585937500000, -14.570312500000, 1490778171
0.126708984375, 0.972412109375, 0.008056640625, -11.031250000000, -11.585937500000, -14.570312500000, 1490778171
0.062011718750, 0.932373046875, -0.025878906250, -14.945312500000, -2.718750000000, -12.851562500000, 1490778171
0.062011718750, 0.932373046875, -0.025878906250, -14.945312500000, -2.718750000000, -12.851562500000, 1490778171
0.062011718750, 0.932373046875, -0.025878906250, -14.945312500000, -2.718750000000, -12.851562500000, 1490778171
0.082031250000, 1.008056640625, 0.003906250000, -14.164062500000, 3.750000000000, -5.929687500000, 1490778171
0.082031250000, 1.008056640625, 0.003906250000, -14.164062500000, 3.750000000000, -5.929687500000, 1490778171
0.082031250000, 1.008056640625, 0.003906250000, -14.164062500000, 3.750000000000, -5.929687500000, 1490778171
0.067871093750, 1.076416015625, 0.022460937500, -11.015625000000, -1.062500000000, -7.585937500000, 1490778171
0.067871093750, 1.076416015625, 0.022460937500, -11.015625000000, -1.062500000000, -7.585937500000, 1490778171
0.067871093750, 1.076416015625, 0.022460937500, -11.015625000000, -1.062500000000, -7.585937500000, 1490778171
0.133300781250, 0.860839843750, 0.028808593750, -3.406250000000, -7.273437500000, -8.421875000000, 1490778171
0.133300781250, 0.860839843750, 0.028808593750, -3.406250000000, -7.273437500000, -8.421875000000, 1490778171
0.133300781250, 0.860839843750, 0.028808593750, -3.406250000000, -7.273437500000, -8.421875000000, 1490778171
0.133300781250, 0.860839843750, 0.028808593750, -3.406250000000, -7.273437500000, -8.421875000000, 1490778171
0.099365234375, 0.972412109375, -0.066406250000, 2.507812500000, 6.085937500000, -3.937500000000, 1490778171
0.099365234375, 0.972412109375, -0.066406250000, 2.507812500000, 6.085937500000, -3.937500000000, 1490778171
0.099365234375, 0.972412109375, -0.066406250000, 2.507812500000, 6.085937500000, -3.937500000000, 1490778171
0.077148437500, 1.080322265625, -0.031738281250, 1.382812500000, 6.289062500000, 0.250000000000, 1490778171
0.077148437500, 1.080322265625, -0.031738281250, 1.382812500000, 6.289062500000, 0.250000000000, 1490778171
0.077148437500, 1.080322265625, -0.031738281250, 1.382812500000, 6.289062500000, 0.250000000000, 1490778171
0.068359375000, 0.930908203125, -0.125732421875, 1.187500000000, 7.820312500000, 0.390625000000, 1490778171
0.068359375000, 0.930908203125, -0.125732421875, 1.187500000000, 7.820312500000, 0.390625000000, 1490778171
0.068359375000, 0.930908203125, -0.125732421875, 1.187500000000, 7.820312500000, 0.390625000000, 1490778171
0.052246093750, 1.012207031250, -0.066406250000, 6.914062500000, 4.835937500000, 2.507812500000, 1490778171
0.052246093750, 1.012207031250, -0.066406250000, 6.914062500000, 4.835937500000, 2.507812500000, 1490778171
0.052246093750, 1.012207031250, -0.066406250000, 6.914062500000, 4.835937500000, 2.507812500000, 1490778171
0.052246093750, 1.012207031250, -0.066406250000, 6.914062500000, 4.835937500000, 2.507812500000, 1490778171
0.152832031250, 0.985839843750, 0.019531250000, 3.492187500000, -0.492187500000, -0.234375000000, 1490778171
0.152832031250, 0.985839843750, 0.019531250000, 3.492187500000, -0.492187500000, -0.234375000000, 1490778171
0.152832031250, 0.985839843750, 0.019531250000, 3.492187500000, -0.492187500000, -0.234375000000, 1490778171
0.037597656250, 1.001953125000, 0.005126953125, 1.804687500000, 5.031250000000, 1.007812500000, 1490778171
0.037597656250, 1.001953125000, 0.005126953125, 1.804687500000, 5.031250000000, 1.007812500000, 1490778171
0.037597656250, 1.001953125000, 0.005126953125, 1.804687500000, 5.031250000000, 1.007812500000, 1490778171
0.086181640625, 0.985107421875, -0.090087890625, -2.460937500000, 6.515625000000, -4.078125000000, 1490778171
0.086181640625, 0.985107421875, -0.090087890625, -2.460937500000, 6.515625000000, -4.078125000000, 1490778171
0.086181640625, 0.985107421875, -0.090087890625, -2.460937500000, 6.515625000000, -4.078125000000, 1490778171
0.147705078125, 1.023681640625, 0.014648437500, -7.664062500000, -3.101562500000, -1.273437500000, 1490778171
0.147705078125, 1.023681640625, 0.014648437500, -7.664062500000, -3.101562500000, -1.273437500000, 1490778171
0.147705078125, 1.023681640625, 0.014648437500, -7.664062500000, -3.101562500000, -1.273437500000, 1490778172
0.147705078125, 1.023681640625, 0.014648437500, -7.664062500000, -3.101562500000, -1.273437500000, 1490778172
0.083740234375, 0.936035156250, -0.056640625000, -9.921875000000, -4.015625000000, -6.289062500000, 1490778172
0.083740234375, 0.936035156250, -0.056640625000, -9.921875000000, -4.015625000000, -6.289062500000, 1490778172
0.083740234375, 0.936035156250, -0.056640625000, -9.921875000000, -4.015625000000, -6.289062500000, 1490778172
0.200927734375, 0.999267578125, 0.010253906250, -11.031250000000, -3.421875000000, -7.367187500000, 1490778172
0.200927734375, 0.999267578125, 0.010253906250, -11.031250000000, -3.421875000000, -7.367187500000, 1490778172
0.200927734375, 0.999267578125, 0.010253906250, -11.031250000000, -3.421875000000, -7.367187500000, 1490778172
0.161865234375, 1.059082031250, 0.091796875000, -7.140625000000, 0.062500000000, -7.804687500000, 1490778172
0.161865234375, 1.059082031250, 0.091796875000, -7.140625000000, 0.062500000000, -7.804687500000, 1490778172
0.161865234375, 1.059082031250, 0.091796875000, -7.140625000000, 0.062500000000, -7.804687500000, 1490778172
0.116943359375, 0.979003906250, -0.078369140625, -9.671875000000, 4.195312500000, -10.125000000000, 1490778172
0.116943359375, 0.979003906250, -0.078369140625, -9.671875000000, 4.195312500000, -10.125000000000, 1490778172
0.116943359375, 0.979003906250, -0.078369140625, -9.671875000000, 4.195312500000, -10.125000000000, 1490778172
0.116943359375, 0.979003906250, -0.078369140625, -9.671875000000, 4.195312500000, -10.125000000000, 1490778172
0.208007812500, 0.969482421875, -0.080566406250, -10.570312500000, 4.609375000000, -6.750000000000, 1490778172
0.208007812500, 0.969482421875, -0.080566406250, -10.570312500000, 4.609375000000, -6.750000000000, 1490778172
0.208007812500, 0.969482421875, -0.080566406250, -10.570312500000, 4.609375000000, -6.750000000000, 1490778172
0.114990234375, 0.933837890625, -0.049316406250, -8.960937500000, 4.437500000000, -1.867187500000, 1490778172
0.114990234375, 0.933837890625, -0.049316406250, -8.960937500000, 4.437500000000, -1.867187500000, 1490778172
0.114990234375, 0.933837890625, -0.049316406250, -8.960937500000, 4.437500000000, -1.867187500000, 1490778172
0.074462890625, 1.030273437500, -0.030029296875, -6.031250000000, 1.570312500000, -1.773437500000, 1490778172
0.074462890625, 1.030273437500, -0.030029296875, -6.031250000000, 1.570312500000, -1.773437500000, 1490778172
0.074462890625, 1.030273437500, -0.030029296875, -6.031250000000, 1.570312500000, -1.773437500000, 1490778172
