ACC_X,ACC_Y,ACC_Z,G_X,G_Y,G_Z,Unix Time
0.007080078125, 0.666992187500, -0.098632812500, 14.914062500000, -38.093750000000, -29.921875000000, 1490778238
0.007080078125, 0.666992187500, -0.098632812500, 14.914062500000, -38.093750000000, -29.921875000000, 1490778238
0.007080078125, 0.666992187500, -0.098632812500, 14.914062500000, -38.093750000000, -29.921875000000, 1490778238
0.248779296875, 1.199707031250, -0.181152343750, 6.304687500000, -123.453125000000, -44.250000000000, 1490778238
0.248779296875, 1.199707031250, -0.181152343750, 6.304687500000, -123.453125000000, -44.250000000000, 1490778238
0.248779296875, 1.199707031250, -0.181152343750, 6.304687500000, -123.453125000000, -44.250000000000, 1490778238
0.248779296875, 1.199707031250, -0.181152343750, 6.304687500000, -123.453125000000, -44.250000000000, 1490778238
0.320068359375, 1.085449218750, -0.045166015625, 22.664062500000, -193.421875000000, -26.406250000000, 1490778238
0.320068359375, 1.085449218750, -0.045166015625, 22.664062500000, -193.421875000000, -26.406250000000, 1490778238
0.320068359375, 1.085449218750, -0.045166015625, 22.664062500000, -193.421875000000, -26.406250000000, 1490778238
0.117675781250, 0.922607421875, -0.341552734375, 23.250000000000, -200.992187500000, -42.429687500000, 1490778238
0.117675781250, 0.922607421875, -0.341552734375, 23.250000000000, -200.992187500000, -42.429687500000, 1490778238
0.117675781250, 0.922607421875, -0.341552734375, 23.250000000000, -200.992187500000, -42.429687500000, 1490778238
0.117431640625, 0.899169921875, -0.231445312500, -5.890625000000, -110.437500000000, -40.648437500000, 1490778238
0.117431640625, 0.899169921875, -0.231445312500, -5.890625000000, -110.437500000000, -40.648437500000, 1490778238
0.117431640625, 0.899169921875, -0.231445312500, -5.890625000000, -110.437500000000, -40.648437500000, 1490778238
0.265136718750, 0.858398437500, -0.320800781250, -20.843750000000, -41.648437500000, -49.632812500000, 1490778238
0.265136718750, 0.858398437500, -0.320800781250, -20.843750000000, -41.648437500000, -49.632812500000, 1490778238
0.265136718750, 0.858398437500, -0.320800781250, -20.843750000000, -41.648437500000, -49.632812500000, 1490778238
0.203369140625, 0.968261718750, -0.302001953125, 7.351562500000, -110.726562500000, -24.859375000000, 1490778238
0.203369140625, 0.968261718750, -0.302001953125, 7.351562500000, -110.726562500000, -24.859375000000, 1490778238
0.203369140625, 0.968261718750, -0.302001953125, 7.351562500000, -110.726562500000, -24.859375000000, 1490778238
0.203369140625, 0.968261718750, -0.302001953125, 7.351562500000, -110.726562500000, -24.859375000000, 1490778238
0.128906250000, 1.005615234375, -0.381591796875, 7.531250000000, -93.945312500000, -11.968750000000, 1490778238
0.128906250000, 1.005615234375, -0.381591796875, 7.531250000000, -93.945312500000, -11.968750000000, 1490778238
0.128906250000, 1.005615234375, -0.381591796875, 7.531250000000, -93.945312500000, -11.968750000000, 1490778238
0.144775390625, 0.881835937500, -0.443115234375, -6.640625000000, -36.351562500000, 2.781250000000, 1490778238
0.144775390625, 0.881835937500, -0.443115234375, -6.640625000000, -36.351562500000, 2.781250000000, 1490778238
0.144775390625, 0.881835937500, -0.443115234375, -6.640625000000, -36.351562500000, 2.781250000000, 1490778238
0.207763671875, 0.887207031250, -0.332519531250, 6.867187500000, -20.328125000000, 8.359375000000, 1490778238
0.188476562500, 0.785888671875, -0.307128906250, 6.867187500000, -20.328125000000, 8.359375000000, 1490778238
0.188476562500, 0.785888671875, -0.307128906250, 6.867187500000, -20.328125000000, 8.359375000000, 1490778238
0.188476562500, 0.785888671875, -0.307128906250, 6.867187500000, -20.328125000000, 8.359375000000, 1490778238
0.225585937500, 0.919189453125, -0.286621093750, 11.523437500000, -16.375000000000, 4.226562500000, 1490778238
0.171875000000, 1.008544921875, -0.330810546875, 9.531250000000, -27.171875000000, -2.281250000000, 1490778238
0.171875000000, 1.008544921875, -0.330810546875, 9.531250000000, -27.171875000000, -2.281250000000, 1490778238
0.171875000000, 1.008544921875, -0.330810546875, 9.531250000000, -27.171875000000, -2.281250000000, 1490778238
0.171875000000, 1.008544921875, -0.330810546875, 9.531250000000, -27.171875000000, -2.281250000000, 1490778238
0.171875000000, 1.008544921875, -0.330810546875, 9.531250000000, -27.171875000000, -2.281250000000, 1490778238
0.259765625000, 1.353759765625, -0.371582031250, -0.804687500000, -54.671875000000, 0.882812500000, 1490778238
0.259765625000, 1.353759765625, -0.371582031250, -0.804687500000, -54.671875000000, 0.882812500000, 1490778238
0.259765625000, 1.353759765625, -0.371582031250, -0.804687500000, -54.671875000000, 0.882812500000, 1490778238
0.038574218750, 1.276855468750, -0.407714843750, -36.828125000000, 8.187500000000, 6.867187500000, 1490778239
0.038574218750, 1.276855468750, -0.407714843750, -36.828125000000, 8.187500000000, 6.867187500000, 1490778239
0.038574218750, 1.276855468750, -0.407714843750, -36.828125000000, 8.187500000000, 6.867187500000, 1490778239
0.038574218750, 1.276855468750, -0.407714843750, -36.828125000000, 8.187500000000, 6.867187500000, 1490778239
0.112304687500, 0.987304687500, -0.343994140625, -34.742187500000, 1.312500000000, 1.382812500000, 1490778239
0.044921875000, 0.699707031250, -0.044677734375, -43.304687500000, 37.398437500000, -28.421875000000, 1490778239
0.044921875000, 0.699707031250, -0.044677734375, -43.304687500000, 37.398437500000, -28.421875000000, 1490778239
0.044921875000, 0.699707031250, -0.044677734375, -43.304687500000, 37.398437500000, -28.421875000000, 1490778239
0.044921875000, 0.699707031250, -0.044677734375, -43.304687500000, 37.398437500000, -28.421875000000, 1490778239
0.044921875000, 0.699707031250, -0.044677734375, -43.304687500000, 37.398437500000, -28.421875000000, 1490778239
0.029785156250, 0.771240234375, -0.082763671875, -13.156250000000, 41.250000000000, -28.289062500000, 1490778239
0.029785156250, 0.771240234375, -0.082763671875, -13.156250000000, 41.250000000000, -28.289062500000, 1490778239
0.029785156250, 0.771240234375, -0.082763671875, -13.156250000000, 41.250000000000, -28.289062500000, 1490778239
-0.164062500000, 1.148437500000, -0.290527343750, 17.562500000000, -211.703125000000, 30.273437500000, 1490778239
0.103271484375, 1.096191406250, -0.354248046875, -9.250000000000, -76.437500000000, 6.554687500000, 1490778239
0.103271484375, 1.096191406250, -0.354248046875, -9.250000000000, -76.437500000000, 6.554687500000, 1490778239
0.164794921875, 1.086425781250, -0.350097656250, -12.117187500000, 40.203125000000, -33.687500000000, 1490778239
0.164794921875, 1.086425781250, -0.350097656250, -12.117187500000, 40.203125000000, -33.687500000000, 1490778239
0.164794921875, 1.086425781250, -0.350097656250, -12.117187500000, 40.203125000000, -33.687500000000, 1490778239
0.164794921875, 1.086425781250, -0.350097656250, -12.117187500000, 40.203125000000, -33.687500000000, 1490778239
0.164794921875, 1.086425781250, -0.350097656250, -12.117187500000, 40.203125000000, -33.687500000000, 1490778239
0.164794921875, 1.086425781250, -0.350097656250, -12.117187500000, 40.203125000000, -33.687500000000, 1490778239
0.164794921875, 1.086425781250, -0.350097656250, -12.117187500000, 40.203125000000, -33.687500000000, 1490778239
0.145751953125, 0.787109375000, -0.134277343750, -10.640625000000, -50.859375000000, -50.117187500000, 1490778239
0.145751953125, 0.787109375000, -0.134277343750, -10.640625000000, -50.859375000000, -50.117187500000, 1490778239
0.145751953125, 0.787109375000, -0.134277343750, -10.640625000000, -50.859375000000, -50.117187500000, 1490778239
-0.026855468750, 0.805664062500, -0.284179687500, 34.960937500000, -174.218750000000, -25.210937500000, 1490778239
-0.026855468750, 0.805664062500, -0.284179687500, 34.960937500000, -174.218750000000, -25.210937500000, 1490778239
-0.026855468750, 0.805664062500, -0.284179687500, 34.960937500000, -174.218750000000, -25.210937500000, 1490778239
-0.026855468750, 0.805664062500, -0.284179687500, 34.960937500000, -174.218750000000, -25.210937500000, 1490778239
-0.206298828125, 0.782714843750, -0.397216796875, -5.187500000000, 15.898437500000, -10.125000000000, 1490778239
-0.206298828125, 0.782714843750, -0.397216796875, -5.187500000000, 15.898437500000, -10.125000000000, 1490778239
-0.206298828125, 0.782714843750, -0.397216796875, -5.187500000000, 15.898437500000, -10.125000000000, 1490778239
-0.206298828125, 0.782714843750, -0.397216796875, -5.187500000000, 15.898437500000, -10.125000000000, 1490778239
-0.206298828125, 0.782714843750, -0.397216796875, -5.187500000000, 15.898437500000, -10.125000000000, 1490778239
0.011718750000, 1.011230468750, -0.337890625000, 1.203125000000, 2.109375000000, -13.359375000000, 1490778239
0.011718750000, 1.011230468750, -0.337890625000, 1.203125000000, 2.109375000000, -13.359375000000, 1490778239
0.011718750000, 1.011230468750, -0.337890625000, 1.203125000000, 2.109375000000, -13.359375000000, 1490778239
0.011718750000, 1.011230468750, -0.337890625000, 1.203125000000, 2.109375000000, -13.359375000000, 1490778239
-0.021972656250, 1.271240234375, -0.299316406250, -6.804687500000, -45.742187500000, -31.453125000000, 1490778239
0.037597656250, 1.212402343750, -0.506591796875, -6.804687500000, -45.742187500000, -31.453125000000, 1490778239
0.037597656250, 1.212402343750, -0.506591796875, -6.804687500000, -45.742187500000, -31.453125000000, 1490778239
0.037597656250, 1.212402343750, -0.506591796875, -6.804687500000, -45.742187500000, -31.453125000000, 1490778239
0.198242187500, 1.381347656250, -0.293945312500, -37.664062500000, 23.234375000000, -53.257812500000, 1490778239
0.198242187500, 1.381347656250, -0.293945312500, -37.664062500000, 23.234375000000, -53.257812500000, 1490778239
0.198242187500, 1.381347656250, -0.293945312500, -37.664062500000, 23.234375000000, -53.257812500000, 1490778239
0.198242187500, 1.381347656250, -0.293945312500, -37.664062500000, 23.234375000000, -53.257812500000, 1490778239
0.198242187500, 1.381347656250, -0.293945312500, -37.664062500000, 23.234375000000, -53.257812500000, 1490778239
0.198242187500, 1.381347656250, -0.293945312500, -37.664062500000, 23.234375000000, -53.257812500000, 1490778239
0.110107421875, 0.887939453125, -0.125732421875, -32.750000000000, 17.757812500000, -44.296875000000, 1490778239
0.110107421875, 0.887939453125, -0.125732421875, -32.750000000000, 17.757812500000, -44.296875000000, 1490778239
0.110107421875, 0.887939453125, -0.125732421875, -32.750000000000, 17.757812500000, -44.296875000000, 1490778239
-0.032226562500, 0.621337890625, -0.022216796875, -17.531250000000, -11.476562500000, -16.054687500000, 1490778239
-0.032226562500, 0.621337890625, -0.022216796875, -17.531250000000, -11.476562500000, -16.054687500000, 1490778239
-0.032226562500, 0.621337890625, -0.022216796875, -17.531250000000, -11.476562500000, -16.054687500000, 1490778239
-0.035400390625, 0.832275390625, 0.031250000000, -0.898437500000, -24.921875000000, -6.601562500000, 1490778239
-0.046142578125, 0.861083984375, -0.217041015625, 29.937500000000, -53.929687500000, 2.492187500000, 1490778239
-0.046142578125, 0.861083984375, -0.217041015625, 29.937500000000, -53.929687500000, 2.492187500000, 1490778239
-0.046142578125, 0.861083984375, -0.217041015625, 29.937500000000, -53.929687500000, 2.492187500000, 1490778239
0.255859375000, 1.257080078125, -0.389160156250, -6.046875000000, -110.882812500000, 15.851562500000, 1490778239
0.255859375000, 1.257080078125, -0.389160156250, -6.046875000000, -110.882812500000, 15.851562500000, 1490778239
0.255859375000, 1.257080078125, -0.389160156250, -6.046875000000, -110.882812500000, 15.851562500000, 1490778239
0.125976562500, 1.032714843750, -0.288574218750, 15.593750000000, 31.843750000000, -7.281250000000, 1490778239
0.125976562500, 1.032714843750, -0.288574218750, 15.593750000000, 31.843750000000, -7.281250000000, 1490778239
0.125976562500, 1.032714843750, -0.288574218750, 15.593750000000, 31.843750000000, -7.281250000000, 1490778239
0.189697265625, 1.085449218750, -0.381347656250, -2.093750000000, 16.578125000000, -1.812500000000, 1490778239
-0.003662109375, 0.661376953125, -0.311523437500, -2.578125000000, -16.781250000000, 6.125000000000, 1490778240
0.090332031250, 0.821044921875, -0.379638671875, -15.406250000000, -1.976562500000, 6.257812500000, 1490778240
0.090332031250, 0.821044921875, -0.379638671875, -15.406250000000, -1.976562500000, 6.257812500000, 1490778240
0.048828125000, 0.788330078125, -0.311767578125, -12.187500000000, 8.929687500000, -1.742187500000, 1490778240
0.048828125000, 0.788330078125, -0.311767578125, -12.187500000000, 8.929687500000, -1.742187500000, 1490778240
0.048828125000, 0.788330078125, -0.311767578125, -12.187500000000, 8.929687500000, -1.742187500000, 1490778240
0.048828125000, 0.788330078125, -0.311767578125, -12.187500000000, 8.929687500000, -1.742187500000, 1490778240
0.048828125000, 0.788330078125, -0.311767578125, -12.187500000000, 8.929687500000, -1.742187500000, 1490778240
0.048828125000, 0.788330078125, -0.311767578125, -12.187500000000, 8.929687500000, -1.742187500000, 1490778240
0.278076171875, 1.079345703125, -0.398437500000, -26.273437500000, -27.750000000000, -18.671875000000, 1490778240
0.278076171875, 1.079345703125, -0.398437500000, -26.273437500000, -27.750000000000, -18.671875000000, 1490778240
0.278076171875, 1.079345703125, -0.398437500000, -26.273437500000, -27.750000000000, -18.671875000000, 1490778240
0.092773437500, 0.729492187500, -0.515625000000, 0.781250000000, -5.835937500000, 2.367187500000, 1490778240
0.092773437500, 0.729492187500, -0.515625000000, 0.781250000000, -5.835937500000, 2.367187500000, 1490778240
0.092773437500, 0.729492187500, -0.515625000000, 0.781250000000, -5.835937500000, 2.367187500000, 1490778240
0.092773437500, 0.729492187500, -0.515625000000, 0.781250000000, -5.835937500000, 2.367187500000, 1490778240
0.038330078125, 1.385009765625, -0.476074218750, -28.820312500000, 13.078125000000, 24.945312500000, 1490778240
0.038330078125, 1.385009765625, -0.476074218750, -28.820312500000, 13.078125000000, 24.945312500000, 1490778240
0.038330078125, 1.385009765625, -0.476074218750, -28.820312500000, 13.078125000000, 24.945312500000, 1490778240
0.038330078125, 1.385009765625, -0.476074218750, -28.820312500000, 13.078125000000, 24.945312500000, 1490778240
-0.085449218750, 1.347167968750, -0.456298828125, -41.320312500000, 38.804687500000, 23.609375000000, 1490778240
0.078125000000, 0.973876953125, -0.361816406250, -38.726562500000, 81.796875000000, 24.515625000000, 1490778240
0.078125000000, 0.973876953125, -0.361816406250, -38.726562500000, 81.796875000000, 24.515625000000, 1490778240
0.078125000000, 0.973876953125, -0.361816406250, -38.726562500000, 81.796875000000, 24.515625000000, 1490778240
0.078125000000, 0.973876953125, -0.361816406250, -38.726562500000, 81.796875000000, 24.515625000000, 1490778240
0.127197265625, 0.643310546875, -0.207275390625, -21.960937500000, 97.656250000000, 4.718750000000, 1490778240
0.127197265625, 0.643310546875, -0.207275390625, -21.960937500000, 97.656250000000, 4.718750000000, 1490778240
0.127197265625, 0.643310546875, -0.207275390625, -21.960937500000, 97.656250000000, 4.718750000000, 1490778240
0.127197265625, 0.643310546875, -0.207275390625, -21.960937500000, 97.656250000000, 4.718750000000, 1490778240
0.009277343750, 0.536865234375, -0.038330078125, -20.414062500000, 64.859375000000, -12.085937500000, 1490778240
0.009277343750, 0.536865234375, -0.038330078125, -20.414062500000, 64.859375000000, -12.085937500000, 1490778240
0.009277343750, 0.536865234375, -0.038330078125, -20.414062500000, 64.859375000000, -12.085937500000, 1490778240
-0.038818359375, 0.824951171875, -0.069335937500, -12.562500000000, 55.953125000000, -5.679687500000, 1490778240
0.210693359375, 1.288330078125, -0.441650390625, 31.164062500000, -148.171875000000, 27.390625000000, 1490778240
0.210693359375, 1.288330078125, -0.441650390625, 31.164062500000, -148.171875000000, 27.390625000000, 1490778240
0.210693359375, 1.288330078125, -0.441650390625, 31.164062500000, -148.171875000000, 27.390625000000, 1490778240
0.210693359375, 1.288330078125, -0.441650390625, 31.164062500000, -148.171875000000, 27.390625000000, 1490778240
0.210693359375, 1.288330078125, -0.441650390625, 31.164062500000, -148.171875000000, 27.390625000000, 1490778240
0.197021484375, 0.939697265625, -0.505371093750, 12.140625000000, 84.054687500000, -5.609375000000, 1490778240
0.197021484375, 0.939697265625, -0.505371093750, 12.140625000000, 84.054687500000, -5.609375000000, 1490778240
0.197021484375, 0.939697265625, -0.505371093750, 12.140625000000, 84.054687500000, -5.609375000000, 1490778240
0.197021484375, 0.939697265625, -0.505371093750, 12.140625000000, 84.054687500000, -5.609375000000, 1490778240
0.119384765625, 0.802246093750, -0.449462890625, -2.773437500000, 76.421875000000, -8.289062500000, 1490778240
-0.010498046875, 0.732421875000, -0.305175781250, 25.218750000000, -63.929687500000, -10.148437500000, 1490778240
-0.010498046875, 0.732421875000, -0.305175781250, 25.218750000000, -63.929687500000, -10.148437500000, 1490778240
-0.010498046875, 0.732421875000, -0.305175781250, 25.218750000000, -63.929687500000, -10.148437500000, 1490778240
-0.010498046875, 0.732421875000, -0.305175781250, 25.218750000000, -63.929687500000, -10.148437500000, 1490778240
-0.090087890625, 0.844482421875, -0.453369140625, -4.226562500000, -29.812500000000, 3.578125000000, 1490778240
-0.090087890625, 0.844482421875, -0.453369140625, -4.226562500000, -29.812500000000, 3.578125000000, 1490778240
-0.090087890625, 0.844482421875, -0.453369140625, -4.226562500000, -29.812500000000, 3.578125000000, 1490778240
-0.090087890625, 0.844482421875, -0.453369140625, -4.226562500000, -29.812500000000, 3.578125000000, 1490778240
0.122802734375, 0.907470703125, -0.394042968750, 0.312500000000, 36.226562500000, 0.421875000000, 1490778240
0.122802734375, 0.907470703125, -0.394042968750, 0.312500000000, 36.226562500000, 0.421875000000, 1490778240
0.122802734375, 0.907470703125, -0.394042968750, 0.312500000000, 36.226562500000, 0.421875000000, 1490778240
0.142089843750, 0.936035156250, -0.358398437500, 3.968750000000, -39.664062500000, -13.406250000000, 1490778240
0.142089843750, 0.936035156250, -0.358398437500, 3.968750000000, -39.664062500000, -13.406250000000, 1490778240
0.142089843750, 0.936035156250, -0.358398437500, 3.968750000000, -39.664062500000, -13.406250000000, 1490778240
0.142089843750, 0.936035156250, -0.358398437500, 3.968750000000, -39.664062500000, -13.406250000000, 1490778240
-0.000244140625, 1.000244140625, -0.395019531250, 1.375000000000, -58.593750000000, -19.742187500000, 1490778240
0.072998046875, 1.170898437500, -0.502929687500, -1.140625000000, 2.343750000000, -14.054687500000, 1490778240
0.072998046875, 1.170898437500, -0.502929687500, -1.140625000000, 2.343750000000, -14.054687500000, 1490778240
0.072998046875, 1.170898437500, -0.502929687500, -1.140625000000, 2.343750000000, -14.054687500000, 1490778240
0.072998046875, 1.170898437500, -0.502929687500, -1.140625000000, 2.343750000000, -14.054687500000, 1490778240
0.121093750000, 1.105468750000, -0.429687500000, -10.953125000000, 5.367187500000, -9.921875000000, 1490778240
0.098144531250, 1.199951171875, -0.395507812500, -12.671875000000, 19.546875000000, -9.343750000000, 1490778240
0.098144531250, 1.199951171875, -0.395507812500, -12.671875000000, 19.546875000000, -9.343750000000, 1490778240
0.098144531250, 1.199951171875, -0.395507812500, -12.671875000000, 19.546875000000, -9.343750000000, 1490778240
0.098144531250, 1.199951171875, -0.395507812500, -12.671875000000, 19.546875000000, -9.343750000000, 1490778240
