ACC_X,ACC_Y,ACC_Z,G_X,G_Y,G_Z,Unix Time
0.744140625000, 1.605468750000, -1.262451171875, 174.718750000000, -256.000000000000, -100.593750000000, 1490778272
0.744140625000, 1.605468750000, -1.262451171875, 174.718750000000, -256.000000000000, -100.593750000000, 1490778272
-0.099121093750, 1.404785156250, -0.583496093750, -12.695312500000, 175.640625000000, 12.500000000000, 1490778272
-0.099121093750, 1.404785156250, -0.583496093750, -12.695312500000, 175.640625000000, 12.500000000000, 1490778272
-0.099121093750, 1.404785156250, -0.583496093750, -12.695312500000, 175.640625000000, 12.500000000000, 1490778272
-0.099121093750, 1.404785156250, -0.583496093750, -12.695312500000, 175.640625000000, 12.500000000000, 1490778272
0.110839843750, 0.987304687500, -0.346435546875, -24.617187500000, -95.531250000000, 0.500000000000, 1490778272
0.110839843750, 0.987304687500, -0.346435546875, -24.617187500000, -95.531250000000, 0.500000000000, 1490778272
0.110839843750, 0.987304687500, -0.346435546875, -24.617187500000, -95.531250000000, 0.500000000000, 1490778272
-0.049804687500, 0.436523437500, -0.324218750000, -9.375000000000, 33.179687500000, 31.515625000000, 1490778272
-0.049804687500, 0.436523437500, -0.324218750000, -9.375000000000, 33.179687500000, 31.515625000000, 1490778272
-0.049804687500, 0.436523437500, -0.324218750000, -9.375000000000, 33.179687500000, 31.515625000000, 1490778272
-0.049804687500, 0.436523437500, -0.324218750000, -9.375000000000, 33.179687500000, 31.515625000000, 1490778272
0.002197265625, 0.171386718750, -0.160888671875, -21.539062500000, 114.257812500000, 16.546875000000, 1490778272
0.002197265625, 0.171386718750, -0.160888671875, -21.539062500000, 114.257812500000, 16.546875000000, 1490778273
0.002197265625, 0.171386718750, -0.160888671875, -21.539062500000, 114.257812500000, 16.546875000000, 1490778273
0.041015625000, 0.021972656250, -0.124267578125, -23.718750000000, 188.906250000000, 1.679687500000, 1490778273
0.041015625000, 0.021972656250, -0.124267578125, -23.718750000000, 188.906250000000, 1.679687500000, 1490778273
0.041015625000, 0.021972656250, -0.124267578125, -23.718750000000, 188.906250000000, 1.679687500000, 1490778273
-0.427246093750, 1.100341796875, -0.043945312500, 12.960937500000, -9.015625000000, -7.429687500000, 1490778273
-0.477294921875, 1.747558593750, -0.174804687500, 73.546875000000, -80.562500000000, 116.078125000000, 1490778273
-0.477294921875, 1.747558593750, -0.174804687500, 73.546875000000, -80.562500000000, 116.078125000000, 1490778273
-0.477294921875, 1.747558593750, -0.174804687500, 73.546875000000, -80.562500000000, 116.078125000000, 1490778273
2.004150390625, 2.057617187500, -2.576171875000, 253.992187500000, -256.000000000000, 253.992187500000, 1490778273
2.004150390625, 2.057617187500, -2.576171875000, 253.992187500000, -256.000000000000, 253.992187500000, 1490778273
2.004150390625, 2.057617187500, -2.576171875000, 253.992187500000, -256.000000000000, 253.992187500000, 1490778273
2.004150390625, 2.057617187500, -2.576171875000, 253.992187500000, -256.000000000000, 253.992187500000, 1490778273
0.208251953125, 1.304687500000, -0.424560546875, 103.093750000000, 217.179687500000, -40.515625000000, 1490778273
0.208251953125, 1.304687500000, -0.424560546875, 103.093750000000, 217.179687500000, -40.515625000000, 1490778273
0.208251953125, 1.304687500000, -0.424560546875, 103.093750000000, 217.179687500000, -40.515625000000, 1490778273
0.208251953125, 1.304687500000, -0.424560546875, 103.093750000000, 217.179687500000, -40.515625000000, 1490778273
0.208251953125, 1.304687500000, -0.424560546875, 103.093750000000, 217.179687500000, -40.515625000000, 1490778273
0.281738281250, 0.865966796875, -0.250000000000, -58.882812500000, 106.242187500000, -13.546875000000, 1490778273
0.281738281250, 0.865966796875, -0.250000000000, -58.882812500000, 106.242187500000, -13.546875000000, 1490778273
0.281738281250, 0.865966796875, -0.250000000000, -58.882812500000, 106.242187500000, -13.546875000000, 1490778273
0.260986328125, 0.407226562500, -0.149902343750, -19.226562500000, 54.007812500000, -47.414062500000, 1490778273
0.260986328125, 0.407226562500, -0.149902343750, -19.226562500000, 54.007812500000, -47.414062500000, 1490778273
0.260986328125, 0.407226562500, -0.149902343750, -19.226562500000, 54.007812500000, -47.414062500000, 1490778273
0.260986328125, 0.407226562500, -0.149902343750, -19.226562500000, 54.007812500000, -47.414062500000, 1490778273
0.226318359375, 0.125732421875, 0.072998046875, -35.742187500000, 86.968750000000, -31.843750000000, 1490778273
0.226318359375, 0.125732421875, 0.072998046875, -35.742187500000, 86.968750000000, -31.843750000000, 1490778273
0.226318359375, 0.125732421875, 0.072998046875, -35.742187500000, 86.968750000000, -31.843750000000, 1490778273
0.250732421875, 0.146240234375, -0.015136718750, -14.828125000000, 59.742187500000, -34.132812500000, 1490778273
0.250732421875, 0.146240234375, -0.015136718750, -14.828125000000, 59.742187500000, -34.132812500000, 1490778273
0.250732421875, 0.146240234375, -0.015136718750, -14.828125000000, 59.742187500000, -34.132812500000, 1490778273
0.263427734375, 1.611572265625, 0.339843750000, -62.875000000000, -256.000000000000, -145.289062500000, 1490778273
0.263427734375, 1.611572265625, 0.339843750000, -62.875000000000, -256.000000000000, -145.289062500000, 1490778273
0.263427734375, 1.611572265625, 0.339843750000, -62.875000000000, -256.000000000000, -145.289062500000, 1490778273
0.081054687500, 1.801025390625, -0.479492187500, 216.890625000000, -67.117187500000, 2.445312500000, 1490778273
0.081054687500, 1.801025390625, -0.479492187500, 216.890625000000, -67.117187500000, 2.445312500000, 1490778273
0.081054687500, 1.801025390625, -0.479492187500, 216.890625000000, -67.117187500000, 2.445312500000, 1490778273
0.081054687500, 1.801025390625, -0.479492187500, 216.890625000000, -67.117187500000, 2.445312500000, 1490778273
-0.177490234375, 1.521728515625, -0.456787109375, -156.945312500000, 62.390625000000, 13.984375000000, 1490778273
-0.177490234375, 1.521728515625, -0.456787109375, -156.945312500000, 62.390625000000, 13.984375000000, 1490778273
-0.177490234375, 1.521728515625, -0.456787109375, -156.945312500000, 62.390625000000, 13.984375000000, 1490778273
0.260742187500, 1.390380859375, -0.257324218750, 14.328125000000, -24.679687500000, 37.109375000000, 1490778273
0.260742187500, 1.390380859375, -0.257324218750, 14.328125000000, -24.679687500000, 37.109375000000, 1490778273
0.179687500000, 0.726562500000, 0.065185546875, 11.234375000000, -115.484375000000, -3.851562500000, 1490778273
0.179687500000, 0.726562500000, 0.065185546875, 11.234375000000, -115.484375000000, -3.851562500000, 1490778273
0.179687500000, 0.726562500000, 0.065185546875, 11.234375000000, -115.484375000000, -3.851562500000, 1490778273
0.179687500000, 0.726562500000, 0.065185546875, 11.234375000000, -115.484375000000, -3.851562500000, 1490778273
-0.083740234375, 0.422363281250, -0.286376953125, -36.531250000000, -31.515625000000, 68.796875000000, 1490778273
-0.083740234375, 0.422363281250, -0.286376953125, -36.531250000000, -31.515625000000, 68.796875000000, 1490778273
-0.083740234375, 0.422363281250, -0.286376953125, -36.531250000000, -31.515625000000, 68.796875000000, 1490778273
-0.083740234375, 0.422363281250, -0.286376953125, -36.531250000000, -31.515625000000, 68.796875000000, 1490778273
0.214111328125, 0.129882812500, -0.073486328125, -16.992187500000, 80.203125000000, -7.429687500000, 1490778273
0.214111328125, 0.129882812500, -0.073486328125, -16.992187500000, 80.203125000000, -7.429687500000, 1490778273
0.214111328125, 0.129882812500, -0.073486328125, -16.992187500000, 80.203125000000, -7.429687500000, 1490778273
0.324218750000, 0.076171875000, -0.097900390625, -76.328125000000, 214.554687500000, -106.703125000000, 1490778273
0.324218750000, 0.076171875000, -0.097900390625, -76.328125000000, 214.554687500000, -106.703125000000, 1490778273
0.324218750000, 0.076171875000, -0.097900390625, -76.328125000000, 214.554687500000, -106.703125000000, 1490778273
-0.703125000000, 2.650878906250, -0.404052734375, -256.000000000000, -88.515625000000, -199.718750000000, 1490778273
-0.703125000000, 2.650878906250, -0.404052734375, -256.000000000000, -88.515625000000, -199.718750000000, 1490778273
-0.310546875000, 1.436279296875, -0.793212890625, -144.867187500000, 202.742187500000, -69.023437500000, 1490778273
-0.310546875000, 1.436279296875, -0.793212890625, -144.867187500000, 202.742187500000, -69.023437500000, 1490778273
-0.310546875000, 1.436279296875, -0.793212890625, -144.867187500000, 202.742187500000, -69.023437500000, 1490778273
-0.310546875000, 1.436279296875, -0.793212890625, -144.867187500000, 202.742187500000, -69.023437500000, 1490778273
-0.310546875000, 1.436279296875, -0.793212890625, -144.867187500000, 202.742187500000, -69.023437500000, 1490778273
-0.019042968750, 1.566162109375, -0.771728515625, 45.445312500000, -26.640625000000, -32.523437500000, 1490778273
-0.019042968750, 1.566162109375, -0.771728515625, 45.445312500000, -26.640625000000, -32.523437500000, 1490778273
-0.019042968750, 1.566162109375, -0.771728515625, 45.445312500000, -26.640625000000, -32.523437500000, 1490778273
0.090576171875, 1.121582031250, -0.437988281250, -30.765625000000, 58.921875000000, -12.484375000000, 1490778274
0.090576171875, 1.121582031250, -0.437988281250, -30.765625000000, 58.921875000000, -12.484375000000, 1490778274
0.090576171875, 1.121582031250, -0.437988281250, -30.765625000000, 58.921875000000, -12.484375000000, 1490778274
0.379394531250, 0.756835937500, -0.320068359375, -13.367187500000, 46.015625000000, -27.117187500000, 1490778274
0.379394531250, 0.756835937500, -0.320068359375, -13.367187500000, 46.015625000000, -27.117187500000, 1490778274
0.379394531250, 0.756835937500, -0.320068359375, -13.367187500000, 46.015625000000, -27.117187500000, 1490778274
0.202392578125, 0.169921875000, -0.083740234375, -53.695312500000, -0.578125000000, -56.945312500000, 1490778274
0.091064453125, 0.098632812500, -0.010253906250, -39.421875000000, 4.562500000000, -48.078125000000, 1490778274
0.091064453125, 0.098632812500, -0.010253906250, -39.421875000000, 4.562500000000, -48.078125000000, 1490778274
0.145996093750, 0.098388671875, -0.011230468750, -66.531250000000, 33.328125000000, -49.070312500000, 1490778274
0.145996093750, 0.098388671875, -0.011230468750, -66.531250000000, 33.328125000000, -49.070312500000, 1490778274
0.145996093750, 0.098388671875, -0.011230468750, -66.531250000000, 33.328125000000, -49.070312500000, 1490778274
0.145996093750, 0.098388671875, -0.011230468750, -66.531250000000, 33.328125000000, -49.070312500000, 1490778274
0.145996093750, 0.098388671875, -0.011230468750, -66.531250000000, 33.328125000000, -49.070312500000, 1490778274
0.145996093750, 0.098388671875, -0.011230468750, -66.531250000000, 33.328125000000, -49.070312500000, 1490778274
0.242919921875, 1.568359375000, 0.327636718750, -2.132812500000, -256.000000000000, -130.000000000000, 1490778274
0.242919921875, 1.568359375000, 0.327636718750, -2.132812500000, -256.000000000000, -130.000000000000, 1490778274
0.242919921875, 1.568359375000, 0.327636718750, -2.132812500000, -256.000000000000, -130.000000000000, 1490778274
0.242919921875, 1.568359375000, 0.327636718750, -2.132812500000, -256.000000000000, -130.000000000000, 1490778274
1.059082031250, 1.310791015625, -2.950439453125, 253.992187500000, -256.000000000000, -59.312500000000, 1490778274
1.059082031250, 1.310791015625, -2.950439453125, 253.992187500000, -256.000000000000, -59.312500000000, 1490778274
1.059082031250, 1.310791015625, -2.950439453125, 253.992187500000, -256.000000000000, -59.312500000000, 1490778274
1.059082031250, 1.310791015625, -2.950439453125, 253.992187500000, -256.000000000000, -59.312500000000, 1490778274
0.435546875000, 0.921630859375, -0.328125000000, -19.070312500000, -202.078125000000, -19.093750000000, 1490778274
0.085205078125, 0.677490234375, -0.220947265625, 19.695312500000, -86.437500000000, -42.335937500000, 1490778274
0.085205078125, 0.677490234375, -0.220947265625, 19.695312500000, -86.437500000000, -42.335937500000, 1490778274
-0.006347656250, 0.481933593750, -0.205078125000, -28.750000000000, -94.078125000000, -22.460937500000, 1490778274
-0.006347656250, 0.481933593750, -0.205078125000, -28.750000000000, -94.078125000000, -22.460937500000, 1490778274
-0.006347656250, 0.481933593750, -0.205078125000, -28.750000000000, -94.078125000000, -22.460937500000, 1490778274
-0.006347656250, 0.481933593750, -0.205078125000, -28.750000000000, -94.078125000000, -22.460937500000, 1490778274
-0.006347656250, 0.481933593750, -0.205078125000, -28.750000000000, -94.078125000000, -22.460937500000, 1490778274
-0.006347656250, 0.481933593750, -0.205078125000, -28.750000000000, -94.078125000000, -22.460937500000, 1490778274
-0.006347656250, 0.481933593750, -0.205078125000, -28.750000000000, -94.078125000000, -22.460937500000, 1490778274
-0.006347656250, 0.481933593750, -0.205078125000, -28.750000000000, -94.078125000000, -22.460937500000, 1490778274
-0.006347656250, 0.481933593750, -0.205078125000, -28.750000000000, -94.078125000000, -22.460937500000, 1490778274
-0.006347656250, 0.481933593750, -0.205078125000, -28.750000000000, -94.078125000000, -22.460937500000, 1490778274
0.025634765625, 0.138183593750, 0.101074218750, -69.429687500000, 135.648437500000, -54.648437500000, 1490778274
0.025634765625, 0.138183593750, 0.101074218750, -69.429687500000, 135.648437500000, -54.648437500000, 1490778274
0.025634765625, 0.138183593750, 0.101074218750, -69.429687500000, 135.648437500000, -54.648437500000, 1490778274
0.025634765625, 0.138183593750, 0.101074218750, -69.429687500000, 135.648437500000, -54.648437500000, 1490778274
0.152832031250, 0.344726562500, 0.077880859375, -67.914062500000, 183.984375000000, -54.414062500000, 1490778274
-0.168212890625, 2.236572265625, -0.258789062500, -158.320312500000, -28.460937500000, -133.890625000000, 1490778274
-0.168212890625, 2.236572265625, -0.258789062500, -158.320312500000, -28.460937500000, -133.890625000000, 1490778274
-0.168212890625, 2.236572265625, -0.258789062500, -158.320312500000, -28.460937500000, -133.890625000000, 1490778274
-0.168212890625, 2.236572265625, -0.258789062500, -158.320312500000, -28.460937500000, -133.890625000000, 1490778274
-0.074707031250, 1.408691406250, -0.090087890625, -138.304687500000, -207.539062500000, -128.015625000000, 1490778274
-0.599853515625, 1.654296875000, -0.524414062500, -159.078125000000, 136.304687500000, -51.976562500000, 1490778274
-0.599853515625, 1.654296875000, -0.524414062500, -159.078125000000, 136.304687500000, -51.976562500000, 1490778274
-0.599853515625, 1.654296875000, -0.524414062500, -159.078125000000, 136.304687500000, -51.976562500000, 1490778274
0.387695312500, 1.240966796875, -0.695556640625, 8.078125000000, -98.820312500000, -47.960937500000, 1490778274
0.387695312500, 1.240966796875, -0.695556640625, 8.078125000000, -98.820312500000, -47.960937500000, 1490778274
0.387695312500, 1.240966796875, -0.695556640625, 8.078125000000, -98.820312500000, -47.960937500000, 1490778274
0.387695312500, 1.240966796875, -0.695556640625, 8.078125000000, -98.820312500000, -47.960937500000, 1490778274
0.387695312500, 1.240966796875, -0.695556640625, 8.078125000000, -98.820312500000, -47.960937500000, 1490778274
0.387695312500, 1.240966796875, -0.695556640625, 8.078125000000, -98.820312500000, -47.960937500000, 1490778274
-0.212402343750, 0.986572265625, -0.298828125000, -4.312500000000, -49.218750000000, -38.179687500000, 1490778274
-0.212402343750, 0.986572265625, -0.298828125000, -4.312500000000, -49.218750000000, -38.179687500000, 1490778274
-0.212402343750, 0.986572265625, -0.298828125000, -4.312500000000, -49.218750000000, -38.179687500000, 1490778274
-0.049560546875, 0.956054687500, -0.384277343750, 16.367187500000, -11.210937500000, -21.335937500000, 1490778274
0.130615234375, 0.295654296875, -0.095703125000, -20.718750000000, -11.523437500000, -17.367187500000, 1490778274
0.130615234375, 0.295654296875, -0.095703125000, -20.718750000000, -11.523437500000, -17.367187500000, 1490778274
0.130615234375, 0.295654296875, -0.095703125000, -20.718750000000, -11.523437500000, -17.367187500000, 1490778274
0.130615234375, 0.295654296875, -0.095703125000, -20.718750000000, -11.523437500000, -17.367187500000, 1490778274
0.130615234375, 0.295654296875, -0.095703125000, -20.718750000000, -11.523437500000, -17.367187500000, 1490778274
0.130615234375, 0.295654296875, -0.095703125000, -20.718750000000, -11.523437500000, -17.367187500000, 1490778274
0.061767578125, -0.006103515625, 0.019042968750, 1.960937500000, 84.468750000000, -42.796875000000, 1490778275
0.061767578125, -0.006103515625, 0.019042968750, 1.960937500000, 84.468750000000, -42.796875000000, 1490778275
0.061767578125, -0.006103515625, 0.019042968750, 1.960937500000, 84.468750000000, -42.796875000000, 1490778275
0.315917968750, 0.360595703125, 0.029052734375, -27.398437500000, 105.578125000000, -113.898437500000, 1490778275
0.315917968750, 0.360595703125, 0.029052734375, -27.398437500000, 105.578125000000, -113.898437500000, 1490778275
0.315917968750, 0.360595703125, 0.029052734375, -27.398437500000, 105.578125000000, -113.898437500000, 1490778275
