ACC_X,ACC_Y,ACC_Z,G_X,G_Y,G_Z,Unix Time
-0.192138671875, 0.366210937500, -0.921875000000, -1.476562500000, -0.078125000000, -6.757812500000, 1490778749
-0.192138671875, 0.366210937500, -0.921875000000, -1.476562500000, -0.078125000000, -6.757812500000, 1490778749
-0.192138671875, 0.366210937500, -0.921875000000, -1.476562500000, -0.078125000000, -6.757812500000, 1490778749
-0.112792968750, 0.321533203125, -1.029296875000, -3.171875000000, -2.125000000000, -5.960937500000, 1490778749
-0.112792968750, 0.321533203125, -1.029296875000, -3.171875000000, -2.125000000000, -5.960937500000, 1490778749
-0.112792968750, 0.321533203125, -1.029296875000, -3.171875000000, -2.125000000000, -5.960937500000, 1490778749
-0.112792968750, 0.321533203125, -1.029296875000, -3.171875000000, -2.125000000000, -5.960937500000, 1490778749
-0.112792968750, 0.321533203125, -1.029296875000, -3.171875000000, -2.125000000000, -5.960937500000, 1490778749
-0.202148437500, 0.274414062500, -0.940917968750, -5.078125000000, -2.734375000000, -6.976562500000, 1490778749
-0.042968750000, 0.314208984375, -0.939941406250, -2.820312500000, -1.398437500000, -5.992187500000, 1490778749
-0.042968750000, 0.314208984375, -0.939941406250, -2.820312500000, -1.398437500000, -5.992187500000, 1490778749
-0.042968750000, 0.314208984375, -0.939941406250, -2.820312500000, -1.398437500000, -5.992187500000, 1490778749
-0.041503906250, 0.282714843750, -0.925781250000, -2.945312500000, -1.445312500000, -6.789062500000, 1490778749
-0.041503906250, 0.282714843750, -0.925781250000, -2.945312500000, -1.445312500000, -6.789062500000, 1490778749
-0.041503906250, 0.282714843750, -0.925781250000, -2.945312500000, -1.445312500000, -6.789062500000, 1490778749
-0.104003906250, 0.289550781250, -1.006835937500, -1.742187500000, 0.648437500000, -4.679687500000, 1490778749
-0.104003906250, 0.289550781250, -1.006835937500, -1.742187500000, 0.648437500000, -4.679687500000, 1490778749
-0.104003906250, 0.289550781250, -1.006835937500, -1.742187500000, 0.648437500000, -4.679687500000, 1490778749
-0.104003906250, 0.289550781250, -1.006835937500, -1.742187500000, 0.648437500000, -4.679687500000, 1490778749
-0.114990234375, 0.248535156250, -0.931396484375, 0.046875000000, -0.375000000000, -5.679687500000, 1490778749
-0.114990234375, 0.248535156250, -0.931396484375, 0.046875000000, -0.375000000000, -5.679687500000, 1490778749
-0.114990234375, 0.248535156250, -0.931396484375, 0.046875000000, -0.375000000000, -5.679687500000, 1490778749
-0.055908203125, 0.328613281250, -0.931152343750, -3.937500000000, 2.664062500000, -1.093750000000, 1490778749
-0.055908203125, 0.328613281250, -0.931152343750, -3.937500000000, 2.664062500000, -1.093750000000, 1490778749
-0.055908203125, 0.328613281250, -0.931152343750, -3.937500000000, 2.664062500000, -1.093750000000, 1490778749
-0.144287109375, 0.331787109375, -0.927978515625, -5.960937500000, -0.257812500000, -3.648437500000, 1490778749
-0.144287109375, 0.331787109375, -0.927978515625, -5.960937500000, -0.257812500000, -3.648437500000, 1490778749
-0.144287109375, 0.331787109375, -0.927978515625, -5.960937500000, -0.257812500000, -3.648437500000, 1490778749
-0.057128906250, 0.322998046875, -0.846923828125, -3.859375000000, -0.593750000000, -1.968750000000, 1490778750
-0.057128906250, 0.322998046875, -0.846923828125, -3.859375000000, -0.593750000000, -1.968750000000, 1490778750
-0.057128906250, 0.322998046875, -0.846923828125, -3.859375000000, -0.593750000000, -1.968750000000, 1490778750
-0.057128906250, 0.322998046875, -0.846923828125, -3.859375000000, -0.593750000000, -1.968750000000, 1490778750
-0.102783203125, 0.334228515625, -0.916503906250, -6.304687500000, -0.679687500000, -0.117187500000, 1490778750
-0.102783203125, 0.334228515625, -0.916503906250, -6.304687500000, -0.679687500000, -0.117187500000, 1490778750
-0.102783203125, 0.334228515625, -0.916503906250, -6.304687500000, -0.679687500000, -0.117187500000, 1490778750
-0.143066406250, 0.324951171875, -0.914062500000, -4.546875000000, -0.257812500000, -6.882812500000, 1490778750
-0.143066406250, 0.324951171875, -0.914062500000, -4.546875000000, -0.257812500000, -6.882812500000, 1490778750
-0.143066406250, 0.324951171875, -0.914062500000, -4.546875000000, -0.257812500000, -6.882812500000, 1490778750
-0.145751953125, 0.221435546875, -0.943115234375, -4.843750000000, 0.085937500000, -8.210937500000, 1490778750
-0.145751953125, 0.221435546875, -0.943115234375, -4.843750000000, 0.085937500000, -8.210937500000, 1490778750
-0.145751953125, 0.221435546875, -0.943115234375, -4.843750000000, 0.085937500000, -8.210937500000, 1490778750
-0.132324218750, 0.246337890625, -0.861816406250, -4.906250000000, -0.968750000000, -3.710937500000, 1490778750
-0.132324218750, 0.246337890625, -0.861816406250, -4.906250000000, -0.968750000000, -3.710937500000, 1490778750
-0.132324218750, 0.246337890625, -0.861816406250, -4.906250000000, -0.968750000000, -3.710937500000, 1490778750
-0.132324218750, 0.246337890625, -0.861816406250, -4.906250000000, -0.968750000000, -3.710937500000, 1490778750
-0.043945312500, 0.297363281250, -0.965087890625, -4.843750000000, 2.335937500000, -6.718750000000, 1490778750
-0.043945312500, 0.297363281250, -0.965087890625, -4.843750000000, 2.335937500000, -6.718750000000, 1490778750
-0.043945312500, 0.297363281250, -0.965087890625, -4.843750000000, 2.335937500000, -6.718750000000, 1490778750
-0.134765625000, 0.259765625000, -0.915771484375, -2.851562500000, -0.976562500000, -5.062500000000, 1490778750
-0.134765625000, 0.259765625000, -0.915771484375, -2.851562500000, -0.976562500000, -5.062500000000, 1490778750
-0.134765625000, 0.259765625000, -0.915771484375, -2.851562500000, -0.976562500000, -5.062500000000, 1490778750
-0.046386718750, 0.236572265625, -1.020751953125, -1.687500000000, -2.054687500000, -1.593750000000, 1490778750
-0.046386718750, 0.236572265625, -1.020751953125, -1.687500000000, -2.054687500000, -1.593750000000, 1490778750
-0.046386718750, 0.236572265625, -1.020751953125, -1.687500000000, -2.054687500000, -1.593750000000, 1490778750
-0.131835937500, 0.301025390625, -0.934082031250, -7.242187500000, 4.718750000000, -6.195312500000, 1490778750
-0.131835937500, 0.301025390625, -0.934082031250, -7.242187500000, 4.718750000000, -6.195312500000, 1490778750
-0.131835937500, 0.301025390625, -0.934082031250, -7.242187500000, 4.718750000000, -6.195312500000, 1490778750
-0.049804687500, 0.317138671875, -1.021484375000, -7.820312500000, -2.351562500000, -4.234375000000, 1490778750
-0.036621093750, 0.233398437500, -0.928222656250, -8.867187500000, -0.789062500000, -8.921875000000, 1490778750
-0.016357421875, 0.226318359375, -0.925292968750, -8.164062500000, -1.460937500000, -1.187500000000, 1490778750
-0.151367187500, 0.284667968750, -0.906250000000, -3.390625000000, -1.429687500000, -5.156250000000, 1490778750
-0.151367187500, 0.284667968750, -0.906250000000, -3.390625000000, -1.429687500000, -5.156250000000, 1490778750
-0.151367187500, 0.284667968750, -0.906250000000, -3.390625000000, -1.429687500000, -5.156250000000, 1490778750
-0.151367187500, 0.284667968750, -0.906250000000, -3.390625000000, -1.429687500000, -5.156250000000, 1490778750
-0.102783203125, 0.165039062500, -0.869628906250, -3.093750000000, -4.398437500000, -10.617187500000, 1490778750
-0.102783203125, 0.165039062500, -0.869628906250, -3.093750000000, -4.398437500000, -10.617187500000, 1490778750
-0.138671875000, 0.254150390625, -0.959960937500, -3.320312500000, 0.664062500000, -4.054687500000, 1490778750
-0.138671875000, 0.254150390625, -0.959960937500, -3.320312500000, 0.664062500000, -4.054687500000, 1490778750
-0.138671875000, 0.254150390625, -0.959960937500, -3.320312500000, 0.664062500000, -4.054687500000, 1490778750
-0.138671875000, 0.254150390625, -0.959960937500, -3.320312500000, 0.664062500000, -4.054687500000, 1490778750
-0.138671875000, 0.254150390625, -0.959960937500, -3.320312500000, 0.664062500000, -4.054687500000, 1490778750
-0.190429687500, 0.296875000000, -1.010498046875, -1.828125000000, 2.429687500000, -6.757812500000, 1490778750
-0.190429687500, 0.296875000000, -1.010498046875, -1.828125000000, 2.429687500000, -6.757812500000, 1490778750
-0.190429687500, 0.296875000000, -1.010498046875, -1.828125000000, 2.429687500000, -6.757812500000, 1490778750
-0.062988281250, 0.328369140625, -0.929443359375, -3.812500000000, 1.468750000000, -1.242187500000, 1490778750
-0.062988281250, 0.328369140625, -0.929443359375, -3.812500000000, 1.468750000000, -1.242187500000, 1490778750
-0.062988281250, 0.328369140625, -0.929443359375, -3.812500000000, 1.468750000000, -1.242187500000, 1490778750
-0.032470703125, 0.329589843750, -0.941650390625, -4.890625000000, 2.226562500000, -4.398437500000, 1490778750
-0.032470703125, 0.329589843750, -0.941650390625, -4.890625000000, 2.226562500000, -4.398437500000, 1490778750
-0.114257812500, 0.338867187500, -0.953369140625, -1.328125000000, 2.343750000000, -4.281250000000, 1490778750
-0.037353515625, 0.343505859375, -0.937255859375, -1.328125000000, 2.343750000000, -4.281250000000, 1490778750
-0.037353515625, 0.343505859375, -0.937255859375, -1.328125000000, 2.343750000000, -4.281250000000, 1490778750
-0.037353515625, 0.343505859375, -0.937255859375, -1.328125000000, 2.343750000000, -4.281250000000, 1490778750
-0.037353515625, 0.343505859375, -0.937255859375, -1.328125000000, 2.343750000000, -4.281250000000, 1490778750
-0.040527343750, 0.230957031250, -0.998779296875, -3.359375000000, -0.679687500000, -6.890625000000, 1490778750
-0.056152343750, 0.258300781250, -0.922119140625, -3.359375000000, -0.679687500000, -6.890625000000, 1490778750
-0.056152343750, 0.258300781250, -0.922119140625, -3.359375000000, -0.679687500000, -6.890625000000, 1490778750
-0.056152343750, 0.258300781250, -0.922119140625, -3.359375000000, -0.679687500000, -6.890625000000, 1490778750
-0.079833984375, 0.292480468750, -0.978027343750, -4.351562500000, -2.226562500000, -1.437500000000, 1490778750
-0.127929687500, 0.248291015625, -0.915771484375, -4.898437500000, -0.335937500000, -3.078125000000, 1490778750
-0.127929687500, 0.248291015625, -0.915771484375, -4.898437500000, -0.335937500000, -3.078125000000, 1490778750
-0.127929687500, 0.248291015625, -0.915771484375, -4.898437500000, -0.335937500000, -3.078125000000, 1490778750
-0.162597656250, 0.259277343750, -1.009765625000, -1.375000000000, 0.289062500000, -3.226562500000, 1490778750
-0.162597656250, 0.259277343750, -1.009765625000, -1.375000000000, 0.289062500000, -3.226562500000, 1490778751
-0.162597656250, 0.259277343750, -1.009765625000, -1.375000000000, 0.289062500000, -3.226562500000, 1490778751
-0.162597656250, 0.259277343750, -1.009765625000, -1.375000000000, 0.289062500000, -3.226562500000, 1490778751
-0.062011718750, 0.257324218750, -0.937255859375, -4.312500000000, -0.710937500000, -6.250000000000, 1490778751
-0.062011718750, 0.257324218750, -0.937255859375, -4.312500000000, -0.710937500000, -6.250000000000, 1490778751
-0.062011718750, 0.257324218750, -0.937255859375, -4.312500000000, -0.710937500000, -6.250000000000, 1490778751
-0.062011718750, 0.257324218750, -0.937255859375, -4.312500000000, -0.710937500000, -6.250000000000, 1490778751
-0.031494140625, 0.341552734375, -0.935791015625, -4.515625000000, 0.984375000000, -3.296875000000, 1490778751
-0.031494140625, 0.341552734375, -0.935791015625, -4.515625000000, 0.984375000000, -3.296875000000, 1490778751
-0.031494140625, 0.341552734375, -0.935791015625, -4.515625000000, 0.984375000000, -3.296875000000, 1490778751
-0.096191406250, 0.323486328125, -0.916015625000, -3.101562500000, 0.976562500000, -6.132812500000, 1490778751
-0.096191406250, 0.323486328125, -0.916015625000, -3.101562500000, 0.976562500000, -6.132812500000, 1490778751
-0.096191406250, 0.323486328125, -0.916015625000, -3.101562500000, 0.976562500000, -6.132812500000, 1490778751
-0.140380859375, 0.284423828125, -0.990966796875, -3.898437500000, -0.148437500000, -8.921875000000, 1490778751
-0.195312500000, 0.324218750000, -0.924072265625, -6.140625000000, -2.226562500000, -5.218750000000, 1490778751
-0.195312500000, 0.324218750000, -0.924072265625, -6.140625000000, -2.226562500000, -5.218750000000, 1490778751
-0.195312500000, 0.324218750000, -0.924072265625, -6.140625000000, -2.226562500000, -5.218750000000, 1490778751
-0.195312500000, 0.324218750000, -0.924072265625, -6.140625000000, -2.226562500000, -5.218750000000, 1490778751
-0.072509765625, 0.297119140625, -0.982910156250, -1.164062500000, -2.976562500000, -3.929687500000, 1490778751
-0.072509765625, 0.297119140625, -0.982910156250, -1.164062500000, -2.976562500000, -3.929687500000, 1490778751
-0.072509765625, 0.297119140625, -0.982910156250, -1.164062500000, -2.976562500000, -3.929687500000, 1490778751
-0.072509765625, 0.297119140625, -0.982910156250, -1.164062500000, -2.976562500000, -3.929687500000, 1490778751
-0.072509765625, 0.297119140625, -0.982910156250, -1.164062500000, -2.976562500000, -3.929687500000, 1490778751
0.019042968750, 0.403320312500, -0.923095703125, -4.546875000000, -1.515625000000, -5.390625000000, 1490778751
0.019042968750, 0.403320312500, -0.923095703125, -4.546875000000, -1.515625000000, -5.390625000000, 1490778751
0.019042968750, 0.403320312500, -0.923095703125, -4.546875000000, -1.515625000000, -5.390625000000, 1490778751
-0.049072265625, 0.323242187500, -0.915771484375, -4.000000000000, -0.304687500000, -5.453125000000, 1490778751
-0.049072265625, 0.323242187500, -0.915771484375, -4.000000000000, -0.304687500000, -5.453125000000, 1490778751
-0.049072265625, 0.323242187500, -0.915771484375, -4.000000000000, -0.304687500000, -5.453125000000, 1490778751
-0.049072265625, 0.323242187500, -0.915771484375, -4.000000000000, -0.304687500000, -5.453125000000, 1490778751
-0.051513671875, 0.394775390625, -1.010742187500, -4.210937500000, 2.093750000000, -3.750000000000, 1490778751
-0.051513671875, 0.394775390625, -1.010742187500, -4.210937500000, 2.093750000000, -3.750000000000, 1490778751
-0.051513671875, 0.394775390625, -1.010742187500, -4.210937500000, 2.093750000000, -3.750000000000, 1490778751
-0.258300781250, 0.382568359375, -1.009765625000, -6.062500000000, 2.898437500000, -8.593750000000, 1490778751
-0.258300781250, 0.382568359375, -1.009765625000, -6.062500000000, 2.898437500000, -8.593750000000, 1490778751
-0.258300781250, 0.382568359375, -1.009765625000, -6.062500000000, 2.898437500000, -8.593750000000, 1490778751
-0.081054687500, 0.316650390625, -1.000976562500, -1.601562500000, 1.117187500000, -6.195312500000, 1490778751
-0.081054687500, 0.316650390625, -1.000976562500, -1.601562500000, 1.117187500000, -6.195312500000, 1490778751
-0.081054687500, 0.316650390625, -1.000976562500, -1.601562500000, 1.117187500000, -6.195312500000, 1490778751
-0.136230468750, 0.234619140625, -0.912597656250, -4.234375000000, -0.132812500000, -4.328125000000, 1490778751
-0.136230468750, 0.234619140625, -0.912597656250, -4.234375000000, -0.132812500000, -4.328125000000, 1490778751
-0.136230468750, 0.234619140625, -0.912597656250, -4.234375000000, -0.132812500000, -4.328125000000, 1490778751
-0.136230468750, 0.234619140625, -0.912597656250, -4.234375000000, -0.132812500000, -4.328125000000, 1490778751
-0.094726562500, 0.295654296875, -0.942871093750, -3.750000000000, -0.226562500000, -3.429687500000, 1490778751
-0.094726562500, 0.295654296875, -0.942871093750, -3.750000000000, -0.226562500000, -3.429687500000, 1490778751
-0.094726562500, 0.295654296875, -0.942871093750, -3.750000000000, -0.226562500000, -3.429687500000, 1490778751
-0.073242187500, 0.240966796875, -0.935546875000, -1.523437500000, 0.007812500000, -7.867187500000, 1490778751
-0.073242187500, 0.240966796875, -0.935546875000, -1.523437500000, 0.007812500000, -7.867187500000, 1490778751
-0.073242187500, 0.240966796875, -0.935546875000, -1.523437500000, 0.007812500000, -7.867187500000, 1490778751
-0.056640625000, 0.269531250000, -0.859863281250, -3.015625000000, 0.859375000000, -10.414062500000, 1490778751
-0.056640625000, 0.269531250000, -0.859863281250, -3.015625000000, 0.859375000000, -10.414062500000, 1490778751
-0.056640625000, 0.269531250000, -0.859863281250, -3.015625000000, 0.859375000000, -10.414062500000, 1490778751
-0.123779296875, 0.225830078125, -0.965087890625, -3.234375000000, -0.601562500000, -5.242187500000, 1490778751
-0.123779296875, 0.225830078125, -0.965087890625, -3.234375000000, -0.601562500000, -5.242187500000, 1490778751
-0.123779296875, 0.225830078125, -0.965087890625, -3.234375000000, -0.601562500000, -5.242187500000, 1490778751
-0.123779296875, 0.225830078125, -0.965087890625, -3.234375000000, -0.601562500000, -5.242187500000, 1490778751
-0.087402343750, 0.336425781250, -0.962646484375, -7.000000000000, -0.437500000000, -2.953125000000, 1490778751
-0.087402343750, 0.336425781250, -0.962646484375, -7.000000000000, -0.437500000000, -2.953125000000, 1490778751
-0.087402343750, 0.336425781250, -0.962646484375, -7.000000000000, -0.437500000000, -2.953125000000, 1490778751
-0.138916015625, 0.304199218750, -0.910156250000, -4.671875000000, -0.804687500000, -5.406250000000, 1490778751
-0.138916015625, 0.304199218750, -0.910156250000, -4.671875000000, -0.804687500000, -5.406250000000, 1490778751
-0.138916015625, 0.304199218750, -0.910156250000, -4.671875000000, -0.804687500000, -5.406250000000, 1490778751
-0.046386718750, 0.224365234375, -0.886230468750, -3.929687500000, -2.343750000000, -4.726562500000, 1490778751
-0.046386718750, 0.224365234375, -0.886230468750, -3.929687500000, -2.343750000000, -4.726562500000, 1490778751
-0.046386718750, 0.224365234375, -0.886230468750, -3.929687500000, -2.343750000000, -4.726562500000, 1490778751
-0.056640625000, 0.234863281250, -1.000244140625, -6.695312500000, 1.460937500000, -3.570312500000, 1490778751
-0.056640625000, 0.234863281250, -1.000244140625, -6.695312500000, 1.460937500000, -3.570312500000, 1490778751
-0.056640625000, 0.234863281250, -1.000244140625, -6.695312500000, 1.460937500000, -3.570312500000, 1490778751
-0.056640625000, 0.234863281250, -1.000244140625, -6.695312500000, 1.460937500000, -3.570312500000, 1490778751
-0.145019531250, 0.296386718750, -0.962890625000, -5.007812500000, 0.187500000000, -6.554687500000, 1490778752
-0.145019531250, 0.296386718750, -0.962890625000, -5.007812500000, 0.187500000000, -6.554687500000, 1490778752
-0.145019531250, 0.296386718750, -0.962890625000, -5.007812500000, 0.187500000000, -6.554687500000, 1490778752
-0.143310546875, 0.232666015625, -0.972900390625, -1.890625000000, 0.460937500000, -1.664062500000, 1490778752
-0.143310546875, 0.232666015625, -0.972900390625, -1.890625000000, 0.460937500000, -1.664062500000, 1490778752
-0.143310546875, 0.232666015625, -0.972900390625, -1.890625000000, 0.460937500000, -1.664062500000, 1490778752
-0.076904296875, 0.274169921875, -0.934570312500, -3.476562500000, 0.296875000000, -3.750000000000, 1490778752
-0.076904296875, 0.274169921875, -0.934570312500, -3.476562500000, 0.296875000000, -3.750000000000, 1490778752
-0.076904296875, 0.274169921875, -0.934570312500, -3.476562500000, 0.296875000000, -3.750000000000, 1490778752
-0.079833984375, 0.304931640625, -0.935058593750, -3.500000000000, -0.882812500000, -6.781250000000, 1490778752
-0.079833984375, 0.304931640625, -0.935058593750, -3.500000000000, -0.882812500000, -6.781250000000, 1490778752
-0.079833984375, 0.304931640625, -0.935058593750, -3.500000000000, -0.882812500000, -6.781250000000, 1490778752
-0.079833984375, 0.304931640625, -0.935058593750, -3.500000000000, -0.882812500000, -6.781250000000, 1490778752
-0.054443359375, 0.268066406250, -0.967773437500, -4.882812500000, 0.546875000000, -3.476562500000, 1490778752
-0.054443359375, 0.268066406250, -0.967773437500, -4.882812500000, 0.546875000000, -3.476562500000, 1490778752
-0.054443359375, 0.268066406250, -0.967773437500, -4.882812500000, 0.546875000000, -3.476562500000, 1490778752
-0.197509765625, 0.278320312500, -0.927246093750, -6.101562500000, -0.898437500000, -5.640625000000, 1490778752
-0.197509765625, 0.278320312500, -0.927246093750, -6.101562500000, -0.898437500000, -5.640625000000, 1490778752
-0.197509765625, 0.278320312500, -0.927246093750, -6.101562500000, -0.898437500000, -5.640625000000, 1490778752
-0.123779296875, 0.238769531250, -1.004150390625, -1.156250000000, 2.773437500000, -4.890625000000, 1490778752
-0.123779296875, 0.238769531250, -1.004150390625, -1.156250000000, 2.773437500000, -4.890625000000, 1490778752
-0.054443359375, 0.241210937500, -0.920654296875, -3.890625000000, -0.601562500000, -3.406250000000, 1490778752
-0.054443359375, 0.241210937500, -0.920654296875, -3.890625000000, -0.601562500000, -3.406250000000, 1490778752
-0.054443359375, 0.241210937500, -0.920654296875, -3.890625000000, -0.601562500000, -3.406250000000, 1490778752
-0.054443359375, 0.241210937500, -0.920654296875, -3.890625000000, -0.601562500000, -3.406250000000, 1490778752
-0.054443359375, 0.241210937500, -0.920654296875, -3.890625000000, -0.601562500000, -3.406250000000, 1490778752
-0.049316406250, 0.314208984375, -0.960937500000, -3.546875000000, -1.492187500000, -6.562500000000, 1490778752
-0.049316406250, 0.314208984375, -0.960937500000, -3.546875000000, -1.492187500000, -6.562500000000, 1490778752
-0.049316406250, 0.314208984375, -0.960937500000, -3.546875000000, -1.492187500000, -6.562500000000, 1490778752
-0.099365234375, 0.249511718750, -1.002197265625, -6.304687500000, -2.031250000000, -8.953125000000, 1490778752
-0.099365234375, 0.249511718750, -1.002197265625, -6.304687500000, -2.031250000000, -8.953125000000, 1490778752
-0.099365234375, 0.249511718750, -1.002197265625, -6.304687500000, -2.031250000000, -8.953125000000, 1490778752
-0.057617187500, 0.319335937500, -1.014404296875, -4.726562500000, -2.468750000000, -3.531250000000, 1490778752
-0.057617187500, 0.319335937500, -1.014404296875, -4.726562500000, -2.468750000000, -3.531250000000, 1490778752
-0.057617187500, 0.319335937500, -1.014404296875, -4.726562500000, -2.468750000000, -3.531250000000, 1490778752
-0.144531250000, 0.333251953125, -1.010498046875, -4.210937500000, -2.046875000000, -1.781250000000, 1490778752
-0.144531250000, 0.333251953125, -1.010498046875, -4.210937500000, -2.046875000000, -1.781250000000, 1490778752
-0.144531250000, 0.333251953125, -1.010498046875, -4.210937500000, -2.046875000000, -1.781250000000, 1490778752
-0.144531250000, 0.333251953125, -1.010498046875, -4.210937500000, -2.046875000000, -1.781250000000, 1490778752
-0.133056640625, 0.232910156250, -0.906250000000, -3.070312500000, -1.242187500000, -4.140625000000, 1490778752
-0.133056640625, 0.232910156250, -0.906250000000, -3.070312500000, -1.242187500000, -4.140625000000, 1490778752
-0.133056640625, 0.232910156250, -0.906250000000, -3.070312500000, -1.242187500000, -4.140625000000, 1490778752
-0.035400390625, 0.235107421875, -1.008544921875, -2.195312500000, 2.445312500000, -6.242187500000, 1490778752
-0.035400390625, 0.235107421875, -1.008544921875, -2.195312500000, 2.445312500000, -6.242187500000, 1490778752
-0.035400390625, 0.235107421875, -1.008544921875, -2.195312500000, 2.445312500000, -6.242187500000, 1490778752
-0.127685546875, 0.175537109375, -0.925048828125, -3.562500000000, -2.875000000000, -8.750000000000, 1490778752
-0.127685546875, 0.175537109375, -0.925048828125, -3.562500000000, -2.875000000000, -8.750000000000, 1490778752
-0.127685546875, 0.175537109375, -0.925048828125, -3.562500000000, -2.875000000000, -8.750000000000, 1490778752
-0.061035156250, 0.285400390625, -1.004638671875, -3.906250000000, -3.335937500000, -6.976562500000, 1490778752
-0.061035156250, 0.285400390625, -1.004638671875, -3.906250000000, -3.335937500000, -6.976562500000, 1490778752
-0.061035156250, 0.285400390625, -1.004638671875, -3.906250000000, -3.335937500000, -6.976562500000, 1490778752
-0.061035156250, 0.285400390625, -1.004638671875, -3.906250000000, -3.335937500000, -6.976562500000, 1490778752
-0.095947265625, 0.177490234375, -0.812011718750, -34.929687500000, 11.601562500000, 5.273437500000, 1490778752
-0.095947265625, 0.177490234375, -0.812011718750, -34.929687500000, 11.601562500000, 5.273437500000, 1490778752
-0.095947265625, 0.177490234375, -0.812011718750, -34.929687500000, 11.601562500000, 5.273437500000, 1490778752
-0.051513671875, 0.279541015625, -0.739013671875, -34.554687500000, 7.812500000000, -18.976562500000, 1490778752
-0.051513671875, 0.279541015625, -0.739013671875, -34.554687500000, 7.812500000000, -18.976562500000, 1490778752
-0.051513671875, 0.279541015625, -0.739013671875, -34.554687500000, 7.812500000000, -18.976562500000, 1490778752
-0.124755859375, 0.366455078125, -1.054199218750, -75.710937500000, 12.218750000000, -18.031250000000, 1490778752
-0.124755859375, 0.366455078125, -1.054199218750, -75.710937500000, 12.218750000000, -18.031250000000, 1490778752
-0.124755859375, 0.366455078125, -1.054199218750, -75.710937500000, 12.218750000000, -18.031250000000, 1490778752
0.062744140625, 0.330810546875, -0.985595703125, -83.531250000000, 7.101562500000, -18.953125000000, 1490778752
0.062744140625, 0.330810546875, -0.985595703125, -83.531250000000, 7.101562500000, -18.953125000000, 1490778752
0.062744140625, 0.330810546875, -0.985595703125, -83.531250000000, 7.101562500000, -18.953125000000, 1490778752
0.062744140625, 0.330810546875, -0.985595703125, -83.531250000000, 7.101562500000, -18.953125000000, 1490778752
0.016357421875, 0.131347656250, -1.256835937500, -80.156250000000, 0.609375000000, -10.234375000000, 1490778752
0.016357421875, 0.131347656250, -1.256835937500, -80.156250000000, 0.609375000000, -10.234375000000, 1490778752
0.016357421875, 0.131347656250, -1.256835937500, -80.156250000000, 0.609375000000, -10.234375000000, 1490778752
0.021484375000, -0.076171875000, -1.238037109375, -73.054687500000, -22.476562500000, -13.664062500000, 1490778753
0.021484375000, -0.076171875000, -1.238037109375, -73.054687500000, -22.476562500000, -13.664062500000, 1490778753
0.021484375000, -0.076171875000, -1.238037109375, -73.054687500000, -22.476562500000, -13.664062500000, 1490778753
0.019531250000, 0.068359375000, -1.314941406250, -69.679687500000, -33.898437500000, 13.367187500000, 1490778753
0.019531250000, 0.068359375000, -1.314941406250, -69.679687500000, -33.898437500000, 13.367187500000, 1490778753
0.019531250000, 0.068359375000, -1.314941406250, -69.679687500000, -33.898437500000, 13.367187500000, 1490778753
-0.124511718750, 0.210449218750, -1.104248046875, -171.960937500000, 21.046875000000, 8.648437500000, 1490778753
-0.124511718750, 0.210449218750, -1.104248046875, -171.960937500000, 21.046875000000, 8.648437500000, 1490778753
-0.124511718750, 0.210449218750, -1.104248046875, -171.960937500000, 21.046875000000, 8.648437500000, 1490778753
-0.124511718750, 0.210449218750, -1.104248046875, -171.960937500000, 21.046875000000, 8.648437500000, 1490778753
-0.154052734375, -0.252197265625, -0.890380859375, -102.335937500000, 5.820312500000, 2.960937500000, 1490778753
-0.154052734375, -0.252197265625, -0.890380859375, -102.335937500000, 5.820312500000, 2.960937500000, 1490778753
-0.154052734375, -0.252197265625, -0.890380859375, -102.335937500000, 5.820312500000, 2.960937500000, 1490778753
0.067382812500, -0.312744140625, -0.812744140625, -144.765625000000, 7.023437500000, -5.437500000000, 1490778753
0.067382812500, -0.312744140625, -0.812744140625, -144.765625000000, 7.023437500000, -5.437500000000, 1490778753
0.067382812500, -0.312744140625, -0.812744140625, -144.765625000000, 7.023437500000, -5.437500000000, 1490778753
0.021240234375, -0.448486328125, -0.617675781250, -79.460937500000, 4.773437500000, 20.593750000000, 1490778753
0.021240234375, -0.448486328125, -0.617675781250, -79.460937500000, 4.773437500000, 20.593750000000, 1490778753
0.021240234375, -0.448486328125, -0.617675781250, -79.460937500000, 4.773437500000, 20.593750000000, 1490778753
-0.109130859375, -0.481689453125, -0.944824218750, -64.453125000000, 14.671875000000, -8.851562500000, 1490778753
-0.109130859375, -0.481689453125, -0.944824218750, -64.453125000000, 14.671875000000, -8.851562500000, 1490778753
0.022216796875, -0.486083984375, -0.624511718750, -63.132812500000, -21.382812500000, -14.148437500000, 1490778753
0.022216796875, -0.486083984375, -0.624511718750, -63.132812500000, -21.382812500000, -14.148437500000, 1490778753
0.022216796875, -0.486083984375, -0.624511718750, -63.132812500000, -21.382812500000, -14.148437500000, 1490778753
0.022216796875, -0.486083984375, -0.624511718750, -63.132812500000, -21.382812500000, -14.148437500000, 1490778753
0.022216796875, -0.486083984375, -0.624511718750, -63.132812500000, -21.382812500000, -14.148437500000, 1490778753
-0.148193359375, -0.479980468750, -0.552734375000, -56.515625000000, -26.609375000000, 1.390625000000, 1490778753
-0.148193359375, -0.479980468750, -0.552734375000, -56.515625000000, -26.609375000000, 1.390625000000, 1490778753
-0.148193359375, -0.479980468750, -0.552734375000, -56.515625000000, -26.609375000000, 1.390625000000, 1490778753
-0.126464843750, -0.669921875000, -0.892578125000, -57.117187500000, -34.835937500000, 2.796875000000, 1490778753
-0.126464843750, -0.669921875000, -0.892578125000, -57.117187500000, -34.835937500000, 2.796875000000, 1490778753
-0.126464843750, -0.669921875000, -0.892578125000, -57.117187500000, -34.835937500000, 2.796875000000, 1490778753
-0.250732421875, -0.722412109375, -0.433593750000, -104.882812500000, -0.929687500000, 19.367187500000, 1490778753
-0.250732421875, -0.722412109375, -0.433593750000, -104.882812500000, -0.929687500000, 19.367187500000, 1490778753
-0.250732421875, -0.722412109375, -0.433593750000, -104.882812500000, -0.929687500000, 19.367187500000, 1490778753
-0.250732421875, -0.722412109375, -0.433593750000, -104.882812500000, -0.929687500000, 19.367187500000, 1490778753
-0.266601562500, -0.782226562500, -0.687500000000, -69.007812500000, -78.203125000000, 24.140625000000, 1490778753
-0.266601562500, -0.782226562500, -0.687500000000, -69.007812500000, -78.203125000000, 24.140625000000, 1490778753
-0.144531250000, -0.973632812500, -0.568603515625, -100.359375000000, -30.468750000000, 36.304687500000, 1490778753
-0.140625000000, -0.912109375000, -0.490234375000, -103.414062500000, -32.007812500000, 41.843750000000, 1490778753
-0.140625000000, -0.912109375000, -0.490234375000, -103.414062500000, -32.007812500000, 41.843750000000, 1490778753
-0.140625000000, -0.912109375000, -0.490234375000, -103.414062500000, -32.007812500000, 41.843750000000, 1490778753
-0.213623046875, -0.891113281250, -0.531738281250, -82.460937500000, -21.062500000000, 39.828125000000, 1490778753
-0.213623046875, -0.891113281250, -0.531738281250, -82.460937500000, -21.062500000000, 39.828125000000, 1490778753
-0.213623046875, -0.891113281250, -0.531738281250, -82.460937500000, -21.062500000000, 39.828125000000, 1490778753
-0.096679687500, -0.967041015625, -0.519775390625, -67.101562500000, 2.195312500000, 60.242187500000, 1490778753
-0.096679687500, -0.967041015625, -0.519775390625, -67.101562500000, 2.195312500000, 60.242187500000, 1490778753
-0.096679687500, -0.967041015625, -0.519775390625, -67.101562500000, 2.195312500000, 60.242187500000, 1490778753
-0.096679687500, -0.967041015625, -0.519775390625, -67.101562500000, 2.195312500000, 60.242187500000, 1490778753
-0.045898437500, -0.828369140625, -0.359863281250, -51.757812500000, 24.234375000000, 51.179687500000, 1490778753
-0.045898437500, -0.828369140625, -0.359863281250, -51.757812500000, 24.234375000000, 51.179687500000, 1490778753
-0.045898437500, -0.828369140625, -0.359863281250, -51.757812500000, 24.234375000000, 51.179687500000, 1490778753
0.015136718750, -0.896240234375, -0.379882812500, -43.929687500000, 36.046875000000, 43.656250000000, 1490778753
0.015136718750, -0.896240234375, -0.379882812500, -43.929687500000, 36.046875000000, 43.656250000000, 1490778753
0.015136718750, -0.896240234375, -0.379882812500, -43.929687500000, 36.046875000000, 43.656250000000, 1490778753
0.058349609375, -0.880371093750, -0.399169921875, -38.546875000000, 25.101562500000, 47.000000000000, 1490778753
0.058349609375, -0.880371093750, -0.399169921875, -38.546875000000, 25.101562500000, 47.000000000000, 1490778753
0.058349609375, -0.880371093750, -0.399169921875, -38.546875000000, 25.101562500000, 47.000000000000, 1490778753
0.106933593750, -0.979248046875, -0.347656250000, -25.281250000000, 4.039062500000, 69.000000000000, 1490778753
0.106933593750, -0.979248046875, -0.347656250000, -25.281250000000, 4.039062500000, 69.000000000000, 1490778753
0.106933593750, -0.979248046875, -0.347656250000, -25.281250000000, 4.039062500000, 69.000000000000, 1490778753
0.106933593750, -0.979248046875, -0.347656250000, -25.281250000000, 4.039062500000, 69.000000000000, 1490778753
0.076171875000, -0.865966796875, -0.363525390625, -48.640625000000, -3.460937500000, 70.781250000000, 1490778753
0.076171875000, -0.865966796875, -0.363525390625, -48.640625000000, -3.460937500000, 70.781250000000, 1490778753
0.076171875000, -0.865966796875, -0.363525390625, -48.640625000000, -3.460937500000, 70.781250000000, 1490778753
-0.023681640625, -1.023437500000, -0.311035156250, -43.796875000000, 64.898437500000, 57.281250000000, 1490778754
-0.023681640625, -1.023437500000, -0.311035156250, -43.796875000000, 64.898437500000, 57.281250000000, 1490778754
-0.023681640625, -1.023437500000, -0.311035156250, -43.796875000000, 64.898437500000, 57.281250000000, 1490778754
0.157470703125, -0.857177734375, -0.304931640625, -43.937500000000, 61.937500000000, 32.328125000000, 1490778754
0.157470703125, -0.857177734375, -0.304931640625, -43.937500000000, 61.937500000000, 32.328125000000, 1490778754
0.157470703125, -0.857177734375, -0.304931640625, -43.937500000000, 61.937500000000, 32.328125000000, 1490778754
0.243164062500, -0.789794921875, -0.203613281250, -41.640625000000, 119.960937500000, -2.890625000000, 1490778754
0.243164062500, -0.789794921875, -0.203613281250, -41.640625000000, 119.960937500000, -2.890625000000, 1490778754
0.243164062500, -0.789794921875, -0.203613281250, -41.640625000000, 119.960937500000, -2.890625000000, 1490778754
0.243164062500, -0.789794921875, -0.203613281250, -41.640625000000, 119.960937500000, -2.890625000000, 1490778754
0.181884765625, -0.743164062500, -0.157958984375, -27.953125000000, 137.320312500000, -39.914062500000, 1490778754
0.181884765625, -0.743164062500, -0.157958984375, -27.953125000000, 137.320312500000, -39.914062500000, 1490778754
0.181884765625, -0.743164062500, -0.157958984375, -27.953125000000, 137.320312500000, -39.914062500000, 1490778754
0.174072265625, -0.850585937500, -0.129150390625, 63.804687500000, 184.867187500000, -78.429687500000, 1490778754
0.174072265625, -0.850585937500, -0.129150390625, 63.804687500000, 184.867187500000, -78.429687500000, 1490778754
0.174072265625, -0.850585937500, -0.129150390625, 63.804687500000, 184.867187500000, -78.429687500000, 1490778754
0.164062500000, -1.126708984375, -0.091308593750, 108.031250000000, 253.992187500000, -93.101562500000, 1490778754
0.164062500000, -1.126708984375, -0.091308593750, 108.031250000000, 253.992187500000, -93.101562500000, 1490778754
0.164062500000, -1.126708984375, -0.091308593750, 108.031250000000, 253.992187500000, -93.101562500000, 1490778754
0.181884765625, -0.883300781250, 0.004638671875, 162.195312500000, 253.992187500000, -51.492187500000, 1490778754
0.181884765625, -0.883300781250, 0.004638671875, 162.195312500000, 253.992187500000, -51.492187500000, 1490778754
0.181884765625, -0.883300781250, 0.004638671875, 162.195312500000, 253.992187500000, -51.492187500000, 1490778754
0.181884765625, -0.883300781250, 0.004638671875, 162.195312500000, 253.992187500000, -51.492187500000, 1490778754
0.191406250000, -0.960205078125, -0.138916015625, 185.140625000000, 253.992187500000, 16.804687500000, 1490778754
0.191406250000, -0.960205078125, -0.138916015625, 185.140625000000, 253.992187500000, 16.804687500000, 1490778754
0.191406250000, -0.960205078125, -0.138916015625, 185.140625000000, 253.992187500000, 16.804687500000, 1490778754
0.164550781250, -0.995117187500, -0.029785156250, 24.289062500000, 253.992187500000, 69.992187500000, 1490778754
0.164550781250, -0.995117187500, -0.029785156250, 24.289062500000, 253.992187500000, 69.992187500000, 1490778754
0.164550781250, -0.995117187500, -0.029785156250, 24.289062500000, 253.992187500000, 69.992187500000, 1490778754
0.507080078125, -1.328125000000, 0.088134765625, 112.351562500000, 253.992187500000, 28.515625000000, 1490778754
0.507080078125, -1.328125000000, 0.088134765625, 112.351562500000, 253.992187500000, 28.515625000000, 1490778754
0.507080078125, -1.328125000000, 0.088134765625, 112.351562500000, 253.992187500000, 28.515625000000, 1490778754
0.104736328125, -0.948486328125, -0.257080078125, 45.117187500000, 8.023437500000, -37.132812500000, 1490778754
0.104736328125, -0.948486328125, -0.257080078125, 45.117187500000, 8.023437500000, -37.132812500000, 1490778754
0.104736328125, -0.948486328125, -0.257080078125, 45.117187500000, 8.023437500000, -37.132812500000, 1490778754
0.104736328125, -0.948486328125, -0.257080078125, 45.117187500000, 8.023437500000, -37.132812500000, 1490778754
0.097412109375, -0.977783203125, -0.143310546875, -68.500000000000, -256.000000000000, 38.679687500000, 1490778754
0.097412109375, -0.977783203125, -0.143310546875, -68.500000000000, -256.000000000000, 38.679687500000, 1490778754
0.097412109375, -0.977783203125, -0.143310546875, -68.500000000000, -256.000000000000, 38.679687500000, 1490778754
0.313964843750, -1.094238281250, 0.126464843750, -46.359375000000, -256.000000000000, -25.945312500000, 1490778754
0.313964843750, -1.094238281250, 0.126464843750, -46.359375000000, -256.000000000000, -25.945312500000, 1490778754
0.313964843750, -1.094238281250, 0.126464843750, -46.359375000000, -256.000000000000, -25.945312500000, 1490778754
0.331054687500, -0.815917968750, 0.012695312500, -33.007812500000, -56.109375000000, -77.007812500000, 1490778754
0.331054687500, -0.815917968750, 0.012695312500, -33.007812500000, -56.109375000000, -77.007812500000, 1490778754
0.331054687500, -0.815917968750, 0.012695312500, -33.007812500000, -56.109375000000, -77.007812500000, 1490778754
0.510498046875, -1.025878906250, -0.190917968750, 58.328125000000, 122.289062500000, -64.195312500000, 1490778754
0.510498046875, -1.025878906250, -0.190917968750, 58.328125000000, 122.289062500000, -64.195312500000, 1490778754
0.510498046875, -1.025878906250, -0.190917968750, 58.328125000000, 122.289062500000, -64.195312500000, 1490778754
0.510498046875, -1.025878906250, -0.190917968750, 58.328125000000, 122.289062500000, -64.195312500000, 1490778754
0.355712890625, -0.918457031250, -0.155029296875, 112.398437500000, 26.882812500000, -42.320312500000, 1490778754
0.355712890625, -0.918457031250, -0.155029296875, 112.398437500000, 26.882812500000, -42.320312500000, 1490778754
0.355712890625, -0.918457031250, -0.155029296875, 112.398437500000, 26.882812500000, -42.320312500000, 1490778754
0.234375000000, -0.995117187500, -0.017333984375, 133.445312500000, 9.968750000000, -6.898437500000, 1490778754
0.234375000000, -0.995117187500, -0.017333984375, 133.445312500000, 9.968750000000, -6.898437500000, 1490778754
0.234375000000, -0.995117187500, -0.017333984375, 133.445312500000, 9.968750000000, -6.898437500000, 1490778754
0.251708984375, -1.067871093750, 0.020751953125, 35.828125000000, 116.132812500000, -29.531250000000, 1490778754
0.251708984375, -1.067871093750, 0.020751953125, 35.828125000000, 116.132812500000, -29.531250000000, 1490778754
0.251708984375, -1.067871093750, 0.020751953125, 35.828125000000, 116.132812500000, -29.531250000000, 1490778754
0.273681640625, -1.064941406250, -0.130859375000, -69.046875000000, 46.406250000000, -27.992187500000, 1490778754
0.273681640625, -1.064941406250, -0.130859375000, -69.046875000000, 46.406250000000, -27.992187500000, 1490778754
0.273681640625, -1.064941406250, -0.130859375000, -69.046875000000, 46.406250000000, -27.992187500000, 1490778754
0.273681640625, -1.064941406250, -0.130859375000, -69.046875000000, 46.406250000000, -27.992187500000, 1490778754
0.298339843750, -0.984375000000, -0.143798828125, -127.054687500000, -69.460937500000, -0.320312500000, 1490778754
0.298339843750, -0.984375000000, -0.143798828125, -127.054687500000, -69.460937500000, -0.320312500000, 1490778754
0.298339843750, -0.984375000000, -0.143798828125, -127.054687500000, -69.460937500000, -0.320312500000, 1490778754
0.529541015625, -1.000488281250, -0.135498046875, -119.734375000000, -78.914062500000, -14.226562500000, 1490778754
0.529541015625, -1.000488281250, -0.135498046875, -119.734375000000, -78.914062500000, -14.226562500000, 1490778754
0.529541015625, -1.000488281250, -0.135498046875, -119.734375000000, -78.914062500000, -14.226562500000, 1490778754
0.592773437500, -0.904785156250, -0.217773437500, -98.367187500000, -78.164062500000, 33.828125000000, 1490778755
0.592773437500, -0.904785156250, -0.217773437500, -98.367187500000, -78.164062500000, 33.828125000000, 1490778755
0.592773437500, -0.904785156250, -0.217773437500, -98.367187500000, -78.164062500000, 33.828125000000, 1490778755
0.321533203125, -0.941162109375, -0.022460937500, -25.757812500000, -13.382812500000, 39.695312500000, 1490778755
0.321533203125, -0.941162109375, -0.022460937500, -25.757812500000, -13.382812500000, 39.695312500000, 1490778755
0.321533203125, -0.941162109375, -0.022460937500, -25.757812500000, -13.382812500000, 39.695312500000, 1490778755
0.321533203125, -0.941162109375, -0.022460937500, -25.757812500000, -13.382812500000, 39.695312500000, 1490778755
0.258789062500, -0.904541015625, 0.020996093750, 35.984375000000, 74.953125000000, 46.578125000000, 1490778755
0.258789062500, -0.904541015625, 0.020996093750, 35.984375000000, 74.953125000000, 46.578125000000, 1490778755
0.258789062500, -0.904541015625, 0.020996093750, 35.984375000000, 74.953125000000, 46.578125000000, 1490778755
0.320068359375, -1.019531250000, -0.059082031250, 37.898437500000, 122.687500000000, 4.523437500000, 1490778755
0.320068359375, -1.019531250000, -0.059082031250, 37.898437500000, 122.687500000000, 4.523437500000, 1490778755
0.320068359375, -1.019531250000, -0.059082031250, 37.898437500000, 122.687500000000, 4.523437500000, 1490778755
0.224365234375, -0.917724609375, -0.053466796875, 64.195312500000, 31.132812500000, -18.046875000000, 1490778755
0.224365234375, -0.917724609375, -0.053466796875, 64.195312500000, 31.132812500000, -18.046875000000, 1490778755
0.224365234375, -0.917724609375, -0.053466796875, 64.195312500000, 31.132812500000, -18.046875000000, 1490778755
0.280761718750, -1.080322265625, -0.031005859375, 63.906250000000, 15.640625000000, -45.414062500000, 1490778755
0.280761718750, -1.080322265625, -0.031005859375, 63.906250000000, 15.640625000000, -45.414062500000, 1490778755
0.280761718750, -1.080322265625, -0.031005859375, 63.906250000000, 15.640625000000, -45.414062500000, 1490778755
0.280761718750, -1.080322265625, -0.031005859375, 63.906250000000, 15.640625000000, -45.414062500000, 1490778755
0.301025390625, -1.072998046875, 0.003906250000, 72.679687500000, 39.156250000000, -54.992187500000, 1490778755
0.301025390625, -1.072998046875, 0.003906250000, 72.679687500000, 39.156250000000, -54.992187500000, 1490778755
0.301025390625, -1.072998046875, 0.003906250000, 72.679687500000, 39.156250000000, -54.992187500000, 1490778755
0.406738281250, -1.041748046875, 0.100585937500, 90.804687500000, 44.968750000000, -59.695312500000, 1490778755
0.629638671875, -0.866455078125, 0.234863281250, -7.007812500000, 85.781250000000, 16.554687500000, 1490778755
0.629638671875, -0.866455078125, 0.234863281250, -7.007812500000, 85.781250000000, 16.554687500000, 1490778755
0.629638671875, -0.866455078125, 0.234863281250, -7.007812500000, 85.781250000000, 16.554687500000, 1490778755
0.331298828125, -0.870849609375, -0.005859375000, -84.617187500000, -88.234375000000, 19.031250000000, 1490778755
0.331298828125, -0.870849609375, -0.005859375000, -84.617187500000, -88.234375000000, 19.031250000000, 1490778755
0.331298828125, -0.870849609375, -0.005859375000, -84.617187500000, -88.234375000000, 19.031250000000, 1490778755
0.331298828125, -0.870849609375, -0.005859375000, -84.617187500000, -88.234375000000, 19.031250000000, 1490778755
0.390869140625, -0.926025390625, -0.061035156250, -66.203125000000, 23.507812500000, 23.218750000000, 1490778755
0.390869140625, -0.926025390625, -0.061035156250, -66.203125000000, 23.507812500000, 23.218750000000, 1490778755
0.390869140625, -0.926025390625, -0.061035156250, -66.203125000000, 23.507812500000, 23.218750000000, 1490778755
0.390869140625, -0.926025390625, -0.061035156250, -66.203125000000, 23.507812500000, 23.218750000000, 1490778755
0.390869140625, -0.926025390625, -0.061035156250, -66.203125000000, 23.507812500000, 23.218750000000, 1490778755
0.293457031250, -0.848144531250, -0.088867187500, -29.398437500000, -19.929687500000, 13.335937500000, 1490778755
0.293457031250, -0.848144531250, -0.088867187500, -29.398437500000, -19.929687500000, 13.335937500000, 1490778755
0.293457031250, -0.848144531250, -0.088867187500, -29.398437500000, -19.929687500000, 13.335937500000, 1490778755
0.293945312500, -0.904052734375, 0.024658203125, -20.562500000000, -41.531250000000, 6.867187500000, 1490778755
0.293945312500, -0.904052734375, 0.024658203125, -20.562500000000, -41.531250000000, 6.867187500000, 1490778755
0.293945312500, -0.904052734375, 0.024658203125, -20.562500000000, -41.531250000000, 6.867187500000, 1490778755
0.314453125000, -0.879150390625, 0.017578125000, 1.335937500000, 27.484375000000, 6.320312500000, 1490778755
0.314453125000, -0.879150390625, 0.017578125000, 1.335937500000, 27.484375000000, 6.320312500000, 1490778755
0.314453125000, -0.879150390625, 0.017578125000, 1.335937500000, 27.484375000000, 6.320312500000, 1490778755
0.314453125000, -0.879150390625, 0.017578125000, 1.335937500000, 27.484375000000, 6.320312500000, 1490778755
0.250000000000, -0.873291015625, -0.093505859375, 21.734375000000, 23.765625000000, 0.851562500000, 1490778755
0.250000000000, -0.873291015625, -0.093505859375, 21.734375000000, 23.765625000000, 0.851562500000, 1490778755
0.250000000000, -0.873291015625, -0.093505859375, 21.734375000000, 23.765625000000, 0.851562500000, 1490778755
0.343505859375, -0.799316406250, -0.045654296875, 33.335937500000, 30.265625000000, -13.664062500000, 1490778755
0.343505859375, -0.799316406250, -0.045654296875, 33.335937500000, 30.265625000000, -13.664062500000, 1490778755
0.343505859375, -0.799316406250, -0.045654296875, 33.335937500000, 30.265625000000, -13.664062500000, 1490778755
0.373046875000, -0.873779296875, -0.039306640625, 68.460937500000, 14.312500000000, -26.476562500000, 1490778755
0.373046875000, -0.873779296875, -0.039306640625, 68.460937500000, 14.312500000000, -26.476562500000, 1490778755
0.444091796875, -0.938232421875, 0.122070312500, 75.398437500000, -2.062500000000, -23.015625000000, 1490778755
0.496826171875, -0.864501953125, 0.174804687500, 33.531250000000, 81.265625000000, -11.906250000000, 1490778755
0.496826171875, -0.864501953125, 0.174804687500, 33.531250000000, 81.265625000000, -11.906250000000, 1490778755
0.443359375000, -0.913330078125, 0.006103515625, -37.507812500000, -10.000000000000, -2.804687500000, 1490778755
0.443359375000, -0.913330078125, 0.006103515625, -37.507812500000, -10.000000000000, -2.804687500000, 1490778755
0.443359375000, -0.913330078125, 0.006103515625, -37.507812500000, -10.000000000000, -2.804687500000, 1490778755
0.443359375000, -0.913330078125, 0.006103515625, -37.507812500000, -10.000000000000, -2.804687500000, 1490778755
0.443359375000, -0.913330078125, 0.006103515625, -37.507812500000, -10.000000000000, -2.804687500000, 1490778755
0.312744140625, -1.012451171875, 0.015136718750, -52.648437500000, -81.429687500000, 4.460937500000, 1490778755
0.312744140625, -1.012451171875, 0.015136718750, -52.648437500000, -81.429687500000, 4.460937500000, 1490778755
0.312744140625, -1.012451171875, 0.015136718750, -52.648437500000, -81.429687500000, 4.460937500000, 1490778755
0.367919921875, -0.950927734375, -0.064697265625, -24.781250000000, -5.929687500000, -7.734375000000, 1490778756
0.367919921875, -0.950927734375, -0.064697265625, -24.781250000000, -5.929687500000, -7.734375000000, 1490778756
0.367919921875, -0.950927734375, -0.064697265625, -24.781250000000, -5.929687500000, -7.734375000000, 1490778756
0.231933593750, -0.940185546875, -0.129394531250, 6.281250000000, -10.734375000000, -12.101562500000, 1490778756
0.231933593750, -0.940185546875, -0.129394531250, 6.281250000000, -10.734375000000, -12.101562500000, 1490778756
0.231933593750, -0.940185546875, -0.129394531250, 6.281250000000, -10.734375000000, -12.101562500000, 1490778756
0.231933593750, -0.940185546875, -0.129394531250, 6.281250000000, -10.734375000000, -12.101562500000, 1490778756
0.301025390625, -0.938964843750, 0.022949218750, 14.906250000000, 1.429687500000, -13.632812500000, 1490778756
0.301025390625, -0.938964843750, 0.022949218750, 14.906250000000, 1.429687500000, -13.632812500000, 1490778756
0.301025390625, -0.938964843750, 0.022949218750, 14.906250000000, 1.429687500000, -13.632812500000, 1490778756
0.444335937500, -1.012695312500, 0.027099609375, 12.335937500000, 11.984375000000, -11.804687500000, 1490778756
0.444335937500, -1.012695312500, 0.027099609375, 12.335937500000, 11.984375000000, -11.804687500000, 1490778756
0.444335937500, -1.012695312500, 0.027099609375, 12.335937500000, 11.984375000000, -11.804687500000, 1490778756
0.339111328125, -1.000488281250, -0.001708984375, -5.484375000000, -0.140625000000, -3.859375000000, 1490778756
0.339111328125, -1.000488281250, -0.001708984375, -5.484375000000, -0.140625000000, -3.859375000000, 1490778756
0.339111328125, -1.000488281250, -0.001708984375, -5.484375000000, -0.140625000000, -3.859375000000, 1490778756
0.336181640625, -0.974609375000, -0.065673828125, -16.257812500000, -12.500000000000, -8.914062500000, 1490778756
0.336181640625, -0.974609375000, -0.065673828125, -16.257812500000, -12.500000000000, -8.914062500000, 1490778756
0.336181640625, -0.974609375000, -0.065673828125, -16.257812500000, -12.500000000000, -8.914062500000, 1490778756
0.336181640625, -0.974609375000, -0.065673828125, -16.257812500000, -12.500000000000, -8.914062500000, 1490778756
0.384521484375, -1.001708984375, 0.019775390625, -3.125000000000, 2.898437500000, -11.421875000000, 1490778756
0.384521484375, -1.001708984375, 0.019775390625, -3.125000000000, 2.898437500000, -11.421875000000, 1490778756
0.384521484375, -1.001708984375, 0.019775390625, -3.125000000000, 2.898437500000, -11.421875000000, 1490778756
0.284179687500, -0.873291015625, 0.004150390625, 5.656250000000, 3.593750000000, -9.460937500000, 1490778756
0.284179687500, -0.873291015625, 0.004150390625, 5.656250000000, 3.593750000000, -9.460937500000, 1490778756
0.284179687500, -0.873291015625, 0.004150390625, 5.656250000000, 3.593750000000, -9.460937500000, 1490778756
0.396484375000, -0.864746093750, -0.003417968750, -13.054687500000, -10.804687500000, -1.484375000000, 1490778756
0.396484375000, -0.864746093750, -0.003417968750, -13.054687500000, -10.804687500000, -1.484375000000, 1490778756
0.396484375000, -0.864746093750, -0.003417968750, -13.054687500000, -10.804687500000, -1.484375000000, 1490778756
0.290527343750, -0.957519531250, 0.010742187500, -14.812500000000, -9.835937500000, -8.210937500000, 1490778756
0.235595703125, -0.888916015625, -0.136474609375, -9.281250000000, -8.445312500000, 0.703125000000, 1490778756
0.235595703125, -0.888916015625, -0.136474609375, -9.281250000000, -8.445312500000, 0.703125000000, 1490778756
0.235595703125, -0.888916015625, -0.136474609375, -9.281250000000, -8.445312500000, 0.703125000000, 1490778756
0.235595703125, -0.888916015625, -0.136474609375, -9.281250000000, -8.445312500000, 0.703125000000, 1490778756
0.235595703125, -0.888916015625, -0.136474609375, -9.281250000000, -8.445312500000, 0.703125000000, 1490778756
0.235595703125, -0.888916015625, -0.136474609375, -9.281250000000, -8.445312500000, 0.703125000000, 1490778756
0.295654296875, -0.845703125000, -0.135498046875, -4.796875000000, 2.007812500000, -1.945312500000, 1490778756
0.295654296875, -0.845703125000, -0.135498046875, -4.796875000000, 2.007812500000, -1.945312500000, 1490778756
0.295654296875, -0.845703125000, -0.135498046875, -4.796875000000, 2.007812500000, -1.945312500000, 1490778756
