ACC_X,ACC_Y,ACC_Z,G_X,G_Y,G_Z,Unix Time
0.038330078125, -0.885986328125, 0.463623046875, -11.351562500000, -3.039062500000, -23.039062500000, 1490674298
0.038330078125, -0.885986328125, 0.463623046875, -11.351562500000, -3.039062500000, -23.039062500000, 1490674298
0.038330078125, -0.885986328125, 0.463623046875, -11.351562500000, -3.039062500000, -23.039062500000, 1490674298
0.158691406250, -0.870605468750, 0.406005859375, -12.429687500000, -3.960937500000, -12.015625000000, 1490674298
0.158691406250, -0.870605468750, 0.406005859375, -12.429687500000, -3.960937500000, -12.015625000000, 1490674298
0.158691406250, -0.870605468750, 0.406005859375, -12.429687500000, -3.960937500000, -12.015625000000, 1490674298
0.074462890625, -0.848876953125, 0.429199218750, -14.250000000000, -7.203125000000, 0.656250000000, 1490674298
0.074462890625, -0.848876953125, 0.429199218750, -14.250000000000, -7.203125000000, 0.656250000000, 1490674298
0.074462890625, -0.848876953125, 0.429199218750, -14.250000000000, -7.203125000000, 0.656250000000, 1490674298
0.063964843750, -0.885986328125, 0.525634765625, -16.117187500000, -9.273437500000, -5.937500000000, 1490674298
0.063964843750, -0.885986328125, 0.525634765625, -16.117187500000, -9.273437500000, -5.937500000000, 1490674298
0.063964843750, -0.885986328125, 0.525634765625, -16.117187500000, -9.273437500000, -5.937500000000, 1490674298
0.063964843750, -0.885986328125, 0.525634765625, -16.117187500000, -9.273437500000, -5.937500000000, 1490674298
0.071777343750, -0.849121093750, 0.517578125000, -21.390625000000, -12.648437500000, -8.593750000000, 1490674298
0.071777343750, -0.849121093750, 0.517578125000, -21.390625000000, -12.648437500000, -8.593750000000, 1490674298
0.071777343750, -0.849121093750, 0.517578125000, -21.390625000000, -12.648437500000, -8.593750000000, 1490674298
0.199707031250, -0.895019531250, 0.570312500000, -20.421875000000, -8.921875000000, -8.585937500000, 1490674298
0.199707031250, -0.895019531250, 0.570312500000, -20.421875000000, -8.921875000000, -8.585937500000, 1490674298
0.199707031250, -0.895019531250, 0.570312500000, -20.421875000000, -8.921875000000, -8.585937500000, 1490674298
0.000732421875, -0.868652343750, 0.537353515625, -15.117187500000, -5.171875000000, -8.835937500000, 1490674298
0.000732421875, -0.868652343750, 0.537353515625, -15.117187500000, -5.171875000000, -8.835937500000, 1490674299
0.000732421875, -0.868652343750, 0.537353515625, -15.117187500000, -5.171875000000, -8.835937500000, 1490674299
0.000732421875, -0.868652343750, 0.537353515625, -15.117187500000, -5.171875000000, -8.835937500000, 1490674299
0.139648437500, -0.846923828125, 0.489013671875, -9.250000000000, -6.539062500000, -9.007812500000, 1490674299
0.139648437500, -0.846923828125, 0.489013671875, -9.250000000000, -6.539062500000, -9.007812500000, 1490674299
0.139648437500, -0.846923828125, 0.489013671875, -9.250000000000, -6.539062500000, -9.007812500000, 1490674299
0.155761718750, -0.835937500000, 0.499511718750, -12.140625000000, -8.085937500000, -11.718750000000, 1490674299
0.155761718750, -0.835937500000, 0.499511718750, -12.140625000000, -8.085937500000, -11.718750000000, 1490674299
0.155761718750, -0.835937500000, 0.499511718750, -12.140625000000, -8.085937500000, -11.718750000000, 1490674299
0.077880859375, -0.886718750000, 0.483886718750, -10.046875000000, -7.289062500000, -9.632812500000, 1490674299
0.077880859375, -0.886718750000, 0.483886718750, -10.046875000000, -7.289062500000, -9.632812500000, 1490674299
0.077880859375, -0.886718750000, 0.483886718750, -10.046875000000, -7.289062500000, -9.632812500000, 1490674299
0.131835937500, -0.800048828125, 0.644042968750, -5.843750000000, -4.242187500000, -6.632812500000, 1490674299
0.131835937500, -0.800048828125, 0.644042968750, -5.843750000000, -4.242187500000, -6.632812500000, 1490674299
0.131835937500, -0.800048828125, 0.644042968750, -5.843750000000, -4.242187500000, -6.632812500000, 1490674299
0.131835937500, -0.800048828125, 0.644042968750, -5.843750000000, -4.242187500000, -6.632812500000, 1490674299
0.052978515625, -0.749023437500, 0.470458984375, -6.953125000000, 1.492187500000, -3.414062500000, 1490674299
0.052978515625, -0.749023437500, 0.470458984375, -6.953125000000, 1.492187500000, -3.414062500000, 1490674299
0.049072265625, -0.860839843750, 0.558349609375, -7.820312500000, 3.507812500000, -4.234375000000, 1490674299
0.049072265625, -0.860839843750, 0.558349609375, -7.820312500000, 3.507812500000, -4.234375000000, 1490674299
0.049072265625, -0.860839843750, 0.558349609375, -7.820312500000, 3.507812500000, -4.234375000000, 1490674299
0.049072265625, -0.860839843750, 0.558349609375, -7.820312500000, 3.507812500000, -4.234375000000, 1490674299
0.011474609375, -0.948730468750, 0.636718750000, -4.976562500000, 5.289062500000, 0.531250000000, 1490674299
0.034423828125, -0.808105468750, 0.496337890625, -3.015625000000, 3.437500000000, -2.679687500000, 1490674299
0.034423828125, -0.808105468750, 0.496337890625, -3.015625000000, 3.437500000000, -2.679687500000, 1490674299
0.135742187500, -0.855224609375, 0.573730468750, -4.281250000000, 3.468750000000, -0.632812500000, 1490674299
0.135742187500, -0.855224609375, 0.573730468750, -4.281250000000, 3.468750000000, -0.632812500000, 1490674299
0.135742187500, -0.855224609375, 0.573730468750, -4.281250000000, 3.468750000000, -0.632812500000, 1490674299
0.135742187500, -0.855224609375, 0.573730468750, -4.281250000000, 3.468750000000, -0.632812500000, 1490674299
0.041748046875, -0.808593750000, 0.580078125000, 0.140625000000, 4.609375000000, -4.218750000000, 1490674299
0.041748046875, -0.808593750000, 0.580078125000, 0.140625000000, 4.609375000000, -4.218750000000, 1490674299
0.041748046875, -0.808593750000, 0.580078125000, 0.140625000000, 4.609375000000, -4.218750000000, 1490674299
0.031982421875, -0.953857421875, 0.574951171875, -1.062500000000, 3.710937500000, -3.343750000000, 1490674299
0.031982421875, -0.953857421875, 0.574951171875, -1.062500000000, 3.710937500000, -3.343750000000, 1490674299
0.031982421875, -0.953857421875, 0.574951171875, -1.062500000000, 3.710937500000, -3.343750000000, 1490674299
0.031982421875, -0.953857421875, 0.574951171875, -1.062500000000, 3.710937500000, -3.343750000000, 1490674299
0.032958984375, -0.855468750000, 0.470458984375, 1.546875000000, 4.335937500000, 0.007812500000, 1490674299
0.032958984375, -0.855468750000, 0.470458984375, 1.546875000000, 4.335937500000, 0.007812500000, 1490674299
0.032958984375, -0.855468750000, 0.470458984375, 1.546875000000, 4.335937500000, 0.007812500000, 1490674299
0.032958984375, -0.855468750000, 0.470458984375, 1.546875000000, 4.335937500000, 0.007812500000, 1490674299
0.032958984375, -0.855468750000, 0.470458984375, 1.546875000000, 4.335937500000, 0.007812500000, 1490674299
0.058105468750, -0.901367187500, 0.581054687500, -0.031250000000, 2.750000000000, -3.140625000000, 1490674299
0.071777343750, -0.866210937500, 0.488281250000, -1.164062500000, -0.640625000000, -1.187500000000, 1490674299
0.071777343750, -0.866210937500, 0.488281250000, -1.164062500000, -0.640625000000, -1.187500000000, 1490674299
0.071777343750, -0.866210937500, 0.488281250000, -1.164062500000, -0.640625000000, -1.187500000000, 1490674299
0.134765625000, -0.840332031250, 0.487792968750, -4.171875000000, 0.695312500000, -2.898437500000, 1490674299
0.134765625000, -0.840332031250, 0.487792968750, -4.171875000000, 0.695312500000, -2.898437500000, 1490674299
0.134765625000, -0.840332031250, 0.487792968750, -4.171875000000, 0.695312500000, -2.898437500000, 1490674299
-0.031494140625, -0.793701171875, 0.483398437500, -0.507812500000, -4.273437500000, -1.132812500000, 1490674299
-0.031494140625, -0.793701171875, 0.483398437500, -0.507812500000, -4.273437500000, -1.132812500000, 1490674299
-0.031494140625, -0.793701171875, 0.483398437500, -0.507812500000, -4.273437500000, -1.132812500000, 1490674299
0.067871093750, -0.869384765625, 0.589843750000, -2.468750000000, -1.234375000000, -6.421875000000, 1490674299
0.067871093750, -0.869384765625, 0.589843750000, -2.468750000000, -1.234375000000, -6.421875000000, 1490674299
0.067871093750, -0.869384765625, 0.589843750000, -2.468750000000, -1.234375000000, -6.421875000000, 1490674299
0.067871093750, -0.869384765625, 0.589843750000, -2.468750000000, -1.234375000000, -6.421875000000, 1490674299
0.025146484375, -0.748779296875, 0.476074218750, -4.210937500000, -1.093750000000, -6.015625000000, 1490674299
0.025146484375, -0.748779296875, 0.476074218750, -4.210937500000, -1.093750000000, -6.015625000000, 1490674299
0.025146484375, -0.748779296875, 0.476074218750, -4.210937500000, -1.093750000000, -6.015625000000, 1490674299
0.031738281250, -0.733398437500, 0.577636718750, 2.992187500000, -4.671875000000, -8.406250000000, 1490674299
0.031738281250, -0.733398437500, 0.577636718750, 2.992187500000, -4.671875000000, -8.406250000000, 1490674299
0.031738281250, -0.733398437500, 0.577636718750, 2.992187500000, -4.671875000000, -8.406250000000, 1490674299
0.093750000000, -0.874755859375, 0.496337890625, -2.406250000000, -2.906250000000, -7.554687500000, 1490674299
0.093750000000, -0.874755859375, 0.496337890625, -2.406250000000, -2.906250000000, -7.554687500000, 1490674299
0.093750000000, -0.874755859375, 0.496337890625, -2.406250000000, -2.906250000000, -7.554687500000, 1490674299
-0.020019531250, -0.843994140625, 0.472900390625, -2.945312500000, -2.109375000000, -5.601562500000, 1490674299
0.042968750000, -0.742919921875, 0.638427734375, -1.148437500000, -0.414062500000, -5.507812500000, 1490674300
0.042968750000, -0.742919921875, 0.638427734375, -1.148437500000, -0.414062500000, -5.507812500000, 1490674300
0.042968750000, -0.742919921875, 0.638427734375, -1.148437500000, -0.414062500000, -5.507812500000, 1490674300
0.063232421875, -0.918212890625, 0.568603515625, -4.445312500000, 1.093750000000, -7.382812500000, 1490674300
0.063232421875, -0.918212890625, 0.568603515625, -4.445312500000, 1.093750000000, -7.382812500000, 1490674300
0.063232421875, -0.918212890625, 0.568603515625, -4.445312500000, 1.093750000000, -7.382812500000, 1490674300
0.050781250000, -0.860351562500, 0.568847656250, 0.375000000000, -0.328125000000, -4.343750000000, 1490674300
0.050781250000, -0.860351562500, 0.568847656250, 0.375000000000, -0.328125000000, -4.343750000000, 1490674300
0.050781250000, -0.860351562500, 0.568847656250, 0.375000000000, -0.328125000000, -4.343750000000, 1490674300
0.050781250000, -0.860351562500, 0.568847656250, 0.375000000000, -0.328125000000, -4.343750000000, 1490674300
0.036865234375, -0.851318359375, 0.574951171875, -4.328125000000, 2.320312500000, -6.078125000000, 1490674300
0.019775390625, -0.788818359375, 0.580566406250, -4.148437500000, -0.218750000000, -8.851562500000, 1490674300
0.019775390625, -0.788818359375, 0.580566406250, -4.148437500000, -0.218750000000, -8.851562500000, 1490674300
0.019775390625, -0.788818359375, 0.580566406250, -4.148437500000, -0.218750000000, -8.851562500000, 1490674300
0.019775390625, -0.788818359375, 0.580566406250, -4.148437500000, -0.218750000000, -8.851562500000, 1490674300
-0.080078125000, -0.875976562500, 0.550537109375, -3.359375000000, 0.656250000000, -6.726562500000, 1490674300
0.000976562500, -0.857421875000, 0.559570312500, -1.484375000000, 0.437500000000, -5.960937500000, 1490674300
0.000976562500, -0.857421875000, 0.559570312500, -1.484375000000, 0.437500000000, -5.960937500000, 1490674300
0.000976562500, -0.857421875000, 0.559570312500, -1.484375000000, 0.437500000000, -5.960937500000, 1490674300
-0.025634765625, -0.829833984375, 0.484619140625, -1.734375000000, -4.101562500000, -5.218750000000, 1490674300
-0.025634765625, -0.829833984375, 0.484619140625, -1.734375000000, -4.101562500000, -5.218750000000, 1490674300
-0.025634765625, -0.829833984375, 0.484619140625, -1.734375000000, -4.101562500000, -5.218750000000, 1490674300
0.093505859375, -0.799560546875, 0.637695312500, -1.820312500000, -1.531250000000, -3.578125000000, 1490674300
0.093505859375, -0.799560546875, 0.637695312500, -1.820312500000, -1.531250000000, -3.578125000000, 1490674300
0.093505859375, -0.799560546875, 0.637695312500, -1.820312500000, -1.531250000000, -3.578125000000, 1490674300
0.025390625000, -0.875732421875, 0.478027343750, -3.562500000000, -2.718750000000, -3.054687500000, 1490674300
0.025390625000, -0.875732421875, 0.478027343750, -3.562500000000, -2.718750000000, -3.054687500000, 1490674300
0.025390625000, -0.875732421875, 0.478027343750, -3.562500000000, -2.718750000000, -3.054687500000, 1490674300
0.025390625000, -0.875732421875, 0.478027343750, -3.562500000000, -2.718750000000, -3.054687500000, 1490674300
-0.001953125000, -0.800048828125, 0.483886718750, 0.070312500000, -2.937500000000, -5.265625000000, 1490674300
-0.001953125000, -0.800048828125, 0.483886718750, 0.070312500000, -2.937500000000, -5.265625000000, 1490674300
-0.001953125000, -0.800048828125, 0.483886718750, 0.070312500000, -2.937500000000, -5.265625000000, 1490674300
0.130615234375, -0.835205078125, 0.575683593750, -4.210937500000, -2.773437500000, -6.093750000000, 1490674300
0.130615234375, -0.835205078125, 0.575683593750, -4.210937500000, -2.773437500000, -6.093750000000, 1490674300
0.130615234375, -0.835205078125, 0.575683593750, -4.210937500000, -2.773437500000, -6.093750000000, 1490674300
0.079101562500, -0.785644531250, 0.497558593750, -1.203125000000, 0.148437500000, -4.156250000000, 1490674300
0.079101562500, -0.785644531250, 0.497558593750, -1.203125000000, 0.148437500000, -4.156250000000, 1490674300
0.079101562500, -0.785644531250, 0.497558593750, -1.203125000000, 0.148437500000, -4.156250000000, 1490674300
0.094726562500, -0.789550781250, 0.409179687500, -2.523437500000, -2.234375000000, -4.414062500000, 1490674300
0.094726562500, -0.789550781250, 0.409179687500, -2.523437500000, -2.234375000000, -4.414062500000, 1490674300
0.094726562500, -0.789550781250, 0.409179687500, -2.523437500000, -2.234375000000, -4.414062500000, 1490674300
0.094726562500, -0.789550781250, 0.409179687500, -2.523437500000, -2.234375000000, -4.414062500000, 1490674300
0.002929687500, -0.948974609375, 0.491455078125, -1.164062500000, 0.054687500000, -1.304687500000, 1490674300
0.002929687500, -0.948974609375, 0.491455078125, -1.164062500000, 0.054687500000, -1.304687500000, 1490674300
0.002929687500, -0.948974609375, 0.491455078125, -1.164062500000, 0.054687500000, -1.304687500000, 1490674300
-0.014404296875, -1.003173828125, 0.494873046875, -1.601562500000, -0.265625000000, -3.617187500000, 1490674300
-0.014404296875, -1.003173828125, 0.494873046875, -1.601562500000, -0.265625000000, -3.617187500000, 1490674300
-0.014404296875, -1.003173828125, 0.494873046875, -1.601562500000, -0.265625000000, -3.617187500000, 1490674300
0.150878906250, -0.826171875000, 0.408691406250, -2.539062500000, 0.398437500000, -4.281250000000, 1490674300
0.150878906250, -0.826171875000, 0.408691406250, -2.539062500000, 0.398437500000, -4.281250000000, 1490674300
0.150878906250, -0.826171875000, 0.408691406250, -2.539062500000, 0.398437500000, -4.281250000000, 1490674300
0.145019531250, -0.872314453125, 0.577636718750, -4.039062500000, 0.867187500000, -3.609375000000, 1490674300
0.145019531250, -0.872314453125, 0.577636718750, -4.039062500000, 0.867187500000, -3.609375000000, 1490674300
0.145019531250, -0.872314453125, 0.577636718750, -4.039062500000, 0.867187500000, -3.609375000000, 1490674300
0.145019531250, -0.872314453125, 0.577636718750, -4.039062500000, 0.867187500000, -3.609375000000, 1490674300
0.063964843750, -0.860839843750, 0.482910156250, -4.148437500000, 0.046875000000, -4.289062500000, 1490674300
0.063964843750, -0.860839843750, 0.482910156250, -4.148437500000, 0.046875000000, -4.289062500000, 1490674300
0.063964843750, -0.860839843750, 0.482910156250, -4.148437500000, 0.046875000000, -4.289062500000, 1490674300
0.141113281250, -0.926513671875, 0.424316406250, -4.101562500000, -1.093750000000, -3.117187500000, 1490674300
0.141113281250, -0.926513671875, 0.424316406250, -4.101562500000, -1.093750000000, -3.117187500000, 1490674300
0.141113281250, -0.926513671875, 0.424316406250, -4.101562500000, -1.093750000000, -3.117187500000, 1490674300
-0.002685546875, -0.848876953125, 0.545166015625, -4.265625000000, -1.460937500000, -1.726562500000, 1490674300
-0.002685546875, -0.848876953125, 0.545166015625, -4.265625000000, -1.460937500000, -1.726562500000, 1490674300
-0.002685546875, -0.848876953125, 0.545166015625, -4.265625000000, -1.460937500000, -1.726562500000, 1490674300
0.068847656250, -0.884033203125, 0.509765625000, -1.890625000000, -2.671875000000, -4.210937500000, 1490674300
0.068847656250, -0.884033203125, 0.509765625000, -1.890625000000, -2.671875000000, -4.210937500000, 1490674300
0.068847656250, -0.884033203125, 0.509765625000, -1.890625000000, -2.671875000000, -4.210937500000, 1490674300
0.068847656250, -0.884033203125, 0.509765625000, -3.257812500000, 0.132812500000, -4.773437500000, 1490674300
0.083496093750, -0.865722656250, 0.648193359375, -3.546875000000, -0.976562500000, -3.718750000000, 1490674301
0.083496093750, -0.865722656250, 0.648193359375, -3.546875000000, -0.976562500000, -3.718750000000, 1490674301
0.083496093750, -0.865722656250, 0.648193359375, -3.546875000000, -0.976562500000, -3.718750000000, 1490674301
0.035644531250, -0.899414062500, 0.582763671875, -3.867187500000, 0.796875000000, -1.476562500000, 1490674301
0.031494140625, -0.806152343750, 0.591552734375, -1.734375000000, -0.203125000000, -3.414062500000, 1490674301
0.031494140625, -0.806152343750, 0.591552734375, -1.734375000000, -0.203125000000, -3.414062500000, 1490674301
0.031494140625, -0.806152343750, 0.591552734375, -1.734375000000, -0.203125000000, -3.414062500000, 1490674301
0.031494140625, -0.806152343750, 0.591552734375, -1.734375000000, -0.203125000000, -3.414062500000, 1490674301
0.031494140625, -0.806152343750, 0.591552734375, -1.734375000000, -0.203125000000, -3.414062500000, 1490674301
0.053466796875, -0.947753906250, 0.528808593750, -4.703125000000, -0.070312500000, -4.484375000000, 1490674301
0.053466796875, -0.947753906250, 0.528808593750, -4.703125000000, -0.070312500000, -4.484375000000, 1490674301
0.053466796875, -0.947753906250, 0.528808593750, -4.703125000000, -0.070312500000, -4.484375000000, 1490674301
0.053466796875, -0.947753906250, 0.528808593750, -4.703125000000, -0.070312500000, -4.484375000000, 1490674301
0.044677734375, -0.795654296875, 0.587158203125, 6.367187500000, 2.281250000000, -6.625000000000, 1490674301
0.044677734375, -0.795654296875, 0.587158203125, 6.367187500000, 2.281250000000, -6.625000000000, 1490674301
0.044677734375, -0.795654296875, 0.587158203125, 6.367187500000, 2.281250000000, -6.625000000000, 1490674301
0.101806640625, -0.795410156250, 0.501708984375, 8.937500000000, 5.734375000000, -8.390625000000, 1490674301
0.101806640625, -0.795410156250, 0.501708984375, 8.937500000000, 5.734375000000, -8.390625000000, 1490674301
0.101806640625, -0.795410156250, 0.501708984375, 8.937500000000, 5.734375000000, -8.390625000000, 1490674301
0.151367187500, -0.833496093750, 0.511962890625, 17.859375000000, 7.804687500000, -3.359375000000, 1490674301
0.151367187500, -0.833496093750, 0.511962890625, 17.859375000000, 7.804687500000, -3.359375000000, 1490674301
0.151367187500, -0.833496093750, 0.511962890625, 17.859375000000, 7.804687500000, -3.359375000000, 1490674301
0.151123046875, -0.851562500000, 0.462158203125, 15.296875000000, 14.453125000000, -3.687500000000, 1490674301
0.151123046875, -0.851562500000, 0.462158203125, 15.296875000000, 14.453125000000, -3.687500000000, 1490674301
0.151123046875, -0.851562500000, 0.462158203125, 15.296875000000, 14.453125000000, -3.687500000000, 1490674301
0.151123046875, -0.851562500000, 0.462158203125, 15.296875000000, 14.453125000000, -3.687500000000, 1490674301
0.062011718750, -0.913085937500, 0.367187500000, 9.601562500000, 19.617187500000, -6.687500000000, 1490674301
0.062011718750, -0.913085937500, 0.367187500000, 9.601562500000, 19.617187500000, -6.687500000000, 1490674301
0.062011718750, -0.913085937500, 0.367187500000, 9.601562500000, 19.617187500000, -6.687500000000, 1490674301
0.130126953125, -0.927734375000, 0.445556640625, 25.843750000000, 16.414062500000, -11.085937500000, 1490674301
0.130126953125, -0.927734375000, 0.445556640625, 25.843750000000, 16.414062500000, -11.085937500000, 1490674301
0.130126953125, -0.927734375000, 0.445556640625, 25.843750000000, 16.414062500000, -11.085937500000, 1490674301
0.068359375000, -1.014404296875, 0.457275390625, 7.828125000000, 6.125000000000, -11.445312500000, 1490674301
0.068359375000, -1.014404296875, 0.457275390625, 7.828125000000, 6.125000000000, -11.445312500000, 1490674301
0.068359375000, -1.014404296875, 0.457275390625, 7.828125000000, 6.125000000000, -11.445312500000, 1490674301
-0.001953125000, -1.026855468750, 0.460449218750, -5.937500000000, -8.757812500000, -3.195312500000, 1490674301
-0.001953125000, -1.026855468750, 0.460449218750, -5.937500000000, -8.757812500000, -3.195312500000, 1490674301
-0.001953125000, -1.026855468750, 0.460449218750, -5.937500000000, -8.757812500000, -3.195312500000, 1490674301
-0.001953125000, -1.026855468750, 0.460449218750, -5.937500000000, -8.757812500000, -3.195312500000, 1490674301
0.027343750000, -1.023925781250, 0.513916015625, -24.085937500000, -12.726562500000, -6.546875000000, 1490674301
0.027343750000, -1.023925781250, 0.513916015625, -24.085937500000, -12.726562500000, -6.546875000000, 1490674301
0.027343750000, -1.023925781250, 0.513916015625, -24.085937500000, -12.726562500000, -6.546875000000, 1490674301
0.062988281250, -1.070312500000, 0.418945312500, -32.757812500000, -27.960937500000, -3.507812500000, 1490674301
0.062988281250, -1.070312500000, 0.418945312500, -32.757812500000, -27.960937500000, -3.507812500000, 1490674301
0.062988281250, -1.070312500000, 0.418945312500, -32.757812500000, -27.960937500000, -3.507812500000, 1490674301
0.146240234375, -0.919433593750, 0.369384765625, -36.601562500000, -36.929687500000, -10.117187500000, 1490674301
0.146240234375, -0.919433593750, 0.369384765625, -36.601562500000, -36.929687500000, -10.117187500000, 1490674301
0.098632812500, -0.840820312500, 0.462890625000, -9.250000000000, -30.390625000000, -18.257812500000, 1490674301
0.098632812500, -0.840820312500, 0.462890625000, -9.250000000000, -30.390625000000, -18.257812500000, 1490674301
0.098632812500, -0.840820312500, 0.462890625000, -9.250000000000, -30.390625000000, -18.257812500000, 1490674301
0.098632812500, -0.840820312500, 0.462890625000, -9.250000000000, -30.390625000000, -18.257812500000, 1490674301
0.111328125000, -0.936035156250, 0.310791015625, -9.859375000000, -11.382812500000, -12.085937500000, 1490674301
0.111328125000, -0.936035156250, 0.310791015625, -9.859375000000, -11.382812500000, -12.085937500000, 1490674301
0.111328125000, -0.936035156250, 0.310791015625, -9.859375000000, -11.382812500000, -12.085937500000, 1490674301
0.111328125000, -0.936035156250, 0.310791015625, -9.859375000000, -11.382812500000, -12.085937500000, 1490674301
0.186523437500, -0.884765625000, 0.304931640625, 0.593750000000, 12.906250000000, 0.304687500000, 1490674301
0.186523437500, -0.884765625000, 0.304931640625, 0.593750000000, 12.906250000000, 0.304687500000, 1490674301
0.186523437500, -0.884765625000, 0.304931640625, 0.593750000000, 12.906250000000, 0.304687500000, 1490674301
0.049804687500, -0.889648437500, 0.327392578125, 4.828125000000, 30.648437500000, -0.140625000000, 1490674301
0.049804687500, -0.889648437500, 0.327392578125, 4.828125000000, 30.648437500000, -0.140625000000, 1490674301
-0.042236328125, -0.899169921875, 0.318115234375, 18.734375000000, 29.101562500000, 23.007812500000, 1490674301
-0.042236328125, -0.899169921875, 0.318115234375, 18.734375000000, 29.101562500000, 23.007812500000, 1490674301
-0.042236328125, -0.899169921875, 0.318115234375, 18.734375000000, 29.101562500000, 23.007812500000, 1490674301
-0.042236328125, -0.899169921875, 0.318115234375, 18.734375000000, 29.101562500000, 23.007812500000, 1490674301
-0.042236328125, -0.899169921875, 0.318115234375, 18.734375000000, 29.101562500000, 23.007812500000, 1490674301
-0.073242187500, -0.845458984375, 0.465576171875, 13.148437500000, 19.726562500000, 20.265625000000, 1490674301
-0.073242187500, -0.845458984375, 0.465576171875, 13.148437500000, 19.726562500000, 20.265625000000, 1490674301
-0.073242187500, -0.845458984375, 0.465576171875, 13.148437500000, 19.726562500000, 20.265625000000, 1490674301
-0.001464843750, -1.085937500000, 0.435058593750, 15.851562500000, 15.515625000000, 20.171875000000, 1490674302
-0.001464843750, -1.085937500000, 0.435058593750, 15.851562500000, 15.515625000000, 20.171875000000, 1490674302
-0.001464843750, -1.085937500000, 0.435058593750, 15.851562500000, 15.515625000000, 20.171875000000, 1490674302
0.120361328125, -0.976562500000, 0.477294921875, 14.960937500000, 26.515625000000, 14.898437500000, 1490674302
0.120361328125, -0.976562500000, 0.477294921875, 14.960937500000, 26.515625000000, 14.898437500000, 1490674302
0.057617187500, -0.913085937500, 0.494873046875, 47.414062500000, 11.031250000000, 24.671875000000, 1490674302
0.057617187500, -0.913085937500, 0.494873046875, 47.414062500000, 11.031250000000, 24.671875000000, 1490674302
0.057617187500, -0.913085937500, 0.494873046875, 47.414062500000, 11.031250000000, 24.671875000000, 1490674302
0.057617187500, -0.913085937500, 0.494873046875, 47.414062500000, 11.031250000000, 24.671875000000, 1490674302
0.057617187500, -0.913085937500, 0.494873046875, 47.414062500000, 11.031250000000, 24.671875000000, 1490674302
0.017333984375, -1.147460937500, 0.822998046875, -6.960937500000, 22.398437500000, 6.273437500000, 1490674302
0.017333984375, -1.147460937500, 0.822998046875, -6.960937500000, 22.398437500000, 6.273437500000, 1490674302
0.017333984375, -1.147460937500, 0.822998046875, -6.960937500000, 22.398437500000, 6.273437500000, 1490674302
0.083984375000, -0.976562500000, 0.523925781250, 5.781250000000, 23.046875000000, 5.445312500000, 1490674302
0.083984375000, -0.976562500000, 0.523925781250, 5.781250000000, 23.046875000000, 5.445312500000, 1490674302
0.083984375000, -0.976562500000, 0.523925781250, 5.781250000000, 23.046875000000, 5.445312500000, 1490674302
-0.068847656250, -0.869628906250, 0.433593750000, 38.429687500000, 15.718750000000, -4.914062500000, 1490674302
-0.068847656250, -0.869628906250, 0.433593750000, 38.429687500000, 15.718750000000, -4.914062500000, 1490674302
-0.068847656250, -0.869628906250, 0.433593750000, 38.429687500000, 15.718750000000, -4.914062500000, 1490674302
0.073486328125, -0.892822265625, 0.439697265625, -35.421875000000, 14.335937500000, -7.023437500000, 1490674302
0.073486328125, -0.892822265625, 0.439697265625, -35.421875000000, 14.335937500000, -7.023437500000, 1490674302
0.073486328125, -0.892822265625, 0.439697265625, -35.421875000000, 14.335937500000, -7.023437500000, 1490674302
0.073486328125, -0.892822265625, 0.439697265625, -35.421875000000, 14.335937500000, -7.023437500000, 1490674302
-0.001708984375, -0.852294921875, 0.362060546875, -36.546875000000, 4.406250000000, -13.750000000000, 1490674302
-0.001708984375, -0.852294921875, 0.362060546875, -36.546875000000, 4.406250000000, -13.750000000000, 1490674302
-0.001708984375, -0.852294921875, 0.362060546875, -36.546875000000, 4.406250000000, -13.750000000000, 1490674302
-0.144531250000, -0.960449218750, 0.430664062500, -19.484375000000, 23.648437500000, -20.921875000000, 1490674302
-0.144531250000, -0.960449218750, 0.430664062500, -19.484375000000, 23.648437500000, -20.921875000000, 1490674302
-0.144531250000, -0.960449218750, 0.430664062500, -19.484375000000, 23.648437500000, -20.921875000000, 1490674302
0.067138671875, -1.005859375000, 0.468261718750, -33.796875000000, 30.421875000000, -11.187500000000, 1490674302
0.067138671875, -1.005859375000, 0.468261718750, -33.796875000000, 30.421875000000, -11.187500000000, 1490674302
0.067138671875, -1.005859375000, 0.468261718750, -33.796875000000, 30.421875000000, -11.187500000000, 1490674302
0.001953125000, -0.905273437500, 0.426025390625, -37.320312500000, 19.882812500000, -0.257812500000, 1490674302
0.001953125000, -0.905273437500, 0.426025390625, -37.320312500000, 19.882812500000, -0.257812500000, 1490674302
0.001953125000, -0.905273437500, 0.426025390625, -37.320312500000, 19.882812500000, -0.257812500000, 1490674302
0.001953125000, -0.905273437500, 0.426025390625, -37.320312500000, 19.882812500000, -0.257812500000, 1490674302
0.022705078125, -0.926025390625, 0.506347656250, -47.078125000000, -15.312500000000, 2.031250000000, 1490674302
0.022705078125, -0.926025390625, 0.506347656250, -47.078125000000, -15.312500000000, 2.031250000000, 1490674302
0.022705078125, -0.926025390625, 0.506347656250, -47.078125000000, -15.312500000000, 2.031250000000, 1490674302
-0.036621093750, -0.809570312500, 0.446289062500, -17.046875000000, -25.687500000000, -6.875000000000, 1490674302
-0.036621093750, -0.809570312500, 0.446289062500, -17.046875000000, -25.687500000000, -6.875000000000, 1490674302
-0.036621093750, -0.809570312500, 0.446289062500, -17.046875000000, -25.687500000000, -6.875000000000, 1490674302
-0.066894531250, -0.855224609375, 0.358886718750, -18.578125000000, -10.218750000000, -12.976562500000, 1490674302
-0.066894531250, -0.855224609375, 0.358886718750, -18.578125000000, -10.218750000000, -12.976562500000, 1490674302
-0.066894531250, -0.855224609375, 0.358886718750, -18.578125000000, -10.218750000000, -12.976562500000, 1490674302
-0.011962890625, -0.696044921875, 0.303955078125, -10.734375000000, -41.070312500000, 3.054687500000, 1490674302
-0.011962890625, -0.696044921875, 0.303955078125, -10.734375000000, -41.070312500000, 3.054687500000, 1490674302
-0.011962890625, -0.696044921875, 0.303955078125, -10.734375000000, -41.070312500000, 3.054687500000, 1490674302
-0.011962890625, -0.696044921875, 0.303955078125, -10.734375000000, -41.070312500000, 3.054687500000, 1490674302
0.034423828125, -0.802001953125, 0.287109375000, 13.414062500000, -48.445312500000, -18.921875000000, 1490674302
0.034423828125, -0.802001953125, 0.287109375000, 13.414062500000, -48.445312500000, -18.921875000000, 1490674302
0.034423828125, -0.802001953125, 0.287109375000, 13.414062500000, -48.445312500000, -18.921875000000, 1490674302
0.114257812500, -0.903076171875, 0.489990234375, 1.570312500000, -53.320312500000, -27.531250000000, 1490674302
0.114257812500, -0.903076171875, 0.489990234375, 1.570312500000, -53.320312500000, -27.531250000000, 1490674302
0.114257812500, -0.903076171875, 0.489990234375, 1.570312500000, -53.320312500000, -27.531250000000, 1490674302
0.169189453125, -0.858398437500, 0.420898437500, 5.593750000000, -56.429687500000, -32.929687500000, 1490674302
0.039550781250, -0.861328125000, 0.705810546875, 25.632812500000, -47.984375000000, -33.695312500000, 1490674302
0.039550781250, -0.861328125000, 0.705810546875, 25.632812500000, -47.984375000000, -33.695312500000, 1490674302
0.039550781250, -0.861328125000, 0.705810546875, 25.632812500000, -47.984375000000, -33.695312500000, 1490674302
0.146484375000, -0.948730468750, 0.584472656250, 28.632812500000, -52.664062500000, -25.734375000000, 1490674302
0.146484375000, -0.948730468750, 0.584472656250, 28.632812500000, -52.664062500000, -25.734375000000, 1490674302
0.146484375000, -0.948730468750, 0.584472656250, 28.632812500000, -52.664062500000, -25.734375000000, 1490674302
0.146484375000, -0.948730468750, 0.584472656250, 28.632812500000, -52.664062500000, -25.734375000000, 1490674302
0.146484375000, -0.948730468750, 0.584472656250, 28.632812500000, -52.664062500000, -25.734375000000, 1490674302
0.183593750000, -1.056396484375, 0.764648437500, -14.554687500000, -52.765625000000, -18.710937500000, 1490674302
0.183593750000, -1.056396484375, 0.764648437500, -14.554687500000, -52.765625000000, -18.710937500000, 1490674302
0.183593750000, -1.056396484375, 0.764648437500, -14.554687500000, -52.765625000000, -18.710937500000, 1490674303
0.183593750000, -1.056396484375, 0.764648437500, -14.554687500000, -52.765625000000, -18.710937500000, 1490674303
0.213623046875, -0.914794921875, 0.516113281250, 9.945312500000, -38.984375000000, -21.859375000000, 1490674303
0.213623046875, -0.914794921875, 0.516113281250, 9.945312500000, -38.984375000000, -21.859375000000, 1490674303
0.213623046875, -0.914794921875, 0.516113281250, 9.945312500000, -38.984375000000, -21.859375000000, 1490674303
0.101318359375, -0.901611328125, 0.516845703125, 9.742187500000, -0.125000000000, -35.625000000000, 1490674303
0.101318359375, -0.901611328125, 0.516845703125, 9.742187500000, -0.125000000000, -35.625000000000, 1490674303
0.101318359375, -0.901611328125, 0.516845703125, 9.742187500000, -0.125000000000, -35.625000000000, 1490674303
0.101318359375, -0.901611328125, 0.516845703125, 9.742187500000, -0.125000000000, -35.625000000000, 1490674303
0.117431640625, -0.794677734375, 0.459228515625, -2.875000000000, 4.304687500000, -34.304687500000, 1490674303
0.117431640625, -0.794677734375, 0.459228515625, -2.875000000000, 4.304687500000, -34.304687500000, 1490674303
0.117431640625, -0.794677734375, 0.459228515625, -2.875000000000, 4.304687500000, -34.304687500000, 1490674303
-0.022949218750, -0.710937500000, 0.357666015625, -7.562500000000, 7.117187500000, -24.968750000000, 1490674303
-0.022949218750, -0.710937500000, 0.357666015625, -7.562500000000, 7.117187500000, -24.968750000000, 1490674303
-0.022949218750, -0.710937500000, 0.357666015625, -7.562500000000, 7.117187500000, -24.968750000000, 1490674303
-0.091552734375, -0.914062500000, 0.479248046875, -35.109375000000, -9.679687500000, -4.281250000000, 1490674303
-0.091552734375, -0.914062500000, 0.479248046875, -35.109375000000, -9.679687500000, -4.281250000000, 1490674303
-0.091552734375, -0.914062500000, 0.479248046875, -35.109375000000, -9.679687500000, -4.281250000000, 1490674303
-0.025390625000, -0.921630859375, 0.445312500000, -17.578125000000, -24.023437500000, 2.140625000000, 1490674303
-0.025390625000, -0.921630859375, 0.445312500000, -17.578125000000, -24.023437500000, 2.140625000000, 1490674303
-0.025390625000, -0.921630859375, 0.445312500000, -17.578125000000, -24.023437500000, 2.140625000000, 1490674303
-0.025390625000, -0.921630859375, 0.445312500000, -17.578125000000, -24.023437500000, 2.140625000000, 1490674303
-0.007568359375, -0.940185546875, 0.371826171875, -14.484375000000, -27.976562500000, -5.210937500000, 1490674303
-0.007568359375, -0.940185546875, 0.371826171875, -14.484375000000, -27.976562500000, -5.210937500000, 1490674303
-0.007568359375, -0.940185546875, 0.371826171875, -14.484375000000, -27.976562500000, -5.210937500000, 1490674303
0.079833984375, -0.835449218750, 0.424560546875, -21.132812500000, -25.242187500000, -12.375000000000, 1490674303
0.079833984375, -0.835449218750, 0.424560546875, -21.132812500000, -25.242187500000, -12.375000000000, 1490674303
0.079833984375, -0.835449218750, 0.424560546875, -21.132812500000, -25.242187500000, -12.375000000000, 1490674303
-0.009521484375, -0.966552734375, 0.402832031250, -23.687500000000, -17.242187500000, -8.468750000000, 1490674303
-0.009521484375, -0.966552734375, 0.402832031250, -23.687500000000, -17.242187500000, -8.468750000000, 1490674303
0.136962890625, -0.871582031250, 0.448730468750, -4.531250000000, 2.757812500000, 2.664062500000, 1490674303
0.136962890625, -0.871582031250, 0.448730468750, -4.531250000000, 2.757812500000, 2.664062500000, 1490674303
0.136962890625, -0.871582031250, 0.448730468750, -4.531250000000, 2.757812500000, 2.664062500000, 1490674303
0.136962890625, -0.871582031250, 0.448730468750, -4.531250000000, 2.757812500000, 2.664062500000, 1490674303
-0.012451171875, -0.732177734375, 0.275390625000, 5.359375000000, 19.750000000000, 8.617187500000, 1490674303
-0.012451171875, -0.732177734375, 0.275390625000, 5.359375000000, 19.750000000000, 8.617187500000, 1490674303
-0.012451171875, -0.732177734375, 0.275390625000, 5.359375000000, 19.750000000000, 8.617187500000, 1490674303
-0.012451171875, -0.732177734375, 0.275390625000, 5.359375000000, 19.750000000000, 8.617187500000, 1490674303
0.165527343750, -0.834228515625, 0.363281250000, 40.500000000000, 36.679687500000, 11.257812500000, 1490674303
0.165527343750, -0.834228515625, 0.363281250000, 40.500000000000, 36.679687500000, 11.257812500000, 1490674303
0.165527343750, -0.834228515625, 0.363281250000, 40.500000000000, 36.679687500000, 11.257812500000, 1490674303
0.116210937500, -0.671630859375, 0.366455078125, 11.429687500000, 38.882812500000, 21.828125000000, 1490674303
0.116210937500, -0.671630859375, 0.366455078125, 11.429687500000, 38.882812500000, 21.828125000000, 1490674303
0.116210937500, -0.671630859375, 0.366455078125, 11.429687500000, 38.882812500000, 21.828125000000, 1490674303
0.089843750000, -0.999511718750, 0.625244140625, 25.843750000000, 42.218750000000, 39.359375000000, 1490674303
0.089843750000, -0.999511718750, 0.625244140625, 25.843750000000, 42.218750000000, 39.359375000000, 1490674303
0.089843750000, -0.999511718750, 0.625244140625, 25.843750000000, 42.218750000000, 39.359375000000, 1490674303
0.089843750000, -0.999511718750, 0.625244140625, 25.843750000000, 42.218750000000, 39.359375000000, 1490674303
-0.112304687500, -1.088378906250, 0.586425781250, 22.125000000000, 45.179687500000, 24.625000000000, 1490674303
-0.112304687500, -1.088378906250, 0.586425781250, 22.125000000000, 45.179687500000, 24.625000000000, 1490674303
-0.112304687500, -1.088378906250, 0.586425781250, 22.125000000000, 45.179687500000, 24.625000000000, 1490674303
-0.107666015625, -1.064208984375, 0.684326171875, 49.351562500000, 9.578125000000, 3.320312500000, 1490674303
-0.107666015625, -1.064208984375, 0.684326171875, 49.351562500000, 9.578125000000, 3.320312500000, 1490674303
-0.107666015625, -1.064208984375, 0.684326171875, 49.351562500000, 9.578125000000, 3.320312500000, 1490674303
-0.036621093750, -1.151367187500, 0.894287109375, -10.523437500000, 18.320312500000, 6.281250000000, 1490674303
-0.036621093750, -1.151367187500, 0.894287109375, -10.523437500000, 18.320312500000, 6.281250000000, 1490674303
0.077148437500, -0.860839843750, 0.415771484375, 52.101562500000, 6.437500000000, 2.632812500000, 1490674303
0.077148437500, -0.860839843750, 0.415771484375, 52.101562500000, 6.437500000000, 2.632812500000, 1490674303
0.077148437500, -0.860839843750, 0.415771484375, 52.101562500000, 6.437500000000, 2.632812500000, 1490674303
0.077148437500, -0.860839843750, 0.415771484375, 52.101562500000, 6.437500000000, 2.632812500000, 1490674303
0.042480468750, -0.729492187500, 0.448486328125, 22.023437500000, 7.187500000000, 0.226562500000, 1490674303
0.042480468750, -0.729492187500, 0.448486328125, 22.023437500000, 7.187500000000, 0.226562500000, 1490674303
0.078125000000, -0.741210937500, 0.428710937500, -21.250000000000, 17.054687500000, -9.203125000000, 1490674303
-0.072509765625, -0.828125000000, 0.351562500000, -40.851562500000, 19.921875000000, -15.500000000000, 1490674303
-0.072509765625, -0.828125000000, 0.351562500000, -40.851562500000, 19.921875000000, -15.500000000000, 1490674303
-0.072509765625, -0.828125000000, 0.351562500000, -40.851562500000, 19.921875000000, -15.500000000000, 1490674303
-0.072509765625, -0.828125000000, 0.351562500000, -40.851562500000, 19.921875000000, -15.500000000000, 1490674303
0.028564453125, -0.925048828125, 0.447265625000, -29.734375000000, 26.789062500000, -21.460937500000, 1490674304
0.028564453125, -0.925048828125, 0.447265625000, -29.734375000000, 26.789062500000, -21.460937500000, 1490674304
0.028564453125, -0.925048828125, 0.447265625000, -29.734375000000, 26.789062500000, -21.460937500000, 1490674304
-0.084960937500, -1.012939453125, 0.454101562500, -10.601562500000, 31.625000000000, -7.507812500000, 1490674304
-0.084960937500, -1.012939453125, 0.454101562500, -10.601562500000, 31.625000000000, -7.507812500000, 1490674304
-0.084960937500, -1.012939453125, 0.454101562500, -10.601562500000, 31.625000000000, -7.507812500000, 1490674304
-0.084960937500, -1.012939453125, 0.454101562500, -10.601562500000, 31.625000000000, -7.507812500000, 1490674304
-0.047607421875, -0.944091796875, 0.387695312500, -3.476562500000, 30.585937500000, -9.335937500000, 1490674304
-0.047607421875, -0.944091796875, 0.387695312500, -3.476562500000, 30.585937500000, -9.335937500000, 1490674304
-0.047607421875, -0.944091796875, 0.387695312500, -3.476562500000, 30.585937500000, -9.335937500000, 1490674304
-0.040771484375, -0.886718750000, 0.412109375000, -21.679687500000, 20.453125000000, -16.437500000000, 1490674304
-0.040771484375, -0.886718750000, 0.412109375000, -21.679687500000, 20.453125000000, -16.437500000000, 1490674304
-0.040771484375, -0.886718750000, 0.412109375000, -21.679687500000, 20.453125000000, -16.437500000000, 1490674304
-0.156982421875, -0.861816406250, 0.385498046875, -9.445312500000, 5.343750000000, -16.023437500000, 1490674304
-0.156982421875, -0.861816406250, 0.385498046875, -9.445312500000, 5.343750000000, -16.023437500000, 1490674304
-0.156982421875, -0.861816406250, 0.385498046875, -9.445312500000, 5.343750000000, -16.023437500000, 1490674304
-0.097167968750, -0.873046875000, 0.391357421875, -4.312500000000, 8.609375000000, -26.585937500000, 1490674304
-0.097167968750, -0.873046875000, 0.391357421875, -4.312500000000, 8.609375000000, -26.585937500000, 1490674304
-0.097167968750, -0.873046875000, 0.391357421875, -4.312500000000, 8.609375000000, -26.585937500000, 1490674304
-0.075927734375, -0.938232421875, 0.316650390625, -10.359375000000, -8.804687500000, -26.312500000000, 1490674304
-0.075927734375, -0.938232421875, 0.316650390625, -10.359375000000, -8.804687500000, -26.312500000000, 1490674304
-0.075927734375, -0.938232421875, 0.316650390625, -10.359375000000, -8.804687500000, -26.312500000000, 1490674304
-0.113037109375, -0.811767578125, 0.253173828125, 11.359375000000, 10.773437500000, -24.289062500000, 1490674304
-0.118408203125, -0.916748046875, 0.223144531250, 11.359375000000, 10.773437500000, -24.289062500000, 1490674304
-0.118408203125, -0.916748046875, 0.223144531250, 11.359375000000, 10.773437500000, -24.289062500000, 1490674304
-0.118408203125, -0.916748046875, 0.223144531250, 13.195312500000, 14.156250000000, -30.648437500000, 1490674304
-0.140625000000, -1.002441406250, 0.300781250000, 6.375000000000, 9.890625000000, -22.031250000000, 1490674304
-0.140625000000, -1.002441406250, 0.300781250000, 6.375000000000, 9.890625000000, -22.031250000000, 1490674304
-0.140625000000, -1.002441406250, 0.300781250000, 6.375000000000, 9.890625000000, -22.031250000000, 1490674304
-0.052490234375, -0.994873046875, 0.240234375000, 1.210937500000, 4.914062500000, -11.484375000000, 1490674304
-0.052490234375, -0.994873046875, 0.240234375000, 1.210937500000, 4.914062500000, -11.484375000000, 1490674304
-0.052490234375, -0.994873046875, 0.240234375000, 1.210937500000, 4.914062500000, -11.484375000000, 1490674304
0.077148437500, -0.862792968750, 0.460449218750, 23.273437500000, 6.742187500000, 7.000000000000, 1490674304
0.077148437500, -0.862792968750, 0.460449218750, 23.273437500000, 6.742187500000, 7.000000000000, 1490674304
0.077148437500, -0.862792968750, 0.460449218750, 23.273437500000, 6.742187500000, 7.000000000000, 1490674304
0.077148437500, -0.862792968750, 0.460449218750, 23.273437500000, 6.742187500000, 7.000000000000, 1490674304
0.077148437500, -0.862792968750, 0.460449218750, 23.273437500000, 6.742187500000, 7.000000000000, 1490674304
0.077148437500, -0.862792968750, 0.460449218750, 37.640625000000, 6.218750000000, 11.804687500000, 1490674304
-0.151611328125, -1.089599609375, 0.487304687500, 39.679687500000, 3.789062500000, 7.351562500000, 1490674304
-0.151611328125, -1.089599609375, 0.487304687500, 39.679687500000, 3.789062500000, 7.351562500000, 1490674304
-0.151611328125, -1.089599609375, 0.487304687500, 39.679687500000, 3.789062500000, 7.351562500000, 1490674304
-0.151611328125, -1.089599609375, 0.487304687500, 39.679687500000, 3.789062500000, 7.351562500000, 1490674304
-0.088623046875, -1.048095703125, 0.522216796875, -17.289062500000, -11.750000000000, 8.070312500000, 1490674304
-0.088623046875, -1.048095703125, 0.522216796875, -17.289062500000, -11.750000000000, 8.070312500000, 1490674304
-0.088623046875, -1.048095703125, 0.522216796875, -17.289062500000, -11.750000000000, 8.070312500000, 1490674304
-0.088623046875, -1.048095703125, 0.522216796875, -17.289062500000, -11.750000000000, 8.070312500000, 1490674304
-0.033691406250, -1.008544921875, 0.417236328125, 20.726562500000, 12.914062500000, -20.179687500000, 1490674304
-0.033691406250, -1.008544921875, 0.417236328125, 20.726562500000, 12.914062500000, -20.179687500000, 1490674304
-0.033691406250, -1.008544921875, 0.417236328125, 20.726562500000, 12.914062500000, -20.179687500000, 1490674304
-0.188476562500, -0.795166015625, 0.399658203125, 14.429687500000, 3.859375000000, -18.718750000000, 1490674304
-0.188476562500, -0.795166015625, 0.399658203125, 14.429687500000, 3.859375000000, -18.718750000000, 1490674304
-0.188476562500, -0.795166015625, 0.399658203125, 14.429687500000, 3.859375000000, -18.718750000000, 1490674304
-0.077880859375, -0.844238281250, 0.223144531250, -14.226562500000, -0.875000000000, -3.812500000000, 1490674304
-0.077880859375, -0.844238281250, 0.223144531250, -14.226562500000, -0.875000000000, -3.812500000000, 1490674304
-0.077880859375, -0.844238281250, 0.223144531250, -14.226562500000, -0.875000000000, -3.812500000000, 1490674304
-0.037353515625, -0.805175781250, 0.355712890625, -7.359375000000, -5.335937500000, -2.273437500000, 1490674304
-0.037353515625, -0.805175781250, 0.355712890625, -7.359375000000, -5.335937500000, -2.273437500000, 1490674304
-0.037353515625, -0.805175781250, 0.355712890625, -7.359375000000, -5.335937500000, -2.273437500000, 1490674304
-0.037353515625, -0.805175781250, 0.355712890625, -7.359375000000, -5.335937500000, -2.273437500000, 1490674304
-0.082519531250, -0.863281250000, 0.289306640625, -4.578125000000, -3.359375000000, 2.921875000000, 1490674304
-0.082519531250, -0.863281250000, 0.289306640625, -4.578125000000, -3.359375000000, 2.921875000000, 1490674304
-0.082519531250, -0.863281250000, 0.289306640625, -4.578125000000, -3.359375000000, 2.921875000000, 1490674304
-0.076904296875, -0.916015625000, 0.273681640625, -5.062500000000, -4.523437500000, 0.968750000000, 1490674304
-0.076904296875, -0.916015625000, 0.273681640625, -5.062500000000, -4.523437500000, 0.968750000000, 1490674304
-0.076904296875, -0.916015625000, 0.273681640625, -5.062500000000, -4.523437500000, 0.968750000000, 1490674304
-0.072753906250, -0.857177734375, 0.165527343750, 2.023437500000, -0.804687500000, 0.515625000000, 1490674304
-0.072753906250, -0.857177734375, 0.165527343750, 2.023437500000, -0.804687500000, 0.515625000000, 1490674304
-0.072753906250, -0.857177734375, 0.165527343750, 2.023437500000, -0.804687500000, 0.515625000000, 1490674305
0.006347656250, -1.139892578125, 0.223632812500, -17.484375000000, 1.210937500000, 1.210937500000, 1490674305
0.006347656250, -1.139892578125, 0.223632812500, -17.484375000000, 1.210937500000, 1.210937500000, 1490674305
0.006347656250, -1.139892578125, 0.223632812500, -17.484375000000, 1.210937500000, 1.210937500000, 1490674305
0.006347656250, -1.139892578125, 0.223632812500, -17.484375000000, 1.210937500000, 1.210937500000, 1490674305
-0.075683593750, -1.069824218750, 0.268066406250, -5.273437500000, 5.289062500000, -12.414062500000, 1490674305
-0.075683593750, -1.069824218750, 0.268066406250, -5.273437500000, 5.289062500000, -12.414062500000, 1490674305
-0.075683593750, -1.069824218750, 0.268066406250, -5.273437500000, 5.289062500000, -12.414062500000, 1490674305
-0.132080078125, -0.918457031250, 0.218750000000, -21.656250000000, -4.640625000000, -9.976562500000, 1490674305
-0.132080078125, -0.918457031250, 0.218750000000, -21.656250000000, -4.640625000000, -9.976562500000, 1490674305
-0.132080078125, -0.918457031250, 0.218750000000, -21.656250000000, -4.640625000000, -9.976562500000, 1490674305
-0.049560546875, -0.987792968750, 0.100585937500, -17.125000000000, -5.039062500000, -15.781250000000, 1490674305
-0.049560546875, -0.987792968750, 0.100585937500, -17.125000000000, -5.039062500000, -15.781250000000, 1490674305
-0.047607421875, -1.013427734375, 0.164062500000, -5.664062500000, -5.742187500000, -17.757812500000, 1490674305
-0.168945312500, -0.932373046875, 0.396728515625, 12.867187500000, -27.976562500000, -21.429687500000, 1490674305
-0.168945312500, -0.932373046875, 0.396728515625, 12.867187500000, -27.976562500000, -21.429687500000, 1490674305
-0.168945312500, -0.932373046875, 0.396728515625, 12.867187500000, -27.976562500000, -21.429687500000, 1490674305
-0.210449218750, -0.975585937500, 0.439941406250, 20.164062500000, -22.437500000000, -32.273437500000, 1490674305
-0.210449218750, -0.975585937500, 0.439941406250, 20.164062500000, -22.437500000000, -32.273437500000, 1490674305
-0.210449218750, -0.975585937500, 0.439941406250, 20.164062500000, -22.437500000000, -32.273437500000, 1490674305
-0.210449218750, -0.975585937500, 0.439941406250, 20.164062500000, -22.437500000000, -32.273437500000, 1490674305
-0.210449218750, -0.975585937500, 0.439941406250, 20.164062500000, -22.437500000000, -32.273437500000, 1490674305
-0.210449218750, -0.975585937500, 0.439941406250, 20.164062500000, -22.437500000000, -32.273437500000, 1490674305
-0.210449218750, -0.975585937500, 0.439941406250, 20.164062500000, -22.437500000000, -32.273437500000, 1490674305
-0.194580078125, -1.062988281250, 0.542724609375, -19.570312500000, -6.484375000000, -22.242187500000, 1490674305
-0.194580078125, -1.062988281250, 0.542724609375, -19.570312500000, -6.484375000000, -22.242187500000, 1490674305
-0.194580078125, -1.062988281250, 0.542724609375, -19.570312500000, -6.484375000000, -22.242187500000, 1490674305
-0.129394531250, -0.953857421875, 0.458740234375, 12.671875000000, -15.070312500000, 16.664062500000, 1490674305
-0.129394531250, -0.953857421875, 0.458740234375, 12.671875000000, -15.070312500000, 16.664062500000, 1490674305
-0.129394531250, -0.953857421875, 0.458740234375, 12.671875000000, -15.070312500000, 16.664062500000, 1490674305
-0.129394531250, -0.953857421875, 0.458740234375, 12.671875000000, -15.070312500000, 16.664062500000, 1490674305
-0.167724609375, -0.901855468750, 0.541748046875, -19.750000000000, -7.593750000000, 13.257812500000, 1490674305
-0.167724609375, -0.901855468750, 0.541748046875, -19.750000000000, -7.593750000000, 13.257812500000, 1490674305
-0.167724609375, -0.901855468750, 0.541748046875, -19.750000000000, -7.593750000000, 13.257812500000, 1490674305
-0.223632812500, -0.801757812500, 0.362060546875, -26.140625000000, -9.242187500000, 4.218750000000, 1490674305
-0.223632812500, -0.801757812500, 0.362060546875, -26.140625000000, -9.242187500000, 4.218750000000, 1490674305
-0.223632812500, -0.801757812500, 0.362060546875, -26.140625000000, -9.242187500000, 4.218750000000, 1490674305
-0.167480468750, -0.766113281250, 0.377441406250, -14.453125000000, -6.382812500000, -6.296875000000, 1490674305
-0.167480468750, -0.766113281250, 0.377441406250, -14.453125000000, -6.382812500000, -6.296875000000, 1490674305
-0.167480468750, -0.766113281250, 0.377441406250, -14.453125000000, -6.382812500000, -6.296875000000, 1490674305
-0.154541015625, -0.899902343750, 0.397460937500, -9.648437500000, 9.109375000000, -11.531250000000, 1490674305
-0.154541015625, -0.899902343750, 0.397460937500, -9.648437500000, 9.109375000000, -11.531250000000, 1490674305
-0.154541015625, -0.899902343750, 0.397460937500, -9.648437500000, 9.109375000000, -11.531250000000, 1490674305
-0.154541015625, -0.899902343750, 0.397460937500, -9.648437500000, 9.109375000000, -11.531250000000, 1490674305
-0.164794921875, -0.885742187500, 0.285644531250, -4.421875000000, 9.156250000000, -9.859375000000, 1490674305
-0.164794921875, -0.885742187500, 0.285644531250, -4.421875000000, 9.156250000000, -9.859375000000, 1490674305
-0.164794921875, -0.885742187500, 0.285644531250, -4.421875000000, 9.156250000000, -9.859375000000, 1490674305
-0.179199218750, -0.946044921875, 0.367919921875, -8.046875000000, 17.203125000000, -8.078125000000, 1490674305
-0.179199218750, -0.946044921875, 0.367919921875, -8.046875000000, 17.203125000000, -8.078125000000, 1490674305
-0.179199218750, -0.946044921875, 0.367919921875, -8.046875000000, 17.203125000000, -8.078125000000, 1490674305
-0.254150390625, -0.846923828125, 0.264160156250, -20.953125000000, 15.750000000000, -2.109375000000, 1490674305
-0.254150390625, -0.846923828125, 0.264160156250, -20.953125000000, 15.750000000000, -2.109375000000, 1490674305
-0.254150390625, -0.846923828125, 0.264160156250, -20.953125000000, 15.750000000000, -2.109375000000, 1490674305
-0.229003906250, -0.989013671875, 0.185546875000, -8.765625000000, 6.289062500000, -8.101562500000, 1490674305
-0.229003906250, -0.989013671875, 0.185546875000, -8.765625000000, 6.289062500000, -8.101562500000, 1490674305
-0.229003906250, -0.989013671875, 0.185546875000, -8.765625000000, 6.289062500000, -8.101562500000, 1490674305
-0.229003906250, -0.989013671875, 0.185546875000, -8.765625000000, 6.289062500000, -8.101562500000, 1490674305
-0.274414062500, -0.968994140625, 0.300292968750, 20.257812500000, -19.468750000000, -11.742187500000, 1490674305
-0.274414062500, -0.968994140625, 0.300292968750, 20.257812500000, -19.468750000000, -11.742187500000, 1490674305
-0.274414062500, -0.968994140625, 0.300292968750, 20.257812500000, -19.468750000000, -11.742187500000, 1490674305
-0.100585937500, -1.014160156250, 0.298583984375, -9.468750000000, -16.273437500000, -12.148437500000, 1490674305
-0.100585937500, -1.014160156250, 0.298583984375, -9.468750000000, -16.273437500000, -12.148437500000, 1490674305
-0.100585937500, -1.014160156250, 0.298583984375, -9.468750000000, -16.273437500000, -12.148437500000, 1490674305
-0.016113281250, -0.900634765625, 0.276611328125, -16.679687500000, -12.125000000000, -4.945312500000, 1490674305
-0.016113281250, -0.900634765625, 0.276611328125, -16.679687500000, -12.125000000000, -4.945312500000, 1490674305
-0.016113281250, -0.900634765625, 0.276611328125, -16.679687500000, -12.125000000000, -4.945312500000, 1490674305
-0.203125000000, -0.847900390625, 0.191162109375, -13.476562500000, -3.726562500000, 7.304687500000, 1490674306
-0.203125000000, -0.847900390625, 0.191162109375, -13.476562500000, -3.726562500000, 7.304687500000, 1490674306
-0.203125000000, -0.847900390625, 0.191162109375, -13.476562500000, -3.726562500000, 7.304687500000, 1490674306
-0.203125000000, -0.847900390625, 0.191162109375, -13.476562500000, -3.726562500000, 7.304687500000, 1490674306
-0.097412109375, -0.802490234375, 0.156005859375, -7.562500000000, -11.265625000000, 21.289062500000, 1490674306
-0.097412109375, -0.802490234375, 0.156005859375, -7.562500000000, -11.265625000000, 21.289062500000, 1490674306
-0.097412109375, -0.802490234375, 0.156005859375, -7.562500000000, -11.265625000000, 21.289062500000, 1490674306
-0.124267578125, -0.801513671875, 0.222900390625, -20.593750000000, -25.976562500000, 20.664062500000, 1490674306
-0.124267578125, -0.801513671875, 0.222900390625, -20.593750000000, -25.976562500000, 20.664062500000, 1490674306
-0.124267578125, -0.801513671875, 0.222900390625, -20.593750000000, -25.976562500000, 20.664062500000, 1490674306
-0.152343750000, -0.799316406250, 0.115722656250, -11.164062500000, -41.648437500000, 13.421875000000, 1490674306
-0.152343750000, -0.799316406250, 0.115722656250, -11.164062500000, -41.648437500000, 13.421875000000, 1490674306
0.019531250000, -0.713623046875, 0.086669921875, -13.710937500000, -18.257812500000, 13.382812500000, 1490674306
0.019531250000, -0.713623046875, 0.086669921875, -13.710937500000, -18.257812500000, 13.382812500000, 1490674306
-0.002929687500, -0.457275390625, 0.139404296875, -15.406250000000, -8.265625000000, 24.710937500000, 1490674306
-0.002929687500, -0.457275390625, 0.139404296875, -15.406250000000, -8.265625000000, 24.710937500000, 1490674306
-0.002929687500, -0.457275390625, 0.139404296875, -15.406250000000, -8.265625000000, 24.710937500000, 1490674306
-0.002929687500, -0.457275390625, 0.139404296875, -15.406250000000, -8.265625000000, 24.710937500000, 1490674306
-0.002929687500, -0.457275390625, 0.139404296875, -15.406250000000, -8.265625000000, 24.710937500000, 1490674306
-0.002929687500, -0.457275390625, 0.139404296875, -15.406250000000, -8.265625000000, 24.710937500000, 1490674306
-0.000000000000, -0.409423828125, 0.066650390625, -46.359375000000, -36.640625000000, 46.429687500000, 1490674306
-0.000000000000, -0.409423828125, 0.066650390625, -46.359375000000, -36.640625000000, 46.429687500000, 1490674306
-0.000000000000, -0.409423828125, 0.066650390625, -46.359375000000, -36.640625000000, 46.429687500000, 1490674306
0.058593750000, -0.450927734375, -0.013183593750, -88.703125000000, -66.757812500000, 26.804687500000, 1490674306
0.058593750000, -0.450927734375, -0.013183593750, -88.703125000000, -66.757812500000, 26.804687500000, 1490674306
0.058593750000, -0.450927734375, -0.013183593750, -88.703125000000, -66.757812500000, 26.804687500000, 1490674306
0.029052734375, -0.124511718750, 0.129394531250, -63.656250000000, -62.289062500000, 19.578125000000, 1490674306
0.029052734375, -0.124511718750, 0.129394531250, -63.656250000000, -62.289062500000, 19.578125000000, 1490674306
0.029052734375, -0.124511718750, 0.129394531250, -63.656250000000, -62.289062500000, 19.578125000000, 1490674306
0.029052734375, -0.124511718750, 0.129394531250, -63.656250000000, -62.289062500000, 19.578125000000, 1490674306
0.131591796875, -0.048583984375, 0.061767578125, -44.414062500000, -21.640625000000, -6.796875000000, 1490674306
0.131591796875, -0.048583984375, 0.061767578125, -44.414062500000, -21.640625000000, -6.796875000000, 1490674306
0.131591796875, -0.048583984375, 0.061767578125, -44.414062500000, -21.640625000000, -6.796875000000, 1490674306
0.081787109375, 0.004394531250, 0.105712890625, -12.968750000000, 10.570312500000, -28.570312500000, 1490674306
0.081787109375, 0.004394531250, 0.105712890625, -12.968750000000, 10.570312500000, -28.570312500000, 1490674306
0.081787109375, 0.004394531250, 0.105712890625, -12.968750000000, 10.570312500000, -28.570312500000, 1490674306
-0.085937500000, -1.730712890625, 0.357910156250, -256.000000000000, 252.898437500000, 101.257812500000, 1490674306
-0.085937500000, -1.730712890625, 0.357910156250, -256.000000000000, 252.898437500000, 101.257812500000, 1490674306
-0.085937500000, -1.730712890625, 0.357910156250, -256.000000000000, 252.898437500000, 101.257812500000, 1490674306
0.438720703125, -2.411376953125, 0.909667968750, -256.000000000000, -59.304687500000, 88.031250000000, 1490674306
0.438720703125, -2.411376953125, 0.909667968750, -256.000000000000, -59.304687500000, 88.031250000000, 1490674306
0.438720703125, -2.411376953125, 0.909667968750, -256.000000000000, -59.304687500000, 88.031250000000, 1490674306
0.438720703125, -2.411376953125, 0.909667968750, -256.000000000000, -59.304687500000, 88.031250000000, 1490674306
-0.065673828125, -1.200927734375, 2.539794921875, -36.062500000000, 186.367187500000, -38.335937500000, 1490674306
-0.065673828125, -1.200927734375, 2.539794921875, -36.062500000000, 186.367187500000, -38.335937500000, 1490674306
-0.065673828125, -1.200927734375, 2.539794921875, -36.062500000000, 186.367187500000, -38.335937500000, 1490674306
-0.735595703125, 1.741210937500, 2.342285156250, -256.000000000000, -196.609375000000, 253.992187500000, 1490674306
-0.735595703125, 1.741210937500, 2.342285156250, -256.000000000000, -196.609375000000, 253.992187500000, 1490674306
-0.735595703125, 1.741210937500, 2.342285156250, -256.000000000000, -196.609375000000, 253.992187500000, 1490674306
0.254882812500, 0.024902343750, 0.004638671875, -254.828125000000, -256.000000000000, -57.453125000000, 1490674306
0.254882812500, 0.024902343750, 0.004638671875, -254.828125000000, -256.000000000000, -57.453125000000, 1490674306
0.254882812500, 0.024902343750, 0.004638671875, -254.828125000000, -256.000000000000, -57.453125000000, 1490674306
-0.077392578125, 0.048095703125, 0.054443359375, -256.000000000000, -256.000000000000, 107.718750000000, 1490674306
-0.077392578125, 0.048095703125, 0.054443359375, -256.000000000000, -256.000000000000, 107.718750000000, 1490674306
-0.133056640625, 1.534423828125, 0.239990234375, 104.335937500000, -159.625000000000, 62.984375000000, 1490674306
-0.133056640625, 1.534423828125, 0.239990234375, 104.335937500000, -159.625000000000, 62.984375000000, 1490674306
-0.133056640625, 1.534423828125, 0.239990234375, 104.335937500000, -159.625000000000, 62.984375000000, 1490674306
-0.133056640625, 1.534423828125, 0.239990234375, 104.335937500000, -159.625000000000, 62.984375000000, 1490674306
-0.180908203125, 3.076904296875, 0.557861328125, 253.992187500000, -256.000000000000, -206.695312500000, 1490674306
-0.304199218750, 3.401855468750, 0.725097656250, 121.781250000000, -256.000000000000, -169.843750000000, 1490674306
-0.304199218750, 3.401855468750, 0.725097656250, 121.781250000000, -256.000000000000, -169.843750000000, 1490674306
-0.304199218750, 3.401855468750, 0.725097656250, 121.781250000000, -256.000000000000, -169.843750000000, 1490674306
0.509521484375, 0.665527343750, 0.256103515625, -118.789062500000, 253.992187500000, -223.687500000000, 1490674306
0.509521484375, 0.665527343750, 0.256103515625, -118.789062500000, 253.992187500000, -223.687500000000, 1490674306
0.509521484375, 0.665527343750, 0.256103515625, -118.789062500000, 253.992187500000, -223.687500000000, 1490674306
0.449462890625, 0.544189453125, 0.406982421875, -40.929687500000, 63.203125000000, 89.960937500000, 1490674306
0.449462890625, 0.544189453125, 0.406982421875, -40.929687500000, 63.203125000000, 89.960937500000, 1490674306
0.449462890625, 0.544189453125, 0.406982421875, -40.929687500000, 63.203125000000, 89.960937500000, 1490674306
0.449462890625, 0.544189453125, 0.406982421875, -40.929687500000, 63.203125000000, 89.960937500000, 1490674307
0.371582031250, 0.387939453125, 0.311523437500, -40.453125000000, 17.046875000000, -33.539062500000, 1490674307
0.371582031250, 0.387939453125, 0.311523437500, -40.453125000000, 17.046875000000, -33.539062500000, 1490674307
0.371582031250, 0.387939453125, 0.311523437500, -40.453125000000, 17.046875000000, -33.539062500000, 1490674307
1.368408203125, 0.115722656250, 1.036865234375, -44.890625000000, 67.781250000000, 24.265625000000, 1490674307
1.368408203125, 0.115722656250, 1.036865234375, -44.890625000000, 67.781250000000, 24.265625000000, 1490674307
1.368408203125, 0.115722656250, 1.036865234375, -44.890625000000, 67.781250000000, 24.265625000000, 1490674307
0.738037109375, 0.281982421875, 0.470947265625, -25.843750000000, 23.460937500000, 4.617187500000, 1490674307
0.738037109375, 0.281982421875, 0.470947265625, -25.843750000000, 23.460937500000, 4.617187500000, 1490674307
0.738037109375, 0.281982421875, 0.470947265625, -25.843750000000, 23.460937500000, 4.617187500000, 1490674307
0.550781250000, 0.286865234375, 0.470214843750, -14.476562500000, 30.835937500000, 3.476562500000, 1490674307
0.550781250000, 0.286865234375, 0.470214843750, -14.476562500000, 30.835937500000, 3.476562500000, 1490674307
0.550781250000, 0.286865234375, 0.470214843750, -14.476562500000, 30.835937500000, 3.476562500000, 1490674307
0.550781250000, 0.286865234375, 0.470214843750, -14.476562500000, 30.835937500000, 3.476562500000, 1490674307
0.820312500000, 0.375244140625, 0.584960937500, -24.296875000000, -9.546875000000, 9.882812500000, 1490674307
0.820312500000, 0.375244140625, 0.584960937500, -24.296875000000, -9.546875000000, 9.882812500000, 1490674307
0.820312500000, 0.375244140625, 0.584960937500, -24.296875000000, -9.546875000000, 9.882812500000, 1490674307
0.797851562500, 0.430664062500, 0.429687500000, 10.250000000000, -40.101562500000, -19.609375000000, 1490674307
0.797851562500, 0.430664062500, 0.429687500000, 10.250000000000, -40.101562500000, -19.609375000000, 1490674307
0.797851562500, 0.430664062500, 0.429687500000, 10.250000000000, -40.101562500000, -19.609375000000, 1490674307
0.911376953125, 0.552978515625, 0.416503906250, 19.914062500000, -14.476562500000, -32.890625000000, 1490674307
0.911376953125, 0.552978515625, 0.416503906250, 19.914062500000, -14.476562500000, -32.890625000000, 1490674307
0.791015625000, 0.376464843750, 0.422851562500, 19.125000000000, 11.570312500000, -25.859375000000, 1490674307
0.791015625000, 0.376464843750, 0.422851562500, 19.125000000000, 11.570312500000, -25.859375000000, 1490674307
0.791015625000, 0.376464843750, 0.422851562500, 19.125000000000, 11.570312500000, -25.859375000000, 1490674307
0.791015625000, 0.376464843750, 0.422851562500, 19.125000000000, 11.570312500000, -25.859375000000, 1490674307
0.746337890625, 0.468261718750, 0.491943359375, -2.335937500000, 31.539062500000, -21.515625000000, 1490674307
0.746337890625, 0.468261718750, 0.491943359375, -2.335937500000, 31.539062500000, -21.515625000000, 1490674307
0.746337890625, 0.468261718750, 0.491943359375, -2.335937500000, 31.539062500000, -21.515625000000, 1490674307
0.746337890625, 0.468261718750, 0.491943359375, -2.335937500000, 31.539062500000, -21.515625000000, 1490674307
0.796875000000, 0.408935546875, 0.529785156250, 1.398437500000, 30.039062500000, -23.281250000000, 1490674307
0.796875000000, 0.408935546875, 0.529785156250, 1.398437500000, 30.039062500000, -23.281250000000, 1490674307
0.796875000000, 0.408935546875, 0.529785156250, 1.398437500000, 30.039062500000, -23.281250000000, 1490674307
0.860839843750, 0.360595703125, 0.545654296875, 15.234375000000, 40.406250000000, -4.632812500000, 1490674307
0.860839843750, 0.360595703125, 0.545654296875, 15.234375000000, 40.406250000000, -4.632812500000, 1490674307
0.860839843750, 0.360595703125, 0.545654296875, 15.234375000000, 40.406250000000, -4.632812500000, 1490674307
0.968017578125, 0.349853515625, 0.959716796875, 35.351562500000, 25.914062500000, 3.031250000000, 1490674307
0.968017578125, 0.349853515625, 0.959716796875, 35.351562500000, 25.914062500000, 3.031250000000, 1490674307
0.968017578125, 0.349853515625, 0.959716796875, 35.351562500000, 25.914062500000, 3.031250000000, 1490674307
0.968017578125, 0.349853515625, 0.959716796875, 35.351562500000, 25.914062500000, 3.031250000000, 1490674307
0.691406250000, 0.002197265625, 0.406250000000, 19.234375000000, 12.304687500000, -18.406250000000, 1490674307
0.679443359375, -0.510009765625, 0.465087890625, -14.304687500000, 21.703125000000, 9.531250000000, 1490674307
0.679443359375, -0.510009765625, 0.465087890625, -14.304687500000, 21.703125000000, 9.531250000000, 1490674307
0.679443359375, -0.510009765625, 0.465087890625, -14.304687500000, 21.703125000000, 9.531250000000, 1490674307
0.679443359375, -0.510009765625, 0.465087890625, -14.304687500000, 21.703125000000, 9.531250000000, 1490674307
0.679443359375, -0.510009765625, 0.465087890625, -14.304687500000, 21.703125000000, 9.531250000000, 1490674307
0.665527343750, -0.645019531250, 0.702636718750, 14.750000000000, 37.539062500000, -12.054687500000, 1490674307
0.665527343750, -0.645019531250, 0.702636718750, 14.750000000000, 37.539062500000, -12.054687500000, 1490674307
0.665527343750, -0.645019531250, 0.702636718750, 14.750000000000, 37.539062500000, -12.054687500000, 1490674307
0.690917968750, 0.103271484375, 0.621826171875, -34.523437500000, 42.406250000000, -6.007812500000, 1490674307
0.690917968750, 0.103271484375, 0.621826171875, -34.523437500000, 42.406250000000, -6.007812500000, 1490674307
0.690917968750, 0.103271484375, 0.621826171875, -34.523437500000, 42.406250000000, -6.007812500000, 1490674307
0.690917968750, 0.103271484375, 0.621826171875, -34.523437500000, 42.406250000000, -6.007812500000, 1490674307
0.703857421875, 0.250976562500, 0.763427734375, -14.351562500000, -8.890625000000, 44.328125000000, 1490674307
0.813232421875, 0.009765625000, 0.833007812500, -18.304687500000, -4.835937500000, 55.757812500000, 1490674307
0.813232421875, 0.009765625000, 0.833007812500, -18.304687500000, -4.835937500000, 55.757812500000, 1490674307
0.760009765625, 0.062255859375, 0.612792968750, -0.992187500000, -57.648437500000, 21.460937500000, 1490674307
0.878906250000, 0.405273437500, 0.753173828125, 32.132812500000, -36.898437500000, -8.976562500000, 1490674307
0.878906250000, 0.405273437500, 0.753173828125, 32.132812500000, -36.898437500000, -8.976562500000, 1490674307
0.878906250000, 0.405273437500, 0.753173828125, 32.132812500000, -36.898437500000, -8.976562500000, 1490674307
0.878906250000, 0.405273437500, 0.753173828125, 32.132812500000, -36.898437500000, -8.976562500000, 1490674307
0.776367187500, 0.488037109375, 0.919433593750, 13.398437500000, -1.257812500000, -37.484375000000, 1490674307
0.776367187500, 0.488037109375, 0.919433593750, 13.398437500000, -1.257812500000, -37.484375000000, 1490674307
0.776367187500, 0.488037109375, 0.919433593750, 13.398437500000, -1.257812500000, -37.484375000000, 1490674307
0.776367187500, 0.488037109375, 0.919433593750, 13.398437500000, -1.257812500000, -37.484375000000, 1490674307
0.776367187500, 0.488037109375, 0.919433593750, 13.398437500000, -1.257812500000, -37.484375000000, 1490674307
0.625244140625, 0.779052734375, 0.548583984375, 24.562500000000, 6.218750000000, -18.906250000000, 1490674308
0.625244140625, 0.779052734375, 0.548583984375, 24.562500000000, 6.218750000000, -18.906250000000, 1490674308
0.625244140625, 0.779052734375, 0.548583984375, 24.562500000000, 6.218750000000, -18.906250000000, 1490674308
0.452880859375, 0.479492187500, 0.459716796875, 4.562500000000, -12.984375000000, -2.007812500000, 1490674308
0.452880859375, 0.479492187500, 0.459716796875, 4.562500000000, -12.984375000000, -2.007812500000, 1490674308
0.452880859375, 0.479492187500, 0.459716796875, 4.562500000000, -12.984375000000, -2.007812500000, 1490674308
0.665771484375, 0.188720703125, 0.620117187500, -20.656250000000, -14.953125000000, 5.648437500000, 1490674308
0.665771484375, 0.188720703125, 0.620117187500, -20.656250000000, -14.953125000000, 5.648437500000, 1490674308
0.665771484375, 0.188720703125, 0.620117187500, -20.656250000000, -14.953125000000, 5.648437500000, 1490674308
0.923583984375, -0.077880859375, 0.942871093750, -14.656250000000, 15.812500000000, -4.062500000000, 1490674308
0.923583984375, -0.077880859375, 0.942871093750, -14.656250000000, 15.812500000000, -4.062500000000, 1490674308
0.923583984375, -0.077880859375, 0.942871093750, -14.656250000000, 15.812500000000, -4.062500000000, 1490674308
0.923583984375, -0.077880859375, 0.942871093750, -14.656250000000, 15.812500000000, -4.062500000000, 1490674308
0.911376953125, -0.103271484375, 0.852783203125, -14.343750000000, 1.445312500000, -6.609375000000, 1490674308
0.911376953125, -0.103271484375, 0.852783203125, -14.343750000000, 1.445312500000, -6.609375000000, 1490674308
0.911376953125, -0.103271484375, 0.852783203125, -14.343750000000, 1.445312500000, -6.609375000000, 1490674308
0.837158203125, -0.043701171875, 0.886230468750, -1.593750000000, 7.453125000000, -7.171875000000, 1490674308
0.542968750000, 0.083251953125, 0.541259765625, -12.742187500000, 0.695312500000, 2.304687500000, 1490674308
0.542968750000, 0.083251953125, 0.541259765625, -12.742187500000, 0.695312500000, 2.304687500000, 1490674308
0.542968750000, 0.083251953125, 0.541259765625, -12.742187500000, 0.695312500000, 2.304687500000, 1490674308
0.551757812500, 0.268798828125, 0.691894531250, -16.648437500000, -0.726562500000, -1.664062500000, 1490674308
0.551757812500, 0.268798828125, 0.691894531250, -16.648437500000, -0.726562500000, -1.664062500000, 1490674308
0.551757812500, 0.268798828125, 0.691894531250, -16.648437500000, -0.726562500000, -1.664062500000, 1490674308
0.551757812500, 0.268798828125, 0.691894531250, -16.648437500000, -0.726562500000, -1.664062500000, 1490674308
0.551757812500, 0.268798828125, 0.691894531250, -16.648437500000, -0.726562500000, -1.664062500000, 1490674308
0.835937500000, 0.381591796875, 0.743408203125, -5.296875000000, 4.273437500000, -7.585937500000, 1490674308
0.835937500000, 0.381591796875, 0.743408203125, -5.296875000000, 4.273437500000, -7.585937500000, 1490674308
0.835937500000, 0.381591796875, 0.743408203125, -5.296875000000, 4.273437500000, -7.585937500000, 1490674308
0.835937500000, 0.381591796875, 0.743408203125, -5.296875000000, 4.273437500000, -7.585937500000, 1490674308
0.673095703125, 0.414306640625, 0.835449218750, 6.914062500000, 3.953125000000, -10.421875000000, 1490674308
0.673095703125, 0.414306640625, 0.835449218750, 6.914062500000, 3.953125000000, -10.421875000000, 1490674308
0.673095703125, 0.414306640625, 0.835449218750, 6.914062500000, 3.953125000000, -10.421875000000, 1490674308
0.724121093750, 0.239257812500, 0.765625000000, -0.390625000000, 1.492187500000, 0.625000000000, 1490674308
0.724121093750, 0.239257812500, 0.765625000000, -0.390625000000, 1.492187500000, 0.625000000000, 1490674308
0.724121093750, 0.239257812500, 0.765625000000, -0.390625000000, 1.492187500000, 0.625000000000, 1490674308
0.639892578125, 0.217041015625, 0.665283203125, -3.585937500000, -2.937500000000, -4.031250000000, 1490674308
0.661132812500, 0.144531250000, 0.715087890625, -8.328125000000, -0.632812500000, -10.562500000000, 1490674308
0.661132812500, 0.144531250000, 0.715087890625, -8.328125000000, -0.632812500000, -10.562500000000, 1490674308
0.661132812500, 0.144531250000, 0.715087890625, -8.328125000000, -0.632812500000, -10.562500000000, 1490674308
0.759033203125, 0.105468750000, 0.734619140625, -7.273437500000, -1.398437500000, -13.195312500000, 1490674308
0.759033203125, 0.105468750000, 0.734619140625, -7.273437500000, -1.398437500000, -13.195312500000, 1490674308
0.759033203125, 0.105468750000, 0.734619140625, -7.273437500000, -1.398437500000, -13.195312500000, 1490674308
0.759033203125, 0.105468750000, 0.734619140625, -7.273437500000, -1.398437500000, -13.195312500000, 1490674308
0.759033203125, 0.105468750000, 0.734619140625, -7.273437500000, -1.398437500000, -13.195312500000, 1490674308
0.687011718750, 0.087890625000, 0.720947265625, -3.921875000000, 1.070312500000, -12.046875000000, 1490674308
0.687011718750, 0.087890625000, 0.720947265625, -3.921875000000, 1.070312500000, -12.046875000000, 1490674308
0.687011718750, 0.087890625000, 0.720947265625, -3.921875000000, 1.070312500000, -12.046875000000, 1490674308
0.614257812500, 0.157226562500, 0.718750000000, -1.835937500000, -2.289062500000, -1.976562500000, 1490674308
0.614257812500, 0.157226562500, 0.718750000000, -1.835937500000, -2.289062500000, -1.976562500000, 1490674308
0.614257812500, 0.157226562500, 0.718750000000, -1.835937500000, -2.289062500000, -1.976562500000, 1490674308
0.614257812500, 0.157226562500, 0.718750000000, -1.835937500000, -2.289062500000, -1.976562500000, 1490674308
0.614257812500, 0.157226562500, 0.718750000000, -1.835937500000, -2.289062500000, -1.976562500000, 1490674308
0.708251953125, 0.278564453125, 0.664794921875, -4.851562500000, -2.773437500000, -0.210937500000, 1490674308
0.708251953125, 0.278564453125, 0.664794921875, -4.851562500000, -2.773437500000, -0.210937500000, 1490674308
0.708251953125, 0.278564453125, 0.664794921875, -4.851562500000, -2.773437500000, -0.210937500000, 1490674308
0.787109375000, 0.234130859375, 0.673339843750, -6.070312500000, 0.242187500000, 2.750000000000, 1490674308
0.787109375000, 0.234130859375, 0.673339843750, -6.070312500000, 0.242187500000, 2.750000000000, 1490674308
0.787109375000, 0.234130859375, 0.673339843750, -6.070312500000, 0.242187500000, 2.750000000000, 1490674308
0.624755859375, 0.182373046875, 0.675048828125, -6.335937500000, -1.000000000000, -1.664062500000, 1490674308
0.624755859375, 0.182373046875, 0.675048828125, -6.335937500000, -1.000000000000, -1.664062500000, 1490674308
0.624755859375, 0.182373046875, 0.675048828125, -6.335937500000, -1.000000000000, -1.664062500000, 1490674308
0.681152343750, 0.166748046875, 0.701416015625, -8.218750000000, -0.101562500000, -8.007812500000, 1490674308
0.681152343750, 0.166748046875, 0.701416015625, -8.218750000000, -0.101562500000, -8.007812500000, 1490674308
0.681152343750, 0.166748046875, 0.701416015625, -8.218750000000, -0.101562500000, -8.007812500000, 1490674308
0.681152343750, 0.166748046875, 0.701416015625, -8.218750000000, -0.101562500000, -8.007812500000, 1490674308
0.705810546875, 0.302978515625, 0.772705078125, -7.148437500000, 0.953125000000, -6.125000000000, 1490674308
0.705810546875, 0.302978515625, 0.772705078125, -7.148437500000, 0.953125000000, -6.125000000000, 1490674308
0.705810546875, 0.302978515625, 0.772705078125, -7.148437500000, 0.953125000000, -6.125000000000, 1490674308
0.643798828125, 0.179199218750, 0.659912109375, -5.289062500000, -0.609375000000, -1.390625000000, 1490674309
0.643798828125, 0.179199218750, 0.659912109375, -5.289062500000, -0.609375000000, -1.390625000000, 1490674309
0.643798828125, 0.179199218750, 0.659912109375, -5.289062500000, -0.609375000000, -1.390625000000, 1490674309
0.836181640625, 0.198974609375, 0.764892578125, -6.125000000000, -0.906250000000, -6.328125000000, 1490674309
0.836181640625, 0.198974609375, 0.764892578125, -6.125000000000, -0.906250000000, -6.328125000000, 1490674309
0.836181640625, 0.198974609375, 0.764892578125, -6.125000000000, -0.906250000000, -6.328125000000, 1490674309
0.663085937500, 0.275878906250, 0.740478515625, -4.515625000000, 0.453125000000, -1.632812500000, 1490674309
0.663085937500, 0.275878906250, 0.740478515625, -4.515625000000, 0.453125000000, -1.632812500000, 1490674309
0.625000000000, 0.199707031250, 0.668212890625, -2.554687500000, -2.289062500000, -1.914062500000, 1490674309
0.625000000000, 0.199707031250, 0.668212890625, -2.554687500000, -2.289062500000, -1.914062500000, 1490674309
0.625000000000, 0.199707031250, 0.668212890625, -2.554687500000, -2.289062500000, -1.914062500000, 1490674309
0.625000000000, 0.199707031250, 0.668212890625, -2.554687500000, -2.289062500000, -1.914062500000, 1490674309
0.682861328125, 0.184326171875, 0.731445312500, -3.273437500000, -3.250000000000, -4.007812500000, 1490674309
0.713867187500, 0.196044921875, 0.699951171875, -3.273437500000, -3.250000000000, -4.007812500000, 1490674309
0.713867187500, 0.196044921875, 0.699951171875, -3.273437500000, -3.250000000000, -4.007812500000, 1490674309
0.713867187500, 0.196044921875, 0.699951171875, -3.273437500000, -3.250000000000, -4.007812500000, 1490674309
0.706054687500, 0.279541015625, 0.660156250000, -4.226562500000, -2.281250000000, -4.468750000000, 1490674309
0.706054687500, 0.279541015625, 0.660156250000, -4.226562500000, -2.281250000000, -4.468750000000, 1490674309
0.706054687500, 0.279541015625, 0.660156250000, -4.226562500000, -2.281250000000, -4.468750000000, 1490674309
0.821533203125, 0.171630859375, 0.791015625000, -6.085937500000, 0.265625000000, -8.585937500000, 1490674309
0.821533203125, 0.171630859375, 0.791015625000, -6.085937500000, 0.265625000000, -8.585937500000, 1490674309
0.670898437500, 0.181396484375, 0.658203125000, -6.460937500000, -2.476562500000, -5.250000000000, 1490674309
0.596191406250, 0.254882812500, 0.723388671875, -3.851562500000, 0.734375000000, -3.703125000000, 1490674309
0.728027343750, 0.236083984375, 0.661376953125, -3.203125000000, 2.585937500000, -6.437500000000, 1490674309
0.732421875000, 0.181640625000, 0.692382812500, -2.625000000000, -0.609375000000, -5.210937500000, 1490674309
0.732421875000, 0.181640625000, 0.692382812500, -2.625000000000, -0.609375000000, -5.210937500000, 1490674309
0.732421875000, 0.181640625000, 0.692382812500, -2.625000000000, -0.609375000000, -5.210937500000, 1490674309
0.732421875000, 0.181640625000, 0.692382812500, -2.625000000000, -0.609375000000, -5.210937500000, 1490674309
0.732421875000, 0.181640625000, 0.692382812500, -2.625000000000, -0.609375000000, -5.210937500000, 1490674309
0.757812500000, 0.185058593750, 0.750244140625, -4.359375000000, -0.726562500000, -4.968750000000, 1490674309
0.757812500000, 0.185058593750, 0.750244140625, -4.359375000000, -0.726562500000, -4.968750000000, 1490674309
0.757812500000, 0.185058593750, 0.750244140625, -4.359375000000, -0.726562500000, -4.968750000000, 1490674309
0.757812500000, 0.185058593750, 0.750244140625, -1.945312500000, -2.281250000000, -4.750000000000, 1490674309
0.717041015625, 0.195800781250, 0.725341796875, -1.625000000000, 2.539062500000, -1.039062500000, 1490674309
0.717041015625, 0.195800781250, 0.725341796875, -1.625000000000, 2.539062500000, -1.039062500000, 1490674309
0.717041015625, 0.195800781250, 0.725341796875, -1.625000000000, 2.539062500000, -1.039062500000, 1490674309
0.717041015625, 0.195800781250, 0.725341796875, -1.625000000000, 2.539062500000, -1.039062500000, 1490674309
0.717041015625, 0.195800781250, 0.725341796875, -1.625000000000, 2.539062500000, -1.039062500000, 1490674309
0.657470703125, 0.273193359375, 0.721435546875, -4.382812500000, 2.601562500000, -3.406250000000, 1490674309
0.657470703125, 0.273193359375, 0.721435546875, -4.382812500000, 2.601562500000, -3.406250000000, 1490674309
0.657470703125, 0.273193359375, 0.721435546875, -4.382812500000, 2.601562500000, -3.406250000000, 1490674309
0.657470703125, 0.273193359375, 0.721435546875, -4.382812500000, 2.601562500000, -3.406250000000, 1490674309
0.686035156250, 0.327392578125, 0.765380859375, -2.968750000000, -0.062500000000, -3.828125000000, 1490674309
0.686035156250, 0.327392578125, 0.765380859375, -2.968750000000, -0.062500000000, -3.828125000000, 1490674309
0.686035156250, 0.327392578125, 0.765380859375, -2.968750000000, -0.062500000000, -3.828125000000, 1490674309
0.749023437500, 0.336914062500, 0.725830078125, 0.000000000000, -0.101562500000, -6.085937500000, 1490674309
0.749023437500, 0.336914062500, 0.725830078125, 0.000000000000, -0.101562500000, -6.085937500000, 1490674309
0.749023437500, 0.336914062500, 0.725830078125, 0.000000000000, -0.101562500000, -6.085937500000, 1490674309
0.749023437500, 0.336914062500, 0.725830078125, 0.000000000000, -0.101562500000, -6.085937500000, 1490674309
0.773681640625, 0.221435546875, 0.671142578125, -4.078125000000, 0.898437500000, -3.289062500000, 1490674309
0.773681640625, 0.221435546875, 0.671142578125, -4.078125000000, 0.898437500000, -3.289062500000, 1490674309
0.773681640625, 0.221435546875, 0.671142578125, -4.078125000000, 0.898437500000, -3.289062500000, 1490674309
0.773681640625, 0.221435546875, 0.671142578125, -4.078125000000, 0.898437500000, -3.289062500000, 1490674309
0.687500000000, 0.197509765625, 0.778564453125, -3.742187500000, -1.789062500000, -6.257812500000, 1490674309
0.687500000000, 0.197509765625, 0.778564453125, -3.742187500000, -1.789062500000, -6.257812500000, 1490674309
0.687500000000, 0.197509765625, 0.778564453125, -3.742187500000, -1.789062500000, -6.257812500000, 1490674309
0.687500000000, 0.197509765625, 0.778564453125, -3.742187500000, -1.789062500000, -6.257812500000, 1490674309
0.758789062500, 0.263916015625, 0.744384765625, -4.789062500000, -2.296875000000, -4.796875000000, 1490674309
0.750732421875, 0.221191406250, 0.707763671875, -4.390625000000, 0.375000000000, -1.828125000000, 1490674309
0.750732421875, 0.221191406250, 0.707763671875, -4.390625000000, 0.375000000000, -1.828125000000, 1490674309
0.750732421875, 0.221191406250, 0.707763671875, -4.390625000000, 0.375000000000, -1.828125000000, 1490674309
0.750732421875, 0.221191406250, 0.707763671875, -4.390625000000, 0.375000000000, -1.828125000000, 1490674309
0.751464843750, 0.180419921875, 0.752685546875, -4.046875000000, -2.226562500000, -6.203125000000, 1490674309
0.751464843750, 0.180419921875, 0.752685546875, -4.046875000000, -2.226562500000, -6.203125000000, 1490674309
0.751464843750, 0.180419921875, 0.752685546875, -4.046875000000, -2.226562500000, -6.203125000000, 1490674309
0.668945312500, 0.277343750000, 0.750244140625, -4.445312500000, -0.796875000000, -6.281250000000, 1490674310
0.668945312500, 0.277343750000, 0.750244140625, -4.445312500000, -0.796875000000, -6.281250000000, 1490674310
0.668945312500, 0.277343750000, 0.750244140625, -4.445312500000, -0.796875000000, -6.281250000000, 1490674310
0.677001953125, 0.152832031250, 0.714843750000, -1.125000000000, 2.468750000000, -3.500000000000, 1490674310
0.677001953125, 0.152832031250, 0.714843750000, -1.125000000000, 2.468750000000, -3.500000000000, 1490674310
0.677001953125, 0.152832031250, 0.714843750000, -1.125000000000, 2.468750000000, -3.500000000000, 1490674310
0.701171875000, 0.187255859375, 0.677734375000, -1.945312500000, 2.250000000000, -4.351562500000, 1490674310
0.701171875000, 0.187255859375, 0.677734375000, -1.945312500000, 2.250000000000, -4.351562500000, 1490674310
0.701171875000, 0.187255859375, 0.677734375000, -1.945312500000, 2.250000000000, -4.351562500000, 1490674310
0.701171875000, 0.187255859375, 0.677734375000, -1.945312500000, 2.250000000000, -4.351562500000, 1490674310
0.669433593750, 0.261474609375, 0.781250000000, -1.023437500000, 2.187500000000, -6.593750000000, 1490674310
0.669433593750, 0.261474609375, 0.781250000000, -1.023437500000, 2.187500000000, -6.593750000000, 1490674310
0.669433593750, 0.261474609375, 0.781250000000, -1.023437500000, 2.187500000000, -6.593750000000, 1490674310
0.774169921875, 0.122802734375, 0.729003906250, -2.875000000000, 0.328125000000, -6.421875000000, 1490674310
0.774169921875, 0.122802734375, 0.729003906250, -2.875000000000, 0.328125000000, -6.421875000000, 1490674310
0.774169921875, 0.122802734375, 0.729003906250, -2.875000000000, 0.328125000000, -6.421875000000, 1490674310
0.722167968750, 0.167480468750, 0.796142578125, -4.757812500000, -0.992187500000, -4.820312500000, 1490674310
0.722167968750, 0.167480468750, 0.796142578125, -4.757812500000, -0.992187500000, -4.820312500000, 1490674310
0.722167968750, 0.167480468750, 0.796142578125, -4.757812500000, -0.992187500000, -4.820312500000, 1490674310
0.662841796875, 0.130126953125, 0.770507812500, 0.117187500000, 0.695312500000, -4.554687500000, 1490674310
0.662841796875, 0.130126953125, 0.770507812500, 0.117187500000, 0.695312500000, -4.554687500000, 1490674310
0.662841796875, 0.130126953125, 0.770507812500, 0.117187500000, 0.695312500000, -4.554687500000, 1490674310
0.662841796875, 0.130126953125, 0.770507812500, 0.117187500000, 0.695312500000, -4.554687500000, 1490674310
0.749511718750, 0.273681640625, 0.684082031250, -6.500000000000, 2.617187500000, -6.960937500000, 1490674310
0.749511718750, 0.273681640625, 0.684082031250, -6.500000000000, 2.617187500000, -6.960937500000, 1490674310
0.749511718750, 0.273681640625, 0.684082031250, -6.500000000000, 2.617187500000, -6.960937500000, 1490674310
0.710937500000, 0.121093750000, 0.677734375000, -4.492187500000, 0.835937500000, -3.148437500000, 1490674310
0.710937500000, 0.121093750000, 0.677734375000, -4.492187500000, 0.835937500000, -3.148437500000, 1490674310
0.710937500000, 0.121093750000, 0.677734375000, -4.492187500000, 0.835937500000, -3.148437500000, 1490674310
0.658203125000, 0.264404296875, 0.678710937500, -6.320312500000, -4.164062500000, -4.187500000000, 1490674310
0.658203125000, 0.264404296875, 0.678710937500, -6.320312500000, -4.164062500000, -4.187500000000, 1490674310
0.658203125000, 0.264404296875, 0.678710937500, -6.320312500000, -4.164062500000, -4.187500000000, 1490674310
0.664306640625, 0.258300781250, 0.716796875000, -1.929687500000, 0.414062500000, -4.851562500000, 1490674310
0.664306640625, 0.258300781250, 0.716796875000, -1.929687500000, 0.414062500000, -4.851562500000, 1490674310
0.664306640625, 0.258300781250, 0.716796875000, -1.929687500000, 0.414062500000, -4.851562500000, 1490674310
0.664306640625, 0.258300781250, 0.716796875000, -1.929687500000, 0.414062500000, -4.851562500000, 1490674310
0.709228515625, 0.243408203125, 0.637451171875, -1.906250000000, -0.734375000000, -6.359375000000, 1490674310
0.709228515625, 0.243408203125, 0.637451171875, -1.906250000000, -0.734375000000, -6.359375000000, 1490674310
0.709228515625, 0.243408203125, 0.637451171875, -1.906250000000, -0.734375000000, -6.359375000000, 1490674310
0.747070312500, 0.192138671875, 0.686767578125, -1.015625000000, -2.046875000000, -4.312500000000, 1490674310
0.747070312500, 0.192138671875, 0.686767578125, -1.015625000000, -2.046875000000, -4.312500000000, 1490674310
0.747070312500, 0.192138671875, 0.686767578125, -1.015625000000, -2.046875000000, -4.312500000000, 1490674310
0.599121093750, 0.204589843750, 0.727294921875, -1.171875000000, 0.921875000000, -1.078125000000, 1490674310
0.599121093750, 0.204589843750, 0.727294921875, -1.171875000000, 0.921875000000, -1.078125000000, 1490674310
0.599121093750, 0.204589843750, 0.727294921875, -1.171875000000, 0.921875000000, -1.078125000000, 1490674310
0.661376953125, 0.330078125000, 0.755126953125, -1.015625000000, -2.992187500000, -4.328125000000, 1490674310
0.661376953125, 0.330078125000, 0.755126953125, -1.015625000000, -2.992187500000, -4.328125000000, 1490674310
0.661376953125, 0.330078125000, 0.755126953125, -1.015625000000, -2.992187500000, -4.328125000000, 1490674310
0.661376953125, 0.330078125000, 0.755126953125, -1.015625000000, -2.992187500000, -4.328125000000, 1490674310
0.761474609375, 0.173339843750, 0.679931640625, -4.914062500000, 0.953125000000, -3.281250000000, 1490674310
0.761474609375, 0.173339843750, 0.679931640625, -4.914062500000, 0.953125000000, -3.281250000000, 1490674310
0.761474609375, 0.173339843750, 0.679931640625, -4.914062500000, 0.953125000000, -3.281250000000, 1490674310
0.746337890625, 0.185058593750, 0.820800781250, -4.351562500000, 0.367187500000, -1.570312500000, 1490674310
0.746337890625, 0.185058593750, 0.820800781250, -4.351562500000, 0.367187500000, -1.570312500000, 1490674310
0.746337890625, 0.185058593750, 0.820800781250, -4.351562500000, 0.367187500000, -1.570312500000, 1490674310
0.718017578125, 0.238037109375, 0.725830078125, -4.695312500000, -2.476562500000, -4.625000000000, 1490674310
0.718017578125, 0.238037109375, 0.725830078125, -4.695312500000, -2.476562500000, -4.625000000000, 1490674310
0.718017578125, 0.238037109375, 0.725830078125, -4.695312500000, -2.476562500000, -4.625000000000, 1490674310
0.712402343750, 0.192626953125, 0.704345703125, -6.929687500000, 2.125000000000, -1.273437500000, 1490674310
0.712402343750, 0.192626953125, 0.704345703125, -6.929687500000, 2.125000000000, -1.273437500000, 1490674310
0.712402343750, 0.192626953125, 0.704345703125, -6.929687500000, 2.125000000000, -1.273437500000, 1490674310
0.712402343750, 0.192626953125, 0.704345703125, -6.929687500000, 2.125000000000, -1.273437500000, 1490674310
0.775390625000, 0.214355468750, 0.656738281250, -4.242187500000, -0.414062500000, -5.734375000000, 1490674310
0.775390625000, 0.214355468750, 0.656738281250, -4.242187500000, -0.414062500000, -5.734375000000, 1490674310
0.775390625000, 0.214355468750, 0.656738281250, -4.242187500000, -0.414062500000, -5.734375000000, 1490674310
0.672119140625, 0.223632812500, 0.677734375000, -1.375000000000, 0.320312500000, -4.023437500000, 1490674310
0.672119140625, 0.223632812500, 0.677734375000, -1.375000000000, 0.320312500000, -4.023437500000, 1490674310
0.672119140625, 0.223632812500, 0.677734375000, -1.375000000000, 0.320312500000, -4.023437500000, 1490674311
0.818115234375, 0.228515625000, 0.703857421875, -3.437500000000, -2.312500000000, -4.859375000000, 1490674311
0.818115234375, 0.228515625000, 0.703857421875, -3.437500000000, -2.312500000000, -4.859375000000, 1490674311
0.818115234375, 0.228515625000, 0.703857421875, -3.437500000000, -2.312500000000, -4.859375000000, 1490674311
0.756103515625, 0.245361328125, 0.709716796875, -3.093750000000, -2.398437500000, -1.875000000000, 1490674311
0.756103515625, 0.245361328125, 0.709716796875, -3.093750000000, -2.398437500000, -1.875000000000, 1490674311
0.756103515625, 0.245361328125, 0.709716796875, -3.093750000000, -2.398437500000, -1.875000000000, 1490674311
0.756103515625, 0.245361328125, 0.709716796875, -3.093750000000, -2.398437500000, -1.875000000000, 1490674311
0.619384765625, 0.273925781250, 0.760498046875, -3.578125000000, -2.976562500000, -3.875000000000, 1490674311
0.619384765625, 0.273925781250, 0.760498046875, -3.578125000000, -2.976562500000, -3.875000000000, 1490674311
0.619384765625, 0.273925781250, 0.760498046875, -3.578125000000, -2.976562500000, -3.875000000000, 1490674311
0.765869140625, 0.121582031250, 0.667480468750, -3.414062500000, 0.101562500000, -1.492187500000, 1490674311
0.765869140625, 0.121582031250, 0.667480468750, -3.414062500000, 0.101562500000, -1.492187500000, 1490674311
0.765869140625, 0.121582031250, 0.667480468750, -3.414062500000, 0.101562500000, -1.492187500000, 1490674311
0.746337890625, 0.179931640625, 0.722900390625, -6.039062500000, 0.640625000000, -2.507812500000, 1490674311
0.746337890625, 0.179931640625, 0.722900390625, -6.039062500000, 0.640625000000, -2.507812500000, 1490674311
0.746337890625, 0.179931640625, 0.722900390625, -6.039062500000, 0.640625000000, -2.507812500000, 1490674311
0.734863281250, 0.228759765625, 0.722167968750, -1.218750000000, 0.015625000000, -6.437500000000, 1490674311
0.734863281250, 0.228759765625, 0.722167968750, -1.218750000000, 0.015625000000, -6.437500000000, 1490674311
0.734863281250, 0.228759765625, 0.722167968750, -1.218750000000, 0.015625000000, -6.437500000000, 1490674311
0.734863281250, 0.228759765625, 0.722167968750, -1.218750000000, 0.015625000000, -6.437500000000, 1490674311
0.753173828125, 0.260986328125, 0.768066406250, -6.039062500000, 0.359375000000, -4.132812500000, 1490674311
0.753173828125, 0.260986328125, 0.768066406250, -6.039062500000, 0.359375000000, -4.132812500000, 1490674311
0.753173828125, 0.260986328125, 0.768066406250, -6.039062500000, 0.359375000000, -4.132812500000, 1490674311
0.792968750000, 0.243652343750, 0.674072265625, -3.062500000000, -0.234375000000, -4.445312500000, 1490674311
0.792968750000, 0.243652343750, 0.674072265625, -3.062500000000, -0.234375000000, -4.445312500000, 1490674311
0.667236328125, 0.333740234375, 0.752929687500, -4.898437500000, -0.351562500000, -6.195312500000, 1490674311
0.667236328125, 0.333740234375, 0.752929687500, -4.898437500000, -0.351562500000, -6.195312500000, 1490674311
0.667236328125, 0.333740234375, 0.752929687500, -4.898437500000, -0.351562500000, -6.195312500000, 1490674311
0.706054687500, 0.239257812500, 0.676269531250, -4.023437500000, 0.898437500000, -4.054687500000, 1490674311
0.706054687500, 0.239257812500, 0.676269531250, -4.023437500000, 0.898437500000, -4.054687500000, 1490674311
0.706054687500, 0.239257812500, 0.676269531250, -4.023437500000, 0.898437500000, -4.054687500000, 1490674311
0.706054687500, 0.239257812500, 0.676269531250, -4.023437500000, 0.898437500000, -4.054687500000, 1490674311
0.764160156250, 0.182128906250, 0.728271484375, -1.898437500000, 0.921875000000, -4.085937500000, 1490674311
0.764160156250, 0.182128906250, 0.728271484375, -1.898437500000, 0.921875000000, -4.085937500000, 1490674311
0.764160156250, 0.182128906250, 0.728271484375, -1.898437500000, 0.921875000000, -4.085937500000, 1490674311
0.764160156250, 0.182128906250, 0.728271484375, -1.898437500000, 0.921875000000, -4.085937500000, 1490674311
0.678222656250, 0.179931640625, 0.768798828125, -1.796875000000, 0.648437500000, -4.890625000000, 1490674311
0.678222656250, 0.179931640625, 0.768798828125, -1.796875000000, 0.648437500000, -4.890625000000, 1490674311
0.678222656250, 0.179931640625, 0.768798828125, -1.796875000000, 0.648437500000, -4.890625000000, 1490674311
0.763916015625, 0.266845703125, 0.772460937500, -1.882812500000, 0.367187500000, -3.742187500000, 1490674311
0.763916015625, 0.266845703125, 0.772460937500, -1.882812500000, 0.367187500000, -3.742187500000, 1490674311
0.763916015625, 0.266845703125, 0.772460937500, -1.882812500000, 0.367187500000, -3.742187500000, 1490674311
0.762695312500, 0.175781250000, 0.717041015625, -6.335937500000, -2.703125000000, -4.609375000000, 1490674311
0.762695312500, 0.175781250000, 0.717041015625, -6.335937500000, -2.703125000000, -4.609375000000, 1490674311
0.762695312500, 0.175781250000, 0.717041015625, -6.335937500000, -2.703125000000, -4.609375000000, 1490674311
0.762695312500, 0.175781250000, 0.717041015625, -6.335937500000, -2.703125000000, -4.609375000000, 1490674311
0.764404296875, 0.051513671875, 0.775634765625, -1.570312500000, -2.937500000000, -1.976562500000, 1490674311
0.764404296875, 0.051513671875, 0.775634765625, -1.570312500000, -2.937500000000, -1.976562500000, 1490674311
0.764404296875, 0.051513671875, 0.775634765625, -1.570312500000, -2.937500000000, -1.976562500000, 1490674311
0.681396484375, 0.215332031250, 0.685791015625, -4.421875000000, -2.460937500000, -5.648437500000, 1490674311
0.681396484375, 0.215332031250, 0.685791015625, -4.421875000000, -2.460937500000, -5.648437500000, 1490674311
0.681396484375, 0.215332031250, 0.685791015625, -4.421875000000, -2.460937500000, -5.648437500000, 1490674311
0.666259765625, 0.400878906250, 0.665039062500, -3.296875000000, -0.492187500000, -6.562500000000, 1490674311
0.666259765625, 0.400878906250, 0.665039062500, -3.296875000000, -0.492187500000, -6.562500000000, 1490674311
0.666259765625, 0.400878906250, 0.665039062500, -3.296875000000, -0.492187500000, -6.562500000000, 1490674311
0.691406250000, 0.252929687500, 0.675048828125, -5.000000000000, -2.007812500000, -6.335937500000, 1490674311
0.691406250000, 0.252929687500, 0.675048828125, -5.000000000000, -2.007812500000, -6.335937500000, 1490674311
0.753173828125, 0.264160156250, 0.756103515625, -2.007812500000, -0.710937500000, -6.906250000000, 1490674311
0.622558593750, 0.245117187500, 0.664550781250, -1.882812500000, 2.148437500000, -3.500000000000, 1490674311
0.622558593750, 0.245117187500, 0.664550781250, -1.882812500000, 2.148437500000, -3.500000000000, 1490674311
0.622558593750, 0.245117187500, 0.664550781250, -1.882812500000, 2.148437500000, -3.500000000000, 1490674311
0.622558593750, 0.245117187500, 0.664550781250, -1.882812500000, 2.148437500000, -3.500000000000, 1490674311
0.823730468750, 0.167236328125, 0.779052734375, -3.101562500000, -0.960937500000, -4.578125000000, 1490674311
0.823730468750, 0.167236328125, 0.779052734375, -3.101562500000, -0.960937500000, -4.578125000000, 1490674311
0.823730468750, 0.167236328125, 0.779052734375, -3.101562500000, -0.960937500000, -4.578125000000, 1490674311
0.770996093750, 0.218017578125, 0.739746093750, -1.546875000000, -0.867187500000, -6.312500000000, 1490674312
0.770996093750, 0.218017578125, 0.739746093750, -1.546875000000, -0.867187500000, -6.312500000000, 1490674312
0.770996093750, 0.218017578125, 0.739746093750, -1.546875000000, -0.867187500000, -6.312500000000, 1490674312
0.677001953125, 0.182861328125, 0.678222656250, -1.312500000000, -0.492187500000, -3.578125000000, 1490674312
0.677001953125, 0.182861328125, 0.678222656250, -1.312500000000, -0.492187500000, -3.578125000000, 1490674312
0.677001953125, 0.182861328125, 0.678222656250, -1.312500000000, -0.492187500000, -3.578125000000, 1490674312
0.677001953125, 0.182861328125, 0.678222656250, -1.312500000000, -0.492187500000, -3.578125000000, 1490674312
0.711914062500, 0.157470703125, 0.763183593750, -4.875000000000, -0.703125000000, -5.812500000000, 1490674312
0.711914062500, 0.157470703125, 0.763183593750, -4.875000000000, -0.703125000000, -5.812500000000, 1490674312
0.711914062500, 0.157470703125, 0.763183593750, -4.875000000000, -0.703125000000, -5.812500000000, 1490674312
0.720458984375, 0.226562500000, 0.681396484375, -2.734375000000, 2.226562500000, -4.359375000000, 1490674312
0.720458984375, 0.226562500000, 0.681396484375, -2.734375000000, 2.226562500000, -4.359375000000, 1490674312
0.720458984375, 0.226562500000, 0.681396484375, -2.734375000000, 2.226562500000, -4.359375000000, 1490674312
0.755126953125, 0.292480468750, 0.762207031250, -1.531250000000, 2.296875000000, -3.335937500000, 1490674312
0.755126953125, 0.292480468750, 0.762207031250, -1.531250000000, 2.296875000000, -3.335937500000, 1490674312
