ACC_X,ACC_Y,ACC_Z,G_X,G_Y,G_Z,Unix Time
0.054443359375, -0.842529296875, 0.590332031250, -1.843750000000, -2.140625000000, -4.976562500000, 1490674757
0.054443359375, -0.842529296875, 0.590332031250, -1.843750000000, -2.140625000000, -4.976562500000, 1490674757
0.054443359375, -0.842529296875, 0.590332031250, -1.843750000000, -2.140625000000, -4.976562500000, 1490674757
0.102294921875, -0.904785156250, 0.473144531250, -4.007812500000, 0.820312500000, -4.117187500000, 1490674757
0.102294921875, -0.904785156250, 0.473144531250, -4.007812500000, 0.820312500000, -4.117187500000, 1490674757
0.102294921875, -0.904785156250, 0.473144531250, -4.007812500000, 0.820312500000, -4.117187500000, 1490674757
0.154541015625, -0.729736328125, 0.512695312500, -4.953125000000, -1.343750000000, -6.625000000000, 1490674757
0.154541015625, -0.729736328125, 0.512695312500, -4.953125000000, -1.343750000000, -6.625000000000, 1490674757
0.154541015625, -0.729736328125, 0.512695312500, -4.953125000000, -1.343750000000, -6.625000000000, 1490674757
0.108154296875, -0.908935546875, 0.597656250000, -4.804687500000, -0.632812500000, -5.171875000000, 1490674757
0.120361328125, -0.817138671875, 0.531738281250, -5.265625000000, -2.937500000000, -3.796875000000, 1490674757
0.120361328125, -0.817138671875, 0.531738281250, -5.265625000000, -2.937500000000, -3.796875000000, 1490674757
0.120361328125, -0.817138671875, 0.531738281250, -5.265625000000, -2.937500000000, -3.796875000000, 1490674757
0.120361328125, -0.817138671875, 0.531738281250, -5.265625000000, -2.937500000000, -3.796875000000, 1490674757
0.120361328125, -0.817138671875, 0.531738281250, -5.265625000000, -2.937500000000, -3.796875000000, 1490674757
0.191650390625, -0.897460937500, 0.524169921875, -5.242187500000, -1.781250000000, -6.117187500000, 1490674758
0.090576171875, -0.941162109375, 0.517822265625, -4.312500000000, -2.796875000000, -3.187500000000, 1490674758
0.090576171875, -0.941162109375, 0.517822265625, -4.312500000000, -2.796875000000, -3.187500000000, 1490674758
0.090576171875, -0.941162109375, 0.517822265625, -4.312500000000, -2.796875000000, -3.187500000000, 1490674758
0.208496093750, -0.791748046875, 0.482910156250, -6.195312500000, -2.867187500000, -4.562500000000, 1490674758
0.208496093750, -0.791748046875, 0.482910156250, -6.195312500000, -2.867187500000, -4.562500000000, 1490674758
0.208496093750, -0.791748046875, 0.482910156250, -6.195312500000, -2.867187500000, -4.562500000000, 1490674758
0.103759765625, -0.868896484375, 0.474853515625, -3.093750000000, 0.179687500000, -1.890625000000, 1490674758
0.103759765625, -0.868896484375, 0.474853515625, -3.093750000000, 0.179687500000, -1.890625000000, 1490674758
0.103759765625, -0.868896484375, 0.474853515625, -3.093750000000, 0.179687500000, -1.890625000000, 1490674758
0.103759765625, -0.868896484375, 0.474853515625, -3.093750000000, 0.179687500000, -1.890625000000, 1490674758
0.259521484375, -0.874267578125, 0.543457031250, -3.046875000000, 0.656250000000, -0.289062500000, 1490674758
0.259521484375, -0.874267578125, 0.543457031250, -3.046875000000, 0.656250000000, -0.289062500000, 1490674758
0.259521484375, -0.874267578125, 0.543457031250, -3.046875000000, 0.656250000000, -0.289062500000, 1490674758
0.191650390625, -0.943603515625, 0.555175781250, -4.992187500000, 2.914062500000, 1.031250000000, 1490674758
0.191650390625, -0.943603515625, 0.555175781250, -4.992187500000, 2.914062500000, 1.031250000000, 1490674758
0.191650390625, -0.943603515625, 0.555175781250, -4.992187500000, 2.914062500000, 1.031250000000, 1490674758
0.054443359375, -0.887207031250, 0.550781250000, -6.609375000000, 2.750000000000, 0.273437500000, 1490674758
0.054443359375, -0.887207031250, 0.550781250000, -6.609375000000, 2.750000000000, 0.273437500000, 1490674758
0.104492187500, -0.792724609375, 0.484863281250, -4.195312500000, 1.257812500000, -0.171875000000, 1490674758
0.104492187500, -0.792724609375, 0.484863281250, -4.195312500000, 1.257812500000, -0.171875000000, 1490674758
0.104492187500, -0.792724609375, 0.484863281250, -4.195312500000, 1.257812500000, -0.171875000000, 1490674758
0.104492187500, -0.792724609375, 0.484863281250, -4.195312500000, 1.257812500000, -0.171875000000, 1490674758
0.149414062500, -0.885253906250, 0.473632812500, -6.796875000000, 1.187500000000, 0.593750000000, 1490674758
0.149414062500, -0.885253906250, 0.473632812500, -6.796875000000, 1.187500000000, 0.593750000000, 1490674758
0.149414062500, -0.885253906250, 0.473632812500, -6.796875000000, 1.187500000000, 0.593750000000, 1490674758
0.149414062500, -0.885253906250, 0.473632812500, -6.796875000000, 1.187500000000, 0.593750000000, 1490674758
0.108398437500, -0.800292968750, 0.566894531250, -3.625000000000, 1.101562500000, -0.570312500000, 1490674758
0.193115234375, -0.831542968750, 0.583251953125, -1.656250000000, 2.046875000000, 2.375000000000, 1490674758
0.135742187500, -0.875244140625, 0.572998046875, 0.875000000000, 2.062500000000, -2.398437500000, 1490674758
0.135742187500, -0.875244140625, 0.572998046875, 0.875000000000, 2.062500000000, -2.398437500000, 1490674758
0.135742187500, -0.875244140625, 0.572998046875, 0.875000000000, 2.062500000000, -2.398437500000, 1490674758
0.135742187500, -0.875244140625, 0.572998046875, 0.875000000000, 2.062500000000, -2.398437500000, 1490674758
0.188476562500, -0.797851562500, 0.590332031250, -3.492187500000, 2.570312500000, -0.500000000000, 1490674758
0.188476562500, -0.797851562500, 0.590332031250, -3.492187500000, 2.570312500000, -0.500000000000, 1490674758
0.188476562500, -0.797851562500, 0.590332031250, -3.492187500000, 2.570312500000, -0.500000000000, 1490674758
0.188476562500, -0.797851562500, 0.590332031250, -3.492187500000, 2.570312500000, -0.500000000000, 1490674758
0.188476562500, -0.797851562500, 0.590332031250, -3.492187500000, 2.570312500000, -0.500000000000, 1490674758
0.188476562500, -0.797851562500, 0.590332031250, -3.492187500000, 2.570312500000, -0.500000000000, 1490674758
0.145507812500, -0.797851562500, 0.518554687500, 0.921875000000, 2.484375000000, -4.132812500000, 1490674758
0.145507812500, -0.797851562500, 0.518554687500, 0.921875000000, 2.484375000000, -4.132812500000, 1490674758
0.145507812500, -0.797851562500, 0.518554687500, 0.921875000000, 2.484375000000, -4.132812500000, 1490674758
0.145507812500, -0.797851562500, 0.518554687500, 0.921875000000, 2.484375000000, -4.132812500000, 1490674758
0.194580078125, -0.954345703125, 0.593017578125, -1.343750000000, 2.882812500000, -2.117187500000, 1490674758
0.194580078125, -0.954345703125, 0.593017578125, -1.343750000000, 2.882812500000, -2.117187500000, 1490674758
0.194580078125, -0.954345703125, 0.593017578125, -1.343750000000, 2.882812500000, -2.117187500000, 1490674758
0.148681640625, -0.800292968750, 0.593017578125, -1.617187500000, 4.320312500000, -4.343750000000, 1490674758
0.148681640625, -0.800292968750, 0.593017578125, -1.617187500000, 4.320312500000, -4.343750000000, 1490674758
0.148681640625, -0.800292968750, 0.593017578125, -1.617187500000, 4.320312500000, -4.343750000000, 1490674758
0.148681640625, -0.800292968750, 0.593017578125, -1.617187500000, 4.320312500000, -4.343750000000, 1490674758
0.112304687500, -0.861572265625, 0.494628906250, -2.390625000000, -0.695312500000, 0.046875000000, 1490674758
0.112304687500, -0.861572265625, 0.494628906250, -2.390625000000, -0.695312500000, 0.046875000000, 1490674758
0.112304687500, -0.861572265625, 0.494628906250, -2.390625000000, -0.695312500000, 0.046875000000, 1490674758
0.163330078125, -0.952148437500, 0.591796875000, -1.148437500000, 1.500000000000, -4.750000000000, 1490674758
0.163330078125, -0.952148437500, 0.591796875000, -1.148437500000, 1.500000000000, -4.750000000000, 1490674758
0.163330078125, -0.952148437500, 0.591796875000, -1.148437500000, 1.500000000000, -4.750000000000, 1490674758
0.126708984375, -0.800048828125, 0.576171875000, -3.570312500000, 2.851562500000, -3.500000000000, 1490674758
0.126708984375, -0.800048828125, 0.576171875000, -3.570312500000, 2.851562500000, -3.500000000000, 1490674758
0.126708984375, -0.800048828125, 0.576171875000, -3.570312500000, 2.851562500000, -3.500000000000, 1490674758
0.127929687500, -0.958251953125, 0.513671875000, -6.648437500000, 1.640625000000, -4.265625000000, 1490674758
0.127929687500, -0.958251953125, 0.513671875000, -6.648437500000, 1.640625000000, -4.265625000000, 1490674758
0.127929687500, -0.958251953125, 0.513671875000, -6.648437500000, 1.640625000000, -4.265625000000, 1490674758
0.099365234375, -0.861816406250, 0.493164062500, -4.593750000000, 4.039062500000, -1.078125000000, 1490674758
0.123291015625, -0.847167968750, 0.499023437500, -4.593750000000, 4.039062500000, -1.078125000000, 1490674758
0.123291015625, -0.847167968750, 0.499023437500, -4.593750000000, 4.039062500000, -1.078125000000, 1490674758
0.123291015625, -0.847167968750, 0.499023437500, -4.593750000000, 4.039062500000, -1.078125000000, 1490674758
0.054687500000, -0.865234375000, 0.476562500000, -6.453125000000, -0.164062500000, -1.195312500000, 1490674758
0.054687500000, -0.865234375000, 0.476562500000, -6.453125000000, -0.164062500000, -1.195312500000, 1490674759
0.054687500000, -0.865234375000, 0.476562500000, -6.453125000000, -0.164062500000, -1.195312500000, 1490674759
0.153320312500, -0.828125000000, 0.435302734375, -3.406250000000, 4.531250000000, -2.742187500000, 1490674759
0.153320312500, -0.828125000000, 0.435302734375, -3.406250000000, 4.531250000000, -2.742187500000, 1490674759
0.153320312500, -0.828125000000, 0.435302734375, -3.406250000000, 4.531250000000, -2.742187500000, 1490674759
0.218261718750, -0.836669921875, 0.522949218750, -5.414062500000, 2.593750000000, -2.476562500000, 1490674759
0.218261718750, -0.836669921875, 0.522949218750, -5.414062500000, 2.593750000000, -2.476562500000, 1490674759
0.140869140625, -0.827148437500, 0.505371093750, -6.437500000000, 0.851562500000, -3.179687500000, 1490674759
0.140869140625, -0.827148437500, 0.505371093750, -6.437500000000, 0.851562500000, -3.179687500000, 1490674759
0.194335937500, -0.957031250000, 0.476074218750, -3.085937500000, -0.632812500000, -4.359375000000, 1490674759
0.194335937500, -0.957031250000, 0.476074218750, -3.085937500000, -0.632812500000, -4.359375000000, 1490674759
0.194335937500, -0.957031250000, 0.476074218750, -3.085937500000, -0.632812500000, -4.359375000000, 1490674759
0.194335937500, -0.957031250000, 0.476074218750, -3.085937500000, -0.632812500000, -4.359375000000, 1490674759
0.194335937500, -0.957031250000, 0.476074218750, -3.085937500000, -0.632812500000, -4.359375000000, 1490674759
0.194335937500, -0.957031250000, 0.476074218750, -3.085937500000, -0.632812500000, -4.359375000000, 1490674759
0.194335937500, -0.957031250000, 0.476074218750, -3.085937500000, -0.632812500000, -4.359375000000, 1490674759
0.194335937500, -0.957031250000, 0.476074218750, -3.085937500000, -0.632812500000, -4.359375000000, 1490674759
0.132080078125, -0.852294921875, 0.470458984375, -4.859375000000, 0.250000000000, -2.500000000000, 1490674759
0.213623046875, -0.927001953125, 0.506103515625, -2.953125000000, 0.515625000000, -4.671875000000, 1490674759
0.213623046875, -0.927001953125, 0.506103515625, -2.953125000000, 0.515625000000, -4.671875000000, 1490674759
0.213623046875, -0.927001953125, 0.506103515625, -2.953125000000, 0.515625000000, -4.671875000000, 1490674759
0.213623046875, -0.927001953125, 0.506103515625, -2.953125000000, 0.515625000000, -4.671875000000, 1490674759
0.150878906250, -0.962890625000, 0.459716796875, -4.320312500000, -0.343750000000, -2.750000000000, 1490674759
0.150878906250, -0.962890625000, 0.459716796875, -4.320312500000, -0.343750000000, -2.750000000000, 1490674759
0.150878906250, -0.962890625000, 0.459716796875, -4.320312500000, -0.343750000000, -2.750000000000, 1490674759
0.054199218750, -0.901367187500, 0.576416015625, -4.117187500000, 0.867187500000, -1.726562500000, 1490674759
0.054199218750, -0.901367187500, 0.576416015625, -4.117187500000, 0.867187500000, -1.726562500000, 1490674759
0.054199218750, -0.901367187500, 0.576416015625, -4.117187500000, 0.867187500000, -1.726562500000, 1490674759
0.047851562500, -0.887695312500, 0.488281250000, -4.664062500000, -0.578125000000, -1.382812500000, 1490674759
0.047851562500, -0.887695312500, 0.488281250000, -4.664062500000, -0.578125000000, -1.382812500000, 1490674759
0.047851562500, -0.887695312500, 0.488281250000, -4.664062500000, -0.578125000000, -1.382812500000, 1490674759
0.038330078125, -0.863769531250, 0.570556640625, -4.812500000000, 0.921875000000, -4.710937500000, 1490674759
0.038330078125, -0.863769531250, 0.570556640625, -4.812500000000, 0.921875000000, -4.710937500000, 1490674759
0.038330078125, -0.863769531250, 0.570556640625, -4.812500000000, 0.921875000000, -4.710937500000, 1490674759
0.038330078125, -0.863769531250, 0.570556640625, -4.812500000000, 0.921875000000, -4.710937500000, 1490674759
0.062011718750, -0.806396484375, 0.520263671875, -4.648437500000, -0.531250000000, -2.804687500000, 1490674759
0.062011718750, -0.806396484375, 0.520263671875, -4.648437500000, -0.531250000000, -2.804687500000, 1490674759
0.062011718750, -0.806396484375, 0.520263671875, -4.648437500000, -0.531250000000, -2.804687500000, 1490674759
0.216308593750, -0.791503906250, 0.488525390625, -3.953125000000, -2.609375000000, -4.554687500000, 1490674759
0.216308593750, -0.791503906250, 0.488525390625, -3.953125000000, -2.609375000000, -4.554687500000, 1490674759
0.216308593750, -0.791503906250, 0.488525390625, -3.953125000000, -2.609375000000, -4.554687500000, 1490674759
0.120605468750, -0.864746093750, 0.592529296875, -1.218750000000, 0.953125000000, -1.015625000000, 1490674759
0.120605468750, -0.864746093750, 0.592529296875, -1.218750000000, 0.953125000000, -1.015625000000, 1490674759
0.120605468750, -0.864746093750, 0.592529296875, -1.218750000000, 0.953125000000, -1.015625000000, 1490674759
0.108886718750, -0.902099609375, 0.436523437500, -3.156250000000, -2.968750000000, -3.023437500000, 1490674759
0.108886718750, -0.902099609375, 0.436523437500, -3.156250000000, -2.968750000000, -3.023437500000, 1490674759
0.108886718750, -0.902099609375, 0.436523437500, -3.156250000000, -2.968750000000, -3.023437500000, 1490674759
0.108886718750, -0.902099609375, 0.436523437500, -3.156250000000, -2.968750000000, -3.023437500000, 1490674759
0.123291015625, -0.947509765625, 0.510009765625, -1.679687500000, -0.250000000000, -4.562500000000, 1490674759
0.123291015625, -0.947509765625, 0.510009765625, -1.679687500000, -0.250000000000, -4.562500000000, 1490674759
0.123291015625, -0.947509765625, 0.510009765625, -1.679687500000, -0.250000000000, -4.562500000000, 1490674759
0.132080078125, -0.806640625000, 0.571289062500, -5.015625000000, -2.570312500000, -1.187500000000, 1490674759
0.132080078125, -0.806640625000, 0.571289062500, -5.015625000000, -2.570312500000, -1.187500000000, 1490674759
0.132080078125, -0.806640625000, 0.571289062500, -5.015625000000, -2.570312500000, -1.187500000000, 1490674759
0.158935546875, -0.863525390625, 0.522705078125, -3.101562500000, 0.718750000000, -3.070312500000, 1490674759
0.141845703125, -0.883544921875, 0.436035156250, -4.609375000000, -0.218750000000, -1.601562500000, 1490674759
0.141845703125, -0.883544921875, 0.436035156250, -4.609375000000, -0.218750000000, -1.601562500000, 1490674759
0.121826171875, -0.967041015625, 0.493164062500, -3.960937500000, 2.242187500000, -2.023437500000, 1490674759
0.121826171875, -0.967041015625, 0.493164062500, -3.960937500000, 2.242187500000, -2.023437500000, 1490674759
0.121826171875, -0.967041015625, 0.493164062500, -3.960937500000, 2.242187500000, -2.023437500000, 1490674759
0.121826171875, -0.967041015625, 0.493164062500, -3.960937500000, 2.242187500000, -2.023437500000, 1490674759
0.121826171875, -0.967041015625, 0.493164062500, -3.960937500000, 2.242187500000, -2.023437500000, 1490674759
0.110107421875, -0.795654296875, 0.530273437500, -6.578125000000, 2.367187500000, -1.343750000000, 1490674759
0.214355468750, -0.882324218750, 0.489990234375, -6.578125000000, 2.367187500000, -1.343750000000, 1490674759
0.214355468750, -0.882324218750, 0.489990234375, -6.578125000000, 2.367187500000, -1.343750000000, 1490674759
0.214355468750, -0.882324218750, 0.489990234375, -6.578125000000, 2.367187500000, -1.343750000000, 1490674759
0.214355468750, -0.882324218750, 0.489990234375, -6.578125000000, 2.367187500000, -1.343750000000, 1490674759
0.201660156250, -0.876953125000, 0.528808593750, -6.726562500000, 2.726562500000, -3.507812500000, 1490674760
0.201660156250, -0.876953125000, 0.528808593750, -6.726562500000, 2.726562500000, -3.507812500000, 1490674760
0.191406250000, -0.894287109375, 0.518798828125, -1.843750000000, 1.703125000000, -1.476562500000, 1490674760
0.191406250000, -0.894287109375, 0.518798828125, -1.843750000000, 1.703125000000, -1.476562500000, 1490674760
0.191406250000, -0.894287109375, 0.518798828125, -1.843750000000, 1.703125000000, -1.476562500000, 1490674760
0.191406250000, -0.894287109375, 0.518798828125, -1.843750000000, 1.703125000000, -1.476562500000, 1490674760
0.191406250000, -0.894287109375, 0.518798828125, -3.289062500000, 3.320312500000, -2.632812500000, 1490674760
0.114257812500, -0.790771484375, 0.531494140625, -6.773437500000, -0.625000000000, -1.140625000000, 1490674760
0.114257812500, -0.790771484375, 0.531494140625, -6.773437500000, -0.625000000000, -1.140625000000, 1490674760
0.114257812500, -0.790771484375, 0.531494140625, -6.773437500000, -0.625000000000, -1.140625000000, 1490674760
0.260253906250, -0.886474609375, 0.535400390625, -3.000000000000, 2.562500000000, -6.710937500000, 1490674760
0.260253906250, -0.886474609375, 0.535400390625, -3.000000000000, 2.562500000000, -6.710937500000, 1490674760
0.260253906250, -0.886474609375, 0.535400390625, -3.000000000000, 2.562500000000, -6.710937500000, 1490674760
0.053466796875, -0.960205078125, 0.487792968750, -6.226562500000, 1.500000000000, 0.265625000000, 1490674760
0.053466796875, -0.960205078125, 0.487792968750, -6.226562500000, 1.500000000000, 0.265625000000, 1490674760
0.053466796875, -0.960205078125, 0.487792968750, -6.226562500000, 1.500000000000, 0.265625000000, 1490674760
0.180664062500, -0.807128906250, 0.498535156250, -2.203125000000, -0.273437500000, -0.648437500000, 1490674760
0.180664062500, -0.807128906250, 0.498535156250, -2.203125000000, -0.273437500000, -0.648437500000, 1490674760
0.180664062500, -0.807128906250, 0.498535156250, -2.203125000000, -0.273437500000, -0.648437500000, 1490674760
0.180664062500, -0.807128906250, 0.498535156250, -2.203125000000, -0.273437500000, -0.648437500000, 1490674760
0.059326171875, -0.959228515625, 0.467041015625, -3.539062500000, 1.679687500000, -3.062500000000, 1490674760
0.059326171875, -0.959228515625, 0.467041015625, -3.539062500000, 1.679687500000, -3.062500000000, 1490674760
0.059326171875, -0.959228515625, 0.467041015625, -3.539062500000, 1.679687500000, -3.062500000000, 1490674760
0.135009765625, -0.862060546875, 0.515136718750, -4.320312500000, 2.507812500000, 1.359375000000, 1490674760
0.135009765625, -0.862060546875, 0.515136718750, -4.320312500000, 2.507812500000, 1.359375000000, 1490674760
0.135009765625, -0.862060546875, 0.515136718750, -4.320312500000, 2.507812500000, 1.359375000000, 1490674760
0.148681640625, -0.808837890625, 0.531250000000, -6.312500000000, -0.546875000000, -2.617187500000, 1490674760
0.148681640625, -0.808837890625, 0.531250000000, -6.312500000000, -0.546875000000, -2.617187500000, 1490674760
0.101074218750, -1.007324218750, 0.562011718750, -3.937500000000, 3.625000000000, -4.296875000000, 1490674760
0.101074218750, -1.007324218750, 0.562011718750, -3.937500000000, 3.625000000000, -4.296875000000, 1490674760
0.101074218750, -1.007324218750, 0.562011718750, -3.937500000000, 3.625000000000, -4.296875000000, 1490674760
0.101074218750, -1.007324218750, 0.562011718750, -3.937500000000, 3.625000000000, -4.296875000000, 1490674760
0.101074218750, -1.007324218750, 0.562011718750, -3.937500000000, 3.625000000000, -4.296875000000, 1490674760
0.152343750000, -0.795898437500, 0.516601562500, -3.875000000000, 1.687500000000, -6.101562500000, 1490674760
0.152343750000, -0.795898437500, 0.516601562500, -3.875000000000, 1.687500000000, -6.101562500000, 1490674760
0.152343750000, -0.795898437500, 0.516601562500, -3.875000000000, 1.687500000000, -6.101562500000, 1490674760
0.115722656250, -0.850585937500, 0.480712890625, -1.554687500000, 0.367187500000, -4.773437500000, 1490674760
0.115722656250, -0.850585937500, 0.480712890625, -1.554687500000, 0.367187500000, -4.773437500000, 1490674760
0.115722656250, -0.850585937500, 0.480712890625, -1.554687500000, 0.367187500000, -4.773437500000, 1490674760
0.130859375000, -0.838134765625, 0.483398437500, -7.085937500000, 1.570312500000, -2.960937500000, 1490674760
0.130859375000, -0.838134765625, 0.483398437500, -7.085937500000, 1.570312500000, -2.960937500000, 1490674760
0.130859375000, -0.838134765625, 0.483398437500, -7.085937500000, 1.570312500000, -2.960937500000, 1490674760
0.108642578125, -0.893310546875, 0.485351562500, -1.117187500000, 2.039062500000, -5.031250000000, 1490674760
0.108642578125, -0.893310546875, 0.485351562500, -1.117187500000, 2.039062500000, -5.031250000000, 1490674760
0.108642578125, -0.893310546875, 0.485351562500, -1.117187500000, 2.039062500000, -5.031250000000, 1490674760
0.108642578125, -0.893310546875, 0.485351562500, -1.117187500000, 2.039062500000, -5.031250000000, 1490674760
0.098388671875, -0.899169921875, 0.488281250000, -8.828125000000, -0.976562500000, -6.382812500000, 1490674760
0.098388671875, -0.899169921875, 0.488281250000, -8.828125000000, -0.976562500000, -6.382812500000, 1490674760
0.098388671875, -0.899169921875, 0.488281250000, -8.828125000000, -0.976562500000, -6.382812500000, 1490674760
0.140869140625, -1.002929687500, 0.574951171875, -5.882812500000, -2.890625000000, -4.101562500000, 1490674760
0.140869140625, -1.002929687500, 0.574951171875, -5.882812500000, -2.890625000000, -4.101562500000, 1490674760
-0.010253906250, -0.962890625000, 0.617187500000, -3.828125000000, -0.921875000000, 1.437500000000, 1490674760
-0.010253906250, -0.962890625000, 0.617187500000, -3.828125000000, -0.921875000000, 1.437500000000, 1490674760
-0.010253906250, -0.962890625000, 0.617187500000, -3.828125000000, -0.921875000000, 1.437500000000, 1490674760
-0.010253906250, -0.962890625000, 0.617187500000, -3.828125000000, -0.921875000000, 1.437500000000, 1490674760
-0.185791015625, -0.911865234375, 0.779541015625, -9.250000000000, 8.296875000000, 13.015625000000, 1490674760
-0.185791015625, -0.911865234375, 0.779541015625, -9.250000000000, 8.296875000000, 13.015625000000, 1490674760
-0.185791015625, -0.911865234375, 0.779541015625, -9.250000000000, 8.296875000000, 13.015625000000, 1490674760
-0.364501953125, -0.939941406250, 0.559814453125, -40.242187500000, 17.156250000000, 22.664062500000, 1490674760
-0.364501953125, -0.939941406250, 0.559814453125, -40.242187500000, 17.156250000000, 22.664062500000, 1490674760
-0.364501953125, -0.939941406250, 0.559814453125, -40.242187500000, 17.156250000000, 22.664062500000, 1490674760
-0.282226562500, -0.630126953125, 0.364746093750, -0.437500000000, -17.500000000000, 33.359375000000, 1490674760
-0.282226562500, -0.630126953125, 0.364746093750, -0.437500000000, -17.500000000000, 33.359375000000, 1490674760
-0.282226562500, -0.630126953125, 0.364746093750, -0.437500000000, -17.500000000000, 33.359375000000, 1490674760
-0.282226562500, -0.630126953125, 0.364746093750, -0.437500000000, -17.500000000000, 33.359375000000, 1490674760
-0.271972656250, -0.605712890625, 0.466064453125, 33.023437500000, 38.460937500000, 48.375000000000, 1490674760
-0.271972656250, -0.605712890625, 0.466064453125, 33.023437500000, 38.460937500000, 48.375000000000, 1490674760
-0.271972656250, -0.605712890625, 0.466064453125, 33.023437500000, 38.460937500000, 48.375000000000, 1490674761
-0.149414062500, -0.616943359375, 0.198730468750, 42.640625000000, -145.171875000000, 108.414062500000, 1490674761
-0.149414062500, -0.616943359375, 0.198730468750, 42.640625000000, -145.171875000000, 108.414062500000, 1490674761
-0.149414062500, -0.616943359375, 0.198730468750, 42.640625000000, -145.171875000000, 108.414062500000, 1490674761
-0.149414062500, -0.616943359375, 0.198730468750, 42.640625000000, -145.171875000000, 108.414062500000, 1490674761
-0.060302734375, -0.898437500000, 0.403564453125, 26.679687500000, 128.531250000000, 118.328125000000, 1490674761
-0.060302734375, -0.898437500000, 0.403564453125, 26.679687500000, 128.531250000000, 118.328125000000, 1490674761
-0.060302734375, -0.898437500000, 0.403564453125, 26.679687500000, 128.531250000000, 118.328125000000, 1490674761
-0.079833984375, -0.805419921875, 0.798339843750, 18.523437500000, 34.367187500000, 60.617187500000, 1490674761
-0.079833984375, -0.805419921875, 0.798339843750, 18.523437500000, 34.367187500000, 60.617187500000, 1490674761
-0.079833984375, -0.805419921875, 0.798339843750, 18.523437500000, 34.367187500000, 60.617187500000, 1490674761
0.075683593750, -0.798828125000, 0.348144531250, 2.320312500000, -5.359375000000, 65.523437500000, 1490674761
0.075683593750, -0.798828125000, 0.348144531250, 2.320312500000, -5.359375000000, 65.523437500000, 1490674761
0.075683593750, -0.798828125000, 0.348144531250, 2.320312500000, -5.359375000000, 65.523437500000, 1490674761
0.000732421875, -0.305419921875, 0.148681640625, 42.765625000000, -46.140625000000, 85.179687500000, 1490674761
0.000732421875, -0.305419921875, 0.148681640625, 42.765625000000, -46.140625000000, 85.179687500000, 1490674761
0.000732421875, -0.305419921875, 0.148681640625, 42.765625000000, -46.140625000000, 85.179687500000, 1490674761
-0.070312500000, -0.352783203125, 0.131835937500, 50.851562500000, -70.757812500000, 86.078125000000, 1490674761
-0.155517578125, -0.361572265625, 0.265625000000, 62.742187500000, -120.140625000000, 110.007812500000, 1490674761
-0.155517578125, -0.361572265625, 0.265625000000, 62.742187500000, -120.140625000000, 110.007812500000, 1490674761
-0.155517578125, -0.361572265625, 0.265625000000, 62.742187500000, -120.140625000000, 110.007812500000, 1490674761
-0.053466796875, -0.394531250000, 0.161376953125, -7.195312500000, 10.671875000000, 79.289062500000, 1490674761
-0.053466796875, -0.394531250000, 0.161376953125, -7.195312500000, 10.671875000000, 79.289062500000, 1490674761
-0.053466796875, -0.394531250000, 0.161376953125, -7.195312500000, 10.671875000000, 79.289062500000, 1490674761
0.104003906250, -0.179443359375, -0.003173828125, 27.031250000000, -78.718750000000, 86.828125000000, 1490674761
0.104003906250, -0.179443359375, -0.003173828125, 27.031250000000, -78.718750000000, 86.828125000000, 1490674761
0.104003906250, -0.179443359375, -0.003173828125, 27.031250000000, -78.718750000000, 86.828125000000, 1490674761
0.113281250000, 0.261230468750, 0.053222656250, 83.304687500000, -119.484375000000, 39.796875000000, 1490674761
0.113281250000, 0.261230468750, 0.053222656250, 83.304687500000, -119.484375000000, 39.796875000000, 1490674761
0.113281250000, 0.261230468750, 0.053222656250, 83.304687500000, -119.484375000000, 39.796875000000, 1490674761
0.113281250000, 0.261230468750, 0.053222656250, 83.304687500000, -119.484375000000, 39.796875000000, 1490674761
0.374755859375, 0.292236328125, 0.309326171875, -27.320312500000, 23.531250000000, 35.164062500000, 1490674761
0.374755859375, 0.292236328125, 0.309326171875, -27.320312500000, 23.531250000000, 35.164062500000, 1490674761
0.374755859375, 0.292236328125, 0.309326171875, -27.320312500000, 23.531250000000, 35.164062500000, 1490674761
0.019775390625, 0.155273437500, 0.080322265625, -96.171875000000, 67.742187500000, 109.968750000000, 1490674761
0.019775390625, 0.155273437500, 0.080322265625, -96.171875000000, 67.742187500000, 109.968750000000, 1490674761
0.019775390625, 0.155273437500, 0.080322265625, -96.171875000000, 67.742187500000, 109.968750000000, 1490674761
2.063476562500, -1.042724609375, 0.912841796875, -256.000000000000, 253.992187500000, 89.007812500000, 1490674761
2.063476562500, -1.042724609375, 0.912841796875, -256.000000000000, 253.992187500000, 89.007812500000, 1490674761
1.816406250000, -1.128173828125, 1.246337890625, -41.640625000000, -124.656250000000, -194.781250000000, 1490674761
1.816406250000, -1.128173828125, 1.246337890625, -41.640625000000, -124.656250000000, -194.781250000000, 1490674761
1.816406250000, -1.128173828125, 1.246337890625, -41.640625000000, -124.656250000000, -194.781250000000, 1490674761
2.448730468750, -1.433105468750, 0.914306640625, -250.085937500000, 253.992187500000, 253.992187500000, 1490674761
2.448730468750, -1.433105468750, 0.914306640625, -250.085937500000, 253.992187500000, 253.992187500000, 1490674761
2.448730468750, -1.433105468750, 0.914306640625, -250.085937500000, 253.992187500000, 253.992187500000, 1490674761
2.448730468750, -1.433105468750, 0.914306640625, -250.085937500000, 253.992187500000, 253.992187500000, 1490674761
2.448730468750, -1.433105468750, 0.914306640625, -256.000000000000, 253.992187500000, 192.976562500000, 1490674761
0.338378906250, 0.193359375000, 0.139404296875, -256.000000000000, -206.960937500000, -131.257812500000, 1490674761
0.338378906250, 0.193359375000, 0.139404296875, -256.000000000000, -206.960937500000, -131.257812500000, 1490674761
0.338378906250, 0.193359375000, 0.139404296875, -256.000000000000, -206.960937500000, -131.257812500000, 1490674761
0.229492187500, 0.395507812500, 0.139892578125, -256.000000000000, -256.000000000000, 65.351562500000, 1490674761
0.229492187500, 0.395507812500, 0.139892578125, -256.000000000000, -256.000000000000, 65.351562500000, 1490674761
0.229492187500, 0.395507812500, 0.139892578125, -256.000000000000, -256.000000000000, 65.351562500000, 1490674761
0.380126953125, -0.145751953125, 0.048095703125, -256.000000000000, -9.664062500000, 142.945312500000, 1490674761
0.380126953125, -0.145751953125, 0.048095703125, -256.000000000000, -9.664062500000, 142.945312500000, 1490674761
0.380126953125, -0.145751953125, 0.048095703125, -256.000000000000, -9.664062500000, 142.945312500000, 1490674761
0.380126953125, -0.145751953125, 0.048095703125, -256.000000000000, -9.664062500000, 142.945312500000, 1490674761
0.468994140625, -0.415527343750, -0.047363281250, -256.000000000000, 29.406250000000, 169.726562500000, 1490674761
0.468994140625, -0.415527343750, -0.047363281250, -256.000000000000, 29.406250000000, 169.726562500000, 1490674761
0.468994140625, -0.415527343750, -0.047363281250, -256.000000000000, 29.406250000000, 169.726562500000, 1490674761
0.111328125000, 0.012451171875, -0.079833984375, -256.000000000000, 90.062500000000, 175.578125000000, 1490674761
0.111328125000, 0.012451171875, -0.079833984375, -256.000000000000, 90.062500000000, 175.578125000000, 1490674761
0.111328125000, 0.012451171875, -0.079833984375, -256.000000000000, 90.062500000000, 175.578125000000, 1490674761
-0.016845703125, 0.214843750000, -0.149658203125, -256.000000000000, 253.992187500000, 159.726562500000, 1490674761
-0.016845703125, 0.214843750000, -0.149658203125, -256.000000000000, 253.992187500000, 159.726562500000, 1490674761
-0.016845703125, 0.214843750000, -0.149658203125, -256.000000000000, 253.992187500000, 159.726562500000, 1490674761
3.996582031250, 2.700195312500, -7.937255859375, -256.000000000000, 253.992187500000, -189.257812500000, 1490674762
3.996582031250, 2.700195312500, -7.937255859375, -256.000000000000, 253.992187500000, -189.257812500000, 1490674762
3.996582031250, 2.700195312500, -7.937255859375, -256.000000000000, 253.992187500000, -189.257812500000, 1490674762
3.996582031250, 2.700195312500, -7.937255859375, -256.000000000000, 253.992187500000, -189.257812500000, 1490674762
0.742675781250, -0.296630859375, -1.668457031250, 210.093750000000, -256.000000000000, -222.359375000000, 1490674762
0.526611328125, 0.103515625000, -0.526855468750, 182.171875000000, 248.031250000000, 52.804687500000, 1490674762
0.526611328125, 0.103515625000, -0.526855468750, 182.171875000000, 248.031250000000, 52.804687500000, 1490674762
0.526611328125, 0.103515625000, -0.526855468750, 182.171875000000, 248.031250000000, 52.804687500000, 1490674762
0.526611328125, 0.103515625000, -0.526855468750, 182.171875000000, 248.031250000000, 52.804687500000, 1490674762
0.365478515625, 0.830566406250, -0.111083984375, 56.328125000000, 191.328125000000, -88.773437500000, 1490674762
0.365478515625, 0.830566406250, -0.111083984375, 56.328125000000, 191.328125000000, -88.773437500000, 1490674762
0.365478515625, 0.830566406250, -0.111083984375, 56.328125000000, 191.328125000000, -88.773437500000, 1490674762
0.365478515625, 0.830566406250, -0.111083984375, 121.882812500000, 192.882812500000, -89.804687500000, 1490674762
0.708496093750, 0.160644531250, 0.035888671875, 177.414062500000, 79.843750000000, -129.523437500000, 1490674762
0.708496093750, 0.160644531250, 0.035888671875, 177.414062500000, 79.843750000000, -129.523437500000, 1490674762
0.708496093750, 0.160644531250, 0.035888671875, 177.414062500000, 79.843750000000, -129.523437500000, 1490674762
0.708496093750, 0.160644531250, 0.035888671875, 177.414062500000, 79.843750000000, -129.523437500000, 1490674762
0.779052734375, 0.076660156250, 0.314453125000, 123.234375000000, 159.953125000000, -164.812500000000, 1490674762
0.779052734375, 0.076660156250, 0.314453125000, 123.234375000000, 159.953125000000, -164.812500000000, 1490674762
0.779052734375, 0.076660156250, 0.314453125000, 123.234375000000, 159.953125000000, -164.812500000000, 1490674762
1.141845703125, 0.167236328125, -0.027832031250, 121.000000000000, 93.976562500000, -209.945312500000, 1490674762
1.141845703125, 0.167236328125, -0.027832031250, 121.000000000000, 93.976562500000, -209.945312500000, 1490674762
1.141845703125, 0.167236328125, -0.027832031250, 121.000000000000, 93.976562500000, -209.945312500000, 1490674762
1.709228515625, 0.082763671875, 0.095458984375, 89.710937500000, 25.000000000000, -132.578125000000, 1490674762
1.709228515625, 0.082763671875, 0.095458984375, 89.710937500000, 25.000000000000, -132.578125000000, 1490674762
1.709228515625, 0.082763671875, 0.095458984375, 89.710937500000, 25.000000000000, -132.578125000000, 1490674762
1.194824218750, -0.105957031250, 0.177490234375, 37.539062500000, 14.429687500000, 71.656250000000, 1490674762
1.194824218750, -0.105957031250, 0.177490234375, 37.539062500000, 14.429687500000, 71.656250000000, 1490674762
1.194824218750, -0.105957031250, 0.177490234375, 37.539062500000, 14.429687500000, 71.656250000000, 1490674762
1.194824218750, -0.105957031250, 0.177490234375, 37.539062500000, 14.429687500000, 71.656250000000, 1490674762
0.825927734375, -0.122802734375, 0.187500000000, -34.265625000000, -6.359375000000, 60.226562500000, 1490674762
0.825927734375, -0.122802734375, 0.187500000000, -34.265625000000, -6.359375000000, 60.226562500000, 1490674762
0.825927734375, -0.122802734375, 0.187500000000, -34.265625000000, -6.359375000000, 60.226562500000, 1490674762
0.901367187500, -0.197998046875, 0.141113281250, -91.515625000000, -12.976562500000, -21.992187500000, 1490674762
0.901367187500, -0.197998046875, 0.141113281250, -91.515625000000, -12.976562500000, -21.992187500000, 1490674762
0.901367187500, -0.197998046875, 0.141113281250, -91.515625000000, -12.976562500000, -21.992187500000, 1490674762
1.085937500000, 0.130371093750, 0.088378906250, -102.968750000000, -25.578125000000, -64.179687500000, 1490674762
1.085937500000, 0.130371093750, 0.088378906250, -102.968750000000, -25.578125000000, -64.179687500000, 1490674762
1.061279296875, -0.262451171875, -0.054931640625, -76.460937500000, -76.101562500000, 5.664062500000, 1490674762
1.061279296875, -0.262451171875, -0.054931640625, -76.460937500000, -76.101562500000, 5.664062500000, 1490674762
1.061279296875, -0.262451171875, -0.054931640625, -76.460937500000, -76.101562500000, 5.664062500000, 1490674762
1.061279296875, -0.262451171875, -0.054931640625, -76.460937500000, -76.101562500000, 5.664062500000, 1490674762
1.061279296875, -0.262451171875, -0.054931640625, -76.460937500000, -76.101562500000, 5.664062500000, 1490674762
1.020751953125, -0.416992187500, -0.411621093750, -133.367187500000, -104.953125000000, 27.648437500000, 1490674762
1.020751953125, -0.416992187500, -0.411621093750, -133.367187500000, -104.953125000000, 27.648437500000, 1490674762
1.020751953125, -0.416992187500, -0.411621093750, -133.367187500000, -104.953125000000, 27.648437500000, 1490674762
0.730712890625, -0.070312500000, -0.285400390625, -47.414062500000, -8.171875000000, -50.562500000000, 1490674762
0.730712890625, -0.070312500000, -0.285400390625, -47.414062500000, -8.171875000000, -50.562500000000, 1490674762
0.730712890625, -0.070312500000, -0.285400390625, -47.414062500000, -8.171875000000, -50.562500000000, 1490674762
1.190429687500, 0.507568359375, -0.127929687500, 51.664062500000, -59.226562500000, -98.234375000000, 1490674762
1.190429687500, 0.507568359375, -0.127929687500, 51.664062500000, -59.226562500000, -98.234375000000, 1490674762
1.190429687500, 0.507568359375, -0.127929687500, 51.664062500000, -59.226562500000, -98.234375000000, 1490674762
0.882324218750, 0.247558593750, 0.171386718750, 101.375000000000, 45.375000000000, -12.445312500000, 1490674762
0.882324218750, 0.247558593750, 0.171386718750, 101.375000000000, 45.375000000000, -12.445312500000, 1490674762
0.882324218750, 0.247558593750, 0.171386718750, 101.375000000000, 45.375000000000, -12.445312500000, 1490674762
0.882324218750, 0.247558593750, 0.171386718750, 101.375000000000, 45.375000000000, -12.445312500000, 1490674762
1.001464843750, 0.218994140625, 0.327636718750, 105.000000000000, 30.492187500000, -30.304687500000, 1490674762
1.001464843750, 0.218994140625, 0.327636718750, 105.000000000000, 30.492187500000, -30.304687500000, 1490674762
1.001464843750, 0.218994140625, 0.327636718750, 105.000000000000, 30.492187500000, -30.304687500000, 1490674762
1.123535156250, -0.070312500000, 0.290527343750, 34.851562500000, -12.937500000000, -18.648437500000, 1490674762
1.123535156250, -0.070312500000, 0.290527343750, 34.851562500000, -12.937500000000, -18.648437500000, 1490674762
1.123535156250, -0.070312500000, 0.290527343750, 34.851562500000, -12.937500000000, -18.648437500000, 1490674762
1.056640625000, -0.322753906250, 0.107177734375, -124.773437500000, -43.851562500000, 23.507812500000, 1490674762
1.056640625000, -0.322753906250, 0.107177734375, -124.773437500000, -43.851562500000, 23.507812500000, 1490674762
1.056640625000, -0.322753906250, 0.107177734375, -124.773437500000, -43.851562500000, 23.507812500000, 1490674762
0.927978515625, -0.586181640625, -0.294677734375, -241.093750000000, -69.664062500000, 24.546875000000, 1490674762
0.927978515625, -0.586181640625, -0.294677734375, -241.093750000000, -69.664062500000, 24.546875000000, 1490674762
0.927978515625, -0.586181640625, -0.294677734375, -241.093750000000, -69.664062500000, 24.546875000000, 1490674763
0.927978515625, -0.586181640625, -0.294677734375, -241.093750000000, -69.664062500000, 24.546875000000, 1490674763
0.733154296875, -0.423828125000, -0.909667968750, -123.945312500000, -12.734375000000, -35.210937500000, 1490674763
0.733154296875, -0.423828125000, -0.909667968750, -123.945312500000, -12.734375000000, -35.210937500000, 1490674763
0.733154296875, -0.423828125000, -0.909667968750, -123.945312500000, -12.734375000000, -35.210937500000, 1490674763
1.149169921875, -0.249511718750, -0.396240234375, 120.015625000000, -10.828125000000, -30.968750000000, 1490674763
1.149169921875, -0.249511718750, -0.396240234375, 120.015625000000, -10.828125000000, -30.968750000000, 1490674763
1.149169921875, -0.249511718750, -0.396240234375, 120.015625000000, -10.828125000000, -30.968750000000, 1490674763
1.063720703125, -0.115966796875, 0.022460937500, 101.812500000000, 31.500000000000, -2.101562500000, 1490674763
1.063720703125, -0.115966796875, 0.022460937500, 101.812500000000, 31.500000000000, -2.101562500000, 1490674763
1.063720703125, -0.115966796875, 0.022460937500, 101.812500000000, 31.500000000000, -2.101562500000, 1490674763
0.974853515625, -0.087890625000, -0.007812500000, -1.351562500000, 8.273437500000, 20.257812500000, 1490674763
0.974853515625, -0.087890625000, -0.007812500000, -1.351562500000, 8.273437500000, 20.257812500000, 1490674763
0.974853515625, -0.087890625000, -0.007812500000, -1.351562500000, 8.273437500000, 20.257812500000, 1490674763
0.974853515625, -0.087890625000, -0.007812500000, -1.351562500000, 8.273437500000, 20.257812500000, 1490674763
0.852294921875, -0.205322265625, -0.086181640625, -66.585937500000, -12.812500000000, 5.468750000000, 1490674763
0.852294921875, -0.205322265625, -0.086181640625, -66.585937500000, -12.812500000000, 5.468750000000, 1490674763
0.852294921875, -0.205322265625, -0.086181640625, -66.585937500000, -12.812500000000, 5.468750000000, 1490674763
0.962158203125, -0.162597656250, -0.309570312500, -63.648437500000, -13.476562500000, -12.585937500000, 1490674763
0.962158203125, -0.162597656250, -0.309570312500, -63.648437500000, -13.476562500000, -12.585937500000, 1490674763
0.962158203125, -0.162597656250, -0.309570312500, -63.648437500000, -13.476562500000, -12.585937500000, 1490674763
0.909912109375, 0.028320312500, -0.312500000000, 20.945312500000, 14.031250000000, -9.257812500000, 1490674763
0.909912109375, 0.028320312500, -0.312500000000, 20.945312500000, 14.031250000000, -9.257812500000, 1490674763
0.909912109375, 0.028320312500, -0.312500000000, 20.945312500000, 14.031250000000, -9.257812500000, 1490674763
1.007324218750, 0.021728515625, -0.038330078125, 46.156250000000, 24.531250000000, 1.085937500000, 1490674763
1.007324218750, 0.021728515625, -0.038330078125, 46.156250000000, 24.531250000000, 1.085937500000, 1490674763
1.001464843750, -0.028808593750, -0.018066406250, 9.210937500000, 8.054687500000, -10.429687500000, 1490674763
0.972167968750, -0.047119140625, 0.050292968750, 9.210937500000, 8.054687500000, -10.429687500000, 1490674763
0.972167968750, -0.047119140625, 0.050292968750, 9.210937500000, 8.054687500000, -10.429687500000, 1490674763
0.972167968750, -0.047119140625, 0.050292968750, 9.210937500000, 8.054687500000, -10.429687500000, 1490674763
0.972167968750, -0.047119140625, 0.050292968750, 9.210937500000, 8.054687500000, -10.429687500000, 1490674763
1.028320312500, -0.124267578125, 0.007324218750, -33.867187500000, -14.687500000000, -10.023437500000, 1490674763
1.028320312500, -0.124267578125, 0.007324218750, -33.867187500000, -14.687500000000, -10.023437500000, 1490674763
1.028320312500, -0.124267578125, 0.007324218750, -33.867187500000, -14.687500000000, -10.023437500000, 1490674763
0.923828125000, -0.261474609375, -0.140380859375, -45.515625000000, -18.804687500000, -5.656250000000, 1490674763
0.923828125000, -0.261474609375, -0.140380859375, -45.515625000000, -18.804687500000, -5.656250000000, 1490674763
0.923828125000, -0.261474609375, -0.140380859375, -45.515625000000, -18.804687500000, -5.656250000000, 1490674763
1.015869140625, -0.237060546875, -0.280517578125, -1.968750000000, 0.890625000000, -10.890625000000, 1490674763
1.015869140625, -0.237060546875, -0.280517578125, -1.968750000000, 0.890625000000, -10.890625000000, 1490674763
1.015869140625, -0.237060546875, -0.280517578125, -1.968750000000, 0.890625000000, -10.890625000000, 1490674763
1.015869140625, -0.237060546875, -0.280517578125, -1.968750000000, 0.890625000000, -10.890625000000, 1490674763
1.013427734375, -0.124023437500, -0.195312500000, 14.859375000000, 1.875000000000, 2.281250000000, 1490674763
1.013427734375, -0.124023437500, -0.195312500000, 14.859375000000, 1.875000000000, 2.281250000000, 1490674763
1.013427734375, -0.124023437500, -0.195312500000, 14.859375000000, 1.875000000000, 2.281250000000, 1490674763
1.029052734375, -0.131347656250, -0.143310546875, -7.671875000000, -2.570312500000, -1.242187500000, 1490674763
1.029052734375, -0.131347656250, -0.143310546875, -7.671875000000, -2.570312500000, -1.242187500000, 1490674763
1.029052734375, -0.131347656250, -0.143310546875, -7.671875000000, -2.570312500000, -1.242187500000, 1490674763
1.029052734375, -0.131347656250, -0.143310546875, -7.671875000000, -2.570312500000, -1.242187500000, 1490674763
0.988769531250, -0.140625000000, -0.278808593750, -13.656250000000, 0.312500000000, -3.632812500000, 1490674763
1.004394531250, -0.151611328125, -0.209472656250, -3.679687500000, 2.632812500000, 2.039062500000, 1490674763
0.935546875000, -0.209716796875, -0.207275390625, 5.062500000000, 3.343750000000, -4.757812500000, 1490674763
0.935546875000, -0.209716796875, -0.207275390625, 5.062500000000, 3.343750000000, -4.757812500000, 1490674763
0.991699218750, -0.119873046875, -0.099609375000, -0.656250000000, 6.328125000000, -3.929687500000, 1490674763
0.991699218750, -0.119873046875, -0.099609375000, -0.656250000000, 6.328125000000, -3.929687500000, 1490674763
0.991699218750, -0.119873046875, -0.099609375000, -0.656250000000, 6.328125000000, -3.929687500000, 1490674763
0.991699218750, -0.119873046875, -0.099609375000, -0.656250000000, 6.328125000000, -3.929687500000, 1490674763
0.991699218750, -0.119873046875, -0.099609375000, -0.656250000000, 6.328125000000, -3.929687500000, 1490674763
0.991699218750, -0.119873046875, -0.099609375000, -0.656250000000, 6.328125000000, -3.929687500000, 1490674763
1.046386718750, -0.134277343750, -0.149658203125, -3.921875000000, -1.000000000000, -6.523437500000, 1490674763
1.046386718750, -0.134277343750, -0.149658203125, -3.921875000000, -1.000000000000, -6.523437500000, 1490674763
1.046386718750, -0.134277343750, -0.149658203125, -3.921875000000, -1.000000000000, -6.523437500000, 1490674763
1.046386718750, -0.134277343750, -0.149658203125, -3.921875000000, -1.000000000000, -6.523437500000, 1490674763
1.046386718750, -0.134277343750, -0.149658203125, -3.921875000000, -1.000000000000, -6.523437500000, 1490674763
1.030517578125, -0.124023437500, -0.140136718750, -10.078125000000, -2.804687500000, -1.234375000000, 1490674763
1.030517578125, -0.124023437500, -0.140136718750, -10.078125000000, -2.804687500000, -1.234375000000, 1490674763
1.030517578125, -0.124023437500, -0.140136718750, -10.078125000000, -2.804687500000, -1.234375000000, 1490674763
1.030517578125, -0.124023437500, -0.140136718750, -10.078125000000, -2.804687500000, -1.234375000000, 1490674763
0.946044921875, -0.194091796875, -0.153320312500, -7.117187500000, -1.703125000000, -4.125000000000, 1490674764
0.946044921875, -0.194091796875, -0.153320312500, -7.117187500000, -1.703125000000, -4.125000000000, 1490674764
0.946044921875, -0.194091796875, -0.153320312500, -7.117187500000, -1.703125000000, -4.125000000000, 1490674764
0.986816406250, -0.126464843750, -0.115966796875, -3.132812500000, 0.796875000000, -4.203125000000, 1490674764
0.986816406250, -0.126464843750, -0.115966796875, -3.132812500000, 0.796875000000, -4.203125000000, 1490674764
0.986816406250, -0.126464843750, -0.115966796875, -3.132812500000, 0.796875000000, -4.203125000000, 1490674764
1.031738281250, -0.114257812500, -0.109130859375, -3.937500000000, 0.140625000000, 0.546875000000, 1490674764
1.031738281250, -0.114257812500, -0.109130859375, -3.937500000000, 0.140625000000, 0.546875000000, 1490674764
1.031738281250, -0.114257812500, -0.109130859375, -3.937500000000, 0.140625000000, 0.546875000000, 1490674764
1.020507812500, -0.147216796875, -0.162353515625, -3.132812500000, 0.968750000000, -3.148437500000, 1490674764
1.020507812500, -0.147216796875, -0.162353515625, -3.132812500000, 0.968750000000, -3.148437500000, 1490674764
1.020507812500, -0.147216796875, -0.162353515625, -3.132812500000, 0.968750000000, -3.148437500000, 1490674764
1.079345703125, -0.078125000000, -0.123046875000, -3.273437500000, 2.281250000000, -2.500000000000, 1490674764
1.072753906250, -0.118896484375, -0.196533203125, -3.039062500000, 2.367187500000, -1.265625000000, 1490674764
0.909423828125, -0.190185546875, -0.157958984375, -1.070312500000, 2.398437500000, -1.742187500000, 1490674764
0.905517578125, -0.052490234375, -0.183593750000, -2.640625000000, -0.773437500000, -1.382812500000, 1490674764
0.905517578125, -0.052490234375, -0.183593750000, -2.640625000000, -0.773437500000, -1.382812500000, 1490674764
0.905517578125, -0.052490234375, -0.183593750000, -2.640625000000, -0.773437500000, -1.382812500000, 1490674764
0.905517578125, -0.052490234375, -0.183593750000, -2.640625000000, -0.773437500000, -1.382812500000, 1490674764
0.992675781250, -0.196777343750, -0.195800781250, -3.039062500000, -0.976562500000, -1.031250000000, 1490674764
0.992675781250, -0.196777343750, -0.195800781250, -3.039062500000, -0.976562500000, -1.031250000000, 1490674764
0.992675781250, -0.196777343750, -0.195800781250, -3.039062500000, -0.976562500000, -1.031250000000, 1490674764
0.993896484375, -0.138183593750, -0.100830078125, -3.421875000000, -0.070312500000, -3.226562500000, 1490674764
1.031005859375, -0.177001953125, -0.192626953125, -1.828125000000, 1.757812500000, -3.531250000000, 1490674764
1.031005859375, -0.177001953125, -0.192626953125, -1.828125000000, 1.757812500000, -3.531250000000, 1490674764
1.031005859375, -0.177001953125, -0.192626953125, -1.828125000000, 1.757812500000, -3.531250000000, 1490674764
1.031005859375, -0.177001953125, -0.192626953125, -1.828125000000, 1.757812500000, -3.531250000000, 1490674764
1.031005859375, -0.177001953125, -0.192626953125, -1.828125000000, 1.757812500000, -3.531250000000, 1490674764
0.976318359375, -0.053466796875, -0.105468750000, -1.656250000000, 2.437500000000, -2.085937500000, 1490674764
1.092773437500, -0.121337890625, -0.187500000000, -1.656250000000, 2.437500000000, -2.085937500000, 1490674764
1.092773437500, -0.121337890625, -0.187500000000, -1.656250000000, 2.437500000000, -2.085937500000, 1490674764
1.010986328125, -0.136474609375, -0.202636718750, -1.585937500000, 2.500000000000, -1.156250000000, 1490674764
1.010986328125, -0.136474609375, -0.202636718750, -1.585937500000, 2.500000000000, -1.156250000000, 1490674764
1.010986328125, -0.136474609375, -0.202636718750, -1.585937500000, 2.500000000000, -1.156250000000, 1490674764
1.010986328125, -0.136474609375, -0.202636718750, -1.585937500000, 2.500000000000, -1.156250000000, 1490674764
0.976318359375, -0.116699218750, -0.151855468750, -1.445312500000, -0.179687500000, -2.859375000000, 1490674764
0.976318359375, -0.116699218750, -0.151855468750, -1.445312500000, -0.179687500000, -2.859375000000, 1490674764
0.976318359375, -0.116699218750, -0.151855468750, -1.445312500000, -0.179687500000, -2.859375000000, 1490674764
0.976318359375, -0.116699218750, -0.151855468750, -1.445312500000, -0.179687500000, -2.859375000000, 1490674764
1.037841796875, -0.058105468750, -0.147949218750, -1.195312500000, -0.343750000000, 0.000000000000, 1490674764
1.037841796875, -0.058105468750, -0.147949218750, -1.195312500000, -0.343750000000, 0.000000000000, 1490674764
1.037841796875, -0.058105468750, -0.147949218750, -1.195312500000, -0.343750000000, 0.000000000000, 1490674764
1.037841796875, -0.058105468750, -0.147949218750, -1.195312500000, -0.343750000000, 0.000000000000, 1490674764
1.037841796875, -0.058105468750, -0.147949218750, -1.195312500000, -0.343750000000, 0.000000000000, 1490674764
1.034667968750, -0.099609375000, -0.191894531250, -1.648437500000, 0.562500000000, -4.125000000000, 1490674764
1.034667968750, -0.099609375000, -0.191894531250, -1.648437500000, 0.562500000000, -4.125000000000, 1490674764
1.034667968750, -0.099609375000, -0.191894531250, -1.648437500000, 0.562500000000, -4.125000000000, 1490674764
1.034667968750, -0.099609375000, -0.191894531250, -1.648437500000, 0.562500000000, -4.125000000000, 1490674764
0.985107421875, -0.042480468750, -0.188964843750, -4.250000000000, 2.335937500000, -4.359375000000, 1490674764
0.985107421875, -0.042480468750, -0.188964843750, -4.250000000000, 2.335937500000, -4.359375000000, 1490674764
0.985107421875, -0.042480468750, -0.188964843750, -4.250000000000, 2.335937500000, -4.359375000000, 1490674764
0.912597656250, -0.090087890625, -0.192138671875, -1.789062500000, 2.335937500000, -3.656250000000, 1490674764
0.912597656250, -0.090087890625, -0.192138671875, -1.789062500000, 2.335937500000, -3.656250000000, 1490674764
0.912597656250, -0.090087890625, -0.192138671875, -1.789062500000, 2.335937500000, -3.656250000000, 1490674764
0.912597656250, -0.090087890625, -0.192138671875, -1.789062500000, 2.335937500000, -3.656250000000, 1490674764
1.018798828125, -0.105712890625, -0.167236328125, -1.398437500000, 1.796875000000, -4.343750000000, 1490674764
1.018798828125, -0.105712890625, -0.167236328125, -1.398437500000, 1.796875000000, -4.343750000000, 1490674764
1.018798828125, -0.105712890625, -0.167236328125, -1.398437500000, 1.796875000000, -4.343750000000, 1490674764
1.085937500000, -0.122802734375, -0.155029296875, -4.875000000000, 2.031250000000, -1.406250000000, 1490674764
1.085937500000, -0.122802734375, -0.155029296875, -4.875000000000, 2.031250000000, -1.406250000000, 1490674764
0.997558593750, -0.193115234375, -0.188476562500, -6.195312500000, 0.351562500000, -3.015625000000, 1490674764
0.997558593750, -0.193115234375, -0.188476562500, -6.195312500000, 0.351562500000, -3.015625000000, 1490674764
0.997558593750, -0.193115234375, -0.188476562500, -6.195312500000, 0.351562500000, -3.015625000000, 1490674764
0.997558593750, -0.193115234375, -0.188476562500, -6.195312500000, 0.351562500000, -3.015625000000, 1490674764
1.082763671875, -0.112792968750, -0.146240234375, -4.617187500000, 2.390625000000, -4.875000000000, 1490674764
1.082763671875, -0.112792968750, -0.146240234375, -4.617187500000, 2.390625000000, -4.875000000000, 1490674765
1.082763671875, -0.112792968750, -0.146240234375, -4.617187500000, 2.390625000000, -4.875000000000, 1490674765
0.992919921875, -0.218017578125, -0.197265625000, -4.218750000000, 2.156250000000, -5.070312500000, 1490674765
1.028076171875, -0.136718750000, -0.198974609375, -4.218750000000, 2.156250000000, -5.070312500000, 1490674765
1.028076171875, -0.136718750000, -0.198974609375, -4.218750000000, 2.156250000000, -5.070312500000, 1490674765
1.028076171875, -0.136718750000, -0.198974609375, -4.218750000000, 2.156250000000, -5.070312500000, 1490674765
1.086669921875, -0.137695312500, -0.214111328125, -3.507812500000, -0.617187500000, -4.929687500000, 1490674765
1.071044921875, -0.203125000000, -0.160400390625, -3.367187500000, 0.281250000000, 0.054687500000, 1490674765
1.071044921875, -0.203125000000, -0.160400390625, -3.367187500000, 0.281250000000, 0.054687500000, 1490674765
1.071044921875, -0.203125000000, -0.160400390625, -3.367187500000, 0.281250000000, 0.054687500000, 1490674765
1.071044921875, -0.203125000000, -0.160400390625, -3.367187500000, 0.281250000000, 0.054687500000, 1490674765
1.071044921875, -0.203125000000, -0.160400390625, -3.367187500000, 0.281250000000, 0.054687500000, 1490674765
1.071044921875, -0.203125000000, -0.160400390625, -3.367187500000, 0.281250000000, 0.054687500000, 1490674765
1.085937500000, -0.137451171875, -0.108642578125, -6.976562500000, -0.546875000000, -3.406250000000, 1490674765
1.085937500000, -0.137451171875, -0.108642578125, -6.976562500000, -0.546875000000, -3.406250000000, 1490674765
1.085937500000, -0.137451171875, -0.108642578125, -6.976562500000, -0.546875000000, -3.406250000000, 1490674765
1.020996093750, -0.119384765625, -0.051269531250, -6.375000000000, -0.218750000000, -1.945312500000, 1490674765
1.020996093750, -0.119384765625, -0.051269531250, -6.375000000000, -0.218750000000, -1.945312500000, 1490674765
1.020996093750, -0.119384765625, -0.051269531250, -6.375000000000, -0.218750000000, -1.945312500000, 1490674765
1.064697265625, -0.135742187500, -0.142578125000, -3.867187500000, 2.132812500000, -4.375000000000, 1490674765
0.968017578125, -0.167480468750, -0.124755859375, -5.054687500000, -0.281250000000, -4.640625000000, 1490674765
0.968017578125, -0.167480468750, -0.124755859375, -5.054687500000, -0.281250000000, -4.640625000000, 1490674765
0.968017578125, -0.167480468750, -0.124755859375, -5.054687500000, -0.281250000000, -4.640625000000, 1490674765
0.991943359375, -0.054687500000, -0.192138671875, -3.781250000000, 2.164062500000, -1.585937500000, 1490674765
0.991943359375, -0.054687500000, -0.192138671875, -3.781250000000, 2.164062500000, -1.585937500000, 1490674765
0.991943359375, -0.054687500000, -0.192138671875, -3.781250000000, 2.164062500000, -1.585937500000, 1490674765
0.991943359375, -0.054687500000, -0.192138671875, -3.781250000000, 2.164062500000, -1.585937500000, 1490674765
0.991943359375, -0.054687500000, -0.192138671875, -3.781250000000, 2.164062500000, -1.585937500000, 1490674765
1.128906250000, -0.142822265625, -0.199218750000, -3.968750000000, -0.812500000000, -2.117187500000, 1490674765
0.987060546875, -0.127929687500, -0.130371093750, -3.039062500000, -0.062500000000, -5.750000000000, 1490674765
0.987060546875, -0.127929687500, -0.130371093750, -3.039062500000, -0.062500000000, -5.750000000000, 1490674765
0.987060546875, -0.127929687500, -0.130371093750, -3.039062500000, -0.062500000000, -5.750000000000, 1490674765
1.006103515625, -0.211669921875, -0.214599609375, -4.125000000000, -2.953125000000, -2.960937500000, 1490674765
1.006103515625, -0.211669921875, -0.214599609375, -4.125000000000, -2.953125000000, -2.960937500000, 1490674765
1.006103515625, -0.211669921875, -0.214599609375, -4.125000000000, -2.953125000000, -2.960937500000, 1490674765
1.066650390625, -0.155273437500, -0.188720703125, -3.750000000000, 0.218750000000, -1.562500000000, 1490674765
1.066650390625, -0.155273437500, -0.188720703125, -3.750000000000, 0.218750000000, -1.562500000000, 1490674765
1.085205078125, -0.193847656250, -0.148925781250, -6.296875000000, -0.312500000000, -4.242187500000, 1490674765
1.085205078125, -0.193847656250, -0.148925781250, -6.296875000000, -0.312500000000, -4.242187500000, 1490674765
1.085205078125, -0.193847656250, -0.148925781250, -6.296875000000, -0.312500000000, -4.242187500000, 1490674765
1.085205078125, -0.193847656250, -0.148925781250, -6.296875000000, -0.312500000000, -4.242187500000, 1490674765
0.949951171875, -0.147705078125, -0.154296875000, -3.390625000000, -0.062500000000, -1.148437500000, 1490674765
1.074951171875, -0.193115234375, -0.044677734375, -4.875000000000, -0.851562500000, -1.617187500000, 1490674765
1.074951171875, -0.193115234375, -0.044677734375, -4.875000000000, -0.851562500000, -1.617187500000, 1490674765
1.074951171875, -0.193115234375, -0.044677734375, -4.875000000000, -0.851562500000, -1.617187500000, 1490674765
0.932861328125, -0.211669921875, -0.130371093750, -3.242187500000, 0.164062500000, -2.101562500000, 1490674765
0.932861328125, -0.211669921875, -0.130371093750, -3.242187500000, 0.164062500000, -2.101562500000, 1490674765
0.932861328125, -0.211669921875, -0.130371093750, -3.242187500000, 0.164062500000, -2.101562500000, 1490674765
0.918212890625, -0.169921875000, -0.211425781250, -4.242187500000, -0.578125000000, -3.578125000000, 1490674765
0.918212890625, -0.169921875000, -0.211425781250, -4.242187500000, -0.578125000000, -3.578125000000, 1490674765
0.918212890625, -0.169921875000, -0.211425781250, -4.242187500000, -0.578125000000, -3.578125000000, 1490674765
0.918212890625, -0.169921875000, -0.211425781250, -4.242187500000, -0.578125000000, -3.578125000000, 1490674765
0.977783203125, -0.048339843750, -0.050292968750, -4.125000000000, 0.945312500000, -2.437500000000, 1490674765
0.977783203125, -0.048339843750, -0.050292968750, -4.125000000000, 0.945312500000, -2.437500000000, 1490674765
0.977783203125, -0.048339843750, -0.050292968750, -4.125000000000, 0.945312500000, -2.437500000000, 1490674765
0.991455078125, -0.107910156250, -0.106445312500, -4.726562500000, -2.140625000000, 0.132812500000, 1490674765
0.991455078125, -0.107910156250, -0.106445312500, -4.726562500000, -2.140625000000, 0.132812500000, 1490674765
0.991455078125, -0.107910156250, -0.106445312500, -4.726562500000, -2.140625000000, 0.132812500000, 1490674765
1.017089843750, -0.138427734375, -0.200439453125, -3.507812500000, -0.007812500000, -1.820312500000, 1490674765
1.017089843750, -0.138427734375, -0.200439453125, -3.507812500000, -0.007812500000, -1.820312500000, 1490674765
1.017089843750, -0.138427734375, -0.200439453125, -3.507812500000, -0.007812500000, -1.820312500000, 1490674765
1.130371093750, -0.095214843750, -0.189941406250, -3.070312500000, 2.906250000000, 0.484375000000, 1490674765
1.130371093750, -0.095214843750, -0.189941406250, -3.070312500000, 2.906250000000, 0.484375000000, 1490674765
1.130371093750, -0.095214843750, -0.189941406250, -3.070312500000, 2.906250000000, 0.484375000000, 1490674765
1.130371093750, -0.095214843750, -0.189941406250, -3.070312500000, 2.906250000000, 0.484375000000, 1490674765
0.926025390625, -0.131835937500, -0.256835937500, -3.570312500000, 2.882812500000, -4.531250000000, 1490674766
0.926025390625, -0.131835937500, -0.256835937500, -3.570312500000, 2.882812500000, -4.531250000000, 1490674766
0.926025390625, -0.131835937500, -0.256835937500, -3.570312500000, 2.882812500000, -4.531250000000, 1490674766
0.926025390625, -0.131835937500, -0.256835937500, -5.000000000000, 2.781250000000, -4.609375000000, 1490674766
1.026855468750, -0.145996093750, -0.119384765625, -1.531250000000, 2.835937500000, -2.390625000000, 1490674766
1.026855468750, -0.145996093750, -0.119384765625, -1.531250000000, 2.835937500000, -2.390625000000, 1490674766
1.026855468750, -0.145996093750, -0.119384765625, -1.531250000000, 2.835937500000, -2.390625000000, 1490674766
1.026855468750, -0.145996093750, -0.119384765625, -1.531250000000, 2.835937500000, -2.390625000000, 1490674766
1.026855468750, -0.145996093750, -0.119384765625, -1.882812500000, 1.468750000000, -2.140625000000, 1490674766
1.011718750000, -0.208984375000, -0.193603515625, -1.062500000000, 6.578125000000, -4.656250000000, 1490674766
1.011718750000, -0.208984375000, -0.193603515625, -1.062500000000, 6.578125000000, -4.656250000000, 1490674766
1.011718750000, -0.208984375000, -0.193603515625, -1.062500000000, 6.578125000000, -4.656250000000, 1490674766
1.011718750000, -0.208984375000, -0.193603515625, -1.062500000000, 6.578125000000, -4.656250000000, 1490674766
1.018066406250, -0.129638671875, -0.060302734375, 2.734375000000, 4.773437500000, -2.406250000000, 1490674766
1.018066406250, -0.129638671875, -0.060302734375, 2.734375000000, 4.773437500000, -2.406250000000, 1490674766
1.018066406250, -0.129638671875, -0.060302734375, 2.734375000000, 4.773437500000, -2.406250000000, 1490674766
0.931396484375, -0.199462890625, -0.051513671875, -1.312500000000, 2.632812500000, -3.320312500000, 1490674766
0.931396484375, -0.199462890625, -0.051513671875, -1.312500000000, 2.632812500000, -3.320312500000, 1490674766
0.931396484375, -0.199462890625, -0.051513671875, -1.312500000000, 2.632812500000, -3.320312500000, 1490674766
0.965576171875, -0.119384765625, -0.110107421875, -5.046875000000, 2.570312500000, -4.773437500000, 1490674766
0.965576171875, -0.119384765625, -0.110107421875, -5.046875000000, 2.570312500000, -4.773437500000, 1490674766
0.965576171875, -0.119384765625, -0.110107421875, -5.046875000000, 2.570312500000, -4.773437500000, 1490674766
0.991210937500, -0.014648437500, -0.197509765625, -4.492187500000, -0.117187500000, -3.023437500000, 1490674766
0.991210937500, -0.014648437500, -0.197509765625, -4.492187500000, -0.117187500000, -3.023437500000, 1490674766
0.991210937500, -0.014648437500, -0.197509765625, -4.492187500000, -0.117187500000, -3.023437500000, 1490674766
0.991210937500, -0.014648437500, -0.197509765625, -4.492187500000, -0.117187500000, -3.023437500000, 1490674766
1.015869140625, -0.171142578125, -0.095458984375, -3.265625000000, -0.796875000000, -2.820312500000, 1490674766
1.015869140625, -0.171142578125, -0.095458984375, -3.265625000000, -0.796875000000, -2.820312500000, 1490674766
1.015869140625, -0.171142578125, -0.095458984375, -3.265625000000, -0.796875000000, -2.820312500000, 1490674766
1.013183593750, -0.202636718750, -0.214355468750, -3.257812500000, -0.609375000000, -0.421875000000, 1490674766
1.013183593750, -0.202636718750, -0.214355468750, -3.257812500000, -0.609375000000, -0.421875000000, 1490674766
1.013183593750, -0.202636718750, -0.214355468750, -3.257812500000, -0.609375000000, -0.421875000000, 1490674766
0.929687500000, -0.212158203125, -0.189697265625, -6.390625000000, -0.976562500000, -4.828125000000, 1490674766
0.929687500000, -0.212158203125, -0.189697265625, -6.390625000000, -0.976562500000, -4.828125000000, 1490674766
0.929687500000, -0.212158203125, -0.189697265625, -6.390625000000, -0.976562500000, -4.828125000000, 1490674766
1.010253906250, -0.167480468750, -0.107910156250, -3.507812500000, 0.078125000000, -1.562500000000, 1490674766
1.010253906250, -0.167480468750, -0.107910156250, -3.507812500000, 0.078125000000, -1.562500000000, 1490674766
1.010253906250, -0.167480468750, -0.107910156250, -3.507812500000, 0.078125000000, -1.562500000000, 1490674766
1.010253906250, -0.167480468750, -0.107910156250, -3.507812500000, 0.078125000000, -1.562500000000, 1490674766
0.985351562500, -0.200439453125, -0.149902343750, -4.500000000000, 0.492187500000, -2.156250000000, 1490674766
0.985351562500, -0.200439453125, -0.149902343750, -4.500000000000, 0.492187500000, -2.156250000000, 1490674766
1.070800781250, -0.139648437500, -0.100097656250, -8.085937500000, -0.804687500000, -3.453125000000, 1490674766
1.070800781250, -0.139648437500, -0.100097656250, -8.085937500000, -0.804687500000, -3.453125000000, 1490674766
1.070800781250, -0.139648437500, -0.100097656250, -8.085937500000, -0.804687500000, -3.453125000000, 1490674766
1.070800781250, -0.139648437500, -0.100097656250, -8.085937500000, -0.804687500000, -3.453125000000, 1490674766
0.918212890625, -0.150878906250, -0.146240234375, -6.750000000000, 0.796875000000, -4.742187500000, 1490674766
0.918212890625, -0.150878906250, -0.146240234375, -6.750000000000, 0.796875000000, -4.742187500000, 1490674766
0.918212890625, -0.150878906250, -0.146240234375, -6.750000000000, 0.796875000000, -4.742187500000, 1490674766
0.935791015625, -0.202880859375, -0.096923828125, -1.093750000000, 0.000000000000, -0.828125000000, 1490674766
0.935791015625, -0.202880859375, -0.096923828125, -1.093750000000, 0.000000000000, -0.828125000000, 1490674766
0.935791015625, -0.202880859375, -0.096923828125, -1.093750000000, 0.000000000000, -0.828125000000, 1490674766
0.935791015625, -0.202880859375, -0.096923828125, -1.093750000000, 0.000000000000, -0.828125000000, 1490674766
0.912597656250, -0.057861328125, -0.189941406250, -3.492187500000, 0.304687500000, -4.812500000000, 1490674766
0.912597656250, -0.057861328125, -0.189941406250, -3.492187500000, 0.304687500000, -4.812500000000, 1490674766
0.912597656250, -0.057861328125, -0.189941406250, -3.492187500000, 0.304687500000, -4.812500000000, 1490674766
1.024169921875, -0.113769531250, -0.133789062500, -6.757812500000, -0.523437500000, -3.031250000000, 1490674766
1.024169921875, -0.113769531250, -0.133789062500, -6.757812500000, -0.523437500000, -3.031250000000, 1490674766
1.024169921875, -0.113769531250, -0.133789062500, -6.757812500000, -0.523437500000, -3.031250000000, 1490674766
1.089843750000, -0.106445312500, -0.174560546875, -6.929687500000, 2.218750000000, -2.875000000000, 1490674766
1.089843750000, -0.106445312500, -0.174560546875, -6.929687500000, 2.218750000000, -2.875000000000, 1490674766
1.089843750000, -0.106445312500, -0.174560546875, -6.929687500000, 2.218750000000, -2.875000000000, 1490674766
0.916503906250, -0.158447265625, -0.107910156250, -3.390625000000, -0.085937500000, -2.695312500000, 1490674766
0.916503906250, -0.158447265625, -0.107910156250, -3.390625000000, -0.085937500000, -2.695312500000, 1490674766
0.916503906250, -0.158447265625, -0.107910156250, -3.390625000000, -0.085937500000, -2.695312500000, 1490674766
0.932861328125, -0.136474609375, 0.005371093750, -4.820312500000, -0.632812500000, -1.359375000000, 1490674766
0.932861328125, -0.136474609375, 0.005371093750, -4.820312500000, -0.632812500000, -1.359375000000, 1490674766
0.932861328125, -0.136474609375, 0.005371093750, -4.820312500000, -0.632812500000, -1.359375000000, 1490674766
0.992919921875, -0.198974609375, -0.129638671875, -4.500000000000, -0.421875000000, -1.328125000000, 1490674766
1.025390625000, -0.103515625000, -0.142822265625, -3.703125000000, -0.921875000000, -4.140625000000, 1490674766
1.025390625000, -0.103515625000, -0.142822265625, -3.703125000000, -0.921875000000, -4.140625000000, 1490674767
1.025390625000, -0.103515625000, -0.142822265625, -3.703125000000, -0.921875000000, -4.140625000000, 1490674767
0.937744140625, -0.121337890625, -0.062011718750, -6.773437500000, 0.148437500000, 0.406250000000, 1490674767
0.937744140625, -0.121337890625, -0.062011718750, -6.773437500000, 0.148437500000, 0.406250000000, 1490674767
0.937744140625, -0.121337890625, -0.062011718750, -6.773437500000, 0.148437500000, 0.406250000000, 1490674767
1.091308593750, -0.110351562500, -0.131591796875, -3.093750000000, -0.867187500000, -4.492187500000, 1490674767
1.091308593750, -0.110351562500, -0.131591796875, -3.093750000000, -0.867187500000, -4.492187500000, 1490674767
1.091308593750, -0.110351562500, -0.131591796875, -3.093750000000, -0.867187500000, -4.492187500000, 1490674767
1.091308593750, -0.110351562500, -0.131591796875, -3.093750000000, -0.867187500000, -4.492187500000, 1490674767
1.091308593750, -0.110351562500, -0.131591796875, -3.093750000000, -0.867187500000, -4.492187500000, 1490674767
1.091308593750, -0.110351562500, -0.131591796875, -3.093750000000, -0.867187500000, -4.492187500000, 1490674767
1.091308593750, -0.110351562500, -0.131591796875, -3.093750000000, -0.867187500000, -4.492187500000, 1490674767
1.064941406250, -0.186767578125, -0.128662109375, -4.273437500000, 0.601562500000, -3.281250000000, 1490674767
1.064941406250, -0.186767578125, -0.128662109375, -4.273437500000, 0.601562500000, -3.281250000000, 1490674767
1.064941406250, -0.186767578125, -0.128662109375, -4.273437500000, 0.601562500000, -3.281250000000, 1490674767
0.937011718750, -0.096191406250, -0.192382812500, -4.882812500000, -0.289062500000, -4.273437500000, 1490674767
1.016845703125, -0.192138671875, -0.170898437500, -4.781250000000, 1.585937500000, -4.289062500000, 1490674767
1.016845703125, -0.192138671875, -0.170898437500, -4.781250000000, 1.585937500000, -4.289062500000, 1490674767
1.016845703125, -0.192138671875, -0.170898437500, -4.781250000000, 1.585937500000, -4.289062500000, 1490674767
1.016845703125, -0.192138671875, -0.170898437500, -4.781250000000, 1.585937500000, -4.289062500000, 1490674767
1.016845703125, -0.192138671875, -0.170898437500, -4.781250000000, 1.585937500000, -4.289062500000, 1490674767
1.016845703125, -0.192138671875, -0.170898437500, -4.781250000000, 1.585937500000, -4.289062500000, 1490674767
0.922607421875, -0.135009765625, -0.034667968750, -4.515625000000, 0.820312500000, -4.617187500000, 1490674767
0.922607421875, -0.135009765625, -0.034667968750, -4.515625000000, 0.820312500000, -4.617187500000, 1490674767
0.922607421875, -0.135009765625, -0.034667968750, -4.515625000000, 0.820312500000, -4.617187500000, 1490674767
0.990234375000, -0.115966796875, -0.057617187500, -4.812500000000, -0.914062500000, 0.523437500000, 1490674767
0.990234375000, -0.115966796875, -0.057617187500, -4.812500000000, -0.914062500000, 0.523437500000, 1490674767
0.990234375000, -0.115966796875, -0.057617187500, -4.812500000000, -0.914062500000, 0.523437500000, 1490674767
1.028076171875, -0.117675781250, -0.152587890625, -3.757812500000, -0.859375000000, -5.500000000000, 1490674767
1.028076171875, -0.117675781250, -0.152587890625, -3.757812500000, -0.859375000000, -5.500000000000, 1490674767
1.028076171875, -0.117675781250, -0.152587890625, -3.757812500000, -0.859375000000, -5.500000000000, 1490674767
0.958740234375, -0.178466796875, -0.218017578125, -3.390625000000, 0.398437500000, -1.085937500000, 1490674767
0.958740234375, -0.178466796875, -0.218017578125, -3.390625000000, 0.398437500000, -1.085937500000, 1490674767
0.958740234375, -0.178466796875, -0.218017578125, -3.390625000000, 0.398437500000, -1.085937500000, 1490674767
0.958740234375, -0.178466796875, -0.218017578125, -3.390625000000, 0.398437500000, -1.085937500000, 1490674767
1.022949218750, -0.071777343750, -0.145996093750, -3.203125000000, 0.648437500000, 0.468750000000, 1490674767
1.022949218750, -0.071777343750, -0.145996093750, -3.203125000000, 0.648437500000, 0.468750000000, 1490674767
1.022949218750, -0.071777343750, -0.145996093750, -3.203125000000, 0.648437500000, 0.468750000000, 1490674767
0.931884765625, 0.011474609375, -0.120361328125, -3.929687500000, 0.570312500000, -1.578125000000, 1490674767
0.931884765625, 0.011474609375, -0.120361328125, -3.929687500000, 0.570312500000, -1.578125000000, 1490674767
0.931884765625, 0.011474609375, -0.120361328125, -3.929687500000, 0.570312500000, -1.578125000000, 1490674767
0.969238281250, -0.100097656250, -0.143066406250, -6.296875000000, -0.960937500000, -1.039062500000, 1490674767
0.969238281250, -0.100097656250, -0.143066406250, -6.296875000000, -0.960937500000, -1.039062500000, 1490674767
0.969238281250, -0.100097656250, -0.143066406250, -6.296875000000, -0.960937500000, -1.039062500000, 1490674767
1.023925781250, -0.095947265625, -0.215332031250, -4.875000000000, -0.375000000000, -2.718750000000, 1490674767
1.023925781250, -0.095947265625, -0.215332031250, -4.875000000000, -0.375000000000, -2.718750000000, 1490674767
1.023925781250, -0.095947265625, -0.215332031250, -4.875000000000, -0.375000000000, -2.718750000000, 1490674767
1.023925781250, -0.095947265625, -0.215332031250, -4.875000000000, -0.375000000000, -2.718750000000, 1490674767
1.019775390625, -0.188476562500, -0.204345703125, -4.328125000000, -2.687500000000, -4.203125000000, 1490674767
1.019775390625, -0.188476562500, -0.204345703125, -4.328125000000, -2.687500000000, -4.203125000000, 1490674767
1.019775390625, -0.188476562500, -0.204345703125, -4.328125000000, -2.687500000000, -4.203125000000, 1490674767
1.069580078125, -0.206787109375, -0.106445312500, -3.679687500000, -0.898437500000, -6.460937500000, 1490674767
1.069580078125, -0.206787109375, -0.106445312500, -3.679687500000, -0.898437500000, -6.460937500000, 1490674767
1.069580078125, -0.206787109375, -0.106445312500, -3.679687500000, -0.898437500000, -6.460937500000, 1490674767
1.076171875000, -0.111328125000, -0.145019531250, -3.812500000000, 2.156250000000, -4.125000000000, 1490674767
1.076171875000, -0.111328125000, -0.145019531250, -3.812500000000, 2.156250000000, -4.125000000000, 1490674767
1.076171875000, -0.111328125000, -0.145019531250, -3.812500000000, 2.156250000000, -4.125000000000, 1490674767
0.975585937500, -0.100341796875, -0.199218750000, -3.289062500000, -0.085937500000, -4.695312500000, 1490674767
0.975585937500, -0.100341796875, -0.199218750000, -3.289062500000, -0.085937500000, -4.695312500000, 1490674767
0.975585937500, -0.100341796875, -0.199218750000, -3.289062500000, -0.085937500000, -4.695312500000, 1490674767
0.975585937500, -0.100341796875, -0.199218750000, -3.289062500000, -0.085937500000, -4.695312500000, 1490674767
0.937500000000, -0.231933593750, -0.124755859375, -6.265625000000, -0.757812500000, -1.328125000000, 1490674767
0.937500000000, -0.231933593750, -0.124755859375, -6.265625000000, -0.757812500000, -1.328125000000, 1490674767
0.937500000000, -0.231933593750, -0.124755859375, -6.265625000000, -0.757812500000, -1.328125000000, 1490674767
1.078125000000, -0.057373046875, -0.202148437500, -1.960937500000, -0.382812500000, -1.656250000000, 1490674767
1.078125000000, -0.057373046875, -0.202148437500, -1.960937500000, -0.382812500000, -1.656250000000, 1490674767
1.078125000000, -0.057373046875, -0.202148437500, -1.960937500000, -0.382812500000, -1.656250000000, 1490674767
0.974609375000, -0.200439453125, -0.217285156250, -4.890625000000, -0.562500000000, -2.929687500000, 1490674768
0.974609375000, -0.200439453125, -0.217285156250, -4.890625000000, -0.562500000000, -2.929687500000, 1490674768
0.974609375000, -0.200439453125, -0.217285156250, -4.890625000000, -0.562500000000, -2.929687500000, 1490674768
