ACC_X,ACC_Y,ACC_Z,G_X,G_Y,G_Z,Unix Time
0.075195312500, -1.009033203125, 0.277832031250, -2.656250000000, 3.468750000000, -3.875000000000, 1492750184
0.075195312500, -1.009033203125, 0.277832031250, -2.656250000000, 3.468750000000, -3.875000000000, 1492750184
0.075195312500, -1.009033203125, 0.277832031250, -2.656250000000, 3.468750000000, -3.875000000000, 1492750184
0.075195312500, -1.009033203125, 0.277832031250, -2.656250000000, 3.468750000000, -3.875000000000, 1492750184
0.004882812500, -1.017578125000, 0.178955078125, -3.226562500000, -0.218750000000, -4.664062500000, 1492750184
0.004882812500, -1.017578125000, 0.178955078125, -3.226562500000, -0.218750000000, -4.664062500000, 1492750184
0.004882812500, -1.017578125000, 0.178955078125, -3.226562500000, -0.218750000000, -4.664062500000, 1492750184
0.072753906250, -0.933837890625, 0.180908203125, -3.078125000000, -4.062500000000, -1.187500000000, 1492750184
0.072753906250, -0.933837890625, 0.180908203125, -3.078125000000, -4.062500000000, -1.187500000000, 1492750184
0.072753906250, -0.933837890625, 0.180908203125, -3.078125000000, -4.062500000000, -1.187500000000, 1492750184
0.072753906250, -0.933837890625, 0.180908203125, -3.078125000000, -4.062500000000, -1.187500000000, 1492750184
-0.007080078125, -0.917236328125, 0.290527343750, -2.539062500000, 0.210937500000, -3.710937500000, 1492750184
-0.007080078125, -0.917236328125, 0.290527343750, -2.539062500000, 0.210937500000, -3.710937500000, 1492750184
-0.007080078125, -0.917236328125, 0.290527343750, -2.539062500000, 0.210937500000, -3.710937500000, 1492750184
0.049560546875, -1.085205078125, 0.201171875000, -3.687500000000, -5.585937500000, -6.265625000000, 1492750184
0.049560546875, -1.085205078125, 0.201171875000, -3.687500000000, -5.585937500000, -6.265625000000, 1492750184
0.049560546875, -1.085205078125, 0.201171875000, -3.687500000000, -5.585937500000, -6.265625000000, 1492750184
0.049560546875, -1.085205078125, 0.201171875000, -3.687500000000, -5.585937500000, -6.265625000000, 1492750184
-0.018066406250, -0.951660156250, 0.180419921875, -4.429687500000, -4.640625000000, -4.781250000000, 1492750184
-0.018066406250, -0.951660156250, 0.180419921875, -4.429687500000, -4.640625000000, -4.781250000000, 1492750184
-0.018066406250, -0.951660156250, 0.180419921875, -4.429687500000, -4.640625000000, -4.781250000000, 1492750184
-0.018066406250, -0.951660156250, 0.180419921875, -4.429687500000, -4.640625000000, -4.781250000000, 1492750184
-0.018066406250, -0.951660156250, 0.180419921875, -4.429687500000, -4.640625000000, -4.781250000000, 1492750184
0.038818359375, -0.980468750000, 0.172119140625, -3.312500000000, -3.882812500000, -4.210937500000, 1492750184
0.038818359375, -0.980468750000, 0.172119140625, -3.312500000000, -3.882812500000, -4.210937500000, 1492750184
0.038818359375, -0.980468750000, 0.172119140625, -3.312500000000, -3.882812500000, -4.210937500000, 1492750184
0.038818359375, -0.980468750000, 0.172119140625, -3.312500000000, -3.882812500000, -4.210937500000, 1492750184
0.125244140625, -0.933349609375, 0.158447265625, -4.015625000000, -6.039062500000, -3.296875000000, 1492750184
0.125244140625, -0.933349609375, 0.158447265625, -4.015625000000, -6.039062500000, -3.296875000000, 1492750184
0.125244140625, -0.933349609375, 0.158447265625, -4.015625000000, -6.039062500000, -3.296875000000, 1492750184
0.090332031250, -1.014404296875, 0.188476562500, -1.921875000000, -6.296875000000, -1.312500000000, 1492750184
0.090332031250, -1.014404296875, 0.188476562500, -1.921875000000, -6.296875000000, -1.312500000000, 1492750184
0.090332031250, -1.014404296875, 0.188476562500, -1.921875000000, -6.296875000000, -1.312500000000, 1492750184
0.026123046875, -1.014160156250, 0.122314453125, -4.171875000000, -9.164062500000, -3.546875000000, 1492750184
0.026123046875, -1.014160156250, 0.122314453125, -4.171875000000, -9.164062500000, -3.546875000000, 1492750184
0.026123046875, -1.014160156250, 0.122314453125, -4.171875000000, -9.164062500000, -3.546875000000, 1492750184
0.026123046875, -1.014160156250, 0.122314453125, -4.171875000000, -9.164062500000, -3.546875000000, 1492750184
0.061035156250, -0.963378906250, 0.273193359375, -10.312500000000, 8.343750000000, -4.218750000000, 1492750184
0.061035156250, -0.963378906250, 0.273193359375, -10.312500000000, 8.343750000000, -4.218750000000, 1492750184
0.061035156250, -0.963378906250, 0.273193359375, -10.312500000000, 8.343750000000, -4.218750000000, 1492750184
-0.001464843750, -0.911132812500, 0.165039062500, 1.914062500000, -10.781250000000, -1.648437500000, 1492750184
-0.001464843750, -0.911132812500, 0.165039062500, 1.914062500000, -10.781250000000, -1.648437500000, 1492750184
-0.001464843750, -0.911132812500, 0.165039062500, 1.914062500000, -10.781250000000, -1.648437500000, 1492750184
0.033447265625, -1.067382812500, 0.249511718750, -1.882812500000, 0.187500000000, -3.570312500000, 1492750184
0.033447265625, -1.067382812500, 0.249511718750, -1.882812500000, 0.187500000000, -3.570312500000, 1492750184
0.033447265625, -1.067382812500, 0.249511718750, -1.882812500000, 0.187500000000, -3.570312500000, 1492750184
-0.029052734375, -0.993896484375, 0.210205078125, -3.718750000000, 0.906250000000, -1.609375000000, 1492750184
-0.029052734375, -0.993896484375, 0.210205078125, -3.718750000000, 0.906250000000, -1.609375000000, 1492750184
-0.029052734375, -0.993896484375, 0.210205078125, -3.718750000000, 0.906250000000, -1.609375000000, 1492750184
-0.029052734375, -0.993896484375, 0.210205078125, -3.718750000000, 0.906250000000, -1.609375000000, 1492750184
0.152343750000, -1.026855468750, 0.178466796875, -3.195312500000, -2.195312500000, 0.390625000000, 1492750184
0.152343750000, -1.026855468750, 0.178466796875, -3.195312500000, -2.195312500000, 0.390625000000, 1492750184
0.152343750000, -1.026855468750, 0.178466796875, -3.195312500000, -2.195312500000, 0.390625000000, 1492750184
0.055419921875, -0.979980468750, 0.240722656250, -3.781250000000, -2.304687500000, -3.500000000000, 1492750184
0.055419921875, -0.979980468750, 0.240722656250, -3.781250000000, -2.304687500000, -3.500000000000, 1492750184
0.055419921875, -0.979980468750, 0.240722656250, -3.781250000000, -2.304687500000, -3.500000000000, 1492750184
0.077880859375, -0.970703125000, 0.264648437500, -1.929687500000, 4.062500000000, -1.257812500000, 1492750184
0.077880859375, -0.970703125000, 0.264648437500, -1.929687500000, 4.062500000000, -1.257812500000, 1492750184
0.077880859375, -0.970703125000, 0.264648437500, -1.929687500000, 4.062500000000, -1.257812500000, 1492750184
0.073486328125, -0.907958984375, 0.171142578125, 0.687500000000, 1.226562500000, 0.367187500000, 1492750184
0.064941406250, -1.074218750000, 0.217529296875, -0.703125000000, 4.148437500000, 0.062500000000, 1492750184
0.064941406250, -1.074218750000, 0.217529296875, -0.703125000000, 4.148437500000, 0.062500000000, 1492750184
0.064941406250, -1.074218750000, 0.217529296875, -0.703125000000, 4.148437500000, 0.062500000000, 1492750184
0.017333984375, -0.961914062500, 0.176757812500, -1.234375000000, 1.117187500000, -3.007812500000, 1492750184
0.017333984375, -0.961914062500, 0.176757812500, -1.234375000000, 1.117187500000, -3.007812500000, 1492750184
0.017333984375, -0.961914062500, 0.176757812500, -1.234375000000, 1.117187500000, -3.007812500000, 1492750184
0.017333984375, -0.961914062500, 0.176757812500, -1.234375000000, 1.117187500000, -3.007812500000, 1492750184
0.017333984375, -0.961914062500, 0.176757812500, -1.234375000000, 1.117187500000, -3.007812500000, 1492750184
0.017333984375, -0.961914062500, 0.176757812500, -1.234375000000, 1.117187500000, -3.007812500000, 1492750184
0.073242187500, -1.024658203125, 0.160400390625, -4.632812500000, 4.023437500000, -1.468750000000, 1492750185
0.073242187500, -1.024658203125, 0.160400390625, -4.632812500000, 4.023437500000, -1.468750000000, 1492750185
0.073242187500, -1.024658203125, 0.160400390625, -4.632812500000, 4.023437500000, -1.468750000000, 1492750185
0.063964843750, -1.035156250000, 0.271484375000, -4.703125000000, 3.015625000000, 0.414062500000, 1492750185
0.063964843750, -1.035156250000, 0.271484375000, -4.703125000000, 3.015625000000, 0.414062500000, 1492750185
0.063964843750, -1.035156250000, 0.271484375000, -4.703125000000, 3.015625000000, 0.414062500000, 1492750185
0.063964843750, -1.035156250000, 0.271484375000, -4.703125000000, 3.015625000000, 0.414062500000, 1492750185
-0.008544921875, -0.944824218750, 0.178710937500, 3.289062500000, 3.804687500000, -1.945312500000, 1492750185
-0.008544921875, -0.944824218750, 0.178710937500, 3.289062500000, 3.804687500000, -1.945312500000, 1492750185
-0.008544921875, -0.944824218750, 0.178710937500, 3.289062500000, 3.804687500000, -1.945312500000, 1492750185
-0.023193359375, -0.943115234375, 0.124755859375, -6.898437500000, -8.742187500000, -1.609375000000, 1492750185
-0.023193359375, -0.943115234375, 0.124755859375, -6.898437500000, -8.742187500000, -1.609375000000, 1492750185
-0.023193359375, -0.943115234375, 0.124755859375, -6.898437500000, -8.742187500000, -1.609375000000, 1492750185
0.143310546875, -0.977783203125, 0.254638671875, 0.187500000000, 6.125000000000, -1.492187500000, 1492750185
0.143310546875, -0.977783203125, 0.254638671875, 0.187500000000, 6.125000000000, -1.492187500000, 1492750185
0.143310546875, -0.977783203125, 0.254638671875, 0.187500000000, 6.125000000000, -1.492187500000, 1492750185
0.071289062500, -1.022460937500, 0.255615234375, -3.492187500000, 2.054687500000, 0.515625000000, 1492750185
0.071289062500, -1.022460937500, 0.255615234375, -3.492187500000, 2.054687500000, 0.515625000000, 1492750185
0.071289062500, -1.022460937500, 0.255615234375, -3.492187500000, 2.054687500000, 0.515625000000, 1492750185
0.071289062500, -1.022460937500, 0.255615234375, -3.492187500000, 2.054687500000, 0.515625000000, 1492750185
0.049072265625, -1.089111328125, 0.166992187500, -1.765625000000, 4.148437500000, 0.281250000000, 1492750185
0.049072265625, -1.089111328125, 0.166992187500, -1.765625000000, 4.148437500000, 0.281250000000, 1492750185
0.049072265625, -1.089111328125, 0.166992187500, -1.765625000000, 4.148437500000, 0.281250000000, 1492750185
0.135498046875, -0.974853515625, 0.175537109375, -3.546875000000, 2.750000000000, -1.343750000000, 1492750185
0.135498046875, -0.974853515625, 0.175537109375, -3.546875000000, 2.750000000000, -1.343750000000, 1492750185
0.135498046875, -0.974853515625, 0.175537109375, -3.546875000000, 2.750000000000, -1.343750000000, 1492750185
-0.009033203125, -0.917236328125, 0.208496093750, -4.281250000000, 5.296875000000, -2.632812500000, 1492750185
0.013183593750, -1.017333984375, 0.172363281250, -1.984375000000, 3.070312500000, -2.406250000000, 1492750185
0.013183593750, -1.017333984375, 0.172363281250, -1.984375000000, 3.070312500000, -2.406250000000, 1492750185
-0.019287109375, -1.025146484375, 0.158935546875, -2.929687500000, 4.398437500000, -1.453125000000, 1492750185
0.130126953125, -0.933837890625, 0.226074218750, 0.757812500000, 4.492187500000, -2.125000000000, 1492750185
0.130126953125, -0.933837890625, 0.226074218750, 0.757812500000, 4.492187500000, -2.125000000000, 1492750185
0.130126953125, -0.933837890625, 0.226074218750, 0.757812500000, 4.492187500000, -2.125000000000, 1492750185
0.130126953125, -0.933837890625, 0.226074218750, 0.757812500000, 4.492187500000, -2.125000000000, 1492750185
0.130126953125, -0.933837890625, 0.226074218750, 0.757812500000, 4.492187500000, -2.125000000000, 1492750185
0.032714843750, -0.915771484375, 0.215087890625, 0.296875000000, 2.750000000000, -4.140625000000, 1492750185
0.032714843750, -0.915771484375, 0.215087890625, 0.296875000000, 2.750000000000, -4.140625000000, 1492750185
0.032714843750, -0.915771484375, 0.215087890625, 0.296875000000, 2.750000000000, -4.140625000000, 1492750185
0.032714843750, -0.915771484375, 0.215087890625, 0.296875000000, 2.750000000000, -4.140625000000, 1492750185
0.046142578125, -0.906005859375, 0.116455078125, -2.265625000000, 4.554687500000, -1.515625000000, 1492750185
0.046142578125, -0.906005859375, 0.116455078125, -2.265625000000, 4.554687500000, -1.515625000000, 1492750185
0.046142578125, -0.906005859375, 0.116455078125, -2.265625000000, 4.554687500000, -1.515625000000, 1492750185
0.153564453125, -1.068115234375, 0.267089843750, -2.679687500000, 2.218750000000, 0.656250000000, 1492750185
0.153564453125, -1.068115234375, 0.267089843750, -2.679687500000, 2.218750000000, 0.656250000000, 1492750185
0.153564453125, -1.068115234375, 0.267089843750, -2.679687500000, 2.218750000000, 0.656250000000, 1492750185
0.153564453125, -1.068115234375, 0.267089843750, -2.679687500000, 2.218750000000, 0.656250000000, 1492750185
0.070800781250, -1.001708984375, 0.181396484375, -2.390625000000, 4.375000000000, 0.359375000000, 1492750185
0.070800781250, -1.001708984375, 0.181396484375, -2.390625000000, 4.375000000000, 0.359375000000, 1492750185
0.070800781250, -1.001708984375, 0.181396484375, -2.390625000000, 4.375000000000, 0.359375000000, 1492750185
-0.024658203125, -1.026611328125, 0.269531250000, 4.742187500000, 5.015625000000, -1.976562500000, 1492750185
-0.024658203125, -1.026611328125, 0.269531250000, 4.742187500000, 5.015625000000, -1.976562500000, 1492750185
-0.024658203125, -1.026611328125, 0.269531250000, 4.742187500000, 5.015625000000, -1.976562500000, 1492750185
0.053466796875, -1.014404296875, 0.109863281250, -4.937500000000, -10.851562500000, -3.460937500000, 1492750185
0.053466796875, -1.014404296875, 0.109863281250, -4.937500000000, -10.851562500000, -3.460937500000, 1492750185
0.053466796875, -1.014404296875, 0.109863281250, -4.937500000000, -10.851562500000, -3.460937500000, 1492750185
0.049804687500, -0.984619140625, 0.258300781250, -1.023437500000, 1.882812500000, -2.265625000000, 1492750185
0.049804687500, -0.984619140625, 0.258300781250, -1.023437500000, 1.882812500000, -2.265625000000, 1492750185
0.049804687500, -0.984619140625, 0.258300781250, -1.023437500000, 1.882812500000, -2.265625000000, 1492750185
0.049804687500, -0.984619140625, 0.258300781250, -1.023437500000, 1.882812500000, -2.265625000000, 1492750185
-0.024414062500, -0.911376953125, 0.169189453125, -3.820312500000, 0.429687500000, -1.195312500000, 1492750185
-0.024414062500, -0.911376953125, 0.169189453125, -3.820312500000, 0.429687500000, -1.195312500000, 1492750185
-0.024414062500, -0.911376953125, 0.169189453125, -3.820312500000, 0.429687500000, -1.195312500000, 1492750185
-0.067871093750, -1.028076171875, 0.217041015625, -4.750000000000, 1.921875000000, -1.820312500000, 1492750185
-0.067871093750, -1.028076171875, 0.217041015625, -4.750000000000, 1.921875000000, -1.820312500000, 1492750185
-0.067871093750, -1.028076171875, 0.217041015625, -4.750000000000, 1.921875000000, -1.820312500000, 1492750185
0.071044921875, -1.064208984375, 0.177246093750, -6.390625000000, 2.359375000000, -6.648437500000, 1492750185
0.071044921875, -1.064208984375, 0.177246093750, -6.390625000000, 2.359375000000, -6.648437500000, 1492750185
0.071044921875, -1.064208984375, 0.177246093750, -6.390625000000, 2.359375000000, -6.648437500000, 1492750185
0.064453125000, -1.023437500000, 0.254638671875, -1.328125000000, 6.148437500000, -4.796875000000, 1492750186
0.064453125000, -1.023437500000, 0.254638671875, -1.328125000000, 6.148437500000, -4.796875000000, 1492750186
0.064453125000, -1.023437500000, 0.254638671875, -1.328125000000, 6.148437500000, -4.796875000000, 1492750186
0.064453125000, -1.023437500000, 0.254638671875, -1.328125000000, 6.148437500000, -4.796875000000, 1492750186
0.078125000000, -1.026855468750, 0.259521484375, -6.359375000000, 2.742187500000, 0.304687500000, 1492750186
0.078125000000, -1.026855468750, 0.259521484375, -6.359375000000, 2.742187500000, 0.304687500000, 1492750186
0.078125000000, -1.026855468750, 0.259521484375, -6.359375000000, 2.742187500000, 0.304687500000, 1492750186
-0.019042968750, -1.024414062500, 0.210937500000, -4.117187500000, 0.882812500000, -1.617187500000, 1492750186
-0.019042968750, -1.024414062500, 0.210937500000, -4.117187500000, 0.882812500000, -1.617187500000, 1492750186
-0.019042968750, -1.024414062500, 0.210937500000, -4.117187500000, 0.882812500000, -1.617187500000, 1492750186
-0.023681640625, -0.924804687500, 0.109863281250, -3.593750000000, 2.312500000000, -2.125000000000, 1492750186
-0.023681640625, -0.924804687500, 0.109863281250, -3.593750000000, 2.312500000000, -2.125000000000, 1492750186
-0.023681640625, -0.924804687500, 0.109863281250, -3.593750000000, 2.312500000000, -2.125000000000, 1492750186
0.108886718750, -1.091796875000, 0.115234375000, -3.726562500000, 1.867187500000, 0.609375000000, 1492750186
0.108886718750, -1.091796875000, 0.115234375000, -3.726562500000, 1.867187500000, 0.609375000000, 1492750186
0.108886718750, -1.091796875000, 0.115234375000, -3.726562500000, 1.867187500000, 0.609375000000, 1492750186
0.108886718750, -1.091796875000, 0.115234375000, -3.726562500000, 1.867187500000, 0.609375000000, 1492750186
0.062255859375, -0.911865234375, 0.186523437500, -3.257812500000, -0.250000000000, -1.062500000000, 1492750186
0.062255859375, -0.911865234375, 0.186523437500, -3.257812500000, -0.250000000000, -1.062500000000, 1492750186
0.062255859375, -0.911865234375, 0.186523437500, -3.257812500000, -0.250000000000, -1.062500000000, 1492750186
0.082275390625, -1.020996093750, 0.112060546875, -1.835937500000, 1.593750000000, -1.734375000000, 1492750186
0.082275390625, -1.020996093750, 0.112060546875, -1.835937500000, 1.593750000000, -1.734375000000, 1492750186
0.082275390625, -1.020996093750, 0.112060546875, -1.835937500000, 1.593750000000, -1.734375000000, 1492750186
0.148681640625, -0.938964843750, 0.216308593750, 2.921875000000, 4.835937500000, 0.679687500000, 1492750186
0.148681640625, -0.938964843750, 0.216308593750, 2.921875000000, 4.835937500000, 0.679687500000, 1492750186
0.148681640625, -0.938964843750, 0.216308593750, 2.921875000000, 4.835937500000, 0.679687500000, 1492750186
0.054687500000, -1.000976562500, 0.169433593750, 4.695312500000, -5.851562500000, -6.398437500000, 1492750186
0.054687500000, -1.000976562500, 0.169433593750, 4.695312500000, -5.851562500000, -6.398437500000, 1492750186
0.054687500000, -1.000976562500, 0.169433593750, 4.695312500000, -5.851562500000, -6.398437500000, 1492750186
0.054687500000, -1.000976562500, 0.169433593750, 4.695312500000, -5.851562500000, -6.398437500000, 1492750186
0.136230468750, -1.004882812500, 0.272460937500, -2.031250000000, 6.304687500000, -4.890625000000, 1492750186
0.136230468750, -1.004882812500, 0.272460937500, -2.031250000000, 6.304687500000, -4.890625000000, 1492750186
0.136230468750, -1.004882812500, 0.272460937500, -2.031250000000, 6.304687500000, -4.890625000000, 1492750186
0.057861328125, -0.920898437500, 0.211181640625, -6.523437500000, 0.492187500000, -3.187500000000, 1492750186
0.057861328125, -0.920898437500, 0.211181640625, -6.523437500000, 0.492187500000, -3.187500000000, 1492750186
0.057861328125, -0.920898437500, 0.211181640625, -6.523437500000, 0.492187500000, -3.187500000000, 1492750186
0.041503906250, -0.913330078125, 0.259765625000, -1.304687500000, 1.609375000000, -4.625000000000, 1492750186
0.041503906250, -0.913330078125, 0.259765625000, -1.304687500000, 1.609375000000, -4.625000000000, 1492750186
0.041503906250, -0.913330078125, 0.259765625000, -1.304687500000, 1.609375000000, -4.625000000000, 1492750186
0.053955078125, -1.030029296875, 0.156494140625, -3.429687500000, -1.656250000000, -4.867187500000, 1492750186
0.053955078125, -1.030029296875, 0.156494140625, -3.429687500000, -1.656250000000, -4.867187500000, 1492750186
0.053955078125, -1.030029296875, 0.156494140625, -3.429687500000, -1.656250000000, -4.867187500000, 1492750186
0.053955078125, -1.030029296875, 0.156494140625, -3.429687500000, -1.656250000000, -4.867187500000, 1492750186
0.085205078125, -0.958984375000, 0.182128906250, 0.476562500000, 3.359375000000, -1.921875000000, 1492750186
0.085205078125, -0.958984375000, 0.182128906250, 0.476562500000, 3.359375000000, -1.921875000000, 1492750186
0.085205078125, -0.958984375000, 0.182128906250, 0.476562500000, 3.359375000000, -1.921875000000, 1492750186
0.125732421875, -0.907958984375, 0.196044921875, -1.234375000000, 0.335937500000, -2.921875000000, 1492750186
0.125732421875, -0.907958984375, 0.196044921875, -1.234375000000, 0.335937500000, -2.921875000000, 1492750186
0.125732421875, -0.907958984375, 0.196044921875, -1.234375000000, 0.335937500000, -2.921875000000, 1492750186
0.200927734375, -0.909423828125, 0.164794921875, 2.820312500000, -10.851562500000, -6.335937500000, 1492750186
0.200927734375, -0.909423828125, 0.164794921875, 2.820312500000, -10.851562500000, -6.335937500000, 1492750186
0.200927734375, -0.909423828125, 0.164794921875, 2.820312500000, -10.851562500000, -6.335937500000, 1492750186
0.084960937500, -0.933349609375, 0.114257812500, -0.218750000000, -1.468750000000, -1.882812500000, 1492750186
0.084960937500, -0.933349609375, 0.114257812500, -0.218750000000, -1.468750000000, -1.882812500000, 1492750186
0.084960937500, -0.933349609375, 0.114257812500, -0.218750000000, -1.468750000000, -1.882812500000, 1492750186
0.084960937500, -0.933349609375, 0.114257812500, -0.218750000000, -1.468750000000, -1.882812500000, 1492750186
0.066406250000, -0.918701171875, 0.216064453125, -4.742187500000, -1.898437500000, -2.953125000000, 1492750186
0.066406250000, -0.918701171875, 0.216064453125, -4.742187500000, -1.898437500000, -2.953125000000, 1492750186
0.066406250000, -0.918701171875, 0.216064453125, -4.742187500000, -1.898437500000, -2.953125000000, 1492750186
0.075927734375, -1.019287109375, 0.220458984375, -0.023437500000, 0.429687500000, -2.289062500000, 1492750186
0.075927734375, -1.019287109375, 0.220458984375, -0.023437500000, 0.429687500000, -2.289062500000, 1492750186
0.075927734375, -1.019287109375, 0.220458984375, -0.023437500000, 0.429687500000, -2.289062500000, 1492750186
0.032226562500, -0.919677734375, 0.101318359375, -0.929687500000, -6.070312500000, -1.742187500000, 1492750186
0.032226562500, -0.919677734375, 0.101318359375, -0.929687500000, -6.070312500000, -1.742187500000, 1492750186
0.032226562500, -0.919677734375, 0.101318359375, -0.929687500000, -6.070312500000, -1.742187500000, 1492750186
0.094238281250, -1.141601562500, 0.159179687500, -2.453125000000, 5.984375000000, -4.781250000000, 1492750187
0.094238281250, -1.141601562500, 0.159179687500, -2.453125000000, 5.984375000000, -4.781250000000, 1492750187
0.094238281250, -1.141601562500, 0.159179687500, -2.453125000000, 5.984375000000, -4.781250000000, 1492750187
0.094238281250, -1.141601562500, 0.159179687500, -2.453125000000, 5.984375000000, -4.781250000000, 1492750187
0.053222656250, -0.929199218750, 0.164306640625, 5.132812500000, -0.117187500000, -2.375000000000, 1492750187
0.053222656250, -0.929199218750, 0.164306640625, 5.132812500000, -0.117187500000, -2.375000000000, 1492750187
0.053222656250, -0.929199218750, 0.164306640625, 5.132812500000, -0.117187500000, -2.375000000000, 1492750187
0.057861328125, -1.084960937500, 0.094238281250, -1.289062500000, 0.968750000000, 2.046875000000, 1492750187
0.057861328125, -1.084960937500, 0.094238281250, -1.289062500000, 0.968750000000, 2.046875000000, 1492750187
0.057861328125, -1.084960937500, 0.094238281250, -1.289062500000, 0.968750000000, 2.046875000000, 1492750187
0.147949218750, -0.911865234375, 0.150634765625, -8.070312500000, -4.617187500000, 0.898437500000, 1492750187
0.147949218750, -0.911865234375, 0.150634765625, -8.070312500000, -4.617187500000, 0.898437500000, 1492750187
0.147949218750, -0.911865234375, 0.150634765625, -8.070312500000, -4.617187500000, 0.898437500000, 1492750187
0.083740234375, -1.010009765625, 0.278076171875, 2.703125000000, 14.375000000000, 2.828125000000, 1492750187
0.083740234375, -1.010009765625, 0.278076171875, 2.703125000000, 14.375000000000, 2.828125000000, 1492750187
0.083740234375, -1.010009765625, 0.278076171875, 2.703125000000, 14.375000000000, 2.828125000000, 1492750187
0.083740234375, -1.010009765625, 0.278076171875, 2.703125000000, 14.375000000000, 2.828125000000, 1492750187
0.149414062500, -0.971923828125, 0.186035156250, -2.468750000000, 3.250000000000, 5.156250000000, 1492750187
0.149414062500, -0.971923828125, 0.186035156250, -2.468750000000, 3.250000000000, 5.156250000000, 1492750187
0.151855468750, -0.855468750000, 0.189941406250, 16.320312500000, 11.781250000000, -2.265625000000, 1492750187
0.136474609375, -0.946289062500, 0.183837890625, 14.609375000000, 0.171875000000, 1.273437500000, 1492750187
0.136474609375, -0.946289062500, 0.183837890625, 14.609375000000, 0.171875000000, 1.273437500000, 1492750187
0.050292968750, -0.971923828125, 0.237792968750, 14.078125000000, 4.789062500000, 0.875000000000, 1492750187
0.050292968750, -0.971923828125, 0.237792968750, 14.078125000000, 4.789062500000, 0.875000000000, 1492750187
0.050292968750, -0.971923828125, 0.237792968750, 14.078125000000, 4.789062500000, 0.875000000000, 1492750187
0.050292968750, -0.971923828125, 0.237792968750, 14.078125000000, 4.789062500000, 0.875000000000, 1492750187
0.050292968750, -0.971923828125, 0.237792968750, 14.078125000000, 4.789062500000, 0.875000000000, 1492750187
0.148437500000, -0.926757812500, 0.178710937500, 5.093750000000, -0.812500000000, 6.101562500000, 1492750187
0.148437500000, -0.926757812500, 0.178710937500, 5.093750000000, -0.812500000000, 6.101562500000, 1492750187
0.148437500000, -0.926757812500, 0.178710937500, 5.093750000000, -0.812500000000, 6.101562500000, 1492750187
0.148437500000, -0.926757812500, 0.178710937500, 5.093750000000, -0.812500000000, 6.101562500000, 1492750187
0.148437500000, -0.926757812500, 0.178710937500, 5.093750000000, -0.812500000000, 6.101562500000, 1492750187
0.148437500000, -0.926757812500, 0.178710937500, 5.093750000000, -0.812500000000, 6.101562500000, 1492750187
0.124267578125, -0.932373046875, 0.203613281250, 3.921875000000, -9.375000000000, 10.312500000000, 1492750187
0.124267578125, -0.932373046875, 0.203613281250, 3.921875000000, -9.375000000000, 10.312500000000, 1492750187
0.124267578125, -0.932373046875, 0.203613281250, 3.921875000000, -9.375000000000, 10.312500000000, 1492750187
0.124267578125, -0.932373046875, 0.203613281250, 3.921875000000, -9.375000000000, 10.312500000000, 1492750187
0.270263671875, -0.959228515625, 0.218017578125, 9.828125000000, -3.148437500000, 7.906250000000, 1492750187
0.270263671875, -0.959228515625, 0.218017578125, 9.828125000000, -3.148437500000, 7.906250000000, 1492750187
0.270263671875, -0.959228515625, 0.218017578125, 9.828125000000, -3.148437500000, 7.906250000000, 1492750187
0.270263671875, -0.959228515625, 0.218017578125, 9.828125000000, -3.148437500000, 7.906250000000, 1492750187
0.270263671875, -0.959228515625, 0.218017578125, 9.828125000000, -3.148437500000, 7.906250000000, 1492750187
0.120605468750, -0.940917968750, 0.146484375000, 2.789062500000, 5.875000000000, 5.406250000000, 1492750187
0.120605468750, -0.940917968750, 0.146484375000, 2.789062500000, 5.875000000000, 5.406250000000, 1492750187
0.120605468750, -0.940917968750, 0.146484375000, 2.789062500000, 5.875000000000, 5.406250000000, 1492750187
0.120605468750, -0.940917968750, 0.146484375000, 2.789062500000, 5.875000000000, 5.406250000000, 1492750187
0.114501953125, -0.877685546875, 0.109863281250, -7.835937500000, 13.179687500000, 4.492187500000, 1492750187
0.114501953125, -0.877685546875, 0.109863281250, -7.835937500000, 13.179687500000, 4.492187500000, 1492750187
0.114501953125, -0.877685546875, 0.109863281250, -7.835937500000, 13.179687500000, 4.492187500000, 1492750187
0.173339843750, -0.798339843750, 0.050292968750, -3.070312500000, 1.218750000000, 3.031250000000, 1492750187
0.173339843750, -0.798339843750, 0.050292968750, -3.070312500000, 1.218750000000, 3.031250000000, 1492750187
0.173339843750, -0.798339843750, 0.050292968750, -3.070312500000, 1.218750000000, 3.031250000000, 1492750187
0.157470703125, -0.842285156250, 0.037841796875, 2.367187500000, 2.203125000000, 10.812500000000, 1492750187
0.157470703125, -0.842285156250, 0.037841796875, 2.367187500000, 2.203125000000, 10.812500000000, 1492750187
0.157470703125, -0.842285156250, 0.037841796875, 2.367187500000, 2.203125000000, 10.812500000000, 1492750187
0.157470703125, -0.842285156250, 0.037841796875, 2.367187500000, 2.203125000000, 10.812500000000, 1492750187
0.065185546875, -0.697998046875, 0.053222656250, 4.093750000000, 13.718750000000, 5.343750000000, 1492750187
0.065185546875, -0.697998046875, 0.053222656250, 4.093750000000, 13.718750000000, 5.343750000000, 1492750187
0.065185546875, -0.697998046875, 0.053222656250, 4.093750000000, 13.718750000000, 5.343750000000, 1492750187
0.071289062500, -0.548339843750, 0.150146484375, 13.328125000000, 4.234375000000, 0.023437500000, 1492750187
0.071289062500, -0.548339843750, 0.150146484375, 13.328125000000, 4.234375000000, 0.023437500000, 1492750187
0.071289062500, -0.548339843750, 0.150146484375, 13.328125000000, 4.234375000000, 0.023437500000, 1492750187
0.072021484375, -0.664550781250, 0.176757812500, 19.640625000000, -29.734375000000, -3.796875000000, 1492750187
0.072021484375, -0.664550781250, 0.176757812500, 19.640625000000, -29.734375000000, -3.796875000000, 1492750187
0.072021484375, -0.664550781250, 0.176757812500, 19.640625000000, -29.734375000000, -3.796875000000, 1492750187
0.114990234375, -0.575927734375, 0.182617187500, -29.281250000000, 23.171875000000, -0.453125000000, 1492750187
0.114990234375, -0.575927734375, 0.182617187500, -29.281250000000, 23.171875000000, -0.453125000000, 1492750187
0.114990234375, -0.575927734375, 0.182617187500, -29.281250000000, 23.171875000000, -0.453125000000, 1492750187
0.114990234375, -0.575927734375, 0.182617187500, -29.281250000000, 23.171875000000, -0.453125000000, 1492750187
0.066406250000, -0.646728515625, 0.046875000000, -20.625000000000, 16.898437500000, -10.218750000000, 1492750188
0.066406250000, -0.646728515625, 0.046875000000, -20.625000000000, 16.898437500000, -10.218750000000, 1492750188
0.066406250000, -0.646728515625, 0.046875000000, -20.625000000000, 16.898437500000, -10.218750000000, 1492750188
0.092773437500, -0.793701171875, 0.051757812500, -32.750000000000, 29.296875000000, -8.148437500000, 1492750188
0.092773437500, -0.793701171875, 0.051757812500, -32.750000000000, 29.296875000000, -8.148437500000, 1492750188
0.092773437500, -0.793701171875, 0.051757812500, -32.750000000000, 29.296875000000, -8.148437500000, 1492750188
0.117187500000, -1.397705078125, 0.090576171875, -20.046875000000, -26.718750000000, -1.882812500000, 1492750188
0.117187500000, -1.397705078125, 0.090576171875, -20.046875000000, -26.718750000000, -1.882812500000, 1492750188
0.117187500000, -1.397705078125, 0.090576171875, -20.046875000000, -26.718750000000, -1.882812500000, 1492750188
0.448974609375, -1.943847656250, 0.059814453125, 66.648437500000, -41.054687500000, 14.968750000000, 1492750188
0.448974609375, -1.943847656250, 0.059814453125, 66.648437500000, -41.054687500000, 14.968750000000, 1492750188
0.448974609375, -1.943847656250, 0.059814453125, 66.648437500000, -41.054687500000, 14.968750000000, 1492750188
0.448974609375, -1.943847656250, 0.059814453125, 66.648437500000, -41.054687500000, 14.968750000000, 1492750188
0.507812500000, -1.989257812500, 0.120117187500, 101.007812500000, -16.046875000000, 25.289062500000, 1492750188
0.507812500000, -1.989257812500, 0.120117187500, 101.007812500000, -16.046875000000, 25.289062500000, 1492750188
0.507812500000, -1.989257812500, 0.120117187500, 101.007812500000, -16.046875000000, 25.289062500000, 1492750188
0.297607421875, -1.952148437500, 0.062500000000, 113.742187500000, -17.796875000000, 30.796875000000, 1492750188
0.297607421875, -1.952148437500, 0.062500000000, 113.742187500000, -17.796875000000, 30.796875000000, 1492750188
0.140869140625, -1.067382812500, 0.166503906250, 93.429687500000, -44.468750000000, -0.546875000000, 1492750188
0.140869140625, -1.067382812500, 0.166503906250, 93.429687500000, -44.468750000000, -0.546875000000, 1492750188
0.140869140625, -1.067382812500, 0.166503906250, 93.429687500000, -44.468750000000, -0.546875000000, 1492750188
0.140869140625, -1.067382812500, 0.166503906250, 93.429687500000, -44.468750000000, -0.546875000000, 1492750188
0.111572265625, -0.634765625000, 0.098388671875, 74.671875000000, 32.250000000000, 27.695312500000, 1492750188
0.111572265625, -0.634765625000, 0.098388671875, 74.671875000000, 32.250000000000, 27.695312500000, 1492750188
0.111572265625, -0.634765625000, 0.098388671875, 74.671875000000, 32.250000000000, 27.695312500000, 1492750188
0.156738281250, -0.349609375000, 0.084228515625, 70.546875000000, 124.851562500000, 17.632812500000, 1492750188
0.156738281250, -0.349609375000, 0.084228515625, 70.546875000000, 124.851562500000, 17.632812500000, 1492750188
0.156738281250, -0.349609375000, 0.084228515625, 70.546875000000, 124.851562500000, 17.632812500000, 1492750188
0.156738281250, -0.349609375000, 0.084228515625, 70.546875000000, 124.851562500000, 17.632812500000, 1492750188
0.056152343750, -0.166015625000, -0.000732421875, 106.328125000000, 155.093750000000, 13.914062500000, 1492750188
0.056152343750, -0.166015625000, -0.000732421875, 106.328125000000, 155.093750000000, 13.914062500000, 1492750188
0.056152343750, -0.166015625000, -0.000732421875, 106.328125000000, 155.093750000000, 13.914062500000, 1492750188
0.024414062500, -0.049560546875, 0.011718750000, 99.296875000000, 70.296875000000, -46.804687500000, 1492750188
0.024414062500, -0.049560546875, 0.011718750000, 99.296875000000, 70.296875000000, -46.804687500000, 1492750188
0.024414062500, -0.049560546875, 0.011718750000, 99.296875000000, 70.296875000000, -46.804687500000, 1492750188
0.023437500000, -0.130615234375, 0.088378906250, 63.968750000000, -33.148437500000, -42.640625000000, 1492750188
0.023437500000, -0.130615234375, 0.088378906250, 63.968750000000, -33.148437500000, -42.640625000000, 1492750188
0.095458984375, -0.218017578125, 0.063964843750, -22.367187500000, 5.046875000000, -43.695312500000, 1492750188
0.095458984375, -0.218017578125, 0.063964843750, -22.367187500000, 5.046875000000, -43.695312500000, 1492750188
0.095458984375, -0.218017578125, 0.063964843750, -22.367187500000, 5.046875000000, -43.695312500000, 1492750188
0.095458984375, -0.218017578125, 0.063964843750, -22.367187500000, 5.046875000000, -43.695312500000, 1492750188
0.095458984375, -0.218017578125, 0.063964843750, -22.367187500000, 5.046875000000, -43.695312500000, 1492750188
0.099365234375, -1.116210937500, -0.331787109375, -242.726562500000, -94.304687500000, -59.773437500000, 1492750188
0.099365234375, -1.116210937500, -0.331787109375, -242.726562500000, -94.304687500000, -59.773437500000, 1492750188
0.099365234375, -1.116210937500, -0.331787109375, -242.726562500000, -94.304687500000, -59.773437500000, 1492750188
-1.183105468750, -2.259277343750, 0.603271484375, -256.000000000000, -256.000000000000, -256.000000000000, 1492750188
-1.183105468750, -2.259277343750, 0.603271484375, -256.000000000000, -256.000000000000, -256.000000000000, 1492750188
-1.183105468750, -2.259277343750, 0.603271484375, -256.000000000000, -256.000000000000, -256.000000000000, 1492750188
-0.170166015625, -0.586425781250, 0.082275390625, 99.640625000000, 43.562500000000, 80.804687500000, 1492750188
-0.170166015625, -0.586425781250, 0.082275390625, 99.640625000000, 43.562500000000, 80.804687500000, 1492750188
-0.170166015625, -0.586425781250, 0.082275390625, 99.640625000000, 43.562500000000, 80.804687500000, 1492750188
-0.170166015625, -0.586425781250, 0.082275390625, 99.640625000000, 43.562500000000, 80.804687500000, 1492750188
-0.981933593750, -2.054931640625, 0.032470703125, -179.609375000000, -256.000000000000, -256.000000000000, 1492750188
-0.981933593750, -2.054931640625, 0.032470703125, -179.609375000000, -256.000000000000, -256.000000000000, 1492750188
-0.981933593750, -2.054931640625, 0.032470703125, -179.609375000000, -256.000000000000, -256.000000000000, 1492750188
0.580322265625, 0.589111328125, -0.690917968750, 253.992187500000, 253.992187500000, -256.000000000000, 1492750188
0.580322265625, 0.589111328125, -0.690917968750, 253.992187500000, 253.992187500000, -256.000000000000, 1492750188
0.580322265625, 0.589111328125, -0.690917968750, 253.992187500000, 253.992187500000, -256.000000000000, 1492750188
0.605957031250, -0.339111328125, -0.069580078125, 105.523437500000, 253.992187500000, -256.000000000000, 1492750188
0.900390625000, 0.439453125000, -0.330078125000, 169.843750000000, 151.664062500000, -256.000000000000, 1492750188
0.900390625000, 0.439453125000, -0.330078125000, 169.843750000000, 151.664062500000, -256.000000000000, 1492750188
0.900390625000, 0.439453125000, -0.330078125000, 169.843750000000, 151.664062500000, -256.000000000000, 1492750188
0.900390625000, 0.439453125000, -0.330078125000, 169.843750000000, 151.664062500000, -256.000000000000, 1492750188
0.866210937500, -0.523437500000, 0.190185546875, -256.000000000000, -106.593750000000, -256.000000000000, 1492750189
0.866210937500, -0.523437500000, 0.190185546875, -256.000000000000, -106.593750000000, -256.000000000000, 1492750189
0.866210937500, -0.523437500000, 0.190185546875, -256.000000000000, -106.593750000000, -256.000000000000, 1492750189
0.866210937500, -0.523437500000, 0.190185546875, -256.000000000000, -106.593750000000, -256.000000000000, 1492750189
0.866210937500, -0.523437500000, 0.190185546875, -256.000000000000, -106.593750000000, -256.000000000000, 1492750189
-0.042968750000, 0.349853515625, -0.393066406250, 124.773437500000, 201.656250000000, 91.000000000000, 1492750189
-0.042968750000, 0.349853515625, -0.393066406250, 124.773437500000, 201.656250000000, 91.000000000000, 1492750189
-0.042968750000, 0.349853515625, -0.393066406250, 124.773437500000, 201.656250000000, 91.000000000000, 1492750189
-0.257812500000, 0.088378906250, -0.359863281250, -117.429687500000, 8.992187500000, 42.507812500000, 1492750189
-0.257812500000, 0.088378906250, -0.359863281250, -117.429687500000, 8.992187500000, 42.507812500000, 1492750189
-0.257812500000, 0.088378906250, -0.359863281250, -117.429687500000, 8.992187500000, 42.507812500000, 1492750189
0.502441406250, -0.225341796875, -1.174072265625, 24.117187500000, 80.984375000000, 35.390625000000, 1492750189
0.502441406250, -0.225341796875, -1.174072265625, 24.117187500000, 80.984375000000, 35.390625000000, 1492750189
0.502441406250, -0.225341796875, -1.174072265625, 24.117187500000, 80.984375000000, 35.390625000000, 1492750189
0.502441406250, -0.225341796875, -1.174072265625, 24.117187500000, 80.984375000000, 35.390625000000, 1492750189
0.317871093750, -0.088378906250, -0.529296875000, -130.914062500000, -21.390625000000, 97.843750000000, 1492750189
0.317871093750, -0.088378906250, -0.529296875000, -130.914062500000, -21.390625000000, 97.843750000000, 1492750189
0.317871093750, -0.088378906250, -0.529296875000, -130.914062500000, -21.390625000000, 97.843750000000, 1492750189
0.078369140625, -0.154541015625, -1.326660156250, -121.312500000000, -127.367187500000, 87.492187500000, 1492750189
0.078369140625, -0.154541015625, -1.326660156250, -121.312500000000, -127.367187500000, 87.492187500000, 1492750189
0.078369140625, -0.154541015625, -1.326660156250, -121.312500000000, -127.367187500000, 87.492187500000, 1492750189
0.270263671875, -0.513916015625, -1.144775390625, -51.101562500000, -23.234375000000, -52.671875000000, 1492750189
0.270263671875, -0.513916015625, -1.144775390625, -51.101562500000, -23.234375000000, -52.671875000000, 1492750189
0.270263671875, -0.513916015625, -1.144775390625, -51.101562500000, -23.234375000000, -52.671875000000, 1492750189
0.298583984375, -0.084716796875, -0.931152343750, -25.109375000000, -5.828125000000, -30.671875000000, 1492750189
0.298583984375, -0.084716796875, -0.931152343750, -25.109375000000, -5.828125000000, -30.671875000000, 1492750189
0.298583984375, -0.084716796875, -0.931152343750, -25.109375000000, -5.828125000000, -30.671875000000, 1492750189
0.298583984375, -0.084716796875, -0.931152343750, -25.109375000000, -5.828125000000, -30.671875000000, 1492750189
0.167480468750, -0.324462890625, -0.854980468750, -15.351562500000, -8.671875000000, 16.890625000000, 1492750189
0.167480468750, -0.324462890625, -0.854980468750, -15.351562500000, -8.671875000000, 16.890625000000, 1492750189
0.167480468750, -0.324462890625, -0.854980468750, -15.351562500000, -8.671875000000, 16.890625000000, 1492750189
0.171386718750, -0.173828125000, -0.887451171875, 1.648437500000, -8.984375000000, 8.484375000000, 1492750189
0.171386718750, -0.173828125000, -0.887451171875, 1.648437500000, -8.984375000000, 8.484375000000, 1492750189
0.219970703125, -0.249023437500, -0.966552734375, 41.218750000000, 3.281250000000, 18.781250000000, 1492750189
0.219970703125, -0.249023437500, -0.966552734375, 41.218750000000, 3.281250000000, 18.781250000000, 1492750189
0.219970703125, -0.249023437500, -0.966552734375, 41.218750000000, 3.281250000000, 18.781250000000, 1492750189
0.219970703125, -0.249023437500, -0.966552734375, 41.218750000000, 3.281250000000, 18.781250000000, 1492750189
0.094970703125, -0.022216796875, -0.686767578125, 43.734375000000, 28.375000000000, 3.007812500000, 1492750189
0.094970703125, -0.022216796875, -0.686767578125, 43.734375000000, 28.375000000000, 3.007812500000, 1492750189
0.094970703125, -0.022216796875, -0.686767578125, 43.734375000000, 28.375000000000, 3.007812500000, 1492750189
0.094970703125, -0.022216796875, -0.686767578125, 43.734375000000, 28.375000000000, 3.007812500000, 1492750189
0.299072265625, -0.299316406250, -1.256103515625, 33.539062500000, -4.960937500000, 13.468750000000, 1492750189
0.299072265625, -0.299316406250, -1.256103515625, 33.539062500000, -4.960937500000, 13.468750000000, 1492750189
0.299072265625, -0.299316406250, -1.256103515625, 33.539062500000, -4.960937500000, 13.468750000000, 1492750189
0.306640625000, -0.035156250000, -0.656738281250, -15.312500000000, -7.054687500000, 6.953125000000, 1492750189
0.306640625000, -0.035156250000, -0.656738281250, -15.312500000000, -7.054687500000, 6.953125000000, 1492750189
0.306640625000, -0.035156250000, -0.656738281250, -15.312500000000, -7.054687500000, 6.953125000000, 1492750189
0.319335937500, -0.120849609375, -0.960449218750, 14.500000000000, 31.859375000000, 7.601562500000, 1492750189
0.319335937500, -0.120849609375, -0.960449218750, 14.500000000000, 31.859375000000, 7.601562500000, 1492750189
0.319335937500, -0.120849609375, -0.960449218750, 14.500000000000, 31.859375000000, 7.601562500000, 1492750189
0.385986328125, -0.132812500000, -0.873535156250, -26.648437500000, -14.976562500000, 20.890625000000, 1492750189
0.385986328125, -0.132812500000, -0.873535156250, -26.648437500000, -14.976562500000, 20.890625000000, 1492750189
0.385986328125, -0.132812500000, -0.873535156250, -26.648437500000, -14.976562500000, 20.890625000000, 1492750189
0.385986328125, -0.132812500000, -0.873535156250, -26.648437500000, -14.976562500000, 20.890625000000, 1492750189
0.381835937500, -0.205322265625, -0.856445312500, -22.218750000000, -26.054687500000, 22.773437500000, 1492750189
0.381835937500, -0.205322265625, -0.856445312500, -22.218750000000, -26.054687500000, 22.773437500000, 1492750189
0.381835937500, -0.205322265625, -0.856445312500, -22.218750000000, -26.054687500000, 22.773437500000, 1492750189
0.318603515625, -0.174560546875, -0.872802734375, -17.281250000000, -47.328125000000, 2.843750000000, 1492750189
0.318603515625, -0.174560546875, -0.872802734375, -17.281250000000, -47.328125000000, 2.843750000000, 1492750189
0.318603515625, -0.174560546875, -0.872802734375, -17.281250000000, -47.328125000000, 2.843750000000, 1492750189
0.201904296875, -0.115966796875, -1.048828125000, -13.632812500000, -33.242187500000, -10.757812500000, 1492750189
0.201904296875, -0.115966796875, -1.048828125000, -13.632812500000, -33.242187500000, -10.757812500000, 1492750189
0.201904296875, -0.115966796875, -1.048828125000, -13.632812500000, -33.242187500000, -10.757812500000, 1492750189
0.322509765625, -0.185302734375, -1.065429687500, -5.343750000000, -8.382812500000, -9.851562500000, 1492750189
0.322509765625, -0.185302734375, -1.065429687500, -5.343750000000, -8.382812500000, -9.851562500000, 1492750189
0.322509765625, -0.185302734375, -1.065429687500, -5.343750000000, -8.382812500000, -9.851562500000, 1492750189
0.322509765625, -0.185302734375, -1.065429687500, -5.343750000000, -8.382812500000, -9.851562500000, 1492750189
0.295166015625, -0.114013671875, -0.868896484375, -26.226562500000, -28.078125000000, 10.890625000000, 1492750189
0.295166015625, -0.114013671875, -0.868896484375, -26.226562500000, -28.078125000000, 10.890625000000, 1492750189
0.295166015625, -0.114013671875, -0.868896484375, -26.226562500000, -28.078125000000, 10.890625000000, 1492750190
0.128417968750, -0.256103515625, -1.063964843750, -41.468750000000, -35.351562500000, 25.570312500000, 1492750190
0.128417968750, -0.256103515625, -1.063964843750, -41.468750000000, -35.351562500000, 25.570312500000, 1492750190
-0.066406250000, 0.027832031250, -0.943115234375, -9.546875000000, 12.164062500000, -23.148437500000, 1492750190
-0.066406250000, 0.027832031250, -0.943115234375, -9.546875000000, 12.164062500000, -23.148437500000, 1492750190
-0.066406250000, 0.027832031250, -0.943115234375, -9.546875000000, 12.164062500000, -23.148437500000, 1492750190
-0.301513671875, -0.252929687500, -0.744140625000, 52.882812500000, 22.679687500000, -43.687500000000, 1492750190
-0.301513671875, -0.252929687500, -0.744140625000, 52.882812500000, 22.679687500000, -43.687500000000, 1492750190
-0.301513671875, -0.252929687500, -0.744140625000, 52.882812500000, 22.679687500000, -43.687500000000, 1492750190
-0.041748046875, -0.137207031250, -1.687988281250, 84.359375000000, 26.304687500000, 13.750000000000, 1492750190
-0.041748046875, -0.137207031250, -1.687988281250, 84.359375000000, 26.304687500000, 13.750000000000, 1492750190
-0.041748046875, -0.137207031250, -1.687988281250, 84.359375000000, 26.304687500000, 13.750000000000, 1492750190
-0.041748046875, -0.137207031250, -1.687988281250, 84.359375000000, 26.304687500000, 13.750000000000, 1492750190
-0.041748046875, -0.137207031250, -1.687988281250, 84.359375000000, 26.304687500000, 13.750000000000, 1492750190
-0.142822265625, 0.004882812500, -0.906494140625, 3.421875000000, 15.867187500000, -8.117187500000, 1492750190
-0.142822265625, 0.004882812500, -0.906494140625, 3.421875000000, 15.867187500000, -8.117187500000, 1492750190
-0.142822265625, 0.004882812500, -0.906494140625, 3.421875000000, 15.867187500000, -8.117187500000, 1492750190
-0.050781250000, 0.091308593750, -0.964111328125, 16.687500000000, 12.226562500000, -18.546875000000, 1492750190
-0.101318359375, 0.110107421875, -0.847656250000, 21.171875000000, -9.695312500000, -6.101562500000, 1492750190
-0.101318359375, 0.110107421875, -0.847656250000, 21.171875000000, -9.695312500000, -6.101562500000, 1492750190
-0.101318359375, 0.110107421875, -0.847656250000, 21.171875000000, -9.695312500000, -6.101562500000, 1492750190
-0.101318359375, 0.110107421875, -0.847656250000, 21.171875000000, -9.695312500000, -6.101562500000, 1492750190
-0.101318359375, 0.110107421875, -0.847656250000, 21.171875000000, -9.695312500000, -6.101562500000, 1492750190
-0.101318359375, 0.110107421875, -0.847656250000, 21.171875000000, -9.695312500000, -6.101562500000, 1492750190
0.022460937500, 0.029785156250, -1.072753906250, 24.898437500000, -5.257812500000, -2.820312500000, 1492750190
0.022460937500, 0.029785156250, -1.072753906250, 24.898437500000, -5.257812500000, -2.820312500000, 1492750190
0.022460937500, 0.029785156250, -1.072753906250, 24.898437500000, -5.257812500000, -2.820312500000, 1492750190
0.024658203125, -0.078369140625, -1.124755859375, 3.101562500000, 2.101562500000, 2.007812500000, 1492750190
0.024658203125, -0.078369140625, -1.124755859375, 3.101562500000, 2.101562500000, 2.007812500000, 1492750190
0.024658203125, -0.078369140625, -1.124755859375, 3.101562500000, 2.101562500000, 2.007812500000, 1492750190
-0.030761718750, -0.080078125000, -1.068115234375, -2.992187500000, -1.257812500000, 1.085937500000, 1492750190
-0.030761718750, -0.080078125000, -1.068115234375, -2.992187500000, -1.257812500000, 1.085937500000, 1492750190
-0.023437500000, 0.008544921875, -1.011718750000, -3.453125000000, -0.882812500000, -2.289062500000, 1492750190
-0.023437500000, 0.008544921875, -1.011718750000, -3.453125000000, -0.882812500000, -2.289062500000, 1492750190
-0.023437500000, 0.008544921875, -1.011718750000, -3.453125000000, -0.882812500000, -2.289062500000, 1492750190
-0.023437500000, 0.008544921875, -1.011718750000, -3.453125000000, -0.882812500000, -2.289062500000, 1492750190
-0.023437500000, 0.008544921875, -1.011718750000, -3.453125000000, -0.882812500000, -2.289062500000, 1492750190
-0.030273437500, -0.040527343750, -0.933349609375, -4.148437500000, 0.968750000000, -4.265625000000, 1492750190
-0.030273437500, -0.040527343750, -0.933349609375, -4.148437500000, 0.968750000000, -4.265625000000, 1492750190
-0.030273437500, -0.040527343750, -0.933349609375, -4.148437500000, 0.968750000000, -4.265625000000, 1492750190
-0.041015625000, 0.072509765625, -0.907958984375, 0.132812500000, -2.414062500000, -1.492187500000, 1492750190
-0.041015625000, 0.072509765625, -0.907958984375, 0.132812500000, -2.414062500000, -1.492187500000, 1492750190
-0.041015625000, 0.072509765625, -0.907958984375, 0.132812500000, -2.414062500000, -1.492187500000, 1492750190
0.021972656250, 0.082031250000, -1.029541015625, 0.453125000000, -4.609375000000, -1.867187500000, 1492750190
0.021972656250, 0.082031250000, -1.029541015625, 0.453125000000, -4.609375000000, -1.867187500000, 1492750190
-0.033203125000, -0.092285156250, -1.028808593750, -3.671875000000, -4.820312500000, -5.000000000000, 1492750190
-0.033203125000, -0.092285156250, -1.028808593750, -3.671875000000, -4.820312500000, -5.000000000000, 1492750190
-0.033203125000, -0.092285156250, -1.028808593750, -3.671875000000, -4.820312500000, -5.000000000000, 1492750190
-0.033203125000, -0.092285156250, -1.028808593750, -3.671875000000, -4.820312500000, -5.000000000000, 1492750190
-0.033203125000, -0.092285156250, -1.028808593750, -3.671875000000, -4.820312500000, -5.000000000000, 1492750190
-0.076904296875, -0.008300781250, -1.016601562500, -3.742187500000, -4.328125000000, -6.773437500000, 1492750190
-0.076904296875, -0.008300781250, -1.016601562500, -3.742187500000, -4.328125000000, -6.773437500000, 1492750190
-0.076904296875, -0.008300781250, -1.016601562500, -3.742187500000, -4.328125000000, -6.773437500000, 1492750190
-0.074218750000, -0.029785156250, -0.933837890625, -4.625000000000, -2.468750000000, -4.671875000000, 1492750190
-0.074218750000, -0.029785156250, -0.933837890625, -4.625000000000, -2.468750000000, -4.671875000000, 1492750190
-0.074218750000, -0.029785156250, -0.933837890625, -4.625000000000, -2.468750000000, -4.671875000000, 1492750190
-0.002197265625, -0.086425781250, -0.865722656250, -2.257812500000, 0.406250000000, -1.625000000000, 1492750190
-0.002197265625, -0.086425781250, -0.865722656250, -2.257812500000, 0.406250000000, -1.625000000000, 1492750190
-0.047119140625, -0.020507812500, -1.001708984375, -1.835937500000, -0.109375000000, -2.539062500000, 1492750190
-0.047119140625, -0.020507812500, -1.001708984375, -1.835937500000, -0.109375000000, -2.539062500000, 1492750190
-0.047119140625, -0.020507812500, -1.001708984375, -1.835937500000, -0.109375000000, -2.539062500000, 1492750190
-0.047119140625, -0.020507812500, -1.001708984375, -1.835937500000, -0.109375000000, -2.539062500000, 1492750190
-0.188232421875, 0.015869140625, -1.027343750000, -4.484375000000, 1.039062500000, 0.312500000000, 1492750190
-0.188232421875, 0.015869140625, -1.027343750000, -4.484375000000, 1.039062500000, 0.312500000000, 1492750190
-0.188232421875, 0.015869140625, -1.027343750000, -4.484375000000, 1.039062500000, 0.312500000000, 1492750190
-0.188232421875, 0.015869140625, -1.027343750000, -4.484375000000, 1.039062500000, 0.312500000000, 1492750190
-0.094970703125, -0.154052734375, -1.012207031250, -3.132812500000, 4.718750000000, -6.109375000000, 1492750191
-0.094970703125, -0.154052734375, -1.012207031250, -3.132812500000, 4.718750000000, -6.109375000000, 1492750191
-0.094970703125, -0.154052734375, -1.012207031250, -3.132812500000, 4.718750000000, -6.109375000000, 1492750191
-0.005859375000, -0.077148437500, -0.962158203125, -1.539062500000, 2.320312500000, -2.828125000000, 1492750191
-0.005859375000, -0.077148437500, -0.962158203125, -1.539062500000, 2.320312500000, -2.828125000000, 1492750191
-0.005859375000, -0.077148437500, -0.962158203125, -1.539062500000, 2.320312500000, -2.828125000000, 1492750191
-0.051757812500, -0.009277343750, -1.020019531250, -1.687500000000, -0.171875000000, -1.093750000000, 1492750191
-0.051757812500, -0.009277343750, -1.020019531250, -1.687500000000, -0.171875000000, -1.093750000000, 1492750191
-0.051757812500, -0.009277343750, -1.020019531250, -1.687500000000, -0.171875000000, -1.093750000000, 1492750191
-0.051757812500, -0.009277343750, -1.020019531250, -1.687500000000, -0.171875000000, -1.093750000000, 1492750191
-0.141113281250, -0.066894531250, -1.015136718750, -4.132812500000, 0.867187500000, -1.414062500000, 1492750191
-0.141113281250, -0.066894531250, -1.015136718750, -4.132812500000, 0.867187500000, -1.414062500000, 1492750191
-0.141113281250, -0.066894531250, -1.015136718750, -4.132812500000, 0.867187500000, -1.414062500000, 1492750191
-0.087402343750, 0.084228515625, -0.976562500000, -3.679687500000, 0.593750000000, -2.664062500000, 1492750191
-0.087402343750, 0.084228515625, -0.976562500000, -3.679687500000, 0.593750000000, -2.664062500000, 1492750191
-0.087402343750, 0.084228515625, -0.976562500000, -3.679687500000, 0.593750000000, -2.664062500000, 1492750191
-0.075683593750, 0.024169921875, -1.007812500000, -4.046875000000, 0.539062500000, -4.460937500000, 1492750191
-0.075683593750, 0.024169921875, -1.007812500000, -4.046875000000, 0.539062500000, -4.460937500000, 1492750191
-0.075683593750, 0.024169921875, -1.007812500000, -4.046875000000, 0.539062500000, -4.460937500000, 1492750191
0.006591796875, -0.020019531250, -0.930664062500, -4.906250000000, -1.273437500000, -1.140625000000, 1492750191
0.006591796875, -0.020019531250, -0.930664062500, -4.906250000000, -1.273437500000, -1.140625000000, 1492750191
0.006591796875, -0.020019531250, -0.930664062500, -4.906250000000, -1.273437500000, -1.140625000000, 1492750191
0.006591796875, -0.020019531250, -0.930664062500, -4.906250000000, -1.273437500000, -1.140625000000, 1492750191
-0.125732421875, -0.063232421875, -1.027099609375, -3.398437500000, -2.812500000000, -4.523437500000, 1492750191
-0.125732421875, -0.063232421875, -1.027099609375, -3.398437500000, -2.812500000000, -4.523437500000, 1492750191
-0.125732421875, -0.063232421875, -1.027099609375, -3.398437500000, -2.812500000000, -4.523437500000, 1492750191
-0.028076171875, 0.058105468750, -1.066406250000, -3.421875000000, -2.773437500000, -3.179687500000, 1492750191
-0.028076171875, 0.058105468750, -1.066406250000, -3.421875000000, -2.773437500000, -3.179687500000, 1492750191
-0.028076171875, 0.058105468750, -1.066406250000, -3.421875000000, -2.773437500000, -3.179687500000, 1492750191
-0.053466796875, -0.009521484375, -0.997802734375, -4.929687500000, 0.671875000000, -2.992187500000, 1492750191
-0.053466796875, -0.009521484375, -0.997802734375, -4.929687500000, 0.671875000000, -2.992187500000, 1492750191
-0.053466796875, -0.009521484375, -0.997802734375, -4.929687500000, 0.671875000000, -2.992187500000, 1492750191
-0.133789062500, -0.068847656250, -0.983398437500, -4.968750000000, 0.523437500000, -1.679687500000, 1492750191
-0.133789062500, -0.068847656250, -0.983398437500, -4.968750000000, 0.523437500000, -1.679687500000, 1492750191
-0.133789062500, -0.068847656250, -0.983398437500, -4.968750000000, 0.523437500000, -1.679687500000, 1492750191
-0.133789062500, -0.068847656250, -0.983398437500, -4.968750000000, 0.523437500000, -1.679687500000, 1492750191
-0.125000000000, -0.012939453125, -0.934326171875, -4.453125000000, 2.835937500000, -1.390625000000, 1492750191
-0.125000000000, -0.012939453125, -0.934326171875, -4.453125000000, 2.835937500000, -1.390625000000, 1492750191
-0.125000000000, -0.012939453125, -0.934326171875, -4.453125000000, 2.835937500000, -1.390625000000, 1492750191
-0.054443359375, -0.029296875000, -0.972900390625, -3.039062500000, 0.476562500000, -1.054687500000, 1492750191
-0.054443359375, -0.029296875000, -0.972900390625, -3.039062500000, 0.476562500000, -1.054687500000, 1492750191
-0.054443359375, -0.029296875000, -0.972900390625, -3.039062500000, 0.476562500000, -1.054687500000, 1492750191
-0.090820312500, 0.018798828125, -1.007812500000, -4.546875000000, 0.945312500000, -4.703125000000, 1492750191
-0.090820312500, 0.018798828125, -1.007812500000, -4.546875000000, 0.945312500000, -4.703125000000, 1492750191
-0.090820312500, 0.018798828125, -1.007812500000, -4.546875000000, 0.945312500000, -4.703125000000, 1492750191
-0.047119140625, 0.080322265625, -0.911376953125, -3.835937500000, 0.312500000000, -2.101562500000, 1492750191
-0.047119140625, 0.080322265625, -0.911376953125, -3.835937500000, 0.312500000000, -2.101562500000, 1492750191
-0.047119140625, 0.080322265625, -0.911376953125, -3.835937500000, 0.312500000000, -2.101562500000, 1492750191
-0.047119140625, -0.026367187500, -0.985595703125, -4.304687500000, -2.398437500000, -1.812500000000, 1492750191
-0.047119140625, -0.026367187500, -0.985595703125, -4.304687500000, -2.398437500000, -1.812500000000, 1492750191
-0.047119140625, -0.026367187500, -0.985595703125, -4.304687500000, -2.398437500000, -1.812500000000, 1492750191
-0.125976562500, -0.008544921875, -0.995117187500, -4.187500000000, -2.117187500000, -2.562500000000, 1492750191
-0.125976562500, -0.008544921875, -0.995117187500, -4.187500000000, -2.117187500000, -2.562500000000, 1492750191
-0.125976562500, -0.008544921875, -0.995117187500, -4.187500000000, -2.117187500000, -2.562500000000, 1492750191
-0.125976562500, -0.008544921875, -0.995117187500, -4.187500000000, -2.117187500000, -2.562500000000, 1492750191
-0.084960937500, -0.069824218750, -0.874755859375, -3.296875000000, -1.429687500000, -2.382812500000, 1492750191
-0.084960937500, -0.069824218750, -0.874755859375, -3.296875000000, -1.429687500000, -2.382812500000, 1492750191
-0.084960937500, -0.069824218750, -0.874755859375, -3.296875000000, -1.429687500000, -2.382812500000, 1492750191
-0.125976562500, 0.093017578125, -1.010986328125, -3.109375000000, -0.726562500000, 0.070312500000, 1492750191
-0.125976562500, 0.093017578125, -1.010986328125, -3.109375000000, -0.726562500000, 0.070312500000, 1492750191
-0.125976562500, 0.093017578125, -1.010986328125, -3.109375000000, -0.726562500000, 0.070312500000, 1492750191
-0.125976562500, 0.093017578125, -1.010986328125, -3.109375000000, -0.726562500000, 0.070312500000, 1492750191
-0.078125000000, -0.010498046875, -0.988037109375, -2.609375000000, -0.789062500000, -3.234375000000, 1492750191
-0.078125000000, -0.010498046875, -0.988037109375, -2.609375000000, -0.789062500000, -3.234375000000, 1492750191
-0.078125000000, -0.010498046875, -0.988037109375, -2.609375000000, -0.789062500000, -3.234375000000, 1492750191
0.008056640625, 0.148681640625, -1.024902343750, -4.984375000000, 2.085937500000, -1.687500000000, 1492750191
-0.088134765625, 0.090820312500, -1.006103515625, -4.460937500000, -0.765625000000, -2.523437500000, 1492750192
-0.088134765625, 0.090820312500, -1.006103515625, -4.460937500000, -0.765625000000, -2.523437500000, 1492750192
0.001953125000, 0.074707031250, -0.935058593750, -1.609375000000, 2.046875000000, -4.414062500000, 1492750192
-0.048095703125, 0.075927734375, -1.002197265625, -1.414062500000, -0.835937500000, -2.742187500000, 1492750192
-0.048095703125, 0.075927734375, -1.002197265625, -1.414062500000, -0.835937500000, -2.742187500000, 1492750192
-0.048095703125, 0.075927734375, -1.002197265625, -1.414062500000, -0.835937500000, -2.742187500000, 1492750192
-0.048095703125, 0.075927734375, -1.002197265625, -1.414062500000, -0.835937500000, -2.742187500000, 1492750192
-0.048095703125, 0.075927734375, -1.002197265625, -1.414062500000, -0.835937500000, -2.742187500000, 1492750192
-0.048095703125, 0.075927734375, -1.002197265625, -1.414062500000, -0.835937500000, -2.742187500000, 1492750192
-0.041992187500, 0.038574218750, -1.004394531250, -4.390625000000, 0.296875000000, -1.156250000000, 1492750192
-0.021484375000, 0.031250000000, -0.936035156250, -4.515625000000, 0.687500000000, -2.015625000000, 1492750192
-0.021484375000, 0.031250000000, -0.936035156250, -4.515625000000, 0.687500000000, -2.015625000000, 1492750192
-0.021484375000, 0.031250000000, -0.936035156250, -4.515625000000, 0.687500000000, -2.015625000000, 1492750192
-0.021484375000, 0.031250000000, -0.936035156250, -4.515625000000, 0.687500000000, -2.015625000000, 1492750192
-0.021484375000, 0.031250000000, -0.936035156250, -4.515625000000, 0.687500000000, -2.015625000000, 1492750192
0.001708984375, -0.066894531250, -0.924804687500, -3.804687500000, -0.937500000000, -5.000000000000, 1492750192
0.001708984375, -0.066894531250, -0.924804687500, -3.804687500000, -0.937500000000, -5.000000000000, 1492750192
-0.091308593750, -0.008056640625, -0.940917968750, -3.382812500000, 0.828125000000, -2.507812500000, 1492750192
-0.091308593750, -0.008056640625, -0.940917968750, -3.382812500000, 0.828125000000, -2.507812500000, 1492750192
-0.091308593750, -0.008056640625, -0.940917968750, -3.382812500000, 0.828125000000, -2.507812500000, 1492750192
-0.091308593750, -0.008056640625, -0.940917968750, -3.382812500000, 0.828125000000, -2.507812500000, 1492750192
-0.040283203125, -0.007080078125, -1.025634765625, -4.187500000000, -2.843750000000, -2.000000000000, 1492750192
-0.150146484375, -0.007324218750, -1.014648437500, -1.882812500000, 0.070312500000, -4.953125000000, 1492750192
-0.150146484375, -0.007324218750, -1.014648437500, -1.882812500000, 0.070312500000, -4.953125000000, 1492750192
-0.150146484375, -0.007324218750, -1.014648437500, -1.882812500000, 0.070312500000, -4.953125000000, 1492750192
-0.047119140625, 0.064941406250, -0.936767578125, -1.476562500000, -0.382812500000, -1.968750000000, 1492750192
-0.047119140625, 0.064941406250, -0.936767578125, -1.476562500000, -0.382812500000, -1.968750000000, 1492750192
-0.047119140625, 0.064941406250, -0.936767578125, -1.476562500000, -0.382812500000, -1.968750000000, 1492750192
-0.033691406250, 0.014404296875, -0.962890625000, -3.476562500000, -0.617187500000, -3.203125000000, 1492750192
-0.033691406250, 0.014404296875, -0.962890625000, -3.476562500000, -0.617187500000, -3.203125000000, 1492750192
-0.033691406250, 0.014404296875, -0.962890625000, -3.476562500000, -0.617187500000, -3.203125000000, 1492750192
-0.091796875000, -0.002197265625, -1.076416015625, -4.726562500000, -0.085937500000, -2.890625000000, 1492750192
-0.091796875000, -0.002197265625, -1.076416015625, -4.726562500000, -0.085937500000, -2.890625000000, 1492750192
-0.083496093750, -0.018554687500, -1.012939453125, -3.203125000000, -2.523437500000, -1.343750000000, 1492750192
-0.083496093750, -0.018554687500, -1.012939453125, -3.203125000000, -2.523437500000, -1.343750000000, 1492750192
-0.083496093750, -0.018554687500, -1.012939453125, -3.203125000000, -2.523437500000, -1.343750000000, 1492750192
-0.083496093750, -0.018554687500, -1.012939453125, -3.203125000000, -2.523437500000, -1.343750000000, 1492750192
-0.083496093750, -0.018554687500, -1.012939453125, -3.203125000000, -2.523437500000, -1.343750000000, 1492750192
0.015380859375, -0.020996093750, -0.915771484375, -4.382812500000, -2.046875000000, 0.476562500000, 1492750192
0.015380859375, -0.020996093750, -0.915771484375, -4.382812500000, -2.046875000000, 0.476562500000, 1492750192
0.015380859375, -0.020996093750, -0.915771484375, -4.382812500000, -2.046875000000, 0.476562500000, 1492750192
-0.147460937500, 0.005615234375, -0.976562500000, -1.914062500000, -0.328125000000, -1.609375000000, 1492750192
-0.147460937500, 0.005615234375, -0.976562500000, -1.914062500000, -0.328125000000, -1.609375000000, 1492750192
-0.147460937500, 0.005615234375, -0.976562500000, -1.914062500000, -0.328125000000, -1.609375000000, 1492750192
-0.047119140625, 0.030761718750, -0.921630859375, -1.632812500000, 0.484375000000, -4.070312500000, 1492750192
-0.047119140625, 0.030761718750, -0.921630859375, -1.632812500000, 0.484375000000, -4.070312500000, 1492750192
-0.047119140625, 0.030761718750, -0.921630859375, -1.632812500000, 0.484375000000, -4.070312500000, 1492750192
-0.047119140625, 0.030761718750, -0.921630859375, -1.632812500000, 0.484375000000, -4.070312500000, 1492750192
-0.053955078125, 0.018310546875, -1.029541015625, -3.562500000000, -0.968750000000, -1.242187500000, 1492750192
-0.111572265625, -0.066894531250, -0.997558593750, -4.312500000000, 0.671875000000, -4.351562500000, 1492750192
-0.111572265625, -0.066894531250, -0.997558593750, -4.312500000000, 0.671875000000, -4.351562500000, 1492750192
-0.111572265625, -0.066894531250, -0.997558593750, -4.312500000000, 0.671875000000, -4.351562500000, 1492750192
-0.111572265625, -0.066894531250, -0.997558593750, -4.312500000000, 0.671875000000, -4.351562500000, 1492750192
-0.111572265625, -0.066894531250, -0.997558593750, -4.312500000000, 0.671875000000, -4.351562500000, 1492750192
-0.085449218750, 0.020507812500, -0.992187500000, -4.484375000000, -0.554687500000, -3.296875000000, 1492750192
0.029541015625, 0.079345703125, -0.964111328125, -3.484375000000, -0.164062500000, -2.515625000000, 1492750192
0.002441406250, -0.070312500000, -0.926269531250, -4.070312500000, 2.179687500000, -4.023437500000, 1492750192
0.002441406250, -0.070312500000, -0.926269531250, -4.070312500000, 2.179687500000, -4.023437500000, 1492750192
0.002441406250, -0.070312500000, -0.926269531250, -4.070312500000, 2.179687500000, -4.023437500000, 1492750192
0.002441406250, -0.070312500000, -0.926269531250, -4.070312500000, 2.179687500000, -4.023437500000, 1492750192
0.002441406250, -0.070312500000, -0.926269531250, -4.070312500000, 2.179687500000, -4.023437500000, 1492750192
-0.057861328125, -0.009033203125, -0.996093750000, -3.960937500000, -0.820312500000, -2.601562500000, 1492750192
-0.057861328125, -0.009033203125, -0.996093750000, -3.960937500000, -0.820312500000, -2.601562500000, 1492750192
-0.057861328125, -0.009033203125, -0.996093750000, -3.960937500000, -0.820312500000, -2.601562500000, 1492750192
-0.082763671875, -0.009765625000, -1.000000000000, -1.335937500000, -0.898437500000, -4.671875000000, 1492750192
-0.082763671875, -0.009765625000, -1.000000000000, -1.335937500000, -0.898437500000, -4.671875000000, 1492750192
-0.082763671875, -0.009765625000, -1.000000000000, -1.335937500000, -0.898437500000, -4.671875000000, 1492750192
-0.052978515625, 0.027099609375, -1.068847656250, -4.750000000000, -2.437500000000, -1.085937500000, 1492750193
-0.052978515625, 0.027099609375, -1.068847656250, -4.750000000000, -2.437500000000, -1.085937500000, 1492750193
-0.052978515625, 0.027099609375, -1.068847656250, -4.750000000000, -2.437500000000, -1.085937500000, 1492750193
-0.008056640625, 0.049560546875, -0.995117187500, -3.468750000000, -0.750000000000, -2.609375000000, 1492750193
-0.008056640625, 0.049560546875, -0.995117187500, -3.468750000000, -0.750000000000, -2.609375000000, 1492750193
-0.008056640625, 0.049560546875, -0.995117187500, -3.468750000000, -0.750000000000, -2.609375000000, 1492750193
-0.008056640625, 0.049560546875, -0.995117187500, -3.468750000000, -0.750000000000, -2.609375000000, 1492750193
-0.074462890625, -0.025634765625, -0.935791015625, -1.796875000000, -0.171875000000, -2.593750000000, 1492750193
-0.074462890625, -0.025634765625, -0.935791015625, -1.796875000000, -0.171875000000, -2.593750000000, 1492750193
-0.074462890625, -0.025634765625, -0.935791015625, -1.796875000000, -0.171875000000, -2.593750000000, 1492750193
0.004394531250, 0.016113281250, -0.962890625000, -3.304687500000, 0.585937500000, -3.890625000000, 1492750193
0.004394531250, 0.016113281250, -0.962890625000, -3.304687500000, 0.585937500000, -3.890625000000, 1492750193
0.004394531250, 0.016113281250, -0.962890625000, -3.304687500000, 0.585937500000, -3.890625000000, 1492750193
0.004394531250, 0.016113281250, -0.962890625000, -3.304687500000, 0.585937500000, -3.890625000000, 1492750193
0.004394531250, 0.016113281250, -0.962890625000, -3.304687500000, 0.585937500000, -3.890625000000, 1492750193
-0.093750000000, 0.201171875000, -1.001464843750, -4.835937500000, -0.570312500000, -4.562500000000, 1492750193
-0.093750000000, 0.201171875000, -1.001464843750, -4.835937500000, -0.570312500000, -4.562500000000, 1492750193
-0.093750000000, 0.201171875000, -1.001464843750, -4.835937500000, -0.570312500000, -4.562500000000, 1492750193
-0.093750000000, 0.201171875000, -1.001464843750, -4.835937500000, -0.570312500000, -4.562500000000, 1492750193
-0.066406250000, -0.027099609375, -1.002685546875, -3.390625000000, -0.382812500000, -1.890625000000, 1492750193
-0.029052734375, 0.011962890625, -0.953125000000, -3.406250000000, 0.960937500000, -1.765625000000, 1492750193
-0.029052734375, 0.011962890625, -0.953125000000, -3.406250000000, 0.960937500000, -1.765625000000, 1492750193
-0.029052734375, 0.011962890625, -0.953125000000, -3.406250000000, 0.960937500000, -1.765625000000, 1492750193
0.013183593750, -0.006591796875, -1.005615234375, -1.593750000000, 0.617187500000, -1.789062500000, 1492750193
0.013183593750, -0.006591796875, -1.005615234375, -1.593750000000, 0.617187500000, -1.789062500000, 1492750193
0.013183593750, -0.006591796875, -1.005615234375, -1.593750000000, 0.617187500000, -1.789062500000, 1492750193
-0.059082031250, 0.150146484375, -1.004150390625, -4.226562500000, -0.851562500000, -2.882812500000, 1492750193
-0.059082031250, 0.150146484375, -1.004150390625, -4.226562500000, -0.851562500000, -2.882812500000, 1492750193
-0.059082031250, 0.150146484375, -1.004150390625, -4.226562500000, -0.851562500000, -2.882812500000, 1492750193
-0.052978515625, -0.007812500000, -0.989257812500, -3.203125000000, 0.296875000000, -1.828125000000, 1492750193
-0.052978515625, -0.007812500000, -0.989257812500, -3.203125000000, 0.296875000000, -1.828125000000, 1492750193
-0.052978515625, -0.007812500000, -0.989257812500, -3.203125000000, 0.296875000000, -1.828125000000, 1492750193
-0.052978515625, -0.007812500000, -0.989257812500, -3.203125000000, 0.296875000000, -1.828125000000, 1492750193
-0.037109375000, 0.007812500000, -0.968750000000, -4.398437500000, -0.625000000000, -3.945312500000, 1492750193
-0.047119140625, 0.062744140625, -1.064208984375, -3.523437500000, -1.000000000000, -2.898437500000, 1492750193
-0.047119140625, 0.062744140625, -1.064208984375, -3.523437500000, -1.000000000000, -2.898437500000, 1492750193
-0.047119140625, 0.062744140625, -1.064208984375, -3.523437500000, -1.000000000000, -2.898437500000, 1492750193
-0.047119140625, 0.062744140625, -1.064208984375, -3.523437500000, -1.000000000000, -2.898437500000, 1492750193
-0.091308593750, 0.088378906250, -0.964111328125, -4.523437500000, -0.273437500000, -2.898437500000, 1492750193
-0.091308593750, 0.088378906250, -0.964111328125, -4.523437500000, -0.273437500000, -2.898437500000, 1492750193
-0.091308593750, 0.088378906250, -0.964111328125, -4.523437500000, -0.273437500000, -2.898437500000, 1492750193
-0.091308593750, 0.088378906250, -0.964111328125, -4.523437500000, -0.273437500000, -2.898437500000, 1492750193
-0.069335937500, 0.005859375000, -0.926269531250, -4.875000000000, 0.109375000000, -2.585937500000, 1492750193
-0.069335937500, 0.005859375000, -0.926269531250, -4.875000000000, 0.109375000000, -2.585937500000, 1492750193
-0.069335937500, 0.005859375000, -0.926269531250, -4.875000000000, 0.109375000000, -2.585937500000, 1492750193
-0.069335937500, 0.005859375000, -0.926269531250, -4.875000000000, 0.109375000000, -2.585937500000, 1492750193
-0.049560546875, 0.092773437500, -0.922119140625, -4.687500000000, -0.179687500000, -1.359375000000, 1492750193
-0.049560546875, 0.092773437500, -0.922119140625, -4.687500000000, -0.179687500000, -1.359375000000, 1492750193
-0.049560546875, 0.092773437500, -0.922119140625, -4.687500000000, -0.179687500000, -1.359375000000, 1492750193
-0.034667968750, -0.026123046875, -0.970214843750, -4.726562500000, -0.765625000000, -1.140625000000, 1492750193
-0.034667968750, -0.026123046875, -0.970214843750, -4.726562500000, -0.765625000000, -1.140625000000, 1492750193
-0.034667968750, -0.026123046875, -0.970214843750, -4.726562500000, -0.765625000000, -1.140625000000, 1492750193
0.010498046875, 0.005126953125, -1.011718750000, -4.664062500000, 0.375000000000, -4.054687500000, 1492750193
0.010498046875, 0.005126953125, -1.011718750000, -4.664062500000, 0.375000000000, -4.054687500000, 1492750193
-0.022705078125, 0.016845703125, -0.918945312500, -3.343750000000, 2.328125000000, -2.414062500000, 1492750193
-0.022705078125, 0.016845703125, -0.918945312500, -3.343750000000, 2.328125000000, -2.414062500000, 1492750193
-0.022705078125, 0.016845703125, -0.918945312500, -3.343750000000, 2.328125000000, -2.414062500000, 1492750193
-0.022705078125, 0.016845703125, -0.918945312500, -3.343750000000, 2.328125000000, -2.414062500000, 1492750193
-0.083740234375, 0.092529296875, -1.000244140625, -3.375000000000, -0.906250000000, -4.093750000000, 1492750193
0.020996093750, 0.040527343750, -0.924316406250, -1.812500000000, 0.570312500000, -4.328125000000, 1492750193
0.020996093750, 0.040527343750, -0.924316406250, -1.812500000000, 0.570312500000, -4.328125000000, 1492750193
0.020996093750, 0.040527343750, -0.924316406250, -1.812500000000, 0.570312500000, -4.328125000000, 1492750193
-0.152587890625, 0.020507812500, -1.087158203125, -3.148437500000, -0.859375000000, -4.679687500000, 1492750193
-0.152587890625, 0.020507812500, -1.087158203125, -3.148437500000, -0.859375000000, -4.679687500000, 1492750193
-0.152587890625, 0.020507812500, -1.087158203125, -3.148437500000, -0.859375000000, -4.679687500000, 1492750193
-0.036132812500, -0.028076171875, -1.062988281250, -3.492187500000, -0.039062500000, -4.656250000000, 1492750193
-0.036132812500, -0.028076171875, -1.062988281250, -3.492187500000, -0.039062500000, -4.656250000000, 1492750194
-0.036132812500, -0.028076171875, -1.062988281250, -3.492187500000, -0.039062500000, -4.656250000000, 1492750194
-0.036865234375, 0.062500000000, -1.004394531250, -4.757812500000, 0.859375000000, -3.609375000000, 1492750194
-0.036865234375, 0.062500000000, -1.004394531250, -4.757812500000, 0.859375000000, -3.609375000000, 1492750194
-0.036865234375, 0.062500000000, -1.004394531250, -4.757812500000, 0.859375000000, -3.609375000000, 1492750194
-0.036865234375, 0.062500000000, -1.004394531250, -4.757812500000, 0.859375000000, -3.609375000000, 1492750194
-0.051757812500, 0.003173828125, -1.062988281250, -6.039062500000, 0.546875000000, -3.164062500000, 1492750194
-0.051757812500, 0.003173828125, -1.062988281250, -6.039062500000, 0.546875000000, -3.164062500000, 1492750194
-0.051757812500, 0.003173828125, -1.062988281250, -6.039062500000, 0.546875000000, -3.164062500000, 1492750194
-0.072509765625, 0.012695312500, -0.933105468750, -3.664062500000, 0.968750000000, -1.015625000000, 1492750194
-0.072509765625, 0.012695312500, -0.933105468750, -3.664062500000, 0.968750000000, -1.015625000000, 1492750194
-0.072509765625, 0.012695312500, -0.933105468750, -3.664062500000, 0.968750000000, -1.015625000000, 1492750194
-0.072509765625, 0.012695312500, -0.933105468750, -3.664062500000, 0.968750000000, -1.015625000000, 1492750194
0.006835937500, -0.017089843750, -0.993164062500, -4.171875000000, -0.632812500000, -4.460937500000, 1492750194
0.006835937500, -0.017089843750, -0.993164062500, -4.171875000000, -0.632812500000, -4.460937500000, 1492750194
-0.121582031250, 0.036376953125, -0.952148437500, -3.382812500000, 0.171875000000, -2.281250000000, 1492750194
-0.121582031250, 0.036376953125, -0.952148437500, -3.382812500000, 0.171875000000, -2.281250000000, 1492750194
-0.121582031250, 0.036376953125, -0.952148437500, -3.382812500000, 0.171875000000, -2.281250000000, 1492750194
-0.121582031250, 0.036376953125, -0.952148437500, -3.382812500000, 0.171875000000, -2.281250000000, 1492750194
-0.121582031250, 0.036376953125, -0.952148437500, -3.140625000000, -2.335937500000, -2.484375000000, 1492750194
0.005371093750, 0.044433593750, -1.078125000000, -4.359375000000, -0.992187500000, -4.898437500000, 1492750194
0.005371093750, 0.044433593750, -1.078125000000, -4.359375000000, -0.992187500000, -4.898437500000, 1492750194
0.005371093750, 0.044433593750, -1.078125000000, -4.359375000000, -0.992187500000, -4.898437500000, 1492750194
0.005371093750, 0.044433593750, -1.078125000000, -4.359375000000, -0.992187500000, -4.898437500000, 1492750194
0.005371093750, 0.044433593750, -1.078125000000, -4.359375000000, -0.992187500000, -4.898437500000, 1492750194
0.000732421875, -0.015136718750, -0.986572265625, -4.843750000000, 0.632812500000, -1.617187500000, 1492750194
0.000732421875, -0.015136718750, -0.986572265625, -4.843750000000, 0.632812500000, -1.617187500000, 1492750194
0.000732421875, -0.015136718750, -0.986572265625, -4.843750000000, 0.632812500000, -1.617187500000, 1492750194
0.000732421875, -0.015136718750, -0.986572265625, -4.843750000000, 0.632812500000, -1.617187500000, 1492750194
0.000732421875, -0.015136718750, -0.986572265625, -4.843750000000, 0.632812500000, -1.617187500000, 1492750194
0.000732421875, -0.015136718750, -0.986572265625, -4.843750000000, 0.632812500000, -1.617187500000, 1492750194
0.000732421875, -0.015136718750, -0.986572265625, -4.843750000000, 0.632812500000, -1.617187500000, 1492750194
-0.136718750000, -0.088623046875, -0.933105468750, -4.445312500000, 2.882812500000, -2.718750000000, 1492750194
-0.136718750000, -0.088623046875, -0.933105468750, -4.445312500000, 2.882812500000, -2.718750000000, 1492750194
-0.136718750000, -0.088623046875, -0.933105468750, -4.445312500000, 2.882812500000, -2.718750000000, 1492750194
0.010498046875, -0.009521484375, -0.993896484375, -3.257812500000, 0.734375000000, -2.523437500000, 1492750194
0.010498046875, -0.009521484375, -0.993896484375, -3.257812500000, 0.734375000000, -2.523437500000, 1492750194
0.010498046875, -0.009521484375, -0.993896484375, -3.257812500000, 0.734375000000, -2.523437500000, 1492750194
-0.076904296875, -0.073242187500, -0.989990234375, -3.710937500000, -0.906250000000, -3.773437500000, 1492750194
-0.076904296875, -0.073242187500, -0.989990234375, -3.710937500000, -0.906250000000, -3.773437500000, 1492750194
-0.076904296875, -0.073242187500, -0.989990234375, -3.710937500000, -0.906250000000, -3.773437500000, 1492750194
-0.067871093750, 0.036621093750, -1.018066406250, -4.609375000000, 0.093750000000, -4.976562500000, 1492750194
-0.067871093750, 0.036621093750, -1.018066406250, -4.609375000000, 0.093750000000, -4.976562500000, 1492750194
-0.067871093750, 0.036621093750, -1.018066406250, -4.609375000000, 0.093750000000, -4.976562500000, 1492750194
-0.079589843750, 0.082275390625, -1.029541015625, -4.460937500000, -0.945312500000, -1.078125000000, 1492750194
-0.079589843750, 0.082275390625, -1.029541015625, -4.460937500000, -0.945312500000, -1.078125000000, 1492750194
-0.079589843750, 0.082275390625, -1.029541015625, -4.460937500000, -0.945312500000, -1.078125000000, 1492750194
-0.079589843750, 0.082275390625, -1.029541015625, -4.460937500000, -0.945312500000, -1.078125000000, 1492750194
0.019531250000, 0.083496093750, -0.982421875000, -4.070312500000, -2.273437500000, -2.304687500000, 1492750194
0.019531250000, 0.083496093750, -0.982421875000, -4.070312500000, -2.273437500000, -2.304687500000, 1492750194
0.019531250000, 0.083496093750, -0.982421875000, -4.070312500000, -2.273437500000, -2.304687500000, 1492750194
-0.141113281250, -0.021240234375, -0.912597656250, -3.312500000000, -0.765625000000, -4.382812500000, 1492750194
-0.141113281250, -0.021240234375, -0.912597656250, -3.312500000000, -0.765625000000, -4.382812500000, 1492750194
-0.141113281250, -0.021240234375, -0.912597656250, -3.312500000000, -0.765625000000, -4.382812500000, 1492750194
-0.150634765625, -0.072998046875, -0.969482421875, -3.421875000000, -0.507812500000, -4.859375000000, 1492750194
-0.150634765625, -0.072998046875, -0.969482421875, -3.421875000000, -0.507812500000, -4.859375000000, 1492750194
-0.150634765625, -0.072998046875, -0.969482421875, -3.421875000000, -0.507812500000, -4.859375000000, 1492750194
-0.150634765625, -0.072998046875, -0.969482421875, -3.421875000000, -0.507812500000, -4.859375000000, 1492750194
-0.055175781250, -0.001708984375, -0.952880859375, -4.062500000000, -0.578125000000, -1.296875000000, 1492750194
-0.055175781250, -0.001708984375, -0.952880859375, -4.062500000000, -0.578125000000, -1.296875000000, 1492750194
-0.055175781250, -0.001708984375, -0.952880859375, -4.062500000000, -0.578125000000, -1.296875000000, 1492750194
0.001953125000, 0.063720703125, -1.010009765625, -1.734375000000, -0.992187500000, -4.937500000000, 1492750194
0.001953125000, 0.063720703125, -1.010009765625, -1.734375000000, -0.992187500000, -4.937500000000, 1492750194
0.001953125000, 0.063720703125, -1.010009765625, -1.734375000000, -0.992187500000, -4.937500000000, 1492750194
-0.011718750000, -0.072753906250, -0.926757812500, -3.351562500000, 0.250000000000, -1.070312500000, 1492750194
-0.011718750000, -0.072753906250, -0.926757812500, -3.351562500000, 0.250000000000, -1.070312500000, 1492750194
-0.011718750000, -0.072753906250, -0.926757812500, -3.351562500000, 0.250000000000, -1.070312500000, 1492750194
0.019287109375, -0.024902343750, -1.025390625000, -6.312500000000, -0.695312500000, -4.164062500000, 1492750195
0.019287109375, -0.024902343750, -1.025390625000, -6.312500000000, -0.695312500000, -4.164062500000, 1492750195
0.019287109375, -0.024902343750, -1.025390625000, -6.312500000000, -0.695312500000, -4.164062500000, 1492750195
0.019287109375, -0.024902343750, -1.025390625000, -6.312500000000, -0.695312500000, -4.164062500000, 1492750195
0.011962890625, 0.055908203125, -0.976318359375, -4.773437500000, 0.695312500000, -2.796875000000, 1492750195
0.011962890625, 0.055908203125, -0.976318359375, -4.773437500000, 0.695312500000, -2.796875000000, 1492750195
0.011962890625, 0.055908203125, -0.976318359375, -4.773437500000, 0.695312500000, -2.796875000000, 1492750195
0.018310546875, -0.036376953125, -0.936523437500, -3.468750000000, 0.984375000000, -1.187500000000, 1492750195
0.018310546875, -0.036376953125, -0.936523437500, -3.468750000000, 0.984375000000, -1.187500000000, 1492750195
0.018310546875, -0.036376953125, -0.936523437500, -3.468750000000, 0.984375000000, -1.187500000000, 1492750195
-0.079589843750, 0.020263671875, -1.004638671875, -4.648437500000, -2.062500000000, -1.406250000000, 1492750195
-0.079589843750, 0.020263671875, -1.004638671875, -4.648437500000, -2.062500000000, -1.406250000000, 1492750195
-0.079589843750, 0.020263671875, -1.004638671875, -4.648437500000, -2.062500000000, -1.406250000000, 1492750195
0.022705078125, -0.019775390625, -0.933593750000, -4.382812500000, 0.054687500000, -3.265625000000, 1492750195
0.022705078125, -0.019775390625, -0.933593750000, -4.382812500000, 0.054687500000, -3.265625000000, 1492750195
0.022705078125, -0.019775390625, -0.933593750000, -4.382812500000, 0.054687500000, -3.265625000000, 1492750195
0.022705078125, -0.019775390625, -0.933593750000, -4.382812500000, 0.054687500000, -3.265625000000, 1492750195
0.007324218750, 0.058837890625, -0.947998046875, -4.937500000000, -2.484375000000, -1.093750000000, 1492750195
0.007324218750, 0.058837890625, -0.947998046875, -4.937500000000, -2.484375000000, -1.093750000000, 1492750195
0.007324218750, 0.058837890625, -0.947998046875, -4.937500000000, -2.484375000000, -1.093750000000, 1492750195
-0.043701171875, 0.003173828125, -0.911132812500, -1.445312500000, -0.210937500000, -2.234375000000, 1492750195
-0.054687500000, 0.042724609375, -0.972412109375, -1.445312500000, -0.210937500000, -2.234375000000, 1492750195
-0.054687500000, 0.042724609375, -0.972412109375, -1.445312500000, -0.210937500000, -2.234375000000, 1492750195
-0.054687500000, 0.042724609375, -0.972412109375, -1.445312500000, -0.210937500000, -2.234375000000, 1492750195
0.027343750000, 0.026855468750, -0.979492187500, -4.187500000000, 0.703125000000, -0.929687500000, 1492750195
0.027343750000, 0.026855468750, -0.979492187500, -4.187500000000, 0.703125000000, -0.929687500000, 1492750195
0.027343750000, 0.026855468750, -0.979492187500, -4.187500000000, 0.703125000000, -0.929687500000, 1492750195
-0.071777343750, 0.082275390625, -0.968505859375, -4.023437500000, 0.515625000000, -1.890625000000, 1492750195
-0.071777343750, 0.082275390625, -0.968505859375, -4.023437500000, 0.515625000000, -1.890625000000, 1492750195
-0.071777343750, 0.082275390625, -0.968505859375, -4.023437500000, 0.515625000000, -1.890625000000, 1492750195
-0.071777343750, 0.082275390625, -0.968505859375, -4.023437500000, 0.515625000000, -1.890625000000, 1492750195
-0.068603515625, -0.016845703125, -1.027587890625, -4.234375000000, 0.320312500000, 0.492187500000, 1492750195
-0.068603515625, -0.016845703125, -1.027587890625, -4.234375000000, 0.320312500000, 0.492187500000, 1492750195
-0.068603515625, -0.016845703125, -1.027587890625, -4.234375000000, 0.320312500000, 0.492187500000, 1492750195
-0.068603515625, -0.016845703125, -1.027587890625, -4.234375000000, 0.320312500000, 0.492187500000, 1492750195
-0.068603515625, -0.016845703125, -1.027587890625, -4.234375000000, 0.320312500000, 0.492187500000, 1492750195
-0.026611328125, -0.011474609375, -1.027832031250, -3.156250000000, -0.828125000000, -6.382812500000, 1492750195
-0.026611328125, -0.011474609375, -1.027832031250, -3.156250000000, -0.828125000000, -6.382812500000, 1492750195
-0.026611328125, -0.011474609375, -1.027832031250, -3.156250000000, -0.828125000000, -6.382812500000, 1492750195
