ACC_X,ACC_Y,ACC_Z,G_X,G_Y,G_Z,Unix Time
-0.779052734375, -0.952880859375, 0.260986328125, -60.039062500000, 149.015625000000, -38.421875000000, 1492749281
-0.779052734375, -0.952880859375, 0.260986328125, -60.039062500000, 149.015625000000, -38.421875000000, 1492749281
-0.779052734375, -0.952880859375, 0.260986328125, -60.039062500000, 149.015625000000, -38.421875000000, 1492749281
0.143798828125, -0.778320312500, 0.285400390625, -20.531250000000, 200.484375000000, -39.203125000000, 1492749281
0.143798828125, -0.778320312500, 0.285400390625, -20.531250000000, 200.484375000000, -39.203125000000, 1492749281
0.143798828125, -0.778320312500, 0.285400390625, -20.531250000000, 200.484375000000, -39.203125000000, 1492749281
-0.060546875000, -0.982177734375, 0.382080078125, -92.585937500000, -63.179687500000, -19.046875000000, 1492749281
-0.060546875000, -0.982177734375, 0.382080078125, -92.585937500000, -63.179687500000, -19.046875000000, 1492749281
-0.060546875000, -0.982177734375, 0.382080078125, -92.585937500000, -63.179687500000, -19.046875000000, 1492749282
-0.112548828125, -0.966308593750, 0.286865234375, -62.000000000000, -162.796875000000, 71.078125000000, 1492749282
-0.112548828125, -0.966308593750, 0.286865234375, -62.000000000000, -162.796875000000, 71.078125000000, 1492749282
-0.112548828125, -0.966308593750, 0.286865234375, -62.000000000000, -162.796875000000, 71.078125000000, 1492749282
-0.112548828125, -0.966308593750, 0.286865234375, -62.000000000000, -162.796875000000, 71.078125000000, 1492749282
0.131835937500, -0.911376953125, 0.193847656250, -24.007812500000, 24.437500000000, 27.148437500000, 1492749282
0.131835937500, -0.911376953125, 0.193847656250, -24.007812500000, 24.437500000000, 27.148437500000, 1492749282
0.131835937500, -0.911376953125, 0.193847656250, -24.007812500000, 24.437500000000, 27.148437500000, 1492749282
0.168212890625, -1.077880859375, 0.655273437500, -19.695312500000, 20.914062500000, 27.156250000000, 1492749282
0.168212890625, -1.077880859375, 0.655273437500, -19.695312500000, 20.914062500000, 27.156250000000, 1492749282
0.168212890625, -1.077880859375, 0.655273437500, -19.695312500000, 20.914062500000, 27.156250000000, 1492749282
0.168212890625, -1.077880859375, 0.655273437500, -19.695312500000, 20.914062500000, 27.156250000000, 1492749282
0.168212890625, -1.077880859375, 0.655273437500, -19.695312500000, 20.914062500000, 27.156250000000, 1492749282
0.261474609375, -1.010009765625, 0.164550781250, -14.351562500000, -18.039062500000, 14.078125000000, 1492749282
0.261474609375, -1.010009765625, 0.164550781250, -14.351562500000, -18.039062500000, 14.078125000000, 1492749282
0.261474609375, -1.010009765625, 0.164550781250, -14.351562500000, -18.039062500000, 14.078125000000, 1492749282
0.261474609375, -1.010009765625, 0.164550781250, -14.351562500000, -18.039062500000, 14.078125000000, 1492749282
0.261474609375, -1.010009765625, 0.164550781250, -14.351562500000, -18.039062500000, 14.078125000000, 1492749282
0.060546875000, -0.935546875000, 0.292480468750, -14.718750000000, -52.828125000000, 18.078125000000, 1492749282
0.060546875000, -0.935546875000, 0.292480468750, -14.718750000000, -52.828125000000, 18.078125000000, 1492749282
0.060546875000, -0.935546875000, 0.292480468750, -14.718750000000, -52.828125000000, 18.078125000000, 1492749282
0.042236328125, -1.020263671875, 0.308105468750, -7.359375000000, -96.984375000000, 39.703125000000, 1492749282
0.042236328125, -1.020263671875, 0.308105468750, -7.359375000000, -96.984375000000, 39.703125000000, 1492749282
0.213134765625, -0.889404296875, 0.322265625000, 3.476562500000, -65.812500000000, -33.375000000000, 1492749282
0.213134765625, -0.889404296875, 0.322265625000, 3.476562500000, -65.812500000000, -33.375000000000, 1492749282
0.213134765625, -0.889404296875, 0.322265625000, 3.476562500000, -65.812500000000, -33.375000000000, 1492749282
0.213134765625, -0.889404296875, 0.322265625000, 3.476562500000, -65.812500000000, -33.375000000000, 1492749282
0.213134765625, -0.889404296875, 0.322265625000, 3.476562500000, -65.812500000000, -33.375000000000, 1492749282
0.409912109375, -0.710937500000, 0.228271484375, 50.578125000000, -106.203125000000, -87.445312500000, 1492749282
0.409912109375, -0.710937500000, 0.228271484375, 50.578125000000, -106.203125000000, -87.445312500000, 1492749282
0.409912109375, -0.710937500000, 0.228271484375, 50.578125000000, -106.203125000000, -87.445312500000, 1492749282
0.201171875000, -0.984375000000, 0.468261718750, 25.968750000000, -35.054687500000, -6.789062500000, 1492749282
0.201171875000, -0.984375000000, 0.468261718750, 25.968750000000, -35.054687500000, -6.789062500000, 1492749282
0.201171875000, -0.984375000000, 0.468261718750, 25.968750000000, -35.054687500000, -6.789062500000, 1492749282
0.171386718750, -1.020996093750, 0.387207031250, -30.945312500000, 0.976562500000, -9.687500000000, 1492749282
0.171386718750, -1.020996093750, 0.387207031250, -30.945312500000, 0.976562500000, -9.687500000000, 1492749282
0.114257812500, -0.928222656250, 0.343505859375, 3.234375000000, -22.601562500000, -9.585937500000, 1492749282
0.114257812500, -0.928222656250, 0.343505859375, 3.234375000000, -22.601562500000, -9.585937500000, 1492749282
0.114257812500, -0.928222656250, 0.343505859375, 3.234375000000, -22.601562500000, -9.585937500000, 1492749282
0.114257812500, -0.928222656250, 0.343505859375, 3.234375000000, -22.601562500000, -9.585937500000, 1492749282
0.114257812500, -0.928222656250, 0.343505859375, 3.234375000000, -22.601562500000, -9.585937500000, 1492749282
0.166259765625, -0.933349609375, 0.341308593750, -7.617187500000, -17.250000000000, -14.007812500000, 1492749282
0.166259765625, -0.933349609375, 0.341308593750, -7.617187500000, -17.250000000000, -14.007812500000, 1492749282
0.166259765625, -0.933349609375, 0.341308593750, -7.617187500000, -17.250000000000, -14.007812500000, 1492749282
0.189208984375, -0.928710937500, 0.257568359375, -11.234375000000, -12.492187500000, -9.265625000000, 1492749282
0.189208984375, -0.928710937500, 0.257568359375, -11.234375000000, -12.492187500000, -9.265625000000, 1492749282
0.189208984375, -0.928710937500, 0.257568359375, -11.234375000000, -12.492187500000, -9.265625000000, 1492749282
0.173583984375, -0.971435546875, 0.337158203125, 2.765625000000, -6.039062500000, -4.609375000000, 1492749282
0.173583984375, -0.971435546875, 0.337158203125, 2.765625000000, -6.039062500000, -4.609375000000, 1492749282
0.173583984375, -0.971435546875, 0.337158203125, 2.765625000000, -6.039062500000, -4.609375000000, 1492749282
0.096923828125, -1.027099609375, 0.314941406250, -9.875000000000, -7.281250000000, -2.039062500000, 1492749282
0.096923828125, -1.027099609375, 0.314941406250, -9.875000000000, -7.281250000000, -2.039062500000, 1492749282
0.096923828125, -1.027099609375, 0.314941406250, -9.875000000000, -7.281250000000, -2.039062500000, 1492749282
0.096923828125, -1.027099609375, 0.314941406250, -9.875000000000, -7.281250000000, -2.039062500000, 1492749282
0.205322265625, -1.007080078125, 0.324707031250, -3.609375000000, 2.148437500000, 3.750000000000, 1492749282
0.205322265625, -1.007080078125, 0.324707031250, -3.609375000000, 2.148437500000, 3.750000000000, 1492749282
0.205322265625, -1.007080078125, 0.324707031250, -3.609375000000, 2.148437500000, 3.750000000000, 1492749282
0.148681640625, -0.872802734375, 0.388183593750, -9.250000000000, 0.187500000000, -4.367187500000, 1492749282
0.148681640625, -0.872802734375, 0.388183593750, -9.250000000000, 0.187500000000, -4.367187500000, 1492749282
0.148681640625, -0.872802734375, 0.388183593750, -9.250000000000, 0.187500000000, -4.367187500000, 1492749282
0.159179687500, -0.929199218750, 0.328125000000, -4.015625000000, -4.140625000000, -5.757812500000, 1492749282
0.159179687500, -0.929199218750, 0.328125000000, -4.015625000000, -4.140625000000, -5.757812500000, 1492749282
0.159179687500, -0.929199218750, 0.328125000000, -4.015625000000, -4.140625000000, -5.757812500000, 1492749282
0.204345703125, -0.964111328125, 0.322265625000, -5.445312500000, 6.132812500000, -1.414062500000, 1492749282
0.204345703125, -0.964111328125, 0.322265625000, -5.445312500000, 6.132812500000, -1.414062500000, 1492749282
0.204345703125, -0.964111328125, 0.322265625000, -5.445312500000, 6.132812500000, -1.414062500000, 1492749282
0.204345703125, -0.964111328125, 0.322265625000, -5.445312500000, 6.132812500000, -1.414062500000, 1492749282
0.207519531250, -0.959228515625, 0.338623046875, -3.328125000000, 10.539062500000, -6.210937500000, 1492749282
0.207519531250, -0.959228515625, 0.338623046875, -3.328125000000, 10.539062500000, -6.210937500000, 1492749282
0.207519531250, -0.959228515625, 0.338623046875, -3.328125000000, 10.539062500000, -6.210937500000, 1492749283
0.209960937500, -0.947509765625, 0.323730468750, 2.703125000000, 0.390625000000, -2.820312500000, 1492749283
0.209960937500, -0.947509765625, 0.323730468750, 2.703125000000, 0.390625000000, -2.820312500000, 1492749283
0.209960937500, -0.947509765625, 0.323730468750, 2.703125000000, 0.390625000000, -2.820312500000, 1492749283
0.107421875000, -0.912841796875, 0.404052734375, -5.648437500000, 1.507812500000, -3.335937500000, 1492749283
0.107421875000, -0.912841796875, 0.404052734375, -5.648437500000, 1.507812500000, -3.335937500000, 1492749283
0.107421875000, -0.912841796875, 0.404052734375, -5.648437500000, 1.507812500000, -3.335937500000, 1492749283
0.108642578125, -0.930175781250, 0.234619140625, -6.398437500000, -6.773437500000, -5.953125000000, 1492749283
0.108642578125, -0.930175781250, 0.234619140625, -6.398437500000, -6.773437500000, -5.953125000000, 1492749283
0.108642578125, -0.930175781250, 0.234619140625, -6.398437500000, -6.773437500000, -5.953125000000, 1492749283
0.108642578125, -0.930175781250, 0.234619140625, -6.398437500000, -6.773437500000, -5.953125000000, 1492749283
0.213867187500, -0.936279296875, 0.263427734375, -6.875000000000, -8.703125000000, -8.906250000000, 1492749283
0.213867187500, -0.936279296875, 0.263427734375, -6.875000000000, -8.703125000000, -8.906250000000, 1492749283
0.213867187500, -0.936279296875, 0.263427734375, -6.875000000000, -8.703125000000, -8.906250000000, 1492749283
0.139892578125, -0.975585937500, 0.299804687500, -5.843750000000, -10.281250000000, -5.210937500000, 1492749283
0.139892578125, -0.975585937500, 0.299804687500, -5.843750000000, -10.281250000000, -5.210937500000, 1492749283
0.139892578125, -0.975585937500, 0.299804687500, -5.843750000000, -10.281250000000, -5.210937500000, 1492749283
0.206054687500, -0.962402343750, 0.302246093750, -4.085937500000, -13.328125000000, -7.320312500000, 1492749283
0.206054687500, -0.962402343750, 0.302246093750, -4.085937500000, -13.328125000000, -7.320312500000, 1492749283
0.191406250000, -0.968750000000, 0.246826171875, -6.671875000000, -5.085937500000, -5.703125000000, 1492749283
0.191406250000, -0.968750000000, 0.246826171875, -6.671875000000, -5.085937500000, -5.703125000000, 1492749283
0.191406250000, -0.968750000000, 0.246826171875, -6.671875000000, -5.085937500000, -5.703125000000, 1492749283
0.191406250000, -0.968750000000, 0.246826171875, -6.671875000000, -5.085937500000, -5.703125000000, 1492749283
0.223388671875, -0.856933593750, 0.248046875000, -6.156250000000, -5.812500000000, -6.679687500000, 1492749283
0.137451171875, -0.866943359375, 0.297607421875, -2.546875000000, -6.359375000000, -2.523437500000, 1492749283
0.137451171875, -0.866943359375, 0.297607421875, -2.546875000000, -6.359375000000, -2.523437500000, 1492749283
0.137451171875, -0.866943359375, 0.297607421875, -2.546875000000, -6.359375000000, -2.523437500000, 1492749283
0.192871093750, -0.864501953125, 0.390380859375, -5.960937500000, -0.742187500000, -5.437500000000, 1492749283
0.192871093750, -0.864501953125, 0.390380859375, -5.960937500000, -0.742187500000, -5.437500000000, 1492749283
0.192871093750, -0.864501953125, 0.390380859375, -5.960937500000, -0.742187500000, -5.437500000000, 1492749283
0.252685546875, -0.931640625000, 0.303955078125, -2.851562500000, -0.625000000000, -6.164062500000, 1492749283
0.252685546875, -0.931640625000, 0.303955078125, -2.851562500000, -0.625000000000, -6.164062500000, 1492749283
0.252685546875, -0.931640625000, 0.303955078125, -2.851562500000, -0.625000000000, -6.164062500000, 1492749283
0.195068359375, -0.953125000000, 0.400634765625, -4.531250000000, -0.242187500000, -4.710937500000, 1492749283
0.195068359375, -0.953125000000, 0.400634765625, -4.531250000000, -0.242187500000, -4.710937500000, 1492749283
0.195068359375, -0.953125000000, 0.400634765625, -4.531250000000, -0.242187500000, -4.710937500000, 1492749283
0.195068359375, -0.953125000000, 0.400634765625, -4.531250000000, -0.242187500000, -4.710937500000, 1492749283
0.123046875000, -0.965087890625, 0.235595703125, -2.117187500000, 6.273437500000, -6.023437500000, 1492749283
0.123046875000, -0.965087890625, 0.235595703125, -2.117187500000, 6.273437500000, -6.023437500000, 1492749283
0.123046875000, -0.965087890625, 0.235595703125, -2.117187500000, 6.273437500000, -6.023437500000, 1492749283
0.202148437500, -0.962890625000, 0.229003906250, 3.750000000000, -0.351562500000, -1.632812500000, 1492749283
0.202148437500, -0.962890625000, 0.229003906250, 3.750000000000, -0.351562500000, -1.632812500000, 1492749283
0.202148437500, -0.962890625000, 0.229003906250, 3.750000000000, -0.351562500000, -1.632812500000, 1492749283
0.098876953125, -1.029052734375, 0.390869140625, -5.000000000000, 3.750000000000, -4.156250000000, 1492749283
0.098876953125, -1.029052734375, 0.390869140625, -5.000000000000, 3.750000000000, -4.156250000000, 1492749283
0.098876953125, -1.029052734375, 0.390869140625, -5.000000000000, 3.750000000000, -4.156250000000, 1492749283
0.154296875000, -1.025878906250, 0.292480468750, -1.898437500000, 6.601562500000, -1.242187500000, 1492749283
0.154296875000, -1.025878906250, 0.292480468750, -1.898437500000, 6.601562500000, -1.242187500000, 1492749283
0.154296875000, -1.025878906250, 0.292480468750, -1.898437500000, 6.601562500000, -1.242187500000, 1492749283
0.154296875000, -1.025878906250, 0.292480468750, -1.898437500000, 6.601562500000, -1.242187500000, 1492749283
0.198486328125, -0.855468750000, 0.328369140625, 0.828125000000, 4.585937500000, -4.554687500000, 1492749283
0.198486328125, -0.855468750000, 0.328369140625, 0.828125000000, 4.585937500000, -4.554687500000, 1492749283
0.198486328125, -0.855468750000, 0.328369140625, 0.828125000000, 4.585937500000, -4.554687500000, 1492749283
0.120605468750, -0.888183593750, 0.229736328125, 0.328125000000, 4.554687500000, 0.117187500000, 1492749283
0.120605468750, -0.888183593750, 0.229736328125, 0.328125000000, 4.554687500000, 0.117187500000, 1492749283
0.120605468750, -0.888183593750, 0.229736328125, 0.328125000000, 4.554687500000, 0.117187500000, 1492749283
0.160888671875, -0.943847656250, 0.316894531250, 2.390625000000, 2.437500000000, 0.085937500000, 1492749283
0.160888671875, -0.943847656250, 0.316894531250, 2.390625000000, 2.437500000000, 0.085937500000, 1492749283
0.160888671875, -0.943847656250, 0.316894531250, 2.390625000000, 2.437500000000, 0.085937500000, 1492749283
0.202880859375, -0.858642578125, 0.376464843750, -4.859375000000, 4.468750000000, 0.367187500000, 1492749283
0.202880859375, -0.858642578125, 0.376464843750, -4.859375000000, 4.468750000000, 0.367187500000, 1492749283
0.202880859375, -0.858642578125, 0.376464843750, -4.859375000000, 4.468750000000, 0.367187500000, 1492749283
0.193847656250, -1.020019531250, 0.337646484375, -4.468750000000, -0.734375000000, -4.039062500000, 1492749283
0.193847656250, -1.020019531250, 0.337646484375, -4.468750000000, -0.734375000000, -4.039062500000, 1492749283
0.193847656250, -1.020019531250, 0.337646484375, -4.468750000000, -0.734375000000, -4.039062500000, 1492749283
0.193847656250, -1.020019531250, 0.337646484375, -4.468750000000, -0.734375000000, -4.039062500000, 1492749283
0.196533203125, -0.871826171875, 0.237548828125, -4.375000000000, -1.179687500000, -3.671875000000, 1492749284
0.196533203125, -0.871826171875, 0.237548828125, -4.375000000000, -1.179687500000, -3.671875000000, 1492749284
0.196533203125, -0.871826171875, 0.237548828125, -4.375000000000, -1.179687500000, -3.671875000000, 1492749284
0.161865234375, -0.993652343750, 0.235595703125, -1.179687500000, -2.039062500000, -6.601562500000, 1492749284
0.161865234375, -0.993652343750, 0.235595703125, -1.179687500000, -2.039062500000, -6.601562500000, 1492749284
0.161865234375, -0.993652343750, 0.235595703125, -1.179687500000, -2.039062500000, -6.601562500000, 1492749284
0.101562500000, -0.907226562500, 0.312744140625, -2.148437500000, -1.203125000000, -4.406250000000, 1492749284
0.101562500000, -0.907226562500, 0.312744140625, -2.148437500000, -1.203125000000, -4.406250000000, 1492749284
0.101562500000, -0.907226562500, 0.312744140625, -2.148437500000, -1.203125000000, -4.406250000000, 1492749284
0.101562500000, -0.907226562500, 0.312744140625, -2.148437500000, -1.203125000000, -4.406250000000, 1492749284
0.159179687500, -0.931640625000, 0.328369140625, -1.109375000000, 0.804687500000, -8.406250000000, 1492749284
0.159179687500, -0.931640625000, 0.328369140625, -1.109375000000, 0.804687500000, -8.406250000000, 1492749284
0.159179687500, -0.931640625000, 0.328369140625, -1.109375000000, 0.804687500000, -8.406250000000, 1492749284
0.104003906250, -0.917480468750, 0.295410156250, -0.843750000000, -4.921875000000, -4.000000000000, 1492749284
0.104003906250, -0.917480468750, 0.295410156250, -0.843750000000, -4.921875000000, -4.000000000000, 1492749284
0.104003906250, -0.917480468750, 0.295410156250, -0.843750000000, -4.921875000000, -4.000000000000, 1492749284
0.187500000000, -0.935791015625, 0.243408203125, -2.718750000000, -3.031250000000, -4.085937500000, 1492749284
0.187500000000, -0.935791015625, 0.243408203125, -2.718750000000, -3.031250000000, -4.085937500000, 1492749284
0.187500000000, -0.935791015625, 0.243408203125, -2.718750000000, -3.031250000000, -4.085937500000, 1492749284
0.108886718750, -0.961425781250, 0.322998046875, -1.179687500000, -4.742187500000, -6.164062500000, 1492749284
0.108886718750, -0.961425781250, 0.322998046875, -1.179687500000, -4.742187500000, -6.164062500000, 1492749284
0.108886718750, -0.961425781250, 0.322998046875, -1.179687500000, -4.742187500000, -6.164062500000, 1492749284
0.108886718750, -0.961425781250, 0.322998046875, -1.179687500000, -4.742187500000, -6.164062500000, 1492749284
0.199462890625, -0.986328125000, 0.221435546875, -4.843750000000, -3.101562500000, -8.468750000000, 1492749284
0.199462890625, -0.986328125000, 0.221435546875, -4.843750000000, -3.101562500000, -8.468750000000, 1492749284
0.199462890625, -0.986328125000, 0.221435546875, -4.843750000000, -3.101562500000, -8.468750000000, 1492749284
0.182861328125, -0.968017578125, 0.230468750000, -6.031250000000, 0.632812500000, -5.398437500000, 1492749284
0.182861328125, -0.968017578125, 0.230468750000, -6.031250000000, 0.632812500000, -5.398437500000, 1492749284
0.182861328125, -0.968017578125, 0.230468750000, -6.031250000000, 0.632812500000, -5.398437500000, 1492749284
0.052001953125, -0.932861328125, 0.230957031250, -2.421875000000, -4.148437500000, -3.742187500000, 1492749284
0.052001953125, -0.932861328125, 0.230957031250, -2.421875000000, -4.148437500000, -3.742187500000, 1492749284
0.052001953125, -0.932861328125, 0.230957031250, -2.421875000000, -4.148437500000, -3.742187500000, 1492749284
0.177734375000, -0.945068359375, 0.330810546875, -3.156250000000, -0.953125000000, -4.570312500000, 1492749284
0.177734375000, -0.945068359375, 0.330810546875, -3.156250000000, -0.953125000000, -4.570312500000, 1492749284
0.177734375000, -0.945068359375, 0.330810546875, -3.156250000000, -0.953125000000, -4.570312500000, 1492749284
0.177734375000, -0.945068359375, 0.330810546875, -3.156250000000, -0.953125000000, -4.570312500000, 1492749284
0.208984375000, -0.899169921875, 0.181640625000, -1.687500000000, -2.296875000000, -4.921875000000, 1492749284
0.208984375000, -0.899169921875, 0.181640625000, -1.687500000000, -2.296875000000, -4.921875000000, 1492749284
0.208984375000, -0.899169921875, 0.181640625000, -1.687500000000, -2.296875000000, -4.921875000000, 1492749284
0.125000000000, -1.022705078125, 0.317626953125, -4.445312500000, 2.117187500000, -3.789062500000, 1492749284
0.125000000000, -1.022705078125, 0.317626953125, -4.445312500000, 2.117187500000, -3.789062500000, 1492749284
0.125000000000, -1.022705078125, 0.317626953125, -4.445312500000, 2.117187500000, -3.789062500000, 1492749284
0.187744140625, -1.011474609375, 0.241943359375, -1.007812500000, 0.406250000000, -8.585937500000, 1492749284
0.187744140625, -1.011474609375, 0.241943359375, -1.007812500000, 0.406250000000, -8.585937500000, 1492749284
0.187744140625, -1.011474609375, 0.241943359375, -1.007812500000, 0.406250000000, -8.585937500000, 1492749284
0.213134765625, -1.002441406250, 0.265869140625, -2.414062500000, -2.914062500000, -3.640625000000, 1492749284
0.213134765625, -1.002441406250, 0.265869140625, -2.414062500000, -2.914062500000, -3.640625000000, 1492749284
0.213134765625, -1.002441406250, 0.265869140625, -2.414062500000, -2.914062500000, -3.640625000000, 1492749284
0.213134765625, -1.002441406250, 0.265869140625, -2.414062500000, -2.914062500000, -3.640625000000, 1492749284
0.175048828125, -0.908203125000, 0.175537109375, -1.710937500000, -0.539062500000, -4.210937500000, 1492749284
0.175048828125, -0.908203125000, 0.175537109375, -1.710937500000, -0.539062500000, -4.210937500000, 1492749284
0.175048828125, -0.908203125000, 0.175537109375, -1.710937500000, -0.539062500000, -4.210937500000, 1492749284
0.116943359375, -0.925292968750, 0.320800781250, 1.101562500000, -2.554687500000, -5.359375000000, 1492749284
0.116943359375, -0.925292968750, 0.320800781250, 1.101562500000, -2.554687500000, -5.359375000000, 1492749284
0.116943359375, -0.925292968750, 0.320800781250, 1.101562500000, -2.554687500000, -5.359375000000, 1492749284
0.174072265625, -1.012451171875, 0.249511718750, -4.976562500000, 2.125000000000, -5.281250000000, 1492749284
0.174072265625, -1.012451171875, 0.249511718750, -4.976562500000, 2.125000000000, -5.281250000000, 1492749284
0.174072265625, -1.012451171875, 0.249511718750, -4.976562500000, 2.125000000000, -5.281250000000, 1492749284
0.173828125000, -0.950439453125, 0.321289062500, -3.507812500000, -0.664062500000, -5.179687500000, 1492749284
0.173828125000, -0.950439453125, 0.321289062500, -3.507812500000, -0.664062500000, -5.179687500000, 1492749284
0.173828125000, -0.950439453125, 0.321289062500, -3.507812500000, -0.664062500000, -5.179687500000, 1492749284
0.173828125000, -0.950439453125, 0.321289062500, -3.507812500000, -0.664062500000, -5.179687500000, 1492749284
0.209228515625, -0.946533203125, 0.322753906250, -5.710937500000, 1.320312500000, -3.929687500000, 1492749284
0.209228515625, -0.946533203125, 0.322753906250, -5.710937500000, 1.320312500000, -3.929687500000, 1492749284
0.209228515625, -0.946533203125, 0.322753906250, -5.710937500000, 1.320312500000, -3.929687500000, 1492749284
0.208984375000, -0.967773437500, 0.249267578125, -6.312500000000, 2.078125000000, -6.578125000000, 1492749284
0.208984375000, -0.967773437500, 0.249267578125, -6.312500000000, 2.078125000000, -6.578125000000, 1492749284
0.208984375000, -0.967773437500, 0.249267578125, -6.312500000000, 2.078125000000, -6.578125000000, 1492749285
0.188720703125, -0.922363281250, 0.329345703125, -4.257812500000, 0.773437500000, -4.937500000000, 1492749285
0.188720703125, -0.922363281250, 0.329345703125, -4.257812500000, 0.773437500000, -4.937500000000, 1492749285
0.188720703125, -0.922363281250, 0.329345703125, -4.257812500000, 0.773437500000, -4.937500000000, 1492749285
0.117675781250, -1.011718750000, 0.264892578125, -5.218750000000, 0.921875000000, -8.437500000000, 1492749285
0.117675781250, -1.011718750000, 0.264892578125, -5.218750000000, 0.921875000000, -8.437500000000, 1492749285
0.117675781250, -1.011718750000, 0.264892578125, -5.218750000000, 0.921875000000, -8.437500000000, 1492749285
0.117675781250, -1.011718750000, 0.264892578125, -5.218750000000, 0.921875000000, -8.437500000000, 1492749285
0.218017578125, -0.938720703125, 0.330566406250, -4.257812500000, -2.015625000000, -6.914062500000, 1492749285
0.218017578125, -0.938720703125, 0.330566406250, -4.257812500000, -2.015625000000, -6.914062500000, 1492749285
0.218017578125, -0.938720703125, 0.330566406250, -4.257812500000, -2.015625000000, -6.914062500000, 1492749285
0.168945312500, -0.936767578125, 0.249023437500, -3.265625000000, 0.960937500000, -1.593750000000, 1492749285
0.168945312500, -0.936767578125, 0.249023437500, -3.265625000000, 0.960937500000, -1.593750000000, 1492749285
0.168945312500, -0.936767578125, 0.249023437500, -3.265625000000, 0.960937500000, -1.593750000000, 1492749285
0.112792968750, -1.004638671875, 0.231445312500, -4.078125000000, 0.523437500000, -3.398437500000, 1492749285
0.112792968750, -1.004638671875, 0.231445312500, -4.078125000000, 0.523437500000, -3.398437500000, 1492749285
0.112792968750, -1.004638671875, 0.231445312500, -4.078125000000, 0.523437500000, -3.398437500000, 1492749285
0.147705078125, -0.807373046875, 0.229003906250, 0.062500000000, -2.148437500000, -4.921875000000, 1492749285
0.147705078125, -0.807373046875, 0.229003906250, 0.062500000000, -2.148437500000, -4.921875000000, 1492749285
0.147705078125, -0.807373046875, 0.229003906250, 0.062500000000, -2.148437500000, -4.921875000000, 1492749285
0.147705078125, -0.807373046875, 0.229003906250, 0.062500000000, -2.148437500000, -4.921875000000, 1492749285
0.187255859375, -0.957763671875, 0.323974609375, -3.000000000000, 2.367187500000, -6.234375000000, 1492749285
0.187255859375, -0.957763671875, 0.323974609375, -3.000000000000, 2.367187500000, -6.234375000000, 1492749285
0.187255859375, -0.957763671875, 0.323974609375, -3.000000000000, 2.367187500000, -6.234375000000, 1492749285
0.181396484375, -0.887939453125, 0.222167968750, 2.421875000000, -2.265625000000, -4.148437500000, 1492749285
0.181396484375, -0.887939453125, 0.222167968750, 2.421875000000, -2.265625000000, -4.148437500000, 1492749285
0.181396484375, -0.887939453125, 0.222167968750, 2.421875000000, -2.265625000000, -4.148437500000, 1492749285
0.254638671875, -0.984863281250, 0.239746093750, -2.335937500000, -2.632812500000, -6.093750000000, 1492749285
0.254638671875, -0.984863281250, 0.239746093750, -2.335937500000, -2.632812500000, -6.093750000000, 1492749285
0.254638671875, -0.984863281250, 0.239746093750, -2.335937500000, -2.632812500000, -6.093750000000, 1492749285
0.176025390625, -0.879882812500, 0.246826171875, -0.937500000000, 0.304687500000, -4.968750000000, 1492749285
0.176025390625, -0.879882812500, 0.246826171875, -0.937500000000, 0.304687500000, -4.968750000000, 1492749285
0.176025390625, -0.879882812500, 0.246826171875, -0.937500000000, 0.304687500000, -4.968750000000, 1492749285
0.176025390625, -0.879882812500, 0.246826171875, -0.937500000000, 0.304687500000, -4.968750000000, 1492749285
0.185546875000, -1.022949218750, 0.228515625000, -0.382812500000, -4.078125000000, -1.414062500000, 1492749285
0.185546875000, -1.022949218750, 0.228515625000, -0.382812500000, -4.078125000000, -1.414062500000, 1492749285
0.185546875000, -1.022949218750, 0.228515625000, -0.382812500000, -4.078125000000, -1.414062500000, 1492749285
0.123535156250, -0.978759765625, 0.334472656250, -1.132812500000, 0.601562500000, -1.226562500000, 1492749285
0.123535156250, -0.978759765625, 0.334472656250, -1.132812500000, 0.601562500000, -1.226562500000, 1492749285
0.123535156250, -0.978759765625, 0.334472656250, -1.132812500000, 0.601562500000, -1.226562500000, 1492749285
0.117187500000, -1.064208984375, 0.325439453125, 0.468750000000, 0.242187500000, -2.195312500000, 1492749285
0.117187500000, -1.064208984375, 0.325439453125, 0.468750000000, 0.242187500000, -2.195312500000, 1492749285
0.117187500000, -1.064208984375, 0.325439453125, 0.468750000000, 0.242187500000, -2.195312500000, 1492749285
0.145263671875, -0.948486328125, 0.251708984375, -1.835937500000, -0.562500000000, -3.070312500000, 1492749285
0.145263671875, -0.948486328125, 0.251708984375, -1.835937500000, -0.562500000000, -3.070312500000, 1492749285
0.145263671875, -0.948486328125, 0.251708984375, -1.835937500000, -0.562500000000, -3.070312500000, 1492749285
0.145263671875, -0.948486328125, 0.251708984375, -1.835937500000, -0.562500000000, -3.070312500000, 1492749285
0.162109375000, -1.010986328125, 0.177246093750, -3.492187500000, -3.000000000000, 0.210937500000, 1492749285
0.162109375000, -1.010986328125, 0.177246093750, -3.492187500000, -3.000000000000, 0.210937500000, 1492749285
0.162109375000, -1.010986328125, 0.177246093750, -3.492187500000, -3.000000000000, 0.210937500000, 1492749285
0.272949218750, -0.972412109375, 0.318603515625, -6.835937500000, -2.601562500000, -3.203125000000, 1492749285
0.272949218750, -0.972412109375, 0.318603515625, -6.835937500000, -2.601562500000, -3.203125000000, 1492749285
0.272949218750, -0.972412109375, 0.318603515625, -6.835937500000, -2.601562500000, -3.203125000000, 1492749285
0.261230468750, -0.852294921875, 0.270751953125, -7.601562500000, -0.234375000000, -1.390625000000, 1492749285
0.261230468750, -0.852294921875, 0.270751953125, -7.601562500000, -0.234375000000, -1.390625000000, 1492749285
0.261230468750, -0.852294921875, 0.270751953125, -7.601562500000, -0.234375000000, -1.390625000000, 1492749285
0.259277343750, -1.029296875000, 0.231933593750, -10.687500000000, 2.226562500000, -3.109375000000, 1492749285
0.259277343750, -1.029296875000, 0.231933593750, -10.687500000000, 2.226562500000, -3.109375000000, 1492749285
0.259277343750, -1.029296875000, 0.231933593750, -10.687500000000, 2.226562500000, -3.109375000000, 1492749285
0.259277343750, -1.029296875000, 0.231933593750, -10.687500000000, 2.226562500000, -3.109375000000, 1492749285
0.261474609375, -1.018310546875, 0.243652343750, -7.968750000000, 0.359375000000, -3.460937500000, 1492749285
0.261474609375, -1.018310546875, 0.243652343750, -7.968750000000, 0.359375000000, -3.460937500000, 1492749285
0.261474609375, -1.018310546875, 0.243652343750, -7.968750000000, 0.359375000000, -3.460937500000, 1492749285
0.121093750000, -0.950195312500, 0.318115234375, -10.195312500000, 5.453125000000, -3.546875000000, 1492749285
0.121093750000, -0.950195312500, 0.318115234375, -10.195312500000, 5.453125000000, -3.546875000000, 1492749285
0.121093750000, -0.950195312500, 0.318115234375, -10.195312500000, 5.453125000000, -3.546875000000, 1492749285
0.182128906250, -0.927001953125, 0.182373046875, 0.031250000000, -2.281250000000, -5.210937500000, 1492749286
0.182128906250, -0.927001953125, 0.182373046875, 0.031250000000, -2.281250000000, -5.210937500000, 1492749286
0.182128906250, -0.927001953125, 0.182373046875, 0.031250000000, -2.281250000000, -5.210937500000, 1492749286
0.177001953125, -1.021728515625, 0.291015625000, -6.890625000000, 1.164062500000, -4.382812500000, 1492749286
0.177001953125, -1.021728515625, 0.291015625000, -6.890625000000, 1.164062500000, -4.382812500000, 1492749286
0.177001953125, -1.021728515625, 0.291015625000, -6.890625000000, 1.164062500000, -4.382812500000, 1492749286
0.177001953125, -1.021728515625, 0.291015625000, -6.890625000000, 1.164062500000, -4.382812500000, 1492749286
0.169677734375, -0.973388671875, 0.329345703125, -3.015625000000, -2.148437500000, -3.625000000000, 1492749286
0.169677734375, -0.973388671875, 0.329345703125, -3.015625000000, -2.148437500000, -3.625000000000, 1492749286
0.169677734375, -0.973388671875, 0.329345703125, -3.015625000000, -2.148437500000, -3.625000000000, 1492749286
0.184326171875, -0.807373046875, 0.262939453125, 0.429687500000, -6.453125000000, -3.171875000000, 1492749286
0.184326171875, -0.807373046875, 0.262939453125, 0.429687500000, -6.453125000000, -3.171875000000, 1492749286
0.184326171875, -0.807373046875, 0.262939453125, 0.429687500000, -6.453125000000, -3.171875000000, 1492749286
0.177734375000, -0.926025390625, 0.326171875000, -4.242187500000, -3.679687500000, -2.875000000000, 1492749286
0.177734375000, -0.926025390625, 0.326171875000, -4.242187500000, -3.679687500000, -2.875000000000, 1492749286
0.177734375000, -0.926025390625, 0.326171875000, -4.242187500000, -3.679687500000, -2.875000000000, 1492749286
0.164550781250, -0.905273437500, 0.226562500000, 0.875000000000, -3.414062500000, -6.726562500000, 1492749286
0.164550781250, -0.905273437500, 0.226562500000, 0.875000000000, -3.414062500000, -6.726562500000, 1492749286
0.164550781250, -0.905273437500, 0.226562500000, 0.875000000000, -3.414062500000, -6.726562500000, 1492749286
0.164550781250, -0.905273437500, 0.226562500000, 0.875000000000, -3.414062500000, -6.726562500000, 1492749286
0.195800781250, -0.912841796875, 0.318359375000, -4.210937500000, -1.789062500000, -4.328125000000, 1492749286
0.195800781250, -0.912841796875, 0.318359375000, -4.210937500000, -1.789062500000, -4.328125000000, 1492749286
0.195800781250, -0.912841796875, 0.318359375000, -4.210937500000, -1.789062500000, -4.328125000000, 1492749286
0.315185546875, -0.908447265625, 0.233154296875, -2.492187500000, -3.078125000000, -3.101562500000, 1492749286
0.108886718750, -0.978271484375, 0.286865234375, 0.375000000000, -1.812500000000, -4.734375000000, 1492749286
0.108886718750, -0.978271484375, 0.286865234375, 0.375000000000, -1.812500000000, -4.734375000000, 1492749286
0.160400390625, -1.022705078125, 0.313476562500, -0.601562500000, -6.929687500000, -8.335937500000, 1492749286
0.160400390625, -1.022705078125, 0.313476562500, -0.601562500000, -6.929687500000, -8.335937500000, 1492749286
0.160400390625, -1.022705078125, 0.313476562500, -0.601562500000, -6.929687500000, -8.335937500000, 1492749286
0.160400390625, -1.022705078125, 0.313476562500, -0.601562500000, -6.929687500000, -8.335937500000, 1492749286
0.160400390625, -1.022705078125, 0.313476562500, -0.601562500000, -6.929687500000, -8.335937500000, 1492749286
0.160400390625, -1.022705078125, 0.313476562500, -0.601562500000, -6.929687500000, -8.335937500000, 1492749286
0.160400390625, -1.022705078125, 0.313476562500, -0.601562500000, -6.929687500000, -8.335937500000, 1492749286
0.174316406250, -0.927734375000, 0.231933593750, -0.062500000000, -2.914062500000, -6.078125000000, 1492749286
0.174316406250, -0.927734375000, 0.231933593750, -0.062500000000, -2.914062500000, -6.078125000000, 1492749286
0.174316406250, -0.927734375000, 0.231933593750, -0.062500000000, -2.914062500000, -6.078125000000, 1492749286
0.174316406250, -0.927734375000, 0.231933593750, -0.062500000000, -2.914062500000, -6.078125000000, 1492749286
0.174316406250, -0.927734375000, 0.231933593750, -0.062500000000, -2.914062500000, -6.078125000000, 1492749286
0.174316406250, -0.927734375000, 0.231933593750, -0.062500000000, -2.914062500000, -6.078125000000, 1492749286
0.183837890625, -0.857666015625, 0.282958984375, 1.500000000000, -3.000000000000, -7.351562500000, 1492749286
0.183837890625, -0.857666015625, 0.282958984375, 1.500000000000, -3.000000000000, -7.351562500000, 1492749286
0.183837890625, -0.857666015625, 0.282958984375, 1.500000000000, -3.000000000000, -7.351562500000, 1492749286
0.204345703125, -0.862304687500, 0.316894531250, 1.570312500000, 0.203125000000, -1.289062500000, 1492749286
0.204345703125, -0.862304687500, 0.316894531250, 1.570312500000, 0.203125000000, -1.289062500000, 1492749286
0.204345703125, -0.862304687500, 0.316894531250, 1.570312500000, 0.203125000000, -1.289062500000, 1492749286
0.204345703125, -0.862304687500, 0.316894531250, 1.570312500000, 0.203125000000, -1.289062500000, 1492749286
0.270019531250, -0.927246093750, 0.177978515625, 4.101562500000, 0.531250000000, -6.406250000000, 1492749286
0.270019531250, -0.927246093750, 0.177978515625, 4.101562500000, 0.531250000000, -6.406250000000, 1492749286
0.270019531250, -0.927246093750, 0.177978515625, 4.101562500000, 0.531250000000, -6.406250000000, 1492749286
0.203369140625, -0.869873046875, 0.298095703125, 5.757812500000, -2.093750000000, -6.406250000000, 1492749286
0.203369140625, -0.869873046875, 0.298095703125, 5.757812500000, -2.093750000000, -6.406250000000, 1492749286
0.203369140625, -0.869873046875, 0.298095703125, 5.757812500000, -2.093750000000, -6.406250000000, 1492749286
0.223876953125, -0.927246093750, 0.232910156250, 7.937500000000, 0.421875000000, -8.023437500000, 1492749286
0.223876953125, -0.927246093750, 0.232910156250, 7.937500000000, 0.421875000000, -8.023437500000, 1492749286
0.223876953125, -0.927246093750, 0.232910156250, 7.937500000000, 0.421875000000, -8.023437500000, 1492749286
0.317138671875, -0.906005859375, 0.317626953125, 16.359375000000, -2.554687500000, -5.601562500000, 1492749286
0.317138671875, -0.906005859375, 0.317626953125, 16.359375000000, -2.554687500000, -5.601562500000, 1492749286
0.317138671875, -0.906005859375, 0.317626953125, 16.359375000000, -2.554687500000, -5.601562500000, 1492749286
0.317138671875, -0.906005859375, 0.317626953125, 16.359375000000, -2.554687500000, -5.601562500000, 1492749286
0.197021484375, -0.948242187500, 0.260009765625, 13.273437500000, -0.414062500000, -1.062500000000, 1492749286
0.197021484375, -0.948242187500, 0.260009765625, 13.273437500000, -0.414062500000, -1.062500000000, 1492749286
0.197021484375, -0.948242187500, 0.260009765625, 13.273437500000, -0.414062500000, -1.062500000000, 1492749286
0.206542968750, -0.857177734375, 0.321777343750, 18.468750000000, -0.492187500000, -4.867187500000, 1492749286
0.206542968750, -0.857177734375, 0.321777343750, 18.468750000000, -0.492187500000, -4.867187500000, 1492749286
0.206542968750, -0.857177734375, 0.321777343750, 18.468750000000, -0.492187500000, -4.867187500000, 1492749286
0.168945312500, -0.957763671875, 0.170898437500, 19.570312500000, -2.382812500000, -1.578125000000, 1492749286
0.168945312500, -0.957763671875, 0.170898437500, 19.570312500000, -2.382812500000, -1.578125000000, 1492749286
0.168945312500, -0.957763671875, 0.170898437500, 19.570312500000, -2.382812500000, -1.578125000000, 1492749287
0.159912109375, -0.923339843750, 0.181396484375, 19.851562500000, 1.390625000000, -1.859375000000, 1492749287
0.159912109375, -0.923339843750, 0.181396484375, 19.851562500000, 1.390625000000, -1.859375000000, 1492749287
0.159912109375, -0.923339843750, 0.181396484375, 19.851562500000, 1.390625000000, -1.859375000000, 1492749287
0.159912109375, -0.923339843750, 0.181396484375, 19.851562500000, 1.390625000000, -1.859375000000, 1492749287
0.248046875000, -0.909179687500, 0.109863281250, 25.398437500000, 2.101562500000, -3.390625000000, 1492749287
0.248046875000, -0.909179687500, 0.109863281250, 25.398437500000, 2.101562500000, -3.390625000000, 1492749287
0.248046875000, -0.909179687500, 0.109863281250, 25.398437500000, 2.101562500000, -3.390625000000, 1492749287
0.182373046875, -0.942626953125, 0.192626953125, 28.828125000000, 4.109375000000, -1.218750000000, 1492749287
0.182373046875, -0.942626953125, 0.192626953125, 28.828125000000, 4.109375000000, -1.218750000000, 1492749287
0.182373046875, -0.942626953125, 0.192626953125, 28.828125000000, 4.109375000000, -1.218750000000, 1492749287
0.263671875000, -0.875488281250, 0.201660156250, 25.796875000000, -0.054687500000, -5.695312500000, 1492749287
0.263671875000, -0.875488281250, 0.201660156250, 25.796875000000, -0.054687500000, -5.695312500000, 1492749287
0.263671875000, -0.875488281250, 0.201660156250, 25.796875000000, -0.054687500000, -5.695312500000, 1492749287
0.229492187500, -1.002929687500, 0.183837890625, 34.640625000000, -4.023437500000, -5.796875000000, 1492749287
0.229492187500, -1.002929687500, 0.183837890625, 34.640625000000, -4.023437500000, -5.796875000000, 1492749287
0.229492187500, -1.002929687500, 0.183837890625, 34.640625000000, -4.023437500000, -5.796875000000, 1492749287
0.229492187500, -1.002929687500, 0.183837890625, 34.640625000000, -4.023437500000, -5.796875000000, 1492749287
0.262939453125, -0.845458984375, 0.104736328125, 28.437500000000, 7.273437500000, -3.625000000000, 1492749287
0.262939453125, -0.845458984375, 0.104736328125, 28.437500000000, 7.273437500000, -3.625000000000, 1492749287
0.262939453125, -0.845458984375, 0.104736328125, 28.437500000000, 7.273437500000, -3.625000000000, 1492749287
0.135986328125, -0.896484375000, 0.052734375000, 23.843750000000, 14.882812500000, -2.726562500000, 1492749287
0.135986328125, -0.896484375000, 0.052734375000, 23.843750000000, 14.882812500000, -2.726562500000, 1492749287
0.135986328125, -0.896484375000, 0.052734375000, 23.843750000000, 14.882812500000, -2.726562500000, 1492749287
0.107177734375, -0.829833984375, 0.092041015625, 29.546875000000, 11.828125000000, 0.765625000000, 1492749287
0.107177734375, -0.829833984375, 0.092041015625, 29.546875000000, 11.828125000000, 0.765625000000, 1492749287
0.107177734375, -0.829833984375, 0.092041015625, 29.546875000000, 11.828125000000, 0.765625000000, 1492749287
0.162841796875, -0.856201171875, 0.031494140625, 43.085937500000, 24.187500000000, 4.593750000000, 1492749287
0.162841796875, -0.856201171875, 0.031494140625, 43.085937500000, 24.187500000000, 4.593750000000, 1492749287
0.162841796875, -0.856201171875, 0.031494140625, 43.085937500000, 24.187500000000, 4.593750000000, 1492749287
0.162841796875, -0.856201171875, 0.031494140625, 43.085937500000, 24.187500000000, 4.593750000000, 1492749287
0.192138671875, -0.711669921875, -0.010498046875, 58.632812500000, 30.468750000000, 12.140625000000, 1492749287
0.192138671875, -0.711669921875, -0.010498046875, 58.632812500000, 30.468750000000, 12.140625000000, 1492749287
0.192138671875, -0.711669921875, -0.010498046875, 58.632812500000, 30.468750000000, 12.140625000000, 1492749287
0.125732421875, -0.481445312500, 0.125488281250, 51.476562500000, 54.335937500000, 24.507812500000, 1492749287
0.125732421875, -0.481445312500, 0.125488281250, 51.476562500000, 54.335937500000, 24.507812500000, 1492749287
0.125732421875, -0.481445312500, 0.125488281250, 51.476562500000, 54.335937500000, 24.507812500000, 1492749287
0.127441406250, -0.250976562500, 0.054443359375, 76.523437500000, 72.679687500000, 28.210937500000, 1492749287
0.127441406250, -0.250976562500, 0.054443359375, 76.523437500000, 72.679687500000, 28.210937500000, 1492749287
0.058349609375, -0.396728515625, -0.001464843750, 52.140625000000, 29.242187500000, 16.570312500000, 1492749287
0.058349609375, -0.396728515625, -0.001464843750, 52.140625000000, 29.242187500000, 16.570312500000, 1492749287
0.058349609375, -0.396728515625, -0.001464843750, 52.140625000000, 29.242187500000, 16.570312500000, 1492749287
0.058349609375, -0.396728515625, -0.001464843750, 52.140625000000, 29.242187500000, 16.570312500000, 1492749287
0.123779296875, -0.510253906250, -0.008789062500, 3.265625000000, 85.164062500000, 32.710937500000, 1492749287
0.123779296875, -0.510253906250, -0.008789062500, 3.265625000000, 85.164062500000, 32.710937500000, 1492749287
0.123779296875, -0.510253906250, -0.008789062500, 3.265625000000, 85.164062500000, 32.710937500000, 1492749287
0.123779296875, -0.510253906250, -0.008789062500, 3.265625000000, 85.164062500000, 32.710937500000, 1492749287
0.373779296875, -0.788818359375, -0.004638671875, 27.718750000000, 161.875000000000, 48.453125000000, 1492749287
0.373779296875, -0.788818359375, -0.004638671875, 27.718750000000, 161.875000000000, 48.453125000000, 1492749287
0.373779296875, -0.788818359375, -0.004638671875, 27.718750000000, 161.875000000000, 48.453125000000, 1492749287
0.597167968750, -0.970703125000, 0.140380859375, 59.484375000000, 214.187500000000, 73.875000000000, 1492749287
0.597167968750, -0.970703125000, 0.140380859375, 59.484375000000, 214.187500000000, 73.875000000000, 1492749287
0.597167968750, -0.970703125000, 0.140380859375, 59.484375000000, 214.187500000000, 73.875000000000, 1492749287
0.654052734375, -1.120361328125, 0.030029296875, -17.312500000000, 160.562500000000, 124.812500000000, 1492749287
0.654052734375, -1.120361328125, 0.030029296875, -17.312500000000, 160.562500000000, 124.812500000000, 1492749287
0.654052734375, -1.120361328125, 0.030029296875, -17.312500000000, 160.562500000000, 124.812500000000, 1492749287
0.654052734375, -1.120361328125, 0.030029296875, -17.312500000000, 160.562500000000, 124.812500000000, 1492749287
0.411132812500, -0.903320312500, -0.025878906250, -55.937500000000, 118.328125000000, 119.921875000000, 1492749287
0.411132812500, -0.903320312500, -0.025878906250, -55.937500000000, 118.328125000000, 119.921875000000, 1492749287
0.411132812500, -0.903320312500, -0.025878906250, -55.937500000000, 118.328125000000, 119.921875000000, 1492749287
0.331542968750, -0.785888671875, -0.088867187500, -4.101562500000, -19.351562500000, 31.710937500000, 1492749287
0.331542968750, -0.785888671875, -0.088867187500, -4.101562500000, -19.351562500000, 31.710937500000, 1492749287
0.331542968750, -0.785888671875, -0.088867187500, -4.101562500000, -19.351562500000, 31.710937500000, 1492749287
0.489501953125, -0.681884765625, -0.093017578125, -26.359375000000, -91.343750000000, 9.484375000000, 1492749287
0.489501953125, -0.681884765625, -0.093017578125, -26.359375000000, -91.343750000000, 9.484375000000, 1492749287
0.489501953125, -0.681884765625, -0.093017578125, -26.359375000000, -91.343750000000, 9.484375000000, 1492749287
1.090087890625, -1.151367187500, 0.191406250000, -216.507812500000, 253.992187500000, 67.390625000000, 1492749288
1.090087890625, -1.151367187500, 0.191406250000, -216.507812500000, 253.992187500000, 67.390625000000, 1492749288
1.090087890625, -1.151367187500, 0.191406250000, -216.507812500000, 253.992187500000, 67.390625000000, 1492749288
1.090087890625, -1.151367187500, 0.191406250000, -216.507812500000, 253.992187500000, 67.390625000000, 1492749288
2.016113281250, 0.201171875000, 0.016357421875, 253.992187500000, -256.000000000000, 253.992187500000, 1492749288
2.016113281250, 0.201171875000, 0.016357421875, 253.992187500000, -256.000000000000, 253.992187500000, 1492749288
2.016113281250, 0.201171875000, 0.016357421875, 253.992187500000, -256.000000000000, 253.992187500000, 1492749288
-0.833251953125, 0.117675781250, -0.118896484375, -256.000000000000, 253.992187500000, 253.992187500000, 1492749288
-0.833251953125, 0.117675781250, -0.118896484375, -256.000000000000, 253.992187500000, 253.992187500000, 1492749288
-0.833251953125, 0.117675781250, -0.118896484375, -256.000000000000, 253.992187500000, 253.992187500000, 1492749288
0.027343750000, 0.059326171875, -0.259277343750, 220.890625000000, 253.992187500000, -251.414062500000, 1492749288
0.027343750000, 0.059326171875, -0.259277343750, 220.890625000000, 253.992187500000, -251.414062500000, 1492749288
0.027343750000, 0.059326171875, -0.259277343750, 220.890625000000, 253.992187500000, -251.414062500000, 1492749288
1.043945312500, -1.270263671875, 0.247558593750, 253.992187500000, -256.000000000000, 18.421875000000, 1492749288
1.043945312500, -1.270263671875, 0.247558593750, 253.992187500000, -256.000000000000, 18.421875000000, 1492749288
1.043945312500, -1.270263671875, 0.247558593750, 253.992187500000, -256.000000000000, 18.421875000000, 1492749288
1.043945312500, -1.270263671875, 0.247558593750, 253.992187500000, -256.000000000000, 18.421875000000, 1492749288
0.656250000000, -0.130615234375, 0.073486328125, -221.101562500000, -48.617187500000, 0.101562500000, 1492749288
0.656250000000, -0.130615234375, 0.073486328125, -221.101562500000, -48.617187500000, 0.101562500000, 1492749288
0.656250000000, -0.130615234375, 0.073486328125, -221.101562500000, -48.617187500000, 0.101562500000, 1492749288
0.269531250000, 0.508789062500, -0.270507812500, -256.000000000000, -81.617187500000, 13.687500000000, 1492749288
0.269531250000, 0.508789062500, -0.270507812500, -256.000000000000, -81.617187500000, 13.687500000000, 1492749288
0.269531250000, 0.508789062500, -0.270507812500, -256.000000000000, -81.617187500000, 13.687500000000, 1492749288
0.181396484375, 0.320068359375, -0.118408203125, -256.000000000000, -78.984375000000, -85.757812500000, 1492749288
0.181396484375, 0.320068359375, -0.118408203125, -256.000000000000, -78.984375000000, -85.757812500000, 1492749288
0.181396484375, 0.320068359375, -0.118408203125, -256.000000000000, -78.984375000000, -85.757812500000, 1492749288
0.952392578125, -0.913574218750, -0.054199218750, -123.867187500000, -253.265625000000, -59.195312500000, 1492749288
0.952392578125, -0.913574218750, -0.054199218750, -123.867187500000, -253.265625000000, -59.195312500000, 1492749288
0.952392578125, -0.913574218750, -0.054199218750, -123.867187500000, -253.265625000000, -59.195312500000, 1492749288
0.952392578125, -0.913574218750, -0.054199218750, -123.867187500000, -253.265625000000, -59.195312500000, 1492749288
0.804687500000, -0.724609375000, -0.323242187500, -256.000000000000, -229.687500000000, 55.890625000000, 1492749288
0.804687500000, -0.724609375000, -0.323242187500, -256.000000000000, -229.687500000000, 55.890625000000, 1492749288
0.804687500000, -0.724609375000, -0.323242187500, -256.000000000000, -229.687500000000, 55.890625000000, 1492749288
0.454101562500, -0.465820312500, -0.367187500000, -256.000000000000, -200.851562500000, -31.585937500000, 1492749288
0.454101562500, -0.465820312500, -0.367187500000, -256.000000000000, -200.851562500000, -31.585937500000, 1492749288
0.454101562500, -0.465820312500, -0.367187500000, -256.000000000000, -200.851562500000, -31.585937500000, 1492749288
0.078369140625, -1.491455078125, -2.871337890625, -256.000000000000, 21.726562500000, -167.257812500000, 1492749288
0.078369140625, -1.491455078125, -2.871337890625, -256.000000000000, 21.726562500000, -167.257812500000, 1492749288
0.078369140625, -1.491455078125, -2.871337890625, -256.000000000000, 21.726562500000, -167.257812500000, 1492749288
0.038818359375, -1.718750000000, 0.207031250000, 64.000000000000, -147.468750000000, -256.000000000000, 1492749288
-0.024414062500, -1.587402343750, 0.121093750000, 52.851562500000, -97.484375000000, -256.000000000000, 1492749288
-0.024414062500, -1.587402343750, 0.121093750000, 52.851562500000, -97.484375000000, -256.000000000000, 1492749288
-0.170166015625, -1.715576171875, 0.209228515625, 63.445312500000, -71.851562500000, -211.062500000000, 1492749288
-0.776367187500, -1.243652343750, 0.130615234375, 38.460937500000, -66.046875000000, -158.960937500000, 1492749288
-0.776367187500, -1.243652343750, 0.130615234375, 38.460937500000, -66.046875000000, -158.960937500000, 1492749288
-0.776367187500, -1.243652343750, 0.130615234375, 38.460937500000, -66.046875000000, -158.960937500000, 1492749288
-0.122314453125, -0.500244140625, 0.194580078125, 107.453125000000, 68.984375000000, -103.156250000000, 1492749288
-0.122314453125, -0.500244140625, 0.194580078125, 107.453125000000, 68.984375000000, -103.156250000000, 1492749288
-0.122314453125, -0.500244140625, 0.194580078125, 107.453125000000, 68.984375000000, -103.156250000000, 1492749288
-0.122314453125, -0.500244140625, 0.194580078125, 107.453125000000, 68.984375000000, -103.156250000000, 1492749288
-0.122314453125, -0.500244140625, 0.194580078125, 107.453125000000, 68.984375000000, -103.156250000000, 1492749288
-0.122314453125, -0.500244140625, 0.194580078125, 107.453125000000, 68.984375000000, -103.156250000000, 1492749288
-0.220458984375, -0.360351562500, -0.428710937500, -198.554687500000, 152.156250000000, 3.039062500000, 1492749288
-0.220458984375, -0.360351562500, -0.428710937500, -198.554687500000, 152.156250000000, 3.039062500000, 1492749288
-0.220458984375, -0.360351562500, -0.428710937500, -198.554687500000, 152.156250000000, 3.039062500000, 1492749288
-0.220458984375, -0.360351562500, -0.428710937500, -198.554687500000, 152.156250000000, 3.039062500000, 1492749288
-0.722167968750, -0.059570312500, 0.122802734375, -73.000000000000, -256.000000000000, 25.742187500000, 1492749288
-0.722167968750, -0.059570312500, 0.122802734375, -73.000000000000, -256.000000000000, 25.742187500000, 1492749288
-0.722167968750, -0.059570312500, 0.122802734375, -73.000000000000, -256.000000000000, 25.742187500000, 1492749288
0.025146484375, -1.086914062500, -0.178710937500, 71.164062500000, -160.750000000000, 161.507812500000, 1492749288
0.025146484375, -1.086914062500, -0.178710937500, 71.164062500000, -160.750000000000, 161.507812500000, 1492749288
0.025146484375, -1.086914062500, -0.178710937500, 71.164062500000, -160.750000000000, 161.507812500000, 1492749288
-0.589599609375, -0.880859375000, -0.188476562500, 12.867187500000, -21.515625000000, -53.390625000000, 1492749288
-0.589599609375, -0.880859375000, -0.188476562500, 12.867187500000, -21.515625000000, -53.390625000000, 1492749288
-0.589599609375, -0.880859375000, -0.188476562500, 12.867187500000, -21.515625000000, -53.390625000000, 1492749288
-0.496582031250, -0.759033203125, -0.223632812500, 1.093750000000, -0.281250000000, -67.039062500000, 1492749288
-0.496582031250, -0.759033203125, -0.223632812500, 1.093750000000, -0.281250000000, -67.039062500000, 1492749288
-0.496582031250, -0.759033203125, -0.223632812500, 1.093750000000, -0.281250000000, -67.039062500000, 1492749289
-0.496582031250, -0.759033203125, -0.223632812500, 1.093750000000, -0.281250000000, -67.039062500000, 1492749289
-0.518554687500, -1.044433593750, -0.213378906250, -23.070312500000, 61.859375000000, 41.445312500000, 1492749289
-0.518554687500, -1.044433593750, -0.213378906250, -23.070312500000, 61.859375000000, 41.445312500000, 1492749289
-0.518554687500, -1.044433593750, -0.213378906250, -23.070312500000, 61.859375000000, 41.445312500000, 1492749289
-0.518554687500, -1.044433593750, -0.213378906250, -23.070312500000, 61.859375000000, 41.445312500000, 1492749289
-0.518554687500, -1.044433593750, -0.213378906250, -23.070312500000, 61.859375000000, 41.445312500000, 1492749289
-0.432128906250, -1.082763671875, -0.217041015625, -9.054687500000, 43.117187500000, 29.484375000000, 1492749289
-0.221923828125, -0.939208984375, -0.202880859375, 3.140625000000, 24.546875000000, 15.148437500000, 1492749289
-0.221923828125, -0.939208984375, -0.202880859375, 3.140625000000, 24.546875000000, 15.148437500000, 1492749289
-0.221923828125, -0.939208984375, -0.202880859375, 3.140625000000, 24.546875000000, 15.148437500000, 1492749289
-0.110351562500, -0.799560546875, -0.179687500000, 13.195312500000, -7.898437500000, 18.539062500000, 1492749289
-0.110351562500, -0.799560546875, -0.179687500000, 13.195312500000, -7.898437500000, 18.539062500000, 1492749289
-0.110351562500, -0.799560546875, -0.179687500000, 13.195312500000, -7.898437500000, 18.539062500000, 1492749289
-0.110351562500, -0.799560546875, -0.179687500000, 13.195312500000, -7.898437500000, 18.539062500000, 1492749289
-0.123046875000, -1.012695312500, -0.317871093750, -7.367187500000, -20.445312500000, 7.234375000000, 1492749289
-0.123046875000, -1.012695312500, -0.317871093750, -7.367187500000, -20.445312500000, 7.234375000000, 1492749289
-0.123046875000, -1.012695312500, -0.317871093750, -7.367187500000, -20.445312500000, 7.234375000000, 1492749289
-0.257568359375, -0.950439453125, -0.260986328125, -13.390625000000, -40.414062500000, -3.289062500000, 1492749289
-0.257568359375, -0.950439453125, -0.260986328125, -13.390625000000, -40.414062500000, -3.289062500000, 1492749289
-0.257568359375, -0.950439453125, -0.260986328125, -13.390625000000, -40.414062500000, -3.289062500000, 1492749289
-0.248779296875, -1.026855468750, -0.323974609375, -11.437500000000, -29.984375000000, -16.179687500000, 1492749289
-0.248779296875, -1.026855468750, -0.323974609375, -11.437500000000, -29.984375000000, -16.179687500000, 1492749289
-0.248779296875, -1.026855468750, -0.323974609375, -11.437500000000, -29.984375000000, -16.179687500000, 1492749289
-0.329101562500, -0.956787109375, -0.263427734375, -11.054687500000, -19.859375000000, -30.210937500000, 1492749289
-0.329101562500, -0.956787109375, -0.263427734375, -11.054687500000, -19.859375000000, -30.210937500000, 1492749289
-0.329101562500, -0.956787109375, -0.263427734375, -11.054687500000, -19.859375000000, -30.210937500000, 1492749289
-0.329101562500, -0.956787109375, -0.263427734375, -11.054687500000, -19.859375000000, -30.210937500000, 1492749289
-0.266845703125, -0.882080078125, -0.112792968750, -14.164062500000, -3.578125000000, -30.257812500000, 1492749289
-0.266845703125, -0.882080078125, -0.112792968750, -14.164062500000, -3.578125000000, -30.257812500000, 1492749289
-0.266845703125, -0.882080078125, -0.112792968750, -14.164062500000, -3.578125000000, -30.257812500000, 1492749289
-0.455078125000, -0.858642578125, -0.093994140625, -22.476562500000, 9.171875000000, -19.500000000000, 1492749289
-0.455078125000, -0.858642578125, -0.093994140625, -22.476562500000, 9.171875000000, -19.500000000000, 1492749289
-0.455078125000, -0.858642578125, -0.093994140625, -22.476562500000, 9.171875000000, -19.500000000000, 1492749289
-0.281005859375, -0.848632812500, -0.128662109375, -26.507812500000, 31.914062500000, -33.250000000000, 1492749289
-0.281005859375, -0.848632812500, -0.128662109375, -26.507812500000, 31.914062500000, -33.250000000000, 1492749289
-0.281005859375, -0.848632812500, -0.128662109375, -26.507812500000, 31.914062500000, -33.250000000000, 1492749289
-0.441650390625, -0.906738281250, -0.121582031250, -16.000000000000, 138.640625000000, -15.171875000000, 1492749289
-0.441650390625, -0.906738281250, -0.121582031250, -16.000000000000, 138.640625000000, -15.171875000000, 1492749289
-0.441650390625, -0.906738281250, -0.121582031250, -16.000000000000, 138.640625000000, -15.171875000000, 1492749289
-0.441650390625, -0.906738281250, -0.121582031250, -16.000000000000, 138.640625000000, -15.171875000000, 1492749289
-0.358398437500, -0.948242187500, -0.158935546875, -5.890625000000, 89.890625000000, -18.515625000000, 1492749289
-0.358398437500, -0.948242187500, -0.158935546875, -5.890625000000, 89.890625000000, -18.515625000000, 1492749289
-0.358398437500, -0.948242187500, -0.158935546875, -5.890625000000, 89.890625000000, -18.515625000000, 1492749289
-0.311523437500, -0.948486328125, -0.259765625000, 28.617187500000, 81.953125000000, -1.367187500000, 1492749289
-0.311523437500, -0.948486328125, -0.259765625000, 28.617187500000, 81.953125000000, -1.367187500000, 1492749289
-0.404785156250, -0.852050781250, -0.318847656250, -2.125000000000, 71.796875000000, 21.156250000000, 1492749289
-0.404785156250, -0.852050781250, -0.318847656250, -2.125000000000, 71.796875000000, 21.156250000000, 1492749289
-0.404785156250, -0.852050781250, -0.318847656250, -2.125000000000, 71.796875000000, 21.156250000000, 1492749289
-0.404785156250, -0.852050781250, -0.318847656250, -2.125000000000, 71.796875000000, 21.156250000000, 1492749289
-0.404785156250, -0.852050781250, -0.318847656250, -2.125000000000, 71.796875000000, 21.156250000000, 1492749289
-0.326416015625, -0.970214843750, -0.442138671875, -21.960937500000, 10.312500000000, 5.312500000000, 1492749289
-0.326416015625, -0.970214843750, -0.442138671875, -21.960937500000, 10.312500000000, 5.312500000000, 1492749289
-0.326416015625, -0.970214843750, -0.442138671875, -21.960937500000, 10.312500000000, 5.312500000000, 1492749289
-0.234375000000, -1.001953125000, -0.377441406250, -22.296875000000, -8.890625000000, 10.414062500000, 1492749289
-0.234375000000, -1.001953125000, -0.377441406250, -22.296875000000, -8.890625000000, 10.414062500000, 1492749289
-0.234375000000, -1.001953125000, -0.377441406250, -22.296875000000, -8.890625000000, 10.414062500000, 1492749289
-0.274414062500, -0.850097656250, -0.302246093750, -5.789062500000, -14.453125000000, 10.335937500000, 1492749289
-0.274414062500, -0.850097656250, -0.302246093750, -5.789062500000, -14.453125000000, 10.335937500000, 1492749289
-0.274414062500, -0.850097656250, -0.302246093750, -5.789062500000, -14.453125000000, 10.335937500000, 1492749289
-0.115478515625, -0.903564453125, -0.159667968750, -13.710937500000, -11.343750000000, 4.750000000000, 1492749289
-0.115478515625, -0.903564453125, -0.159667968750, -13.710937500000, -11.343750000000, 4.750000000000, 1492749289
-0.115478515625, -0.903564453125, -0.159667968750, -13.710937500000, -11.343750000000, 4.750000000000, 1492749289
-0.268310546875, -0.870117187500, -0.238037109375, -7.601562500000, 9.156250000000, 4.117187500000, 1492749289
-0.268310546875, -0.870117187500, -0.238037109375, -7.601562500000, 9.156250000000, 4.117187500000, 1492749289
-0.268310546875, -0.870117187500, -0.238037109375, -7.601562500000, 9.156250000000, 4.117187500000, 1492749289
-0.268310546875, -0.870117187500, -0.238037109375, -7.601562500000, 9.156250000000, 4.117187500000, 1492749289
-0.271728515625, -0.899902343750, -0.379150390625, -8.843750000000, 3.085937500000, 7.468750000000, 1492749290
-0.271728515625, -0.899902343750, -0.379150390625, -8.843750000000, 3.085937500000, 7.468750000000, 1492749290
-0.271728515625, -0.899902343750, -0.379150390625, -8.843750000000, 3.085937500000, 7.468750000000, 1492749290
-0.227050781250, -0.919433593750, -0.305419921875, -9.093750000000, 0.648437500000, 12.921875000000, 1492749290
-0.227050781250, -0.919433593750, -0.305419921875, -9.093750000000, 0.648437500000, 12.921875000000, 1492749290
-0.227050781250, -0.919433593750, -0.305419921875, -9.093750000000, 0.648437500000, 12.921875000000, 1492749290
-0.178222656250, -0.954589843750, -0.235351562500, -16.976562500000, -0.945312500000, 7.453125000000, 1492749290
-0.178222656250, -0.954589843750, -0.235351562500, -16.976562500000, -0.945312500000, 7.453125000000, 1492749290
-0.178222656250, -0.954589843750, -0.235351562500, -16.976562500000, -0.945312500000, 7.453125000000, 1492749290
-0.228759765625, -1.016845703125, -0.226074218750, -7.726562500000, -8.742187500000, 2.414062500000, 1492749290
-0.228759765625, -1.016845703125, -0.226074218750, -7.726562500000, -8.742187500000, 2.414062500000, 1492749290
-0.228759765625, -1.016845703125, -0.226074218750, -7.726562500000, -8.742187500000, 2.414062500000, 1492749290
-0.228759765625, -1.016845703125, -0.226074218750, -7.726562500000, -8.742187500000, 2.414062500000, 1492749290
-0.205566406250, -1.008789062500, -0.205566406250, -9.562500000000, 2.835937500000, -2.914062500000, 1492749290
-0.205566406250, -1.008789062500, -0.205566406250, -9.562500000000, 2.835937500000, -2.914062500000, 1492749290
-0.205566406250, -1.008789062500, -0.205566406250, -9.562500000000, 2.835937500000, -2.914062500000, 1492749290
-0.184082031250, -1.016113281250, -0.187011718750, -8.140625000000, 3.859375000000, 0.132812500000, 1492749290
-0.184082031250, -1.016113281250, -0.187011718750, -8.140625000000, 3.859375000000, 0.132812500000, 1492749290
-0.184082031250, -1.016113281250, -0.187011718750, -8.140625000000, 3.859375000000, 0.132812500000, 1492749290
-0.095214843750, -0.933105468750, -0.173339843750, -6.890625000000, -2.750000000000, -2.445312500000, 1492749290
-0.095214843750, -0.933105468750, -0.173339843750, -6.890625000000, -2.750000000000, -2.445312500000, 1492749290
-0.095214843750, -0.933105468750, -0.173339843750, -6.890625000000, -2.750000000000, -2.445312500000, 1492749290
-0.228515625000, -0.915039062500, -0.272705078125, -8.054687500000, 3.125000000000, 1.523437500000, 1492749290
-0.228515625000, -0.915039062500, -0.272705078125, -8.054687500000, 3.125000000000, 1.523437500000, 1492749290
-0.228515625000, -0.915039062500, -0.272705078125, -8.054687500000, 3.125000000000, 1.523437500000, 1492749290
-0.228515625000, -0.915039062500, -0.272705078125, -8.054687500000, 3.125000000000, 1.523437500000, 1492749290
-0.214111328125, -0.919921875000, -0.226318359375, -7.078125000000, -1.515625000000, 2.632812500000, 1492749290
-0.214111328125, -0.919921875000, -0.226318359375, -7.078125000000, -1.515625000000, 2.632812500000, 1492749290
-0.214111328125, -0.919921875000, -0.226318359375, -7.078125000000, -1.515625000000, 2.632812500000, 1492749290
-0.269775390625, -0.956542968750, -0.171875000000, -5.031250000000, 4.367187500000, -3.882812500000, 1492749290
-0.269775390625, -0.956542968750, -0.171875000000, -5.031250000000, 4.367187500000, -3.882812500000, 1492749290
-0.269775390625, -0.956542968750, -0.171875000000, -5.031250000000, 4.367187500000, -3.882812500000, 1492749290
-0.102539062500, -0.934082031250, -0.189941406250, -7.085937500000, -2.265625000000, -4.945312500000, 1492749290
-0.102539062500, -0.934082031250, -0.189941406250, -7.085937500000, -2.265625000000, -4.945312500000, 1492749290
-0.102539062500, -0.934082031250, -0.189941406250, -7.085937500000, -2.265625000000, -4.945312500000, 1492749290
-0.120605468750, -0.985351562500, -0.237548828125, -12.718750000000, -6.984375000000, -1.601562500000, 1492749290
-0.120605468750, -0.985351562500, -0.237548828125, -12.718750000000, -6.984375000000, -1.601562500000, 1492749290
-0.120605468750, -0.985351562500, -0.237548828125, -12.718750000000, -6.984375000000, -1.601562500000, 1492749290
-0.120605468750, -0.985351562500, -0.237548828125, -12.718750000000, -6.984375000000, -1.601562500000, 1492749290
-0.274169921875, -0.914062500000, -0.259765625000, -12.023437500000, -8.265625000000, -3.132812500000, 1492749290
-0.274169921875, -0.914062500000, -0.259765625000, -12.023437500000, -8.265625000000, -3.132812500000, 1492749290
-0.274169921875, -0.914062500000, -0.259765625000, -12.023437500000, -8.265625000000, -3.132812500000, 1492749290
-0.171630859375, -1.000244140625, -0.121093750000, -13.695312500000, -13.554687500000, -0.921875000000, 1492749290
-0.171630859375, -1.000244140625, -0.121093750000, -13.695312500000, -13.554687500000, -0.921875000000, 1492749290
-0.171630859375, -1.000244140625, -0.121093750000, -13.695312500000, -13.554687500000, -0.921875000000, 1492749290
-0.116455078125, -0.982421875000, -0.268310546875, -7.828125000000, -10.289062500000, -6.218750000000, 1492749290
-0.116455078125, -0.982421875000, -0.268310546875, -7.828125000000, -10.289062500000, -6.218750000000, 1492749290
-0.116455078125, -0.982421875000, -0.268310546875, -7.828125000000, -10.289062500000, -6.218750000000, 1492749290
-0.152832031250, -0.851806640625, -0.116943359375, -8.703125000000, -12.171875000000, -6.710937500000, 1492749290
-0.152832031250, -0.851806640625, -0.116943359375, -8.703125000000, -12.171875000000, -6.710937500000, 1492749290
-0.152832031250, -0.851806640625, -0.116943359375, -8.703125000000, -12.171875000000, -6.710937500000, 1492749290
-0.152832031250, -0.851806640625, -0.116943359375, -8.703125000000, -12.171875000000, -6.710937500000, 1492749290
-0.160400390625, -0.963623046875, -0.145019531250, -7.335937500000, -9.523437500000, -4.023437500000, 1492749290
-0.160400390625, -0.963623046875, -0.145019531250, -7.335937500000, -9.523437500000, -4.023437500000, 1492749290
-0.160400390625, -0.963623046875, -0.145019531250, -7.335937500000, -9.523437500000, -4.023437500000, 1492749290
-0.254638671875, -0.914794921875, -0.104003906250, -11.882812500000, -10.390625000000, -3.656250000000, 1492749290
-0.254638671875, -0.914794921875, -0.104003906250, -11.882812500000, -10.390625000000, -3.656250000000, 1492749290
-0.254638671875, -0.914794921875, -0.104003906250, -11.882812500000, -10.390625000000, -3.656250000000, 1492749290
-0.131103515625, -0.957031250000, -0.192626953125, -7.585937500000, -13.312500000000, -3.468750000000, 1492749290
-0.131103515625, -0.957031250000, -0.192626953125, -7.585937500000, -13.312500000000, -3.468750000000, 1492749290
-0.131103515625, -0.957031250000, -0.192626953125, -7.585937500000, -13.312500000000, -3.468750000000, 1492749290
-0.172119140625, -1.026855468750, -0.104248046875, -5.890625000000, -13.242187500000, -2.476562500000, 1492749290
-0.172119140625, -1.026855468750, -0.104248046875, -5.890625000000, -13.242187500000, -2.476562500000, 1492749290
-0.172119140625, -1.026855468750, -0.104248046875, -5.890625000000, -13.242187500000, -2.476562500000, 1492749290
-0.172119140625, -1.026855468750, -0.104248046875, -5.890625000000, -13.242187500000, -2.476562500000, 1492749290
-0.198242187500, -0.970214843750, -0.035888671875, -6.437500000000, -1.710937500000, -3.875000000000, 1492749290
-0.198242187500, -0.970214843750, -0.035888671875, -6.437500000000, -1.710937500000, -3.875000000000, 1492749291
-0.198242187500, -0.970214843750, -0.035888671875, -6.437500000000, -1.710937500000, -3.875000000000, 1492749291
-0.161865234375, -1.026123046875, -0.059570312500, -6.617187500000, 2.929687500000, -5.062500000000, 1492749291
-0.161865234375, -1.026123046875, -0.059570312500, -6.617187500000, 2.929687500000, -5.062500000000, 1492749291
-0.161865234375, -1.026123046875, -0.059570312500, -6.617187500000, 2.929687500000, -5.062500000000, 1492749291
-0.190917968750, -0.959472656250, -0.046875000000, -1.890625000000, 3.398437500000, -4.906250000000, 1492749291
-0.190917968750, -0.959472656250, -0.046875000000, -1.890625000000, 3.398437500000, -4.906250000000, 1492749291
-0.190917968750, -0.959472656250, -0.046875000000, -1.890625000000, 3.398437500000, -4.906250000000, 1492749291
-0.204833984375, -0.913330078125, -0.118896484375, 0.414062500000, 4.015625000000, 0.562500000000, 1492749291
-0.204833984375, -0.913330078125, -0.118896484375, 0.414062500000, 4.015625000000, 0.562500000000, 1492749291
-0.204833984375, -0.913330078125, -0.118896484375, 0.414062500000, 4.015625000000, 0.562500000000, 1492749291
-0.204833984375, -0.913330078125, -0.118896484375, 0.414062500000, 4.015625000000, 0.562500000000, 1492749291
-0.241210937500, -1.015625000000, -0.190185546875, -1.468750000000, 7.328125000000, -4.945312500000, 1492749291
-0.241210937500, -1.015625000000, -0.190185546875, -1.468750000000, 7.328125000000, -4.945312500000, 1492749291
-0.241210937500, -1.015625000000, -0.190185546875, -1.468750000000, 7.328125000000, -4.945312500000, 1492749291
-0.252685546875, -1.007324218750, -0.173583984375, -4.859375000000, 1.281250000000, -4.210937500000, 1492749291
-0.252685546875, -1.007324218750, -0.173583984375, -4.859375000000, 1.281250000000, -4.210937500000, 1492749291
-0.252685546875, -1.007324218750, -0.173583984375, -4.859375000000, 1.281250000000, -4.210937500000, 1492749291
-0.123046875000, -0.921875000000, -0.189941406250, -6.921875000000, -5.359375000000, -6.804687500000, 1492749291
-0.123046875000, -0.921875000000, -0.189941406250, -6.921875000000, -5.359375000000, -6.804687500000, 1492749291
-0.123046875000, -0.921875000000, -0.189941406250, -6.921875000000, -5.359375000000, -6.804687500000, 1492749291
-0.254638671875, -0.970214843750, -0.122070312500, -5.742187500000, -4.445312500000, 0.039062500000, 1492749291
-0.254638671875, -0.970214843750, -0.122070312500, -5.742187500000, -4.445312500000, 0.039062500000, 1492749291
-0.254638671875, -0.970214843750, -0.122070312500, -5.742187500000, -4.445312500000, 0.039062500000, 1492749291
-0.254638671875, -0.970214843750, -0.122070312500, -5.742187500000, -4.445312500000, 0.039062500000, 1492749291
-0.157714843750, -0.938964843750, -0.112792968750, -1.617187500000, 6.757812500000, -10.171875000000, 1492749291
-0.157714843750, -0.938964843750, -0.112792968750, -1.617187500000, 6.757812500000, -10.171875000000, 1492749291
-0.157714843750, -0.938964843750, -0.112792968750, -1.617187500000, 6.757812500000, -10.171875000000, 1492749291
-0.158447265625, -0.858154296875, -0.202880859375, -2.539062500000, -4.992187500000, -7.250000000000, 1492749291
-0.119384765625, -0.938476562500, -0.113281250000, -5.429687500000, -9.351562500000, -7.007812500000, 1492749291
-0.119384765625, -0.938476562500, -0.113281250000, -5.429687500000, -9.351562500000, -7.007812500000, 1492749291
-0.119384765625, -0.938476562500, -0.113281250000, -5.429687500000, -9.351562500000, -7.007812500000, 1492749291
-0.327880859375, -0.955810546875, -0.117431640625, -7.070312500000, -5.789062500000, -10.140625000000, 1492749291
-0.266601562500, -1.074951171875, -0.120605468750, -7.210937500000, -1.906250000000, -12.242187500000, 1492749291
-0.266601562500, -1.074951171875, -0.120605468750, -7.210937500000, -1.906250000000, -12.242187500000, 1492749291
-0.266601562500, -1.074951171875, -0.120605468750, -7.210937500000, -1.906250000000, -12.242187500000, 1492749291
-0.266601562500, -1.074951171875, -0.120605468750, -7.210937500000, -1.906250000000, -12.242187500000, 1492749291
-0.266601562500, -1.074951171875, -0.120605468750, -7.210937500000, -1.906250000000, -12.242187500000, 1492749291
-0.250976562500, -1.030517578125, -0.147949218750, -5.210937500000, -2.757812500000, -1.992187500000, 1492749291
-0.250976562500, -1.030517578125, -0.147949218750, -5.210937500000, -2.757812500000, -1.992187500000, 1492749291
-0.250976562500, -1.030517578125, -0.147949218750, -5.210937500000, -2.757812500000, -1.992187500000, 1492749291
-0.221435546875, -0.951660156250, -0.144287109375, -0.781250000000, 5.148437500000, -3.367187500000, 1492749291
-0.221435546875, -0.951660156250, -0.144287109375, -0.781250000000, 5.148437500000, -3.367187500000, 1492749291
-0.221435546875, -0.951660156250, -0.144287109375, -0.781250000000, 5.148437500000, -3.367187500000, 1492749291
-0.120605468750, -0.936767578125, -0.148681640625, -6.007812500000, -0.320312500000, 2.523437500000, 1492749291
-0.120605468750, -0.936767578125, -0.148681640625, -6.007812500000, -0.320312500000, 2.523437500000, 1492749291
-0.120605468750, -0.936767578125, -0.148681640625, -6.007812500000, -0.320312500000, 2.523437500000, 1492749291
-0.186279296875, -0.999511718750, -0.193115234375, -4.789062500000, -1.234375000000, -4.445312500000, 1492749291
-0.186279296875, -0.999511718750, -0.193115234375, -4.789062500000, -1.234375000000, -4.445312500000, 1492749291
-0.186279296875, -0.999511718750, -0.193115234375, -4.789062500000, -1.234375000000, -4.445312500000, 1492749291
-0.200683593750, -1.003417968750, -0.127929687500, -2.101562500000, -0.179687500000, -4.078125000000, 1492749291
-0.191650390625, -0.943359375000, -0.093994140625, -2.101562500000, -0.179687500000, -4.078125000000, 1492749291
-0.191650390625, -0.943359375000, -0.093994140625, -2.101562500000, -0.179687500000, -4.078125000000, 1492749291
-0.191650390625, -0.943359375000, -0.093994140625, -2.101562500000, -0.179687500000, -4.078125000000, 1492749291
-0.191650390625, -0.943359375000, -0.093994140625, -2.101562500000, -0.179687500000, -4.078125000000, 1492749291
-0.191650390625, -0.943359375000, -0.093994140625, -2.101562500000, -0.179687500000, -4.078125000000, 1492749291
-0.191650390625, -0.943359375000, -0.093994140625, -1.046875000000, -0.296875000000, -1.515625000000, 1492749291
-0.170898437500, -0.857421875000, -0.124755859375, -2.671875000000, 7.726562500000, -4.781250000000, 1492749291
-0.170898437500, -0.857421875000, -0.124755859375, -2.671875000000, 7.726562500000, -4.781250000000, 1492749291
-0.170898437500, -0.857421875000, -0.124755859375, -2.671875000000, 7.726562500000, -4.781250000000, 1492749291
-0.200683593750, -0.896240234375, -0.146728515625, -4.703125000000, 2.226562500000, -2.679687500000, 1492749291
-0.200683593750, -0.896240234375, -0.146728515625, -4.703125000000, 2.226562500000, -2.679687500000, 1492749291
-0.200683593750, -0.896240234375, -0.146728515625, -4.703125000000, 2.226562500000, -2.679687500000, 1492749291
-0.200683593750, -0.896240234375, -0.146728515625, -4.703125000000, 2.226562500000, -2.679687500000, 1492749291
-0.162841796875, -0.855712890625, -0.119140625000, -2.890625000000, -3.703125000000, -2.289062500000, 1492749291
-0.162841796875, -0.855712890625, -0.119140625000, -2.890625000000, -3.703125000000, -2.289062500000, 1492749291
-0.162841796875, -0.855712890625, -0.119140625000, -2.890625000000, -3.703125000000, -2.289062500000, 1492749291
-0.166259765625, -0.919921875000, -0.154052734375, -2.492187500000, -4.703125000000, 0.851562500000, 1492749292
-0.166259765625, -0.919921875000, -0.154052734375, -2.492187500000, -4.703125000000, 0.851562500000, 1492749292
-0.254638671875, -0.931152343750, -0.184570312500, -4.804687500000, -1.281250000000, 1.382812500000, 1492749292
-0.254638671875, -0.931152343750, -0.184570312500, -4.804687500000, -1.281250000000, 1.382812500000, 1492749292
-0.254638671875, -0.931152343750, -0.184570312500, -4.804687500000, -1.281250000000, 1.382812500000, 1492749292
-0.254638671875, -0.931152343750, -0.184570312500, -4.804687500000, -1.281250000000, 1.382812500000, 1492749292
-0.254638671875, -0.931152343750, -0.184570312500, -4.804687500000, -1.281250000000, 1.382812500000, 1492749292
-0.206054687500, -1.000488281250, -0.153808593750, -1.203125000000, -1.039062500000, -2.921875000000, 1492749292
-0.206054687500, -1.000488281250, -0.153808593750, -1.203125000000, -1.039062500000, -2.921875000000, 1492749292
-0.206054687500, -1.000488281250, -0.153808593750, -1.203125000000, -1.039062500000, -2.921875000000, 1492749292
-0.160156250000, -0.875488281250, -0.150146484375, -1.406250000000, -2.906250000000, -3.320312500000, 1492749292
-0.160156250000, -0.875488281250, -0.150146484375, -1.406250000000, -2.906250000000, -3.320312500000, 1492749292
-0.160156250000, -0.875488281250, -0.150146484375, -1.406250000000, -2.906250000000, -3.320312500000, 1492749292
-0.144042968750, -0.908203125000, -0.104492187500, 0.328125000000, -4.210937500000, -1.453125000000, 1492749292
-0.144042968750, -0.908203125000, -0.104492187500, 0.328125000000, -4.210937500000, -1.453125000000, 1492749292
-0.144042968750, -0.908203125000, -0.104492187500, 0.328125000000, -4.210937500000, -1.453125000000, 1492749292
-0.262451171875, -0.976562500000, -0.257080078125, -2.335937500000, 1.945312500000, -5.601562500000, 1492749292
-0.262451171875, -0.976562500000, -0.257080078125, -2.335937500000, 1.945312500000, -5.601562500000, 1492749292
-0.262451171875, -0.976562500000, -0.257080078125, -2.335937500000, 1.945312500000, -5.601562500000, 1492749292
-0.162109375000, -1.023193359375, -0.197509765625, -3.109375000000, 0.070312500000, -8.500000000000, 1492749292
-0.162109375000, -1.023193359375, -0.197509765625, -3.109375000000, 0.070312500000, -8.500000000000, 1492749292
-0.171142578125, -0.917236328125, -0.175292968750, -4.703125000000, 0.812500000000, -4.085937500000, 1492749292
-0.171142578125, -0.917236328125, -0.175292968750, -4.703125000000, 0.812500000000, -4.085937500000, 1492749292
-0.171142578125, -0.917236328125, -0.175292968750, -4.703125000000, 0.812500000000, -4.085937500000, 1492749292
-0.171142578125, -0.917236328125, -0.175292968750, -4.703125000000, 0.812500000000, -4.085937500000, 1492749292
-0.171142578125, -0.917236328125, -0.175292968750, -4.703125000000, 0.812500000000, -4.085937500000, 1492749292
-0.162109375000, -0.965087890625, -0.195556640625, -1.390625000000, 2.421875000000, -1.851562500000, 1492749292
-0.162109375000, -0.965087890625, -0.195556640625, -1.390625000000, 2.421875000000, -1.851562500000, 1492749292
-0.162109375000, -0.965087890625, -0.195556640625, -1.390625000000, 2.421875000000, -1.851562500000, 1492749292
-0.257568359375, -0.987304687500, -0.205810546875, -1.492187500000, -1.250000000000, -6.265625000000, 1492749292
-0.257568359375, -0.987304687500, -0.205810546875, -1.492187500000, -1.250000000000, -6.265625000000, 1492749292
-0.257568359375, -0.987304687500, -0.205810546875, -1.492187500000, -1.250000000000, -6.265625000000, 1492749292
-0.173339843750, -0.989746093750, -0.110107421875, -1.679687500000, -2.382812500000, -5.523437500000, 1492749292
-0.173339843750, -0.989746093750, -0.110107421875, -1.679687500000, -2.382812500000, -5.523437500000, 1492749292
-0.173339843750, -0.989746093750, -0.110107421875, -1.679687500000, -2.382812500000, -5.523437500000, 1492749292
-0.173339843750, -0.989746093750, -0.110107421875, -1.679687500000, -2.382812500000, -5.523437500000, 1492749292
-0.204833984375, -1.025146484375, -0.213623046875, -1.468750000000, 4.476562500000, -1.023437500000, 1492749292
-0.204833984375, -1.025146484375, -0.213623046875, -1.468750000000, 4.476562500000, -1.023437500000, 1492749292
-0.204833984375, -1.025146484375, -0.213623046875, -1.468750000000, 4.476562500000, -1.023437500000, 1492749292
-0.315429687500, -0.935058593750, -0.207031250000, -1.609375000000, 0.164062500000, -1.210937500000, 1492749292
-0.315429687500, -0.935058593750, -0.207031250000, -1.609375000000, 0.164062500000, -1.210937500000, 1492749292
-0.315429687500, -0.935058593750, -0.207031250000, -1.609375000000, 0.164062500000, -1.210937500000, 1492749292
-0.198486328125, -0.911865234375, -0.143554687500, -4.437500000000, -1.734375000000, -8.273437500000, 1492749292
-0.198486328125, -0.911865234375, -0.143554687500, -4.437500000000, -1.734375000000, -8.273437500000, 1492749292
-0.198486328125, -0.911865234375, -0.143554687500, -4.437500000000, -1.734375000000, -8.273437500000, 1492749292
-0.110107421875, -0.850097656250, -0.046630859375, -3.195312500000, 2.703125000000, -3.968750000000, 1492749292
-0.110107421875, -0.850097656250, -0.046630859375, -3.195312500000, 2.703125000000, -3.968750000000, 1492749292
-0.110107421875, -0.850097656250, -0.046630859375, -3.195312500000, 2.703125000000, -3.968750000000, 1492749292
-0.110107421875, -0.850097656250, -0.046630859375, -3.195312500000, 2.703125000000, -3.968750000000, 1492749292
-0.172851562500, -0.862548828125, -0.204833984375, -3.437500000000, 2.585937500000, -3.257812500000, 1492749292
-0.172851562500, -0.862548828125, -0.204833984375, -3.437500000000, 2.585937500000, -3.257812500000, 1492749292
-0.172851562500, -0.862548828125, -0.204833984375, -3.437500000000, 2.585937500000, -3.257812500000, 1492749292
-0.281005859375, -1.014160156250, -0.114501953125, -2.828125000000, -1.500000000000, -3.632812500000, 1492749292
-0.281005859375, -1.014160156250, -0.114501953125, -2.828125000000, -1.500000000000, -3.632812500000, 1492749292
-0.281005859375, -1.014160156250, -0.114501953125, -2.828125000000, -1.500000000000, -3.632812500000, 1492749292
-0.279296875000, -0.955322265625, -0.100097656250, -1.687500000000, 0.367187500000, -2.773437500000, 1492749292
-0.279296875000, -0.955322265625, -0.100097656250, -1.687500000000, 0.367187500000, -2.773437500000, 1492749292
-0.279296875000, -0.955322265625, -0.100097656250, -1.687500000000, 0.367187500000, -2.773437500000, 1492749292
-0.257324218750, -1.015136718750, -0.096435546875, -3.382812500000, 2.734375000000, -2.929687500000, 1492749292
-0.257324218750, -1.015136718750, -0.096435546875, -3.382812500000, 2.734375000000, -2.929687500000, 1492749292
-0.257324218750, -1.015136718750, -0.096435546875, -3.382812500000, 2.734375000000, -2.929687500000, 1492749292
-0.257324218750, -1.015136718750, -0.096435546875, -3.382812500000, 2.734375000000, -2.929687500000, 1492749292
-0.177490234375, -1.001220703125, -0.101074218750, -4.593750000000, -0.984375000000, -4.312500000000, 1492749292
-0.177490234375, -1.001220703125, -0.101074218750, -4.593750000000, -0.984375000000, -4.312500000000, 1492749292
-0.177490234375, -1.001220703125, -0.101074218750, -4.593750000000, -0.984375000000, -4.312500000000, 1492749292
-0.163818359375, -1.008056640625, -0.205078125000, -1.078125000000, 3.531250000000, -3.187500000000, 1492749293
-0.163818359375, -1.008056640625, -0.205078125000, -1.078125000000, 3.531250000000, -3.187500000000, 1492749293
-0.162353515625, -0.992675781250, -0.207519531250, -1.226562500000, 4.414062500000, -6.218750000000, 1492749293
-0.273925781250, -0.981201171875, -0.120361328125, -6.773437500000, 1.929687500000, -3.054687500000, 1492749293
-0.273925781250, -0.981201171875, -0.120361328125, -6.773437500000, 1.929687500000, -3.054687500000, 1492749293
-0.273925781250, -0.981201171875, -0.120361328125, -6.773437500000, 1.929687500000, -3.054687500000, 1492749293
-0.273925781250, -0.981201171875, -0.120361328125, -6.773437500000, 1.929687500000, -3.054687500000, 1492749293
-0.273925781250, -0.981201171875, -0.120361328125, -6.773437500000, 1.929687500000, -3.054687500000, 1492749293
-0.111083984375, -0.965332031250, -0.106201171875, -2.304687500000, 0.656250000000, -4.976562500000, 1492749293
-0.111083984375, -0.965332031250, -0.106201171875, -2.304687500000, 0.656250000000, -4.976562500000, 1492749293
-0.111083984375, -0.965332031250, -0.106201171875, -2.304687500000, 0.656250000000, -4.976562500000, 1492749293
-0.111083984375, -0.965332031250, -0.106201171875, -2.304687500000, 0.656250000000, -4.976562500000, 1492749293
-0.111083984375, -0.965332031250, -0.106201171875, -2.304687500000, 0.656250000000, -4.976562500000, 1492749293
-0.183837890625, -0.976074218750, -0.200683593750, -3.125000000000, 3.203125000000, -3.773437500000, 1492749293
-0.183837890625, -0.976074218750, -0.200683593750, -3.125000000000, 3.203125000000, -3.773437500000, 1492749293
-0.183837890625, -0.976074218750, -0.200683593750, -3.125000000000, 3.203125000000, -3.773437500000, 1492749293
-0.170410156250, -0.947509765625, -0.165771484375, -3.921875000000, -1.953125000000, -1.882812500000, 1492749293
-0.170410156250, -0.947509765625, -0.165771484375, -3.921875000000, -1.953125000000, -1.882812500000, 1492749293
-0.170410156250, -0.947509765625, -0.165771484375, -3.921875000000, -1.953125000000, -1.882812500000, 1492749293
-0.152587890625, -0.942382812500, -0.076171875000, -4.773437500000, -2.710937500000, -4.648437500000, 1492749293
-0.152587890625, -0.942382812500, -0.076171875000, -4.773437500000, -2.710937500000, -4.648437500000, 1492749293
-0.152587890625, -0.942382812500, -0.076171875000, -4.773437500000, -2.710937500000, -4.648437500000, 1492749293
-0.152587890625, -0.942382812500, -0.076171875000, -4.773437500000, -2.710937500000, -4.648437500000, 1492749293
-0.207031250000, -0.978515625000, -0.258789062500, -4.617187500000, 4.234375000000, -3.867187500000, 1492749293
-0.207031250000, -0.978515625000, -0.258789062500, -4.617187500000, 4.234375000000, -3.867187500000, 1492749293
-0.207031250000, -0.978515625000, -0.258789062500, -4.617187500000, 4.234375000000, -3.867187500000, 1492749293
-0.198730468750, -0.955078125000, -0.095947265625, -3.429687500000, 4.218750000000, -3.289062500000, 1492749293
-0.198730468750, -0.955078125000, -0.095947265625, -3.429687500000, 4.218750000000, -3.289062500000, 1492749293
-0.198730468750, -0.955078125000, -0.095947265625, -3.429687500000, 4.218750000000, -3.289062500000, 1492749293
-0.206298828125, -0.915527343750, -0.269775390625, -4.937500000000, -1.320312500000, -6.617187500000, 1492749293
-0.206298828125, -0.915527343750, -0.269775390625, -4.937500000000, -1.320312500000, -6.617187500000, 1492749293
-0.206298828125, -0.915527343750, -0.269775390625, -4.937500000000, -1.320312500000, -6.617187500000, 1492749293
-0.097656250000, -1.027099609375, -0.204345703125, -3.546875000000, -1.437500000000, -6.375000000000, 1492749293
-0.097656250000, -1.027099609375, -0.204345703125, -3.546875000000, -1.437500000000, -6.375000000000, 1492749293
-0.097656250000, -1.027099609375, -0.204345703125, -3.546875000000, -1.437500000000, -6.375000000000, 1492749293
-0.097656250000, -1.027099609375, -0.204345703125, -3.546875000000, -1.437500000000, -6.375000000000, 1492749293
-0.165283203125, -0.957031250000, -0.174560546875, -3.054687500000, -3.453125000000, -3.054687500000, 1492749293
-0.165283203125, -0.957031250000, -0.174560546875, -3.054687500000, -3.453125000000, -3.054687500000, 1492749293
-0.165283203125, -0.957031250000, -0.174560546875, -3.054687500000, -3.453125000000, -3.054687500000, 1492749293
-0.197509765625, -0.941650390625, -0.163818359375, -5.046875000000, -6.187500000000, -4.960937500000, 1492749293
-0.197509765625, -0.941650390625, -0.163818359375, -5.046875000000, -6.187500000000, -4.960937500000, 1492749293
-0.197509765625, -0.941650390625, -0.163818359375, -5.046875000000, -6.187500000000, -4.960937500000, 1492749293
-0.197509765625, -0.941650390625, -0.163818359375, -5.046875000000, -6.187500000000, -4.960937500000, 1492749293
-0.210449218750, -0.929687500000, -0.251708984375, -4.039062500000, -3.859375000000, -3.304687500000, 1492749293
-0.168457031250, -0.921142578125, -0.141845703125, -2.835937500000, 2.210937500000, -8.773437500000, 1492749293
-0.168457031250, -0.921142578125, -0.141845703125, -2.835937500000, 2.210937500000, -8.773437500000, 1492749293
-0.168457031250, -0.921142578125, -0.141845703125, -2.835937500000, 2.210937500000, -8.773437500000, 1492749293
-0.168457031250, -0.921142578125, -0.141845703125, -2.835937500000, 2.210937500000, -8.773437500000, 1492749293
-0.168457031250, -0.921142578125, -0.141845703125, -2.835937500000, 2.210937500000, -8.773437500000, 1492749293
-0.168457031250, -0.921142578125, -0.141845703125, -2.835937500000, 2.210937500000, -8.773437500000, 1492749293
-0.168457031250, -0.921142578125, -0.141845703125, -2.835937500000, 2.210937500000, -8.773437500000, 1492749293
-0.205322265625, -0.955566406250, -0.148681640625, -2.632812500000, 4.562500000000, -6.890625000000, 1492749293
-0.141357421875, -0.949951171875, -0.124267578125, -2.937500000000, 4.445312500000, -4.054687500000, 1492749293
-0.141357421875, -0.949951171875, -0.124267578125, -2.937500000000, 4.445312500000, -4.054687500000, 1492749293
-0.141357421875, -0.949951171875, -0.124267578125, -2.937500000000, 4.445312500000, -4.054687500000, 1492749293
-0.105957031250, -0.958007812500, -0.116699218750, -1.078125000000, -2.203125000000, -6.015625000000, 1492749293
-0.105957031250, -0.958007812500, -0.116699218750, -1.078125000000, -2.203125000000, -6.015625000000, 1492749293
-0.105957031250, -0.958007812500, -0.116699218750, -1.078125000000, -2.203125000000, -6.015625000000, 1492749293
-0.191650390625, -0.943603515625, -0.117675781250, -1.265625000000, -0.515625000000, 0.734375000000, 1492749293
-0.191650390625, -0.943603515625, -0.117675781250, -1.265625000000, -0.515625000000, 0.734375000000, 1492749293
-0.191650390625, -0.943603515625, -0.117675781250, -1.265625000000, -0.515625000000, 0.734375000000, 1492749293
-0.191650390625, -0.943603515625, -0.117675781250, -1.265625000000, -0.515625000000, 0.734375000000, 1492749293
-0.187988281250, -0.857177734375, -0.099609375000, -2.632812500000, 2.820312500000, 0.335937500000, 1492749293
-0.187988281250, -0.857177734375, -0.099609375000, -2.632812500000, 2.820312500000, 0.335937500000, 1492749293
-0.187988281250, -0.857177734375, -0.099609375000, -2.632812500000, 2.820312500000, 0.335937500000, 1492749293
-0.278808593750, -0.934082031250, -0.208007812500, 0.445312500000, -2.109375000000, 0.007812500000, 1492749293
-0.278808593750, -0.934082031250, -0.208007812500, 0.445312500000, -2.109375000000, 0.007812500000, 1492749293
-0.278808593750, -0.934082031250, -0.208007812500, 0.445312500000, -2.109375000000, 0.007812500000, 1492749293
-0.259277343750, -0.925292968750, -0.116699218750, 0.210937500000, -0.359375000000, -2.687500000000, 1492749294
-0.259277343750, -0.925292968750, -0.116699218750, 0.210937500000, -0.359375000000, -2.687500000000, 1492749294
-0.259277343750, -0.925292968750, -0.116699218750, 0.210937500000, -0.359375000000, -2.687500000000, 1492749294
-0.187255859375, -1.020263671875, -0.123779296875, -1.007812500000, 6.093750000000, -3.117187500000, 1492749294
-0.187255859375, -1.020263671875, -0.123779296875, -1.007812500000, 6.093750000000, -3.117187500000, 1492749294
-0.187255859375, -1.020263671875, -0.123779296875, -1.007812500000, 6.093750000000, -3.117187500000, 1492749294
-0.187255859375, -1.020263671875, -0.123779296875, -1.007812500000, 6.093750000000, -3.117187500000, 1492749294
-0.112792968750, -0.921630859375, -0.199951171875, -1.117187500000, -1.656250000000, -8.445312500000, 1492749294
-0.174804687500, -0.872558593750, -0.094238281250, 0.664062500000, -6.562500000000, -3.500000000000, 1492749294
-0.174804687500, -0.872558593750, -0.094238281250, 0.664062500000, -6.562500000000, -3.500000000000, 1492749294
-0.174804687500, -0.872558593750, -0.094238281250, 0.664062500000, -6.562500000000, -3.500000000000, 1492749294
-0.197753906250, -0.925781250000, -0.215332031250, -2.343750000000, 0.828125000000, -3.328125000000, 1492749294
-0.197753906250, -0.925781250000, -0.215332031250, -2.343750000000, 0.828125000000, -3.328125000000, 1492749294
-0.197753906250, -0.925781250000, -0.215332031250, -2.343750000000, 0.828125000000, -3.328125000000, 1492749294
-0.197753906250, -0.925781250000, -0.215332031250, -2.343750000000, 0.828125000000, -3.328125000000, 1492749294
-0.197753906250, -0.925781250000, -0.215332031250, -2.343750000000, 0.828125000000, -3.328125000000, 1492749294
-0.152587890625, -0.926513671875, -0.116699218750, 0.984375000000, -8.531250000000, -4.296875000000, 1492749294
-0.152587890625, -0.926513671875, -0.116699218750, 0.984375000000, -8.531250000000, -4.296875000000, 1492749294
-0.152587890625, -0.926513671875, -0.116699218750, 0.984375000000, -8.531250000000, -4.296875000000, 1492749294
-0.152587890625, -0.926513671875, -0.116699218750, 0.984375000000, -8.531250000000, -4.296875000000, 1492749294
-0.208007812500, -0.852294921875, -0.211181640625, -0.218750000000, -7.171875000000, -6.117187500000, 1492749294
-0.208007812500, -0.852294921875, -0.211181640625, -0.218750000000, -7.171875000000, -6.117187500000, 1492749294
-0.208007812500, -0.852294921875, -0.211181640625, -0.218750000000, -7.171875000000, -6.117187500000, 1492749294
-0.208007812500, -0.852294921875, -0.211181640625, -0.218750000000, -7.171875000000, -6.117187500000, 1492749294
-0.208007812500, -0.852294921875, -0.211181640625, -0.218750000000, -7.171875000000, -6.117187500000, 1492749294
-0.104492187500, -0.984130859375, -0.097167968750, -1.210937500000, 2.109375000000, -2.875000000000, 1492749294
-0.104492187500, -0.984130859375, -0.097167968750, -1.210937500000, 2.109375000000, -2.875000000000, 1492749294
-0.104492187500, -0.984130859375, -0.097167968750, -1.210937500000, 2.109375000000, -2.875000000000, 1492749294
-0.104492187500, -0.984130859375, -0.097167968750, -1.210937500000, 2.109375000000, -2.875000000000, 1492749294
-0.257324218750, -0.937500000000, -0.192626953125, -6.757812500000, -3.218750000000, -6.296875000000, 1492749294
-0.257324218750, -0.937500000000, -0.192626953125, -6.757812500000, -3.218750000000, -6.296875000000, 1492749294
-0.257324218750, -0.937500000000, -0.192626953125, -6.757812500000, -3.218750000000, -6.296875000000, 1492749294
-0.257324218750, -0.937500000000, -0.192626953125, -6.757812500000, -3.218750000000, -6.296875000000, 1492749294
-0.211181640625, -1.002929687500, -0.106445312500, -2.523437500000, -3.234375000000, -1.914062500000, 1492749294
-0.211181640625, -1.002929687500, -0.106445312500, -2.523437500000, -3.234375000000, -1.914062500000, 1492749294
-0.211181640625, -1.002929687500, -0.106445312500, -2.523437500000, -3.234375000000, -1.914062500000, 1492749294
-0.173828125000, -0.934082031250, -0.202148437500, -4.820312500000, -0.242187500000, -5.828125000000, 1492749294
-0.173828125000, -0.934082031250, -0.202148437500, -4.820312500000, -0.242187500000, -5.828125000000, 1492749294
-0.173828125000, -0.934082031250, -0.202148437500, -4.820312500000, -0.242187500000, -5.828125000000, 1492749294
-0.190917968750, -1.002929687500, -0.263427734375, -2.625000000000, 4.296875000000, -8.859375000000, 1492749294
-0.190917968750, -1.002929687500, -0.263427734375, -2.625000000000, 4.296875000000, -8.859375000000, 1492749294
-0.190917968750, -1.002929687500, -0.263427734375, -2.625000000000, 4.296875000000, -8.859375000000, 1492749294
-0.134521484375, -1.024414062500, -0.178955078125, -1.953125000000, -4.640625000000, -7.898437500000, 1492749294
-0.134521484375, -1.024414062500, -0.178955078125, -1.953125000000, -4.640625000000, -7.898437500000, 1492749294
-0.134521484375, -1.024414062500, -0.178955078125, -1.953125000000, -4.640625000000, -7.898437500000, 1492749294
-0.262451171875, -0.936279296875, -0.199462890625, -3.007812500000, -2.539062500000, -8.335937500000, 1492749294
-0.267578125000, -0.966552734375, -0.109619140625, -3.460937500000, 0.312500000000, -4.429687500000, 1492749294
-0.254150390625, -0.957519531250, -0.215087890625, -4.960937500000, 2.921875000000, -5.687500000000, 1492749294
-0.254150390625, -0.957519531250, -0.215087890625, -4.960937500000, 2.921875000000, -5.687500000000, 1492749294
-0.254150390625, -0.957519531250, -0.215087890625, -4.960937500000, 2.921875000000, -5.687500000000, 1492749294
-0.254150390625, -0.957519531250, -0.215087890625, -4.960937500000, 2.921875000000, -5.687500000000, 1492749294
-0.254150390625, -0.957519531250, -0.215087890625, -4.960937500000, 2.921875000000, -5.687500000000, 1492749294
-0.208007812500, -0.934570312500, -0.158935546875, -4.617187500000, 2.179687500000, -3.140625000000, 1492749294
-0.208007812500, -0.934570312500, -0.158935546875, -4.617187500000, 2.179687500000, -3.140625000000, 1492749294
-0.159423828125, -0.991455078125, -0.164794921875, -5.109375000000, -0.132812500000, -6.843750000000, 1492749294
-0.159423828125, -0.991455078125, -0.164794921875, -5.109375000000, -0.132812500000, -6.843750000000, 1492749294
-0.183593750000, -0.944091796875, -0.196044921875, -1.703125000000, -1.773437500000, 0.664062500000, 1492749294
-0.196533203125, -0.973632812500, -0.164306640625, -3.000000000000, 0.468750000000, -1.351562500000, 1492749294
-0.196533203125, -0.973632812500, -0.164306640625, -3.000000000000, 0.468750000000, -1.351562500000, 1492749294
-0.196533203125, -0.973632812500, -0.164306640625, -3.000000000000, 0.468750000000, -1.351562500000, 1492749294
-0.196533203125, -0.973632812500, -0.164306640625, -3.000000000000, 0.468750000000, -1.351562500000, 1492749294
-0.156250000000, -0.968505859375, -0.175781250000, -2.929687500000, 4.281250000000, -2.585937500000, 1492749294
-0.181396484375, -0.789306640625, -0.164306640625, 2.359375000000, 5.023437500000, 0.062500000000, 1492749294
-0.181396484375, -0.789306640625, -0.164306640625, 2.359375000000, 5.023437500000, 0.062500000000, 1492749294
-0.181396484375, -0.789306640625, -0.164306640625, 2.359375000000, 5.023437500000, 0.062500000000, 1492749294
-0.202392578125, -0.918212890625, -0.160156250000, 2.023437500000, 4.539062500000, -0.398437500000, 1492749294
-0.202392578125, -0.918212890625, -0.160156250000, 2.023437500000, 4.539062500000, -0.398437500000, 1492749294
-0.202392578125, -0.918212890625, -0.160156250000, 2.023437500000, 4.539062500000, -0.398437500000, 1492749294
-0.203857421875, -1.000488281250, -0.103759765625, 1.406250000000, 11.148437500000, 0.210937500000, 1492749295
-0.203857421875, -1.000488281250, -0.103759765625, 1.406250000000, 11.148437500000, 0.210937500000, 1492749295
-0.203857421875, -1.000488281250, -0.103759765625, 1.406250000000, 11.148437500000, 0.210937500000, 1492749295
-0.203857421875, -1.000488281250, -0.103759765625, 1.406250000000, 11.148437500000, 0.210937500000, 1492749295
-0.269042968750, -1.012207031250, -0.251464843750, -0.453125000000, 7.093750000000, -0.890625000000, 1492749295
-0.269042968750, -1.012207031250, -0.251464843750, -0.453125000000, 7.093750000000, -0.890625000000, 1492749295
-0.269042968750, -1.012207031250, -0.251464843750, -0.453125000000, 7.093750000000, -0.890625000000, 1492749295
-0.269042968750, -1.012207031250, -0.251464843750, -0.453125000000, 7.093750000000, -0.890625000000, 1492749295
-0.269042968750, -1.012207031250, -0.251464843750, -0.453125000000, 7.093750000000, -0.890625000000, 1492749295
-0.108642578125, -0.924804687500, -0.185302734375, 0.164062500000, 3.617187500000, 3.203125000000, 1492749295
-0.108642578125, -0.924804687500, -0.185302734375, 0.164062500000, 3.617187500000, 3.203125000000, 1492749295
-0.108642578125, -0.924804687500, -0.185302734375, 0.164062500000, 3.617187500000, 3.203125000000, 1492749295
-0.146484375000, -1.019287109375, -0.156250000000, 4.179687500000, 5.984375000000, 0.179687500000, 1492749295
