ACC_X,ACC_Y,ACC_Z,G_X,G_Y,G_Z,Unix Time
0.130615234375, -0.965087890625, 0.312011718750, -2.171875000000, 0.851562500000, -6.804687500000, 1492749009
0.130615234375, -0.965087890625, 0.312011718750, -2.171875000000, 0.851562500000, -6.804687500000, 1492749009
0.130615234375, -0.965087890625, 0.312011718750, -2.171875000000, 0.851562500000, -6.804687500000, 1492749009
0.153808593750, -1.017822265625, 0.239501953125, -6.062500000000, 0.617187500000, -5.625000000000, 1492749009
0.153808593750, -1.017822265625, 0.239501953125, -6.062500000000, 0.617187500000, -5.625000000000, 1492749009
0.153808593750, -1.017822265625, 0.239501953125, -6.062500000000, 0.617187500000, -5.625000000000, 1492749009
0.153808593750, -1.017822265625, 0.239501953125, -6.062500000000, 0.617187500000, -5.625000000000, 1492749009
0.049072265625, -0.869628906250, 0.317382812500, -4.789062500000, -4.117187500000, -5.148437500000, 1492749009
0.049072265625, -0.869628906250, 0.317382812500, -4.789062500000, -4.117187500000, -5.148437500000, 1492749009
0.049072265625, -0.869628906250, 0.317382812500, -4.789062500000, -4.117187500000, -5.148437500000, 1492749009
0.075439453125, -1.021728515625, 0.247802734375, -4.976562500000, -4.054687500000, -8.765625000000, 1492749009
0.075439453125, -1.021728515625, 0.247802734375, -4.976562500000, -4.054687500000, -8.765625000000, 1492749009
0.075439453125, -1.021728515625, 0.247802734375, -4.976562500000, -4.054687500000, -8.765625000000, 1492749009
0.034423828125, -0.953369140625, 0.233154296875, -3.500000000000, 0.960937500000, -6.835937500000, 1492749009
0.034423828125, -0.953369140625, 0.233154296875, -3.500000000000, 0.960937500000, -6.835937500000, 1492749009
0.034423828125, -0.953369140625, 0.233154296875, -3.500000000000, 0.960937500000, -6.835937500000, 1492749009
0.051025390625, -1.021728515625, 0.221923828125, -1.125000000000, 2.140625000000, -5.515625000000, 1492749009
0.051025390625, -1.021728515625, 0.221923828125, -1.125000000000, 2.140625000000, -5.515625000000, 1492749009
0.051025390625, -1.021728515625, 0.221923828125, -1.125000000000, 2.140625000000, -5.515625000000, 1492749009
0.044189453125, -0.927246093750, 0.221191406250, -2.882812500000, -1.523437500000, -6.296875000000, 1492749009
0.044189453125, -0.927246093750, 0.221191406250, -2.882812500000, -1.523437500000, -6.296875000000, 1492749009
0.044189453125, -0.927246093750, 0.221191406250, -2.882812500000, -1.523437500000, -6.296875000000, 1492749009
0.044189453125, -0.927246093750, 0.221191406250, -2.882812500000, -1.523437500000, -6.296875000000, 1492749009
0.068359375000, -0.957275390625, 0.393554687500, 0.015625000000, 2.093750000000, -7.375000000000, 1492749009
0.068359375000, -0.957275390625, 0.393554687500, 0.015625000000, 2.093750000000, -7.375000000000, 1492749009
0.068359375000, -0.957275390625, 0.393554687500, 0.015625000000, 2.093750000000, -7.375000000000, 1492749009
0.088623046875, -1.016113281250, 0.332519531250, -4.804687500000, -1.335937500000, -6.750000000000, 1492749009
0.088623046875, -1.016113281250, 0.332519531250, -4.804687500000, -1.335937500000, -6.750000000000, 1492749009
0.088623046875, -1.016113281250, 0.332519531250, -4.804687500000, -1.335937500000, -6.750000000000, 1492749009
0.079345703125, -0.951660156250, 0.376220703125, -3.343750000000, -2.718750000000, -3.179687500000, 1492749010
0.079345703125, -0.951660156250, 0.376220703125, -3.343750000000, -2.718750000000, -3.179687500000, 1492749010
0.079345703125, -0.951660156250, 0.376220703125, -3.343750000000, -2.718750000000, -3.179687500000, 1492749010
0.079345703125, -0.951660156250, 0.376220703125, -3.343750000000, -2.718750000000, -3.179687500000, 1492749010
0.126953125000, -0.921142578125, 0.339111328125, -2.492187500000, 0.421875000000, -6.484375000000, 1492749010
0.126953125000, -0.921142578125, 0.339111328125, -2.492187500000, 0.421875000000, -6.484375000000, 1492749010
0.126953125000, -0.921142578125, 0.339111328125, -2.492187500000, 0.421875000000, -6.484375000000, 1492749010
-0.017578125000, -0.984130859375, 0.335937500000, -1.343750000000, 0.625000000000, -4.453125000000, 1492749010
-0.017578125000, -0.984130859375, 0.335937500000, -1.343750000000, 0.625000000000, -4.453125000000, 1492749010
-0.017578125000, -0.984130859375, 0.335937500000, -1.343750000000, 0.625000000000, -4.453125000000, 1492749010
0.004394531250, -0.950439453125, 0.326171875000, -3.937500000000, 2.289062500000, -5.054687500000, 1492749010
0.004394531250, -0.950439453125, 0.326171875000, -3.937500000000, 2.289062500000, -5.054687500000, 1492749010
0.004394531250, -0.950439453125, 0.326171875000, -3.937500000000, 2.289062500000, -5.054687500000, 1492749010
-0.023925781250, -1.015136718750, 0.245117187500, 2.304687500000, -0.234375000000, -3.765625000000, 1492749010
-0.023925781250, -1.015136718750, 0.245117187500, 2.304687500000, -0.234375000000, -3.765625000000, 1492749010
-0.023925781250, -1.015136718750, 0.245117187500, 2.304687500000, -0.234375000000, -3.765625000000, 1492749010
-0.023925781250, -1.015136718750, 0.245117187500, 2.304687500000, -0.234375000000, -3.765625000000, 1492749010
0.045410156250, -0.902587890625, 0.387939453125, -6.617187500000, 2.039062500000, -3.781250000000, 1492749010
0.045410156250, -0.902587890625, 0.387939453125, -6.617187500000, 2.039062500000, -3.781250000000, 1492749010
0.045410156250, -0.902587890625, 0.387939453125, -6.617187500000, 2.039062500000, -3.781250000000, 1492749010
0.093994140625, -1.028808593750, 0.375732421875, -1.835937500000, 2.046875000000, -4.390625000000, 1492749010
0.093994140625, -1.028808593750, 0.375732421875, -1.835937500000, 2.046875000000, -4.390625000000, 1492749010
0.093994140625, -1.028808593750, 0.375732421875, -1.835937500000, 2.046875000000, -4.390625000000, 1492749010
0.093261718750, -0.919677734375, 0.317382812500, -4.835937500000, 2.195312500000, -4.359375000000, 1492749010
0.093261718750, -0.919677734375, 0.317382812500, -4.835937500000, 2.195312500000, -4.359375000000, 1492749010
0.093261718750, -0.919677734375, 0.317382812500, -4.835937500000, 2.195312500000, -4.359375000000, 1492749010
-0.014404296875, -0.963378906250, 0.245361328125, -6.289062500000, -1.750000000000, -1.054687500000, 1492749010
-0.014404296875, -0.963378906250, 0.245361328125, -6.289062500000, -1.750000000000, -1.054687500000, 1492749010
-0.014404296875, -0.963378906250, 0.245361328125, -6.289062500000, -1.750000000000, -1.054687500000, 1492749010
-0.014404296875, -0.963378906250, 0.245361328125, -6.289062500000, -1.750000000000, -1.054687500000, 1492749010
-0.011718750000, -1.020996093750, 0.219482421875, -4.453125000000, -1.679687500000, -4.281250000000, 1492749010
-0.011718750000, -1.020996093750, 0.219482421875, -4.453125000000, -1.679687500000, -4.281250000000, 1492749010
-0.011718750000, -1.020996093750, 0.219482421875, -4.453125000000, -1.679687500000, -4.281250000000, 1492749010
0.050048828125, -0.845458984375, 0.246093750000, 2.242187500000, 0.093750000000, -2.132812500000, 1492749010
0.050048828125, -0.845458984375, 0.246093750000, 2.242187500000, 0.093750000000, -2.132812500000, 1492749010
0.050048828125, -0.845458984375, 0.246093750000, 2.242187500000, 0.093750000000, -2.132812500000, 1492749010
0.050048828125, -0.845458984375, 0.246093750000, 2.242187500000, 0.093750000000, -2.132812500000, 1492749010
0.103271484375, -1.008789062500, 0.248779296875, -1.070312500000, -5.343750000000, -4.484375000000, 1492749010
0.153076171875, -0.979003906250, 0.253906250000, -1.070312500000, -5.343750000000, -4.484375000000, 1492749010
0.153076171875, -0.979003906250, 0.253906250000, -1.070312500000, -5.343750000000, -4.484375000000, 1492749010
0.153076171875, -0.979003906250, 0.253906250000, -1.070312500000, -5.343750000000, -4.484375000000, 1492749010
0.153076171875, -0.979003906250, 0.253906250000, -1.070312500000, -5.343750000000, -4.484375000000, 1492749010
0.153076171875, -0.979003906250, 0.253906250000, -1.070312500000, -5.343750000000, -4.484375000000, 1492749010
0.102294921875, -1.010498046875, 0.319580078125, -4.250000000000, -4.648437500000, -6.671875000000, 1492749010
0.102294921875, -1.010498046875, 0.319580078125, -4.250000000000, -4.648437500000, -6.671875000000, 1492749010
0.102294921875, -1.010498046875, 0.319580078125, -4.250000000000, -4.648437500000, -6.671875000000, 1492749010
-0.017578125000, -0.965332031250, 0.333251953125, -1.585937500000, -1.195312500000, -5.015625000000, 1492749010
-0.017578125000, -0.965332031250, 0.333251953125, -1.585937500000, -1.195312500000, -5.015625000000, 1492749010
-0.017578125000, -0.965332031250, 0.333251953125, -1.585937500000, -1.195312500000, -5.015625000000, 1492749010
0.031494140625, -1.078857421875, 0.325927734375, -3.523437500000, -1.414062500000, -6.445312500000, 1492749010
0.031494140625, -1.078857421875, 0.325927734375, -3.523437500000, -1.414062500000, -6.445312500000, 1492749010
0.031494140625, -1.078857421875, 0.325927734375, -3.523437500000, -1.414062500000, -6.445312500000, 1492749010
0.039306640625, -0.930908203125, 0.236328125000, -8.132812500000, 0.218750000000, -3.468750000000, 1492749010
0.039306640625, -0.930908203125, 0.236328125000, -8.132812500000, 0.218750000000, -3.468750000000, 1492749010
0.039306640625, -0.930908203125, 0.236328125000, -8.132812500000, 0.218750000000, -3.468750000000, 1492749010
0.039306640625, -0.930908203125, 0.236328125000, -8.132812500000, 0.218750000000, -3.468750000000, 1492749010
-0.031005859375, -0.954345703125, 0.292968750000, -2.726562500000, -0.828125000000, -3.171875000000, 1492749010
-0.031005859375, -0.954345703125, 0.292968750000, -2.726562500000, -0.828125000000, -3.171875000000, 1492749010
-0.031005859375, -0.954345703125, 0.292968750000, -2.726562500000, -0.828125000000, -3.171875000000, 1492749010
0.043945312500, -0.951904296875, 0.240478515625, -6.351562500000, 0.210937500000, -6.546875000000, 1492749010
0.043945312500, -0.951904296875, 0.240478515625, -6.351562500000, 0.210937500000, -6.546875000000, 1492749010
0.043945312500, -0.951904296875, 0.240478515625, -6.351562500000, 0.210937500000, -6.546875000000, 1492749010
0.100585937500, -1.025634765625, 0.315429687500, -3.343750000000, 0.468750000000, -3.843750000000, 1492749010
0.100585937500, -1.025634765625, 0.315429687500, -3.343750000000, 0.468750000000, -3.843750000000, 1492749010
0.100585937500, -1.025634765625, 0.315429687500, -3.343750000000, 0.468750000000, -3.843750000000, 1492749010
0.036132812500, -0.911865234375, 0.340576171875, -3.578125000000, -2.703125000000, -6.312500000000, 1492749011
0.036132812500, -0.911865234375, 0.340576171875, -3.578125000000, -2.703125000000, -6.312500000000, 1492749011
0.036132812500, -0.911865234375, 0.340576171875, -3.578125000000, -2.703125000000, -6.312500000000, 1492749011
0.036132812500, -0.911865234375, 0.340576171875, -3.578125000000, -2.703125000000, -6.312500000000, 1492749011
0.046386718750, -0.898193359375, 0.324707031250, -6.070312500000, -1.148437500000, -5.398437500000, 1492749011
0.046386718750, -0.898193359375, 0.324707031250, -6.070312500000, -1.148437500000, -5.398437500000, 1492749011
0.046386718750, -0.898193359375, 0.324707031250, -6.070312500000, -1.148437500000, -5.398437500000, 1492749011
0.039306640625, -0.919433593750, 0.322753906250, -3.468750000000, 0.851562500000, -3.164062500000, 1492749011
0.039306640625, -0.919433593750, 0.322753906250, -3.468750000000, 0.851562500000, -3.164062500000, 1492749011
0.039306640625, -0.919433593750, 0.322753906250, -3.468750000000, 0.851562500000, -3.164062500000, 1492749011
0.139892578125, -0.930664062500, 0.323486328125, -6.968750000000, -0.992187500000, -3.015625000000, 1492749011
0.139892578125, -0.930664062500, 0.323486328125, -6.968750000000, -0.992187500000, -3.015625000000, 1492749011
0.139892578125, -0.930664062500, 0.323486328125, -6.968750000000, -0.992187500000, -3.015625000000, 1492749011
0.006835937500, -0.865966796875, 0.291015625000, -3.710937500000, -2.195312500000, -2.632812500000, 1492749011
0.006835937500, -0.865966796875, 0.291015625000, -3.710937500000, -2.195312500000, -2.632812500000, 1492749011
0.006835937500, -0.865966796875, 0.291015625000, -3.710937500000, -2.195312500000, -2.632812500000, 1492749011
0.006835937500, -0.865966796875, 0.291015625000, -3.710937500000, -2.195312500000, -2.632812500000, 1492749011
0.133300781250, -0.972900390625, 0.309326171875, 2.406250000000, -0.312500000000, -4.562500000000, 1492749011
0.133300781250, -0.972900390625, 0.309326171875, 2.406250000000, -0.312500000000, -4.562500000000, 1492749011
0.133300781250, -0.972900390625, 0.309326171875, 2.406250000000, -0.312500000000, -4.562500000000, 1492749011
0.076171875000, -1.024902343750, 0.379150390625, -6.554687500000, -0.476562500000, -1.390625000000, 1492749011
0.076171875000, -1.024902343750, 0.379150390625, -6.554687500000, -0.476562500000, -1.390625000000, 1492749011
0.085693359375, -1.016113281250, 0.345947265625, 1.273437500000, -1.632812500000, 0.156250000000, 1492749011
0.085693359375, -1.016113281250, 0.345947265625, 1.273437500000, -1.632812500000, 0.156250000000, 1492749011
0.085693359375, -1.016113281250, 0.345947265625, 1.273437500000, -1.632812500000, 0.156250000000, 1492749011
0.085693359375, -1.016113281250, 0.345947265625, 1.273437500000, -1.632812500000, 0.156250000000, 1492749011
0.060546875000, -0.972412109375, 0.289550781250, -1.632812500000, -2.898437500000, -4.742187500000, 1492749011
0.060546875000, -0.972412109375, 0.289550781250, -1.632812500000, -2.898437500000, -4.742187500000, 1492749011
0.060546875000, -0.972412109375, 0.289550781250, -1.632812500000, -2.898437500000, -4.742187500000, 1492749011
0.060546875000, -0.972412109375, 0.289550781250, -1.632812500000, -2.898437500000, -4.742187500000, 1492749011
0.060546875000, -0.972412109375, 0.289550781250, -1.632812500000, -2.898437500000, -4.742187500000, 1492749011
0.060546875000, -0.972412109375, 0.289550781250, -1.632812500000, -2.898437500000, -4.742187500000, 1492749011
0.128173828125, -1.066406250000, 0.301269531250, -4.617187500000, 2.640625000000, -6.109375000000, 1492749011
0.128173828125, -1.066406250000, 0.301269531250, -4.617187500000, 2.640625000000, -6.109375000000, 1492749011
0.128173828125, -1.066406250000, 0.301269531250, -4.617187500000, 2.640625000000, -6.109375000000, 1492749011
0.128173828125, -1.066406250000, 0.301269531250, -4.617187500000, 2.640625000000, -6.109375000000, 1492749011
0.041992187500, -1.028076171875, 0.319580078125, -3.929687500000, -2.546875000000, -6.726562500000, 1492749011
0.041992187500, -1.028076171875, 0.319580078125, -3.929687500000, -2.546875000000, -6.726562500000, 1492749011
0.041992187500, -1.028076171875, 0.319580078125, -3.929687500000, -2.546875000000, -6.726562500000, 1492749011
0.045654296875, -0.993164062500, 0.281250000000, -8.812500000000, -0.179687500000, -5.312500000000, 1492749011
0.045654296875, -0.993164062500, 0.281250000000, -8.812500000000, -0.179687500000, -5.312500000000, 1492749011
0.045654296875, -0.993164062500, 0.281250000000, -8.812500000000, -0.179687500000, -5.312500000000, 1492749011
0.045654296875, -0.993164062500, 0.281250000000, -8.812500000000, -0.179687500000, -5.312500000000, 1492749011
0.135009765625, -0.803710937500, 0.290771484375, -6.679687500000, 0.609375000000, -7.312500000000, 1492749011
0.135009765625, -0.803710937500, 0.290771484375, -6.679687500000, 0.609375000000, -7.312500000000, 1492749011
0.135009765625, -0.803710937500, 0.290771484375, -6.679687500000, 0.609375000000, -7.312500000000, 1492749011
0.147216796875, -0.923095703125, 0.326171875000, -7.343750000000, -4.953125000000, -10.429687500000, 1492749011
0.147216796875, -0.923095703125, 0.326171875000, -7.343750000000, -4.953125000000, -10.429687500000, 1492749011
0.147216796875, -0.923095703125, 0.326171875000, -7.343750000000, -4.953125000000, -10.429687500000, 1492749011
0.039550781250, -0.964599609375, 0.366455078125, -6.000000000000, -4.281250000000, -8.968750000000, 1492749011
0.039550781250, -0.964599609375, 0.366455078125, -6.000000000000, -4.281250000000, -8.968750000000, 1492749011
0.039550781250, -0.964599609375, 0.366455078125, -6.000000000000, -4.281250000000, -8.968750000000, 1492749011
0.032226562500, -0.872314453125, 0.324707031250, -6.070312500000, -6.359375000000, -12.070312500000, 1492749011
0.032226562500, -0.872314453125, 0.324707031250, -6.070312500000, -6.359375000000, -12.070312500000, 1492749011
0.032226562500, -0.872314453125, 0.324707031250, -6.070312500000, -6.359375000000, -12.070312500000, 1492749011
0.032226562500, -0.872314453125, 0.324707031250, -6.070312500000, -6.359375000000, -12.070312500000, 1492749011
0.148193359375, -0.919433593750, 0.316406250000, -4.757812500000, -6.296875000000, -7.468750000000, 1492749011
0.148193359375, -0.919433593750, 0.316406250000, -4.757812500000, -6.296875000000, -7.468750000000, 1492749011
0.148193359375, -0.919433593750, 0.316406250000, -4.757812500000, -6.296875000000, -7.468750000000, 1492749011
-0.001220703125, -1.077392578125, 0.224853515625, -3.164062500000, -5.101562500000, -7.617187500000, 1492749011
-0.001220703125, -1.077392578125, 0.224853515625, -3.164062500000, -5.101562500000, -7.617187500000, 1492749011
-0.001220703125, -1.077392578125, 0.224853515625, -3.164062500000, -5.101562500000, -7.617187500000, 1492749011
0.107421875000, -0.944335937500, 0.403076171875, -0.523437500000, -2.953125000000, -6.734375000000, 1492749011
0.107421875000, -0.944335937500, 0.403076171875, -0.523437500000, -2.953125000000, -6.734375000000, 1492749011
0.107421875000, -0.944335937500, 0.403076171875, -0.523437500000, -2.953125000000, -6.734375000000, 1492749011
0.000732421875, -1.014648437500, 0.324218750000, -0.359375000000, -8.882812500000, -8.156250000000, 1492749011
0.000732421875, -1.014648437500, 0.324218750000, -0.359375000000, -8.882812500000, -8.156250000000, 1492749011
0.000732421875, -1.014648437500, 0.324218750000, -0.359375000000, -8.882812500000, -8.156250000000, 1492749012
0.000732421875, -1.014648437500, 0.324218750000, -0.359375000000, -8.882812500000, -8.156250000000, 1492749012
-0.014648437500, -1.012939453125, 0.294677734375, -1.414062500000, -7.039062500000, -5.687500000000, 1492749012
-0.014648437500, -1.012939453125, 0.294677734375, -1.414062500000, -7.039062500000, -5.687500000000, 1492749012
-0.014648437500, -1.012939453125, 0.294677734375, -1.414062500000, -7.039062500000, -5.687500000000, 1492749012
0.129150390625, -0.855957031250, 0.317626953125, 0.429687500000, -6.492187500000, -4.484375000000, 1492749012
0.129150390625, -0.855957031250, 0.317626953125, 0.429687500000, -6.492187500000, -4.484375000000, 1492749012
0.129150390625, -0.855957031250, 0.317626953125, 0.429687500000, -6.492187500000, -4.484375000000, 1492749012
0.068359375000, -0.858886718750, 0.306640625000, 0.281250000000, -5.250000000000, -2.992187500000, 1492749012
0.068359375000, -0.858886718750, 0.306640625000, 0.281250000000, -5.250000000000, -2.992187500000, 1492749012
0.068359375000, -0.858886718750, 0.306640625000, 0.281250000000, -5.250000000000, -2.992187500000, 1492749012
0.145507812500, -0.908691406250, 0.246337890625, -1.039062500000, -1.648437500000, -3.546875000000, 1492749012
0.145507812500, -0.908691406250, 0.246337890625, -1.039062500000, -1.648437500000, -3.546875000000, 1492749012
0.145507812500, -0.908691406250, 0.246337890625, -1.039062500000, -1.648437500000, -3.546875000000, 1492749012
0.076171875000, -1.023437500000, 0.321289062500, -3.226562500000, -2.046875000000, -1.234375000000, 1492749012
0.076171875000, -1.023437500000, 0.321289062500, -3.226562500000, -2.046875000000, -1.234375000000, 1492749012
0.076171875000, -1.023437500000, 0.321289062500, -3.226562500000, -2.046875000000, -1.234375000000, 1492749012
0.076171875000, -1.023437500000, 0.321289062500, -3.226562500000, -2.046875000000, -1.234375000000, 1492749012
0.093505859375, -0.930175781250, 0.290283203125, -1.882812500000, 0.468750000000, -6.148437500000, 1492749012
0.093505859375, -0.930175781250, 0.290283203125, -1.882812500000, 0.468750000000, -6.148437500000, 1492749012
0.093505859375, -0.930175781250, 0.290283203125, -1.882812500000, 0.468750000000, -6.148437500000, 1492749012
0.093505859375, -0.930175781250, 0.290283203125, -1.882812500000, 0.468750000000, -6.148437500000, 1492749012
0.093505859375, -0.930175781250, 0.290283203125, -1.882812500000, 0.468750000000, -6.148437500000, 1492749012
0.154785156250, -0.950195312500, 0.382568359375, -4.046875000000, -2.789062500000, -3.281250000000, 1492749012
0.154785156250, -0.950195312500, 0.382568359375, -4.046875000000, -2.789062500000, -3.281250000000, 1492749012
0.154785156250, -0.950195312500, 0.382568359375, -4.046875000000, -2.789062500000, -3.281250000000, 1492749012
0.154785156250, -0.950195312500, 0.382568359375, -4.046875000000, -2.789062500000, -3.281250000000, 1492749012
0.154785156250, -0.950195312500, 0.382568359375, -4.046875000000, -2.789062500000, -3.281250000000, 1492749012
0.156250000000, -1.012451171875, 0.285644531250, -3.156250000000, 0.289062500000, -3.343750000000, 1492749012
0.156250000000, -1.012451171875, 0.285644531250, -3.156250000000, 0.289062500000, -3.343750000000, 1492749012
0.156250000000, -1.012451171875, 0.285644531250, -3.156250000000, 0.289062500000, -3.343750000000, 1492749012
0.067138671875, -1.073486328125, 0.328125000000, -3.015625000000, 2.382812500000, -4.578125000000, 1492749012
0.067138671875, -1.073486328125, 0.328125000000, -3.015625000000, 2.382812500000, -4.578125000000, 1492749012
0.067138671875, -1.073486328125, 0.328125000000, -3.015625000000, 2.382812500000, -4.578125000000, 1492749012
0.120117187500, -0.941650390625, 0.335449218750, -6.078125000000, 2.890625000000, -3.656250000000, 1492749012
0.120117187500, -0.941650390625, 0.335449218750, -6.078125000000, 2.890625000000, -3.656250000000, 1492749012
0.120117187500, -0.941650390625, 0.335449218750, -6.078125000000, 2.890625000000, -3.656250000000, 1492749012
0.120117187500, -0.941650390625, 0.335449218750, -6.078125000000, 2.890625000000, -3.656250000000, 1492749012
0.050537109375, -0.953613281250, 0.379638671875, -3.664062500000, 2.476562500000, -8.117187500000, 1492749012
0.050537109375, -0.953613281250, 0.379638671875, -3.664062500000, 2.476562500000, -8.117187500000, 1492749012
0.050537109375, -0.953613281250, 0.379638671875, -3.664062500000, 2.476562500000, -8.117187500000, 1492749012
0.050537109375, -0.953613281250, 0.379638671875, -3.664062500000, 2.476562500000, -8.117187500000, 1492749012
0.091552734375, -1.016845703125, 0.331542968750, -1.492187500000, -1.789062500000, -6.007812500000, 1492749012
0.091552734375, -1.016845703125, 0.331542968750, -1.492187500000, -1.789062500000, -6.007812500000, 1492749012
0.091552734375, -1.016845703125, 0.331542968750, -1.492187500000, -1.789062500000, -6.007812500000, 1492749012
0.091552734375, -1.016845703125, 0.331542968750, -1.492187500000, -1.789062500000, -6.007812500000, 1492749012
0.091552734375, -1.016845703125, 0.331542968750, -1.492187500000, -1.789062500000, -6.007812500000, 1492749012
0.052246093750, -1.012939453125, 0.287353515625, -4.914062500000, -2.953125000000, -6.546875000000, 1492749012
0.052246093750, -1.012939453125, 0.287353515625, -4.914062500000, -2.953125000000, -6.546875000000, 1492749012
0.052246093750, -1.012939453125, 0.287353515625, -4.914062500000, -2.953125000000, -6.546875000000, 1492749012
0.112060546875, -0.911865234375, 0.331054687500, -1.140625000000, 0.734375000000, -5.421875000000, 1492749012
0.112060546875, -0.911865234375, 0.331054687500, -1.140625000000, 0.734375000000, -5.421875000000, 1492749012
0.112060546875, -0.911865234375, 0.331054687500, -1.140625000000, 0.734375000000, -5.421875000000, 1492749012
0.112060546875, -0.911865234375, 0.331054687500, -1.140625000000, 0.734375000000, -5.421875000000, 1492749012
0.072753906250, -1.022460937500, 0.396728515625, -1.742187500000, -1.140625000000, -4.414062500000, 1492749012
0.072753906250, -1.022460937500, 0.396728515625, -1.742187500000, -1.140625000000, -4.414062500000, 1492749012
0.072753906250, -1.022460937500, 0.396728515625, -1.742187500000, -1.140625000000, -4.414062500000, 1492749012
-0.076904296875, -0.911132812500, 0.230712890625, -6.312500000000, 0.757812500000, -6.289062500000, 1492749012
-0.076904296875, -0.911132812500, 0.230712890625, -6.312500000000, 0.757812500000, -6.289062500000, 1492749012
-0.076904296875, -0.911132812500, 0.230712890625, -6.312500000000, 0.757812500000, -6.289062500000, 1492749012
0.041748046875, -0.928222656250, 0.333007812500, -1.734375000000, -2.359375000000, -3.898437500000, 1492749012
0.041748046875, -0.928222656250, 0.333007812500, -1.734375000000, -2.359375000000, -3.898437500000, 1492749012
0.041748046875, -0.928222656250, 0.333007812500, -1.734375000000, -2.359375000000, -3.898437500000, 1492749012
0.083740234375, -0.845703125000, 0.234375000000, -5.437500000000, -2.734375000000, -1.296875000000, 1492749012
0.083740234375, -0.845703125000, 0.234375000000, -5.437500000000, -2.734375000000, -1.296875000000, 1492749012
0.083740234375, -0.845703125000, 0.234375000000, -5.437500000000, -2.734375000000, -1.296875000000, 1492749012
0.083740234375, -0.845703125000, 0.234375000000, -5.437500000000, -2.734375000000, -1.296875000000, 1492749012
0.066894531250, -0.938476562500, 0.258544921875, -3.867187500000, -2.031250000000, -6.273437500000, 1492749013
0.066894531250, -0.938476562500, 0.258544921875, -3.867187500000, -2.031250000000, -6.273437500000, 1492749013
0.066894531250, -0.938476562500, 0.258544921875, -4.968750000000, 0.406250000000, -3.632812500000, 1492749013
0.055908203125, -0.961425781250, 0.330566406250, -3.671875000000, -0.226562500000, -3.593750000000, 1492749013
0.055908203125, -0.961425781250, 0.330566406250, -3.671875000000, -0.226562500000, -3.593750000000, 1492749013
0.055908203125, -0.961425781250, 0.330566406250, -3.671875000000, -0.226562500000, -3.593750000000, 1492749013
0.073730468750, -1.077880859375, 0.343261718750, -3.289062500000, 2.554687500000, 0.765625000000, 1492749013
0.073730468750, -1.077880859375, 0.343261718750, -3.289062500000, 2.554687500000, 0.765625000000, 1492749013
0.073730468750, -1.077880859375, 0.343261718750, -3.289062500000, 2.554687500000, 0.765625000000, 1492749013
0.073730468750, -1.077880859375, 0.343261718750, -3.289062500000, 2.554687500000, 0.765625000000, 1492749013
0.073730468750, -1.077880859375, 0.343261718750, -3.289062500000, 2.554687500000, 0.765625000000, 1492749013
0.073730468750, -1.077880859375, 0.343261718750, -3.289062500000, 2.554687500000, 0.765625000000, 1492749013
0.073730468750, -1.077880859375, 0.343261718750, -3.289062500000, 2.554687500000, 0.765625000000, 1492749013
0.146484375000, -0.973632812500, 0.322021484375, -1.984375000000, -1.015625000000, -1.296875000000, 1492749013
0.146484375000, -0.973632812500, 0.322021484375, -1.984375000000, -1.015625000000, -1.296875000000, 1492749013
0.146484375000, -0.973632812500, 0.322021484375, -1.984375000000, -1.015625000000, -1.296875000000, 1492749013
0.146484375000, -0.973632812500, 0.322021484375, -1.984375000000, -1.015625000000, -1.296875000000, 1492749013
0.146484375000, -0.973632812500, 0.322021484375, -1.984375000000, -1.015625000000, -1.296875000000, 1492749013
0.146484375000, -0.973632812500, 0.322021484375, -1.984375000000, -1.015625000000, -1.296875000000, 1492749013
0.040527343750, -0.926025390625, 0.283691406250, -1.007812500000, 1.359375000000, -1.984375000000, 1492749013
0.040527343750, -0.926025390625, 0.283691406250, -1.007812500000, 1.359375000000, -1.984375000000, 1492749013
0.040527343750, -0.926025390625, 0.283691406250, -1.007812500000, 1.359375000000, -1.984375000000, 1492749013
0.033691406250, -0.916015625000, 0.314941406250, 2.515625000000, 0.531250000000, -4.015625000000, 1492749013
0.033691406250, -0.916015625000, 0.314941406250, 2.515625000000, 0.531250000000, -4.015625000000, 1492749013
0.033691406250, -0.916015625000, 0.314941406250, 2.515625000000, 0.531250000000, -4.015625000000, 1492749013
-0.009033203125, -0.916748046875, 0.319824218750, -0.070312500000, 2.765625000000, 0.156250000000, 1492749013
0.061279296875, -1.009277343750, 0.335205078125, -5.117187500000, -2.242187500000, -4.570312500000, 1492749013
0.061279296875, -1.009277343750, 0.335205078125, -5.117187500000, -2.242187500000, -4.570312500000, 1492749013
0.061279296875, -1.009277343750, 0.335205078125, -6.664062500000, -1.523437500000, -2.593750000000, 1492749013
0.100585937500, -0.958007812500, 0.328857421875, -1.750000000000, 0.140625000000, -4.390625000000, 1492749013
0.100585937500, -0.958007812500, 0.328857421875, -1.750000000000, 0.140625000000, -4.390625000000, 1492749013
0.100585937500, -0.958007812500, 0.328857421875, -1.750000000000, 0.140625000000, -4.390625000000, 1492749013
0.046875000000, -0.988037109375, 0.327392578125, -8.117187500000, -0.210937500000, -2.671875000000, 1492749013
0.046875000000, -0.988037109375, 0.327392578125, -8.117187500000, -0.210937500000, -2.671875000000, 1492749013
0.046875000000, -0.988037109375, 0.327392578125, -8.117187500000, -0.210937500000, -2.671875000000, 1492749013
0.046875000000, -0.988037109375, 0.327392578125, -8.117187500000, -0.210937500000, -2.671875000000, 1492749013
0.050537109375, -0.874755859375, 0.387939453125, -1.593750000000, -0.710937500000, -6.546875000000, 1492749013
0.050537109375, -0.874755859375, 0.387939453125, -1.593750000000, -0.710937500000, -6.546875000000, 1492749013
0.050537109375, -0.874755859375, 0.387939453125, -1.593750000000, -0.710937500000, -6.546875000000, 1492749013
0.050537109375, -0.874755859375, 0.387939453125, -1.593750000000, -0.710937500000, -6.546875000000, 1492749013
0.050537109375, -0.874755859375, 0.387939453125, -1.593750000000, -0.710937500000, -6.546875000000, 1492749013
0.050537109375, -0.874755859375, 0.387939453125, -1.593750000000, -0.710937500000, -6.546875000000, 1492749013
-0.030029296875, -0.952148437500, 0.299560546875, -6.437500000000, 0.218750000000, -8.140625000000, 1492749013
-0.030029296875, -0.952148437500, 0.299560546875, -6.437500000000, 0.218750000000, -8.140625000000, 1492749013
-0.030029296875, -0.952148437500, 0.299560546875, -6.437500000000, 0.218750000000, -8.140625000000, 1492749013
0.135253906250, -0.964111328125, 0.312988281250, -6.203125000000, -2.125000000000, -8.359375000000, 1492749013
0.135253906250, -0.964111328125, 0.312988281250, -6.203125000000, -2.125000000000, -8.359375000000, 1492749013
0.135253906250, -0.964111328125, 0.312988281250, -6.203125000000, -2.125000000000, -8.359375000000, 1492749013
-0.017089843750, -0.812500000000, 0.281494140625, -0.921875000000, -9.171875000000, -8.789062500000, 1492749013
-0.017089843750, -0.812500000000, 0.281494140625, -0.921875000000, -9.171875000000, -8.789062500000, 1492749013
-0.017089843750, -0.812500000000, 0.281494140625, -0.921875000000, -9.171875000000, -8.789062500000, 1492749013
-0.017089843750, -0.812500000000, 0.281494140625, -0.921875000000, -9.171875000000, -8.789062500000, 1492749013
0.048339843750, -0.987548828125, 0.287597656250, 0.328125000000, -19.125000000000, -7.585937500000, 1492749013
0.048339843750, -0.987548828125, 0.287597656250, 0.328125000000, -19.125000000000, -7.585937500000, 1492749013
0.048339843750, -0.987548828125, 0.287597656250, 0.328125000000, -19.125000000000, -7.585937500000, 1492749013
0.083984375000, -1.029541015625, 0.303710937500, 2.421875000000, -22.757812500000, -6.593750000000, 1492749013
0.083984375000, -1.029541015625, 0.303710937500, 2.421875000000, -22.757812500000, -6.593750000000, 1492749013
0.083984375000, -1.029541015625, 0.303710937500, 2.421875000000, -22.757812500000, -6.593750000000, 1492749013
0.064453125000, -0.914794921875, 0.331787109375, -6.257812500000, -24.617187500000, -6.750000000000, 1492749013
-0.073730468750, -0.872802734375, 0.359130859375, -4.046875000000, -27.195312500000, 0.484375000000, 1492749013
-0.073730468750, -0.872802734375, 0.359130859375, -4.046875000000, -27.195312500000, 0.484375000000, 1492749013
0.039062500000, -0.860839843750, 0.245605468750, 1.523437500000, -23.054687500000, 2.382812500000, 1492749013
0.039062500000, -0.860839843750, 0.245605468750, 1.523437500000, -23.054687500000, 2.382812500000, 1492749013
0.039062500000, -0.860839843750, 0.245605468750, 1.523437500000, -23.054687500000, 2.382812500000, 1492749013
0.039062500000, -0.860839843750, 0.245605468750, 1.523437500000, -23.054687500000, 2.382812500000, 1492749013
0.166992187500, -0.899169921875, 0.339355468750, 20.148437500000, -13.921875000000, 5.578125000000, 1492749013
0.166992187500, -0.899169921875, 0.339355468750, 20.148437500000, -13.921875000000, 5.578125000000, 1492749013
0.166992187500, -0.899169921875, 0.339355468750, 20.148437500000, -13.921875000000, 5.578125000000, 1492749014
0.167968750000, -0.917236328125, 0.245605468750, 22.882812500000, -16.132812500000, 13.445312500000, 1492749014
0.167968750000, -0.917236328125, 0.245605468750, 22.882812500000, -16.132812500000, 13.445312500000, 1492749014
0.167968750000, -0.917236328125, 0.245605468750, 22.882812500000, -16.132812500000, 13.445312500000, 1492749014
0.159912109375, -0.916503906250, 0.241455078125, 23.718750000000, -11.773437500000, 18.234375000000, 1492749014
0.159912109375, -0.916503906250, 0.241455078125, 23.718750000000, -11.773437500000, 18.234375000000, 1492749014
0.159912109375, -0.916503906250, 0.241455078125, 23.718750000000, -11.773437500000, 18.234375000000, 1492749014
0.202392578125, -1.018066406250, 0.280517578125, 25.101562500000, 0.164062500000, 11.187500000000, 1492749014
0.202392578125, -1.018066406250, 0.280517578125, 25.101562500000, 0.164062500000, 11.187500000000, 1492749014
0.202392578125, -1.018066406250, 0.280517578125, 25.101562500000, 0.164062500000, 11.187500000000, 1492749014
0.202392578125, -1.018066406250, 0.280517578125, 25.101562500000, 0.164062500000, 11.187500000000, 1492749014
0.158691406250, -1.015136718750, 0.182617187500, 14.664062500000, -14.273437500000, -3.929687500000, 1492749014
0.158691406250, -1.015136718750, 0.182617187500, 14.664062500000, -14.273437500000, -3.929687500000, 1492749014
0.158691406250, -1.015136718750, 0.182617187500, 14.664062500000, -14.273437500000, -3.929687500000, 1492749014
0.158691406250, -1.015136718750, 0.182617187500, 14.664062500000, -14.273437500000, -3.929687500000, 1492749014
0.158691406250, -1.015136718750, 0.182617187500, 14.664062500000, -14.273437500000, -3.929687500000, 1492749014
0.158691406250, -1.015136718750, 0.182617187500, 14.664062500000, -14.273437500000, -3.929687500000, 1492749014
0.239013671875, -0.959716796875, 0.248046875000, 16.578125000000, -21.117187500000, -3.085937500000, 1492749014
0.239013671875, -0.959716796875, 0.248046875000, 16.578125000000, -21.117187500000, -3.085937500000, 1492749014
0.239013671875, -0.959716796875, 0.248046875000, 16.578125000000, -21.117187500000, -3.085937500000, 1492749014
0.295654296875, -0.849609375000, 0.238769531250, 1.210937500000, -21.500000000000, -5.437500000000, 1492749014
0.295654296875, -0.849609375000, 0.238769531250, 1.210937500000, -21.500000000000, -5.437500000000, 1492749014
0.295654296875, -0.849609375000, 0.238769531250, 1.210937500000, -21.500000000000, -5.437500000000, 1492749014
0.295654296875, -0.849609375000, 0.238769531250, 1.210937500000, -21.500000000000, -5.437500000000, 1492749014
0.245605468750, -0.845947265625, 0.251708984375, 2.398437500000, -7.679687500000, -7.492187500000, 1492749014
0.245605468750, -0.845947265625, 0.251708984375, 2.398437500000, -7.679687500000, -7.492187500000, 1492749014
0.245605468750, -0.845947265625, 0.251708984375, 2.398437500000, -7.679687500000, -7.492187500000, 1492749014
0.237548828125, -0.947753906250, 0.257568359375, 1.468750000000, 0.109375000000, -9.953125000000, 1492749014
0.237548828125, -0.947753906250, 0.257568359375, 1.468750000000, 0.109375000000, -9.953125000000, 1492749014
0.237548828125, -0.947753906250, 0.257568359375, 1.468750000000, 0.109375000000, -9.953125000000, 1492749014
0.294189453125, -1.019775390625, 0.263916015625, -6.210937500000, 15.898437500000, -14.710937500000, 1492749014
0.294189453125, -1.019775390625, 0.263916015625, -6.210937500000, 15.898437500000, -14.710937500000, 1492749014
0.294189453125, -1.019775390625, 0.263916015625, -6.210937500000, 15.898437500000, -14.710937500000, 1492749014
0.250000000000, -1.047607421875, 0.385009765625, -13.562500000000, 25.203125000000, -13.226562500000, 1492749014
0.250000000000, -1.047607421875, 0.385009765625, -13.562500000000, 25.203125000000, -13.226562500000, 1492749014
0.250000000000, -1.047607421875, 0.385009765625, -13.562500000000, 25.203125000000, -13.226562500000, 1492749014
0.250000000000, -1.047607421875, 0.385009765625, -13.562500000000, 25.203125000000, -13.226562500000, 1492749014
0.225097656250, -1.110107421875, 0.253906250000, -32.078125000000, 33.992187500000, -19.390625000000, 1492749014
0.225097656250, -1.110107421875, 0.253906250000, -32.078125000000, 33.992187500000, -19.390625000000, 1492749014
0.225097656250, -1.110107421875, 0.253906250000, -32.078125000000, 33.992187500000, -19.390625000000, 1492749014
0.142578125000, -1.178466796875, 0.264160156250, -39.890625000000, 9.648437500000, -21.710937500000, 1492749014
0.142578125000, -1.178466796875, 0.264160156250, -39.890625000000, 9.648437500000, -21.710937500000, 1492749014
0.142578125000, -1.178466796875, 0.264160156250, -39.890625000000, 9.648437500000, -21.710937500000, 1492749014
0.141113281250, -1.191406250000, 0.090576171875, -32.125000000000, 14.781250000000, -26.742187500000, 1492749014
0.141113281250, -1.191406250000, 0.090576171875, -32.125000000000, 14.781250000000, -26.742187500000, 1492749014
0.141113281250, -1.191406250000, 0.090576171875, -32.125000000000, 14.781250000000, -26.742187500000, 1492749014
-0.135986328125, -0.896484375000, 0.238037109375, -12.570312500000, -19.664062500000, -43.414062500000, 1492749014
-0.135986328125, -0.896484375000, 0.238037109375, -12.570312500000, -19.664062500000, -43.414062500000, 1492749014
-0.135986328125, -0.896484375000, 0.238037109375, -12.570312500000, -19.664062500000, -43.414062500000, 1492749014
-0.135986328125, -0.896484375000, 0.238037109375, -12.570312500000, -19.664062500000, -43.414062500000, 1492749014
-0.053466796875, -0.810546875000, 0.204101562500, -28.523437500000, -40.812500000000, -43.289062500000, 1492749014
-0.053466796875, -0.810546875000, 0.204101562500, -28.523437500000, -40.812500000000, -43.289062500000, 1492749014
-0.053466796875, -0.810546875000, 0.204101562500, -28.523437500000, -40.812500000000, -43.289062500000, 1492749014
0.094238281250, -0.955322265625, 0.206787109375, 0.757812500000, 3.078125000000, -34.062500000000, 1492749014
0.094238281250, -0.955322265625, 0.206787109375, 0.757812500000, 3.078125000000, -34.062500000000, 1492749014
0.094238281250, -0.955322265625, 0.206787109375, 0.757812500000, 3.078125000000, -34.062500000000, 1492749014
0.148193359375, -0.897460937500, 0.200683593750, 10.085937500000, 7.507812500000, -14.484375000000, 1492749014
0.148193359375, -0.897460937500, 0.200683593750, 10.085937500000, 7.507812500000, -14.484375000000, 1492749014
0.148193359375, -0.897460937500, 0.200683593750, 10.085937500000, 7.507812500000, -14.484375000000, 1492749014
0.020996093750, -0.858154296875, 0.258300781250, 10.000000000000, 32.617187500000, -2.421875000000, 1492749014
0.020996093750, -0.858154296875, 0.258300781250, 10.000000000000, 32.617187500000, -2.421875000000, 1492749014
0.020996093750, -0.858154296875, 0.258300781250, 10.000000000000, 32.617187500000, -2.421875000000, 1492749014
0.020996093750, -0.858154296875, 0.258300781250, 10.000000000000, 32.617187500000, -2.421875000000, 1492749014
-0.087402343750, -0.906738281250, 0.245849609375, 3.460937500000, 29.679687500000, -2.960937500000, 1492749014
-0.087402343750, -0.906738281250, 0.245849609375, 3.460937500000, 29.679687500000, -2.960937500000, 1492749014
-0.087402343750, -0.906738281250, 0.245849609375, 3.460937500000, 29.679687500000, -2.960937500000, 1492749014
-0.039306640625, -0.850830078125, 0.316406250000, 8.179687500000, 32.789062500000, -6.187500000000, 1492749015
-0.039306640625, -0.850830078125, 0.316406250000, 8.179687500000, 32.789062500000, -6.187500000000, 1492749015
-0.039306640625, -0.850830078125, 0.316406250000, 8.179687500000, 32.789062500000, -6.187500000000, 1492749015
-0.151855468750, -0.816894531250, 0.266113281250, -0.367187500000, 23.882812500000, -10.445312500000, 1492749015
-0.151855468750, -0.816894531250, 0.266113281250, -0.367187500000, 23.882812500000, -10.445312500000, 1492749015
-0.151855468750, -0.816894531250, 0.266113281250, -0.367187500000, 23.882812500000, -10.445312500000, 1492749015
-0.038330078125, -0.953125000000, 0.343017578125, -5.687500000000, 24.078125000000, -2.078125000000, 1492749015
-0.038330078125, -0.953125000000, 0.343017578125, -5.687500000000, 24.078125000000, -2.078125000000, 1492749015
-0.038330078125, -0.953125000000, 0.343017578125, -5.687500000000, 24.078125000000, -2.078125000000, 1492749015
-0.038330078125, -0.953125000000, 0.343017578125, -5.687500000000, 24.078125000000, -2.078125000000, 1492749015
0.013916015625, -1.000488281250, 0.342529296875, -5.039062500000, 14.039062500000, 4.445312500000, 1492749015
0.013916015625, -1.000488281250, 0.342529296875, -5.039062500000, 14.039062500000, 4.445312500000, 1492749015
0.013916015625, -1.000488281250, 0.342529296875, -5.039062500000, 14.039062500000, 4.445312500000, 1492749015
-0.094726562500, -0.926025390625, 0.336669921875, -13.015625000000, 19.281250000000, 14.351562500000, 1492749015
-0.094726562500, -0.926025390625, 0.336669921875, -13.015625000000, 19.281250000000, 14.351562500000, 1492749015
-0.094726562500, -0.926025390625, 0.336669921875, -13.015625000000, 19.281250000000, 14.351562500000, 1492749015
-0.046630859375, -1.156005859375, 0.398437500000, -42.125000000000, 1.093750000000, 20.960937500000, 1492749015
-0.046630859375, -1.156005859375, 0.398437500000, -42.125000000000, 1.093750000000, 20.960937500000, 1492749015
-0.046630859375, -1.156005859375, 0.398437500000, -42.125000000000, 1.093750000000, 20.960937500000, 1492749015
0.014404296875, -1.132324218750, 0.207519531250, -11.304687500000, 2.203125000000, 23.265625000000, 1492749015
0.014404296875, -1.132324218750, 0.207519531250, -11.304687500000, 2.203125000000, 23.265625000000, 1492749015
0.014404296875, -1.132324218750, 0.207519531250, -11.304687500000, 2.203125000000, 23.265625000000, 1492749015
0.014404296875, -1.132324218750, 0.207519531250, -11.304687500000, 2.203125000000, 23.265625000000, 1492749015
0.117675781250, -0.805908203125, 0.106445312500, -18.742187500000, 6.976562500000, 24.992187500000, 1492749015
0.117675781250, -0.805908203125, 0.106445312500, -18.742187500000, 6.976562500000, 24.992187500000, 1492749015
0.117675781250, -0.805908203125, 0.106445312500, -18.742187500000, 6.976562500000, 24.992187500000, 1492749015
0.211669921875, -0.903320312500, 0.188232421875, -1.320312500000, -0.054687500000, 25.296875000000, 1492749015
0.211669921875, -0.903320312500, 0.188232421875, -1.320312500000, -0.054687500000, 25.296875000000, 1492749015
0.211669921875, -0.903320312500, 0.188232421875, -1.320312500000, -0.054687500000, 25.296875000000, 1492749015
0.106201171875, -0.920166015625, 0.175292968750, 18.312500000000, 11.460937500000, 11.421875000000, 1492749015
0.106201171875, -0.920166015625, 0.175292968750, 18.312500000000, 11.460937500000, 11.421875000000, 1492749015
0.106201171875, -0.920166015625, 0.175292968750, 18.312500000000, 11.460937500000, 11.421875000000, 1492749015
0.029785156250, -1.014160156250, 0.141113281250, 1.023437500000, 4.601562500000, -3.179687500000, 1492749015
0.029785156250, -1.014160156250, 0.141113281250, 1.023437500000, 4.601562500000, -3.179687500000, 1492749015
0.029785156250, -1.014160156250, 0.141113281250, 1.023437500000, 4.601562500000, -3.179687500000, 1492749015
0.029785156250, -1.014160156250, 0.141113281250, 1.023437500000, 4.601562500000, -3.179687500000, 1492749015
-0.012207031250, -0.854003906250, 0.169189453125, 22.171875000000, -27.843750000000, -8.187500000000, 1492749015
-0.012207031250, -0.854003906250, 0.169189453125, 22.171875000000, -27.843750000000, -8.187500000000, 1492749015
0.203857421875, -0.853271484375, 0.294921875000, 21.468750000000, -7.531250000000, -19.656250000000, 1492749015
0.203857421875, -0.853271484375, 0.294921875000, 21.468750000000, -7.531250000000, -19.656250000000, 1492749015
0.203857421875, -0.853271484375, 0.294921875000, 21.468750000000, -7.531250000000, -19.656250000000, 1492749015
0.203857421875, -0.853271484375, 0.294921875000, 21.468750000000, -7.531250000000, -19.656250000000, 1492749015
0.268554687500, -0.945800781250, 0.181640625000, -11.179687500000, -25.562500000000, -10.132812500000, 1492749015
0.268554687500, -0.945800781250, 0.181640625000, -11.179687500000, -25.562500000000, -10.132812500000, 1492749015
0.268554687500, -0.945800781250, 0.181640625000, -11.179687500000, -25.562500000000, -10.132812500000, 1492749015
0.123779296875, -0.783935546875, 0.158691406250, 10.726562500000, -7.593750000000, -7.070312500000, 1492749015
0.123779296875, -0.783935546875, 0.158691406250, 10.726562500000, -7.593750000000, -7.070312500000, 1492749015
0.123779296875, -0.783935546875, 0.158691406250, 10.726562500000, -7.593750000000, -7.070312500000, 1492749015
0.123779296875, -0.783935546875, 0.158691406250, 10.726562500000, -7.593750000000, -7.070312500000, 1492749015
0.180175781250, -1.063720703125, 0.279541015625, -0.117187500000, -28.664062500000, -13.820312500000, 1492749015
0.180175781250, -1.063720703125, 0.279541015625, -0.117187500000, -28.664062500000, -13.820312500000, 1492749015
0.180175781250, -1.063720703125, 0.279541015625, -0.117187500000, -28.664062500000, -13.820312500000, 1492749015
0.044677734375, -1.055419921875, 0.342041015625, -10.140625000000, -13.960937500000, -20.070312500000, 1492749015
0.044677734375, -1.055419921875, 0.342041015625, -10.140625000000, -13.960937500000, -20.070312500000, 1492749015
0.044677734375, -1.055419921875, 0.342041015625, -10.140625000000, -13.960937500000, -20.070312500000, 1492749015
0.162353515625, -1.016113281250, 0.291503906250, -25.812500000000, 3.210937500000, -24.140625000000, 1492749015
0.162353515625, -1.016113281250, 0.291503906250, -25.812500000000, 3.210937500000, -24.140625000000, 1492749015
0.162353515625, -1.016113281250, 0.291503906250, -25.812500000000, 3.210937500000, -24.140625000000, 1492749015
0.112548828125, -0.986572265625, 0.296142578125, -34.718750000000, 10.359375000000, -28.390625000000, 1492749015
0.112548828125, -0.986572265625, 0.296142578125, -34.718750000000, 10.359375000000, -28.390625000000, 1492749015
0.112548828125, -0.986572265625, 0.296142578125, -34.718750000000, 10.359375000000, -28.390625000000, 1492749015
0.112548828125, -0.986572265625, 0.296142578125, -34.718750000000, 10.359375000000, -28.390625000000, 1492749015
0.019531250000, -1.243652343750, 0.389648437500, -61.718750000000, -33.843750000000, -37.835937500000, 1492749015
0.019531250000, -1.243652343750, 0.389648437500, -61.718750000000, -33.843750000000, -37.835937500000, 1492749015
0.019531250000, -1.243652343750, 0.389648437500, -61.718750000000, -33.843750000000, -37.835937500000, 1492749015
-0.110595703125, -0.907714843750, 0.199951171875, -57.484375000000, 38.398437500000, -23.640625000000, 1492749015
-0.110595703125, -0.907714843750, 0.199951171875, -57.484375000000, 38.398437500000, -23.640625000000, 1492749015
-0.110595703125, -0.907714843750, 0.199951171875, -57.484375000000, 38.398437500000, -23.640625000000, 1492749016
-0.181884765625, -0.904541015625, 0.079589843750, -6.640625000000, 8.609375000000, -34.617187500000, 1492749016
-0.181884765625, -0.904541015625, 0.079589843750, -6.640625000000, 8.609375000000, -34.617187500000, 1492749016
-0.181884765625, -0.904541015625, 0.079589843750, -6.640625000000, 8.609375000000, -34.617187500000, 1492749016
0.072509765625, -0.906494140625, 0.425048828125, 32.617187500000, 18.968750000000, -23.867187500000, 1492749016
0.072509765625, -0.906494140625, 0.425048828125, 32.617187500000, 18.968750000000, -23.867187500000, 1492749016
0.072509765625, -0.906494140625, 0.425048828125, 32.617187500000, 18.968750000000, -23.867187500000, 1492749016
0.072509765625, -0.906494140625, 0.425048828125, 32.617187500000, 18.968750000000, -23.867187500000, 1492749016
-0.012207031250, -0.923828125000, 0.108154296875, -0.937500000000, -5.437500000000, 6.945312500000, 1492749016
0.075683593750, -0.919677734375, 0.147216796875, 15.484375000000, -2.656250000000, 6.820312500000, 1492749016
0.012451171875, -0.959960937500, 0.221191406250, 27.820312500000, 1.460937500000, 5.812500000000, 1492749016
0.012451171875, -0.959960937500, 0.221191406250, 27.820312500000, 1.460937500000, 5.812500000000, 1492749016
0.012451171875, -0.959960937500, 0.221191406250, 27.820312500000, 1.460937500000, 5.812500000000, 1492749016
0.012451171875, -0.959960937500, 0.221191406250, 27.820312500000, 1.460937500000, 5.812500000000, 1492749016
0.012451171875, -0.959960937500, 0.221191406250, 27.820312500000, 1.460937500000, 5.812500000000, 1492749016
-0.153320312500, -0.899414062500, 0.360595703125, -10.562500000000, 10.296875000000, 3.914062500000, 1492749016
-0.115478515625, -0.809814453125, 0.218994140625, -12.695312500000, 10.140625000000, 1.671875000000, 1492749016
-0.115478515625, -0.809814453125, 0.218994140625, -12.695312500000, 10.140625000000, 1.671875000000, 1492749016
-0.187500000000, -0.900878906250, 0.320556640625, 17.367187500000, 18.218750000000, 1.515625000000, 1492749016
-0.187500000000, -0.900878906250, 0.320556640625, 17.367187500000, 18.218750000000, 1.515625000000, 1492749016
-0.187500000000, -0.900878906250, 0.320556640625, 17.367187500000, 18.218750000000, 1.515625000000, 1492749016
-0.187500000000, -0.900878906250, 0.320556640625, 17.367187500000, 18.218750000000, 1.515625000000, 1492749016
-0.104248046875, -0.921630859375, 0.334716796875, 4.890625000000, 3.281250000000, 4.492187500000, 1492749016
-0.056152343750, -1.020019531250, 0.397705078125, 4.890625000000, 3.281250000000, 4.492187500000, 1492749016
-0.056152343750, -1.020019531250, 0.397705078125, 4.890625000000, 3.281250000000, 4.492187500000, 1492749016
-0.056152343750, -1.020019531250, 0.397705078125, 4.890625000000, 3.281250000000, 4.492187500000, 1492749016
-0.056152343750, -1.020019531250, 0.397705078125, 4.890625000000, 3.281250000000, 4.492187500000, 1492749016
0.016601562500, -0.987792968750, 0.338623046875, 4.765625000000, 29.992187500000, 10.289062500000, 1492749016
0.016601562500, -0.987792968750, 0.338623046875, 4.765625000000, 29.992187500000, 10.289062500000, 1492749016
0.016601562500, -0.987792968750, 0.338623046875, 4.765625000000, 29.992187500000, 10.289062500000, 1492749016
-0.143066406250, -1.029541015625, 0.363525390625, -1.945312500000, 28.812500000000, 12.195312500000, 1492749016
-0.045898437500, -0.823730468750, 0.404052734375, -14.710937500000, 14.906250000000, 17.992187500000, 1492749016
-0.052978515625, -0.956054687500, 0.447998046875, -15.054687500000, 10.312500000000, 20.804687500000, 1492749016
-0.052978515625, -0.956054687500, 0.447998046875, -15.054687500000, 10.312500000000, 20.804687500000, 1492749016
-0.052978515625, -0.956054687500, 0.447998046875, -15.054687500000, 10.312500000000, 20.804687500000, 1492749016
-0.052978515625, -0.956054687500, 0.447998046875, -15.054687500000, 10.312500000000, 20.804687500000, 1492749016
-0.052978515625, -0.956054687500, 0.447998046875, -15.054687500000, 10.312500000000, 20.804687500000, 1492749016
0.089355468750, -1.314697265625, 0.377929687500, -33.976562500000, -5.617187500000, 27.460937500000, 1492749016
0.089355468750, -1.314697265625, 0.377929687500, -33.976562500000, -5.617187500000, 27.460937500000, 1492749016
0.089355468750, -1.314697265625, 0.377929687500, -33.976562500000, -5.617187500000, 27.460937500000, 1492749016
0.057617187500, -0.800292968750, 0.113037109375, 2.679687500000, 8.132812500000, 15.656250000000, 1492749016
0.057617187500, -0.800292968750, 0.113037109375, 2.679687500000, 8.132812500000, 15.656250000000, 1492749016
0.057617187500, -0.800292968750, 0.113037109375, 2.679687500000, 8.132812500000, 15.656250000000, 1492749016
0.192626953125, -0.902343750000, 0.339843750000, 47.031250000000, 26.507812500000, 11.156250000000, 1492749016
0.202880859375, -0.812744140625, 0.232910156250, -2.218750000000, 16.656250000000, 5.570312500000, 1492749016
0.202880859375, -0.812744140625, 0.232910156250, -2.218750000000, 16.656250000000, 5.570312500000, 1492749016
0.202880859375, -0.812744140625, 0.232910156250, -2.218750000000, 16.656250000000, 5.570312500000, 1492749016
0.237548828125, -0.931884765625, 0.054199218750, -26.484375000000, 11.781250000000, 10.164062500000, 1492749016
0.237548828125, -0.931884765625, 0.054199218750, -26.484375000000, 11.781250000000, 10.164062500000, 1492749016
0.237548828125, -0.931884765625, 0.054199218750, -26.484375000000, 11.781250000000, 10.164062500000, 1492749016
0.237548828125, -0.931884765625, 0.054199218750, -26.484375000000, 11.781250000000, 10.164062500000, 1492749016
0.237548828125, -0.931884765625, 0.054199218750, -26.484375000000, 11.781250000000, 10.164062500000, 1492749016
0.237548828125, -0.931884765625, 0.054199218750, -26.484375000000, 11.781250000000, 10.164062500000, 1492749016
0.206054687500, -1.013671875000, 0.022216796875, 25.531250000000, 32.773437500000, 4.695312500000, 1492749016
0.206054687500, -1.013671875000, 0.022216796875, 25.531250000000, 32.773437500000, 4.695312500000, 1492749016
0.206054687500, -1.013671875000, 0.022216796875, 25.531250000000, 32.773437500000, 4.695312500000, 1492749016
0.054199218750, -0.999023437500, 0.306396484375, 29.554687500000, -15.718750000000, 2.023437500000, 1492749016
0.054199218750, -0.999023437500, 0.306396484375, 29.554687500000, -15.718750000000, 2.023437500000, 1492749016
0.054199218750, -0.999023437500, 0.306396484375, 29.554687500000, -15.718750000000, 2.023437500000, 1492749016
0.054199218750, -0.999023437500, 0.306396484375, 29.554687500000, -15.718750000000, 2.023437500000, 1492749016
0.272460937500, -0.986083984375, 0.250000000000, -16.109375000000, -10.070312500000, -3.101562500000, 1492749016
0.272460937500, -0.986083984375, 0.250000000000, -16.109375000000, -10.070312500000, -3.101562500000, 1492749016
0.272460937500, -0.986083984375, 0.250000000000, -16.109375000000, -10.070312500000, -3.101562500000, 1492749016
0.230224609375, -1.064697265625, 0.096923828125, -2.804687500000, -2.546875000000, -0.093750000000, 1492749016
0.230224609375, -1.064697265625, 0.096923828125, -2.804687500000, -2.546875000000, -0.093750000000, 1492749016
0.230224609375, -1.064697265625, 0.096923828125, -2.804687500000, -2.546875000000, -0.093750000000, 1492749016
0.200927734375, -0.959716796875, 0.238769531250, 8.445312500000, -0.234375000000, 7.296875000000, 1492749017
0.200927734375, -0.959716796875, 0.238769531250, 8.445312500000, -0.234375000000, 7.296875000000, 1492749017
0.200927734375, -0.959716796875, 0.238769531250, 8.445312500000, -0.234375000000, 7.296875000000, 1492749017
0.058105468750, -0.802001953125, 0.211425781250, -14.773437500000, -6.632812500000, 5.500000000000, 1492749017
0.058105468750, -0.802001953125, 0.211425781250, -14.773437500000, -6.632812500000, 5.500000000000, 1492749017
0.058105468750, -0.802001953125, 0.211425781250, -14.773437500000, -6.632812500000, 5.500000000000, 1492749017
0.058105468750, -0.802001953125, 0.211425781250, -14.773437500000, -6.632812500000, 5.500000000000, 1492749017
0.124755859375, -0.850341796875, 0.219726562500, -3.750000000000, -11.554687500000, -0.554687500000, 1492749017
0.124755859375, -0.850341796875, 0.219726562500, -3.750000000000, -11.554687500000, -0.554687500000, 1492749017
0.124755859375, -0.850341796875, 0.219726562500, -3.750000000000, -11.554687500000, -0.554687500000, 1492749017
0.099853515625, -1.003417968750, 0.281738281250, -10.273437500000, -5.468750000000, -6.539062500000, 1492749017
0.099853515625, -1.003417968750, 0.281738281250, -10.273437500000, -5.468750000000, -6.539062500000, 1492749017
0.099853515625, -1.003417968750, 0.281738281250, -10.273437500000, -5.468750000000, -6.539062500000, 1492749017
0.121826171875, -0.810791015625, 0.213134765625, -7.351562500000, -12.914062500000, -3.320312500000, 1492749017
0.121826171875, -0.810791015625, 0.213134765625, -7.351562500000, -12.914062500000, -3.320312500000, 1492749017
0.121826171875, -0.810791015625, 0.213134765625, -7.351562500000, -12.914062500000, -3.320312500000, 1492749017
0.119140625000, -0.760498046875, 0.280517578125, 2.718750000000, -7.382812500000, -7.468750000000, 1492749017
0.119140625000, -0.760498046875, 0.280517578125, 2.718750000000, -7.382812500000, -7.468750000000, 1492749017
0.119140625000, -0.760498046875, 0.280517578125, 2.718750000000, -7.382812500000, -7.468750000000, 1492749017
0.119140625000, -0.760498046875, 0.280517578125, 2.718750000000, -7.382812500000, -7.468750000000, 1492749017
0.162597656250, -0.734863281250, 0.228271484375, 9.851562500000, -6.117187500000, -5.132812500000, 1492749017
0.162597656250, -0.734863281250, 0.228271484375, 9.851562500000, -6.117187500000, -5.132812500000, 1492749017
0.162597656250, -0.734863281250, 0.228271484375, 9.851562500000, -6.117187500000, -5.132812500000, 1492749017
0.162597656250, -0.734863281250, 0.228271484375, 9.851562500000, -6.117187500000, -5.132812500000, 1492749017
0.215820312500, -0.691162109375, 0.375244140625, 5.398437500000, 0.234375000000, -3.781250000000, 1492749017
0.215820312500, -0.691162109375, 0.375244140625, 5.398437500000, 0.234375000000, -3.781250000000, 1492749017
0.215820312500, -0.691162109375, 0.375244140625, 5.398437500000, 0.234375000000, -3.781250000000, 1492749017
0.215820312500, -0.691162109375, 0.375244140625, 5.398437500000, 0.234375000000, -3.781250000000, 1492749017
0.215820312500, -0.691162109375, 0.375244140625, 5.398437500000, 0.234375000000, -3.781250000000, 1492749017
0.051269531250, -0.493164062500, 0.279785156250, -5.445312500000, 4.406250000000, -6.531250000000, 1492749017
0.051269531250, -0.493164062500, 0.279785156250, -5.445312500000, 4.406250000000, -6.531250000000, 1492749017
0.051269531250, -0.493164062500, 0.279785156250, -5.445312500000, 4.406250000000, -6.531250000000, 1492749017
0.051269531250, -0.493164062500, 0.279785156250, -5.445312500000, 4.406250000000, -6.531250000000, 1492749017
0.120117187500, -0.653564453125, 0.132324218750, 12.195312500000, 22.914062500000, -10.156250000000, 1492749017
0.120117187500, -0.653564453125, 0.132324218750, 12.195312500000, 22.914062500000, -10.156250000000, 1492749017
0.120117187500, -0.653564453125, 0.132324218750, 12.195312500000, 22.914062500000, -10.156250000000, 1492749017
0.194824218750, -0.626953125000, 0.181152343750, 15.539062500000, 32.507812500000, -3.867187500000, 1492749017
0.194824218750, -0.626953125000, 0.181152343750, 15.539062500000, 32.507812500000, -3.867187500000, 1492749017
0.125244140625, -0.600585937500, 0.386718750000, -0.281250000000, 15.070312500000, -5.351562500000, 1492749017
0.125244140625, -0.600585937500, 0.386718750000, -0.281250000000, 15.070312500000, -5.351562500000, 1492749017
0.125244140625, -0.600585937500, 0.386718750000, -0.281250000000, 15.070312500000, -5.351562500000, 1492749017
0.125244140625, -0.600585937500, 0.386718750000, -0.281250000000, 15.070312500000, -5.351562500000, 1492749017
-0.072021484375, -1.060546875000, 0.185791015625, 3.757812500000, 4.562500000000, -18.039062500000, 1492749017
-0.072021484375, -1.060546875000, 0.185791015625, 3.757812500000, 4.562500000000, -18.039062500000, 1492749017
-0.072021484375, -1.060546875000, 0.185791015625, 3.757812500000, 4.562500000000, -18.039062500000, 1492749017
-0.072021484375, -1.060546875000, 0.185791015625, 3.757812500000, 4.562500000000, -18.039062500000, 1492749017
-0.069580078125, -1.568359375000, 0.126464843750, 52.289062500000, -49.906250000000, -23.359375000000, 1492749017
-0.069580078125, -1.568359375000, 0.126464843750, 52.289062500000, -49.906250000000, -23.359375000000, 1492749017
-0.069580078125, -1.568359375000, 0.126464843750, 52.289062500000, -49.906250000000, -23.359375000000, 1492749017
0.101074218750, -1.766845703125, 0.164306640625, 114.437500000000, -42.757812500000, -36.367187500000, 1492749017
0.101074218750, -1.766845703125, 0.164306640625, 114.437500000000, -42.757812500000, -36.367187500000, 1492749017
0.101074218750, -1.766845703125, 0.164306640625, 114.437500000000, -42.757812500000, -36.367187500000, 1492749017
0.100341796875, -1.833007812500, 0.317138671875, 150.679687500000, -28.828125000000, -24.375000000000, 1492749017
0.100341796875, -1.833007812500, 0.317138671875, 150.679687500000, -28.828125000000, -24.375000000000, 1492749017
0.100341796875, -1.833007812500, 0.317138671875, 150.679687500000, -28.828125000000, -24.375000000000, 1492749017
0.044189453125, -0.993652343750, 0.196533203125, 118.468750000000, -28.898437500000, -18.460937500000, 1492749017
0.044189453125, -0.993652343750, 0.196533203125, 118.468750000000, -28.898437500000, -18.460937500000, 1492749017
0.044189453125, -0.993652343750, 0.196533203125, 118.468750000000, -28.898437500000, -18.460937500000, 1492749017
0.044189453125, -0.993652343750, 0.196533203125, 118.468750000000, -28.898437500000, -18.460937500000, 1492749017
-0.084960937500, -0.692871093750, 0.087890625000, 97.390625000000, -23.125000000000, -18.914062500000, 1492749017
-0.084960937500, -0.692871093750, 0.087890625000, 97.390625000000, -23.125000000000, -18.914062500000, 1492749017
-0.084960937500, -0.692871093750, 0.087890625000, 97.390625000000, -23.125000000000, -18.914062500000, 1492749017
-0.088867187500, -0.369628906250, -0.024658203125, 77.023437500000, 63.445312500000, -17.835937500000, 1492749017
-0.088867187500, -0.369628906250, -0.024658203125, 77.023437500000, 63.445312500000, -17.835937500000, 1492749017
-0.088867187500, -0.369628906250, -0.024658203125, 77.023437500000, 63.445312500000, -17.835937500000, 1492749017
0.027099609375, -0.230712890625, 0.137695312500, 44.046875000000, 15.929687500000, -24.890625000000, 1492749017
0.027099609375, -0.230712890625, 0.137695312500, 44.046875000000, 15.929687500000, -24.890625000000, 1492749017
0.027099609375, -0.230712890625, 0.137695312500, 44.046875000000, 15.929687500000, -24.890625000000, 1492749017
0.079345703125, -0.032470703125, -0.012939453125, 25.492187500000, -4.406250000000, -36.750000000000, 1492749018
0.079345703125, -0.032470703125, -0.012939453125, 25.492187500000, -4.406250000000, -36.750000000000, 1492749018
0.079345703125, -0.032470703125, -0.012939453125, 25.492187500000, -4.406250000000, -36.750000000000, 1492749018
0.079345703125, -0.032470703125, -0.012939453125, 25.492187500000, -4.406250000000, -36.750000000000, 1492749018
0.072021484375, -0.120605468750, 0.073974609375, 0.179687500000, 9.679687500000, -23.132812500000, 1492749018
0.072021484375, -0.120605468750, 0.073974609375, 0.179687500000, 9.679687500000, -23.132812500000, 1492749018
0.072021484375, -0.120605468750, 0.073974609375, 0.179687500000, 9.679687500000, -23.132812500000, 1492749018
0.081054687500, 0.033203125000, 0.069335937500, 18.609375000000, 49.531250000000, -32.359375000000, 1492749018
0.081054687500, 0.033203125000, 0.069335937500, 18.609375000000, 49.531250000000, -32.359375000000, 1492749018
0.081054687500, 0.033203125000, 0.069335937500, 18.609375000000, 49.531250000000, -32.359375000000, 1492749018
0.152343750000, -0.030029296875, -0.021240234375, 32.250000000000, 97.507812500000, -23.921875000000, 1492749018
0.152343750000, -0.030029296875, -0.021240234375, 32.250000000000, 97.507812500000, -23.921875000000, 1492749018
0.120117187500, -0.373535156250, 0.026855468750, -11.937500000000, 97.398437500000, -3.820312500000, 1492749018
0.120117187500, -0.373535156250, 0.026855468750, -11.937500000000, 97.398437500000, -3.820312500000, 1492749018
0.120117187500, -0.373535156250, 0.026855468750, -11.937500000000, 97.398437500000, -3.820312500000, 1492749018
0.120117187500, -0.373535156250, 0.026855468750, -11.937500000000, 97.398437500000, -3.820312500000, 1492749018
7.876708984375, -8.000000000000, -7.205810546875, 253.992187500000, -214.242187500000, 253.992187500000, 1492749018
7.876708984375, -8.000000000000, -7.205810546875, 253.992187500000, -214.242187500000, 253.992187500000, 1492749018
7.876708984375, -8.000000000000, -7.205810546875, 253.992187500000, -214.242187500000, 253.992187500000, 1492749018
7.876708984375, -8.000000000000, -7.205810546875, 253.992187500000, -214.242187500000, 253.992187500000, 1492749018
0.186767578125, 0.610595703125, -1.638183593750, 253.992187500000, -256.000000000000, -243.179687500000, 1492749018
0.186767578125, 0.610595703125, -1.638183593750, 253.992187500000, -256.000000000000, -243.179687500000, 1492749018
1.040039062500, 5.014404296875, 2.666748046875, -256.000000000000, 253.992187500000, -253.976562500000, 1492749018
-0.097167968750, -0.568359375000, -0.665527343750, -44.312500000000, 28.757812500000, -21.960937500000, 1492749018
-0.097167968750, -0.568359375000, -0.665527343750, -44.312500000000, 28.757812500000, -21.960937500000, 1492749018
-0.097167968750, -0.568359375000, -0.665527343750, -44.312500000000, 28.757812500000, -21.960937500000, 1492749018
-0.097167968750, -0.568359375000, -0.665527343750, -44.312500000000, 28.757812500000, -21.960937500000, 1492749018
-0.658935546875, -0.617431640625, -1.112548828125, -119.359375000000, -0.132812500000, -41.546875000000, 1492749018
-0.658935546875, -0.617431640625, -1.112548828125, -119.359375000000, -0.132812500000, -41.546875000000, 1492749018
-0.658935546875, -0.617431640625, -1.112548828125, -119.359375000000, -0.132812500000, -41.546875000000, 1492749018
-0.658935546875, -0.617431640625, -1.112548828125, -119.359375000000, -0.132812500000, -41.546875000000, 1492749018
-0.658935546875, -0.617431640625, -1.112548828125, -119.359375000000, -0.132812500000, -41.546875000000, 1492749018
0.129882812500, -0.187500000000, -0.249511718750, 33.304687500000, 29.914062500000, 9.671875000000, 1492749018
0.129882812500, -0.187500000000, -0.249511718750, 33.304687500000, 29.914062500000, 9.671875000000, 1492749018
0.129882812500, -0.187500000000, -0.249511718750, 33.304687500000, 29.914062500000, 9.671875000000, 1492749018
0.129882812500, -0.187500000000, -0.249511718750, 33.304687500000, 29.914062500000, 9.671875000000, 1492749018
0.129882812500, -0.187500000000, -0.249511718750, 33.304687500000, 29.914062500000, 9.671875000000, 1492749018
0.129882812500, -0.187500000000, -0.249511718750, 33.304687500000, 29.914062500000, 9.671875000000, 1492749018
-0.075195312500, 0.243896484375, -0.525878906250, -41.101562500000, -11.250000000000, 17.265625000000, 1492749018
-0.075195312500, 0.243896484375, -0.525878906250, -41.101562500000, -11.250000000000, 17.265625000000, 1492749018
-0.075195312500, 0.243896484375, -0.525878906250, -41.101562500000, -11.250000000000, 17.265625000000, 1492749018
0.118896484375, 0.214355468750, -0.959716796875, -44.164062500000, -2.421875000000, -7.773437500000, 1492749018
0.118896484375, 0.214355468750, -0.959716796875, -44.164062500000, -2.421875000000, -7.773437500000, 1492749018
0.118896484375, 0.214355468750, -0.959716796875, -44.164062500000, -2.421875000000, -7.773437500000, 1492749018
0.118896484375, 0.214355468750, -0.959716796875, -44.164062500000, -2.421875000000, -7.773437500000, 1492749018
0.118896484375, 0.214355468750, -0.959716796875, -44.164062500000, -2.421875000000, -7.773437500000, 1492749018
-0.136230468750, -0.212890625000, -1.570312500000, 10.703125000000, -1.343750000000, -2.570312500000, 1492749018
-0.136230468750, -0.212890625000, -1.570312500000, 10.703125000000, -1.343750000000, -2.570312500000, 1492749018
-0.136230468750, -0.212890625000, -1.570312500000, 10.703125000000, -1.343750000000, -2.570312500000, 1492749018
-0.037353515625, -0.377197265625, -1.772705078125, -4.054687500000, 0.734375000000, -4.171875000000, 1492749018
-0.037353515625, -0.377197265625, -1.772705078125, -4.054687500000, 0.734375000000, -4.171875000000, 1492749018
-0.034179687500, -0.289550781250, -1.138916015625, -39.312500000000, -11.726562500000, -5.640625000000, 1492749018
-0.034179687500, -0.289550781250, -1.138916015625, -39.312500000000, -11.726562500000, -5.640625000000, 1492749018
-0.034179687500, -0.289550781250, -1.138916015625, -39.312500000000, -11.726562500000, -5.640625000000, 1492749018
-0.034179687500, -0.289550781250, -1.138916015625, -39.312500000000, -11.726562500000, -5.640625000000, 1492749018
-0.034179687500, -0.289550781250, -1.138916015625, -39.312500000000, -11.726562500000, -5.640625000000, 1492749018
-0.012451171875, -0.169189453125, -0.784179687500, -37.085937500000, -15.960937500000, -9.226562500000, 1492749018
-0.012451171875, -0.169189453125, -0.784179687500, -37.085937500000, -15.960937500000, -9.226562500000, 1492749018
-0.012451171875, -0.169189453125, -0.784179687500, -37.085937500000, -15.960937500000, -9.226562500000, 1492749018
-0.202880859375, -0.324218750000, -0.820312500000, 15.570312500000, -1.750000000000, -7.437500000000, 1492749018
-0.202880859375, -0.324218750000, -0.820312500000, 15.570312500000, -1.750000000000, -7.437500000000, 1492749018
-0.202880859375, -0.324218750000, -0.820312500000, 15.570312500000, -1.750000000000, -7.437500000000, 1492749018
-0.032714843750, -0.245849609375, -0.727294921875, 20.398437500000, 9.046875000000, -18.445312500000, 1492749018
-0.032714843750, -0.245849609375, -0.727294921875, 20.398437500000, 9.046875000000, -18.445312500000, 1492749018
-0.032714843750, -0.245849609375, -0.727294921875, 20.398437500000, 9.046875000000, -18.445312500000, 1492749018
-0.125244140625, -0.219726562500, -0.875732421875, 6.007812500000, -1.898437500000, -16.093750000000, 1492749019
-0.125244140625, -0.219726562500, -0.875732421875, 6.007812500000, -1.898437500000, -16.093750000000, 1492749019
-0.125244140625, -0.219726562500, -0.875732421875, 6.007812500000, -1.898437500000, -16.093750000000, 1492749019
-0.125244140625, -0.219726562500, -0.875732421875, 6.007812500000, -1.898437500000, -16.093750000000, 1492749019
-0.045166015625, -0.271728515625, -0.686523437500, -4.218750000000, -10.765625000000, -7.750000000000, 1492749019
-0.045166015625, -0.271728515625, -0.686523437500, -4.218750000000, -10.765625000000, -7.750000000000, 1492749019
-0.045166015625, -0.271728515625, -0.686523437500, -4.218750000000, -10.765625000000, -7.750000000000, 1492749019
-0.128662109375, -0.242431640625, -0.774414062500, 1.093750000000, -4.601562500000, -5.039062500000, 1492749019
-0.215087890625, -0.174316406250, -1.200927734375, 18.281250000000, 7.585937500000, -6.937500000000, 1492749019
-0.215087890625, -0.174316406250, -1.200927734375, 18.281250000000, 7.585937500000, -6.937500000000, 1492749019
-0.215087890625, -0.174316406250, -1.200927734375, 18.281250000000, 7.585937500000, -6.937500000000, 1492749019
-0.215087890625, -0.174316406250, -1.200927734375, 18.281250000000, 7.585937500000, -6.937500000000, 1492749019
-0.143310546875, -0.302978515625, -1.051513671875, 19.570312500000, 12.945312500000, -3.460937500000, 1492749019
-0.086669921875, -0.233154296875, -0.970214843750, 17.953125000000, 13.421875000000, -1.203125000000, 1492749019
-0.086669921875, -0.233154296875, -0.970214843750, 17.953125000000, 13.421875000000, -1.203125000000, 1492749019
-0.086669921875, -0.233154296875, -0.970214843750, 17.953125000000, 13.421875000000, -1.203125000000, 1492749019
-0.086669921875, -0.233154296875, -0.970214843750, 17.953125000000, 13.421875000000, -1.203125000000, 1492749019
-0.071533203125, -0.200683593750, -0.939697265625, 11.070312500000, 6.687500000000, -3.140625000000, 1492749019
-0.071533203125, -0.200683593750, -0.939697265625, 11.070312500000, 6.687500000000, -3.140625000000, 1492749019
-0.071533203125, -0.200683593750, -0.939697265625, 11.070312500000, 6.687500000000, -3.140625000000, 1492749019
-0.076660156250, -0.197998046875, -0.941406250000, -1.906250000000, -1.789062500000, 0.835937500000, 1492749019
-0.076660156250, -0.197998046875, -0.941406250000, -1.906250000000, -1.789062500000, 0.835937500000, 1492749019
-0.076660156250, -0.197998046875, -0.941406250000, -1.906250000000, -1.789062500000, 0.835937500000, 1492749019
-0.076660156250, -0.197998046875, -0.941406250000, -1.906250000000, -1.789062500000, 0.835937500000, 1492749019
-0.076660156250, -0.197998046875, -0.941406250000, -1.906250000000, -1.789062500000, 0.835937500000, 1492749019
-0.076660156250, -0.197998046875, -0.941406250000, -1.906250000000, -1.789062500000, 0.835937500000, 1492749019
-0.045166015625, -0.270263671875, -0.975830078125, -1.609375000000, -4.125000000000, -5.625000000000, 1492749019
-0.045166015625, -0.270263671875, -0.975830078125, -1.609375000000, -4.125000000000, -5.625000000000, 1492749019
-0.045166015625, -0.270263671875, -0.975830078125, -1.609375000000, -4.125000000000, -5.625000000000, 1492749019
-0.045166015625, -0.270263671875, -0.975830078125, -1.609375000000, -4.125000000000, -5.625000000000, 1492749019
-0.043945312500, -0.061523437500, -1.000000000000, -3.804687500000, -3.054687500000, -7.085937500000, 1492749019
-0.043945312500, -0.061523437500, -1.000000000000, -3.804687500000, -3.054687500000, -7.085937500000, 1492749019
-0.043945312500, -0.061523437500, -1.000000000000, -3.804687500000, -3.054687500000, -7.085937500000, 1492749019
-0.043945312500, -0.061523437500, -1.000000000000, -3.804687500000, -3.054687500000, -7.085937500000, 1492749019
-0.198974609375, -0.261474609375, -0.873535156250, -11.203125000000, -7.109375000000, -5.914062500000, 1492749019
-0.198974609375, -0.261474609375, -0.873535156250, -11.203125000000, -7.109375000000, -5.914062500000, 1492749019
-0.198974609375, -0.261474609375, -0.873535156250, -11.203125000000, -7.109375000000, -5.914062500000, 1492749019
-0.198974609375, -0.261474609375, -0.873535156250, -11.203125000000, -7.109375000000, -5.914062500000, 1492749019
-0.198974609375, -0.261474609375, -0.873535156250, -11.203125000000, -7.109375000000, -5.914062500000, 1492749019
-0.128906250000, -0.148681640625, -0.865234375000, -6.250000000000, -2.304687500000, -4.390625000000, 1492749019
-0.128906250000, -0.148681640625, -0.865234375000, -6.250000000000, -2.304687500000, -4.390625000000, 1492749019
-0.128906250000, -0.148681640625, -0.865234375000, -6.250000000000, -2.304687500000, -4.390625000000, 1492749019
-0.128906250000, -0.148681640625, -0.865234375000, -6.250000000000, -2.304687500000, -4.390625000000, 1492749019
-0.148193359375, -0.190429687500, -1.026123046875, 0.765625000000, 0.859375000000, -8.109375000000, 1492749019
-0.148193359375, -0.190429687500, -1.026123046875, 0.765625000000, 0.859375000000, -8.109375000000, 1492749019
-0.148193359375, -0.190429687500, -1.026123046875, 0.765625000000, 0.859375000000, -8.109375000000, 1492749019
-0.112304687500, -0.168945312500, -1.141845703125, 2.835937500000, 4.046875000000, -5.015625000000, 1492749019
-0.112304687500, -0.168945312500, -1.141845703125, 2.835937500000, 4.046875000000, -5.015625000000, 1492749019
-0.112304687500, -0.168945312500, -1.141845703125, 2.835937500000, 4.046875000000, -5.015625000000, 1492749019
0.023681640625, -0.052734375000, -0.951416015625, 0.601562500000, 4.445312500000, -6.500000000000, 1492749019
-0.032470703125, -0.202636718750, -0.907470703125, -2.632812500000, 1.500000000000, -2.085937500000, 1492749019
-0.032470703125, -0.202636718750, -0.907470703125, -2.632812500000, 1.500000000000, -2.085937500000, 1492749019
-0.139404296875, -0.128417968750, -0.934082031250, -6.960937500000, 2.023437500000, -3.070312500000, 1492749019
-0.139404296875, -0.128417968750, -0.934082031250, -6.960937500000, 2.023437500000, -3.070312500000, 1492749019
-0.139404296875, -0.128417968750, -0.934082031250, -6.960937500000, 2.023437500000, -3.070312500000, 1492749019
-0.139404296875, -0.128417968750, -0.934082031250, -6.960937500000, 2.023437500000, -3.070312500000, 1492749019
-0.139404296875, -0.128417968750, -0.934082031250, -6.960937500000, 2.023437500000, -3.070312500000, 1492749019
-0.085937500000, -0.202148437500, -0.940429687500, -5.742187500000, 0.523437500000, -4.718750000000, 1492749019
-0.092285156250, -0.174072265625, -0.963623046875, -5.742187500000, 0.523437500000, -4.718750000000, 1492749019
-0.092285156250, -0.174072265625, -0.963623046875, -5.742187500000, 0.523437500000, -4.718750000000, 1492749019
-0.092285156250, -0.174072265625, -0.963623046875, -5.742187500000, 0.523437500000, -4.718750000000, 1492749019
-0.092285156250, -0.174072265625, -0.963623046875, -5.742187500000, 0.523437500000, -4.718750000000, 1492749019
-0.127685546875, -0.256347656250, -0.999267578125, -8.492187500000, -2.062500000000, -4.000000000000, 1492749019
-0.127685546875, -0.256347656250, -0.999267578125, -8.492187500000, -2.062500000000, -4.000000000000, 1492749019
-0.094238281250, -0.157226562500, -0.911865234375, -1.250000000000, -0.734375000000, -5.617187500000, 1492749019
-0.094238281250, -0.157226562500, -0.911865234375, -1.250000000000, -0.734375000000, -5.617187500000, 1492749019
-0.094238281250, -0.157226562500, -0.911865234375, -1.250000000000, -0.734375000000, -5.617187500000, 1492749019
-0.094238281250, -0.157226562500, -0.911865234375, -1.250000000000, -0.734375000000, -5.617187500000, 1492749019
-0.094238281250, -0.157226562500, -0.911865234375, -1.250000000000, -0.734375000000, -5.617187500000, 1492749020
-0.151123046875, -0.160644531250, -0.934570312500, -2.195312500000, -0.960937500000, -6.187500000000, 1492749020
-0.151123046875, -0.160644531250, -0.934570312500, -2.195312500000, -0.960937500000, -6.187500000000, 1492749020
-0.151123046875, -0.160644531250, -0.934570312500, -2.195312500000, -0.960937500000, -6.187500000000, 1492749020
-0.033203125000, -0.197265625000, -0.961425781250, -2.609375000000, 2.000000000000, -3.500000000000, 1492749020
-0.033203125000, -0.197265625000, -0.961425781250, -2.609375000000, 2.000000000000, -3.500000000000, 1492749020
-0.033203125000, -0.197265625000, -0.961425781250, -2.609375000000, 2.000000000000, -3.500000000000, 1492749020
-0.041259765625, -0.117431640625, -1.005615234375, -4.179687500000, -0.320312500000, -6.484375000000, 1492749020
-0.041259765625, -0.117431640625, -1.005615234375, -4.179687500000, -0.320312500000, -6.484375000000, 1492749020
-0.145507812500, -0.169189453125, -0.981445312500, -6.390625000000, -2.015625000000, -4.804687500000, 1492749020
-0.145507812500, -0.169189453125, -0.981445312500, -6.390625000000, -2.015625000000, -4.804687500000, 1492749020
-0.145507812500, -0.169189453125, -0.981445312500, -6.390625000000, -2.015625000000, -4.804687500000, 1492749020
-0.130615234375, -0.166015625000, -1.067626953125, -3.039062500000, 0.023437500000, -3.156250000000, 1492749020
-0.059326171875, -0.255615234375, -0.970458984375, -3.773437500000, -0.335937500000, -3.148437500000, 1492749020
-0.059326171875, -0.255615234375, -0.970458984375, -3.773437500000, -0.335937500000, -3.148437500000, 1492749020
-0.059326171875, -0.255615234375, -0.970458984375, -3.773437500000, -0.335937500000, -3.148437500000, 1492749020
-0.059326171875, -0.255615234375, -0.970458984375, -3.773437500000, -0.335937500000, -3.148437500000, 1492749020
-0.147705078125, -0.078613281250, -0.909179687500, -3.140625000000, 0.234375000000, -6.617187500000, 1492749020
-0.147705078125, -0.078613281250, -0.909179687500, -3.140625000000, 0.234375000000, -6.617187500000, 1492749020
-0.147705078125, -0.078613281250, -0.909179687500, -3.140625000000, 0.234375000000, -6.617187500000, 1492749020
-0.128662109375, -0.119384765625, -0.863769531250, -4.476562500000, 0.562500000000, -2.765625000000, 1492749020
-0.128662109375, -0.119384765625, -0.863769531250, -4.476562500000, 0.562500000000, -2.765625000000, 1492749020
-0.062255859375, -0.100585937500, -0.940917968750, -4.632812500000, -0.445312500000, -3.734375000000, 1492749020
-0.062255859375, -0.100585937500, -0.940917968750, -4.632812500000, -0.445312500000, -3.734375000000, 1492749020
-0.062255859375, -0.100585937500, -0.940917968750, -4.632812500000, -0.445312500000, -3.734375000000, 1492749020
-0.062255859375, -0.100585937500, -0.940917968750, -4.632812500000, -0.445312500000, -3.734375000000, 1492749020
-0.062255859375, -0.100585937500, -0.940917968750, -4.632812500000, -0.445312500000, -3.734375000000, 1492749020
-0.045410156250, -0.102294921875, -0.964111328125, -3.976562500000, 2.421875000000, -6.054687500000, 1492749020
-0.045410156250, -0.102294921875, -0.964111328125, -3.976562500000, 2.421875000000, -6.054687500000, 1492749020
-0.045410156250, -0.102294921875, -0.964111328125, -3.976562500000, 2.421875000000, -6.054687500000, 1492749020
-0.136962890625, -0.183837890625, -1.073974609375, -1.992187500000, 0.085937500000, -3.210937500000, 1492749020
-0.136962890625, -0.183837890625, -1.073974609375, -1.992187500000, 0.085937500000, -3.210937500000, 1492749020
-0.136962890625, -0.183837890625, -1.073974609375, -1.992187500000, 0.085937500000, -3.210937500000, 1492749020
0.021240234375, -0.212646484375, -1.002197265625, -3.125000000000, -0.343750000000, -5.312500000000, 1492749020
0.021240234375, -0.212646484375, -1.002197265625, -3.125000000000, -0.343750000000, -5.312500000000, 1492749020
-0.053710937500, -0.206542968750, -1.014404296875, -4.273437500000, -0.179687500000, -1.531250000000, 1492749020
-0.053710937500, -0.206542968750, -1.014404296875, -4.273437500000, -0.179687500000, -1.531250000000, 1492749020
-0.053710937500, -0.206542968750, -1.014404296875, -4.273437500000, -0.179687500000, -1.531250000000, 1492749020
-0.053710937500, -0.206542968750, -1.014404296875, -4.273437500000, -0.179687500000, -1.531250000000, 1492749020
-0.053710937500, -0.206542968750, -1.014404296875, -4.273437500000, -0.179687500000, -1.531250000000, 1492749020
-0.093505859375, -0.259765625000, -1.013427734375, -3.406250000000, 0.648437500000, -3.710937500000, 1492749020
-0.093505859375, -0.259765625000, -1.013427734375, -3.406250000000, 0.648437500000, -3.710937500000, 1492749020
-0.093505859375, -0.259765625000, -1.013427734375, -3.406250000000, 0.648437500000, -3.710937500000, 1492749020
-0.143798828125, -0.266845703125, -0.959228515625, -1.656250000000, 0.445312500000, -4.710937500000, 1492749020
-0.143798828125, -0.266845703125, -0.959228515625, -1.656250000000, 0.445312500000, -4.710937500000, 1492749020
-0.143798828125, -0.266845703125, -0.959228515625, -1.656250000000, 0.445312500000, -4.710937500000, 1492749020
0.013427734375, -0.103515625000, -0.913330078125, -3.429687500000, -0.828125000000, -6.054687500000, 1492749020
0.013427734375, -0.103515625000, -0.913330078125, -3.429687500000, -0.828125000000, -6.054687500000, 1492749020
0.013427734375, -0.103515625000, -0.913330078125, -3.429687500000, -0.828125000000, -6.054687500000, 1492749020
-0.089355468750, -0.157470703125, -0.995361328125, -1.679687500000, -0.585937500000, -1.765625000000, 1492749020
-0.089355468750, -0.157470703125, -0.995361328125, -1.679687500000, -0.585937500000, -1.765625000000, 1492749020
-0.089355468750, -0.157470703125, -0.995361328125, -1.679687500000, -0.585937500000, -1.765625000000, 1492749020
-0.089355468750, -0.157470703125, -0.995361328125, -1.679687500000, -0.585937500000, -1.765625000000, 1492749020
-0.118652343750, -0.119628906250, -0.930419921875, -3.101562500000, 2.468750000000, -3.906250000000, 1492749020
-0.118652343750, -0.119628906250, -0.930419921875, -3.101562500000, 2.468750000000, -3.906250000000, 1492749020
-0.118652343750, -0.119628906250, -0.930419921875, -3.101562500000, 2.468750000000, -3.906250000000, 1492749020
-0.031250000000, -0.229248046875, -0.924804687500, -4.554687500000, 2.054687500000, -1.828125000000, 1492749020
-0.031250000000, -0.229248046875, -0.924804687500, -4.554687500000, 2.054687500000, -1.828125000000, 1492749020
-0.031250000000, -0.229248046875, -0.924804687500, -4.554687500000, 2.054687500000, -1.828125000000, 1492749020
-0.084716796875, -0.161621093750, -0.962890625000, -4.820312500000, 0.468750000000, -3.140625000000, 1492749020
-0.084716796875, -0.161621093750, -0.962890625000, -4.820312500000, 0.468750000000, -3.140625000000, 1492749020
-0.084716796875, -0.161621093750, -0.962890625000, -4.820312500000, 0.468750000000, -3.140625000000, 1492749020
-0.029052734375, -0.262939453125, -1.035644531250, -4.664062500000, 0.773437500000, -5.460937500000, 1492749020
-0.029052734375, -0.262939453125, -1.035644531250, -4.664062500000, 0.773437500000, -5.460937500000, 1492749020
-0.029052734375, -0.262939453125, -1.035644531250, -4.664062500000, 0.773437500000, -5.460937500000, 1492749020
-0.029052734375, -0.262939453125, -1.035644531250, -4.664062500000, 0.773437500000, -5.460937500000, 1492749020
-0.039794921875, -0.254394531250, -0.928466796875, -4.570312500000, -0.609375000000, -4.664062500000, 1492749021
-0.039794921875, -0.254394531250, -0.928466796875, -4.570312500000, -0.609375000000, -4.664062500000, 1492749021
-0.039794921875, -0.254394531250, -0.928466796875, -4.570312500000, -0.609375000000, -4.664062500000, 1492749021
-0.215087890625, -0.100585937500, -1.026123046875, -4.125000000000, -2.093750000000, -3.968750000000, 1492749021
-0.215087890625, -0.100585937500, -1.026123046875, -4.125000000000, -2.093750000000, -3.968750000000, 1492749021
-0.215087890625, -0.100585937500, -1.026123046875, -4.125000000000, -2.093750000000, -3.968750000000, 1492749021
-0.039794921875, -0.185302734375, -0.968261718750, -1.687500000000, 0.523437500000, -4.351562500000, 1492749021
-0.039794921875, -0.185302734375, -0.968261718750, -1.687500000000, 0.523437500000, -4.351562500000, 1492749021
-0.039794921875, -0.185302734375, -0.968261718750, -1.687500000000, 0.523437500000, -4.351562500000, 1492749021
-0.190429687500, -0.148193359375, -1.014404296875, -4.835937500000, -0.132812500000, -6.828125000000, 1492749021
-0.190429687500, -0.148193359375, -1.014404296875, -4.835937500000, -0.132812500000, -6.828125000000, 1492749021
-0.190429687500, -0.148193359375, -1.014404296875, -4.835937500000, -0.132812500000, -6.828125000000, 1492749021
-0.190429687500, -0.148193359375, -1.014404296875, -4.835937500000, -0.132812500000, -6.828125000000, 1492749021
-0.127929687500, -0.119384765625, -1.020507812500, -6.539062500000, -0.257812500000, -4.164062500000, 1492749021
-0.127929687500, -0.119384765625, -1.020507812500, -6.539062500000, -0.257812500000, -4.164062500000, 1492749021
-0.130126953125, -0.117187500000, -1.010986328125, -4.882812500000, -0.382812500000, -4.125000000000, 1492749021
-0.130126953125, -0.117187500000, -1.010986328125, -4.882812500000, -0.382812500000, -4.125000000000, 1492749021
-0.130126953125, -0.117187500000, -1.010986328125, -4.882812500000, -0.382812500000, -4.125000000000, 1492749021
-0.130126953125, -0.117187500000, -1.010986328125, -4.882812500000, -0.382812500000, -4.125000000000, 1492749021
-0.130126953125, -0.117187500000, -1.010986328125, -4.882812500000, -0.382812500000, -4.125000000000, 1492749021
-0.130126953125, -0.117187500000, -1.010986328125, -4.882812500000, -0.382812500000, -4.125000000000, 1492749021
0.010498046875, -0.112304687500, -0.929199218750, -1.843750000000, -0.539062500000, -5.304687500000, 1492749021
-0.067138671875, -0.217773437500, -0.907226562500, -2.882812500000, 0.695312500000, -3.125000000000, 1492749021
-0.067138671875, -0.217773437500, -0.907226562500, -2.882812500000, 0.695312500000, -3.125000000000, 1492749021
-0.067138671875, -0.217773437500, -0.907226562500, -2.882812500000, 0.695312500000, -3.125000000000, 1492749021
-0.067138671875, -0.217773437500, -0.907226562500, -2.882812500000, 0.695312500000, -3.125000000000, 1492749021
-0.035156250000, -0.185791015625, -0.922363281250, -1.125000000000, 0.960937500000, -6.921875000000, 1492749021
-0.035156250000, -0.185791015625, -0.922363281250, -1.125000000000, 0.960937500000, -6.921875000000, 1492749021
-0.035156250000, -0.185791015625, -0.922363281250, -1.125000000000, 0.960937500000, -6.921875000000, 1492749021
-0.091796875000, -0.272705078125, -0.906250000000, -4.015625000000, 0.375000000000, -6.171875000000, 1492749021
-0.091796875000, -0.272705078125, -0.906250000000, -4.015625000000, 0.375000000000, -6.171875000000, 1492749021
-0.091796875000, -0.272705078125, -0.906250000000, -4.015625000000, 0.375000000000, -6.171875000000, 1492749021
-0.054199218750, -0.260253906250, -0.958007812500, -4.421875000000, 0.546875000000, -3.351562500000, 1492749021
-0.054199218750, -0.260253906250, -0.958007812500, -4.421875000000, 0.546875000000, -3.351562500000, 1492749021
-0.054199218750, -0.260253906250, -0.958007812500, -4.421875000000, 0.546875000000, -3.351562500000, 1492749021
-0.141113281250, -0.232910156250, -0.951904296875, -3.195312500000, -0.343750000000, -4.804687500000, 1492749021
0.007812500000, -0.268066406250, -0.921875000000, -3.101562500000, -0.875000000000, -4.164062500000, 1492749021
-0.069580078125, -0.095214843750, -0.908935546875, -1.757812500000, 2.273437500000, -3.476562500000, 1492749021
-0.069580078125, -0.095214843750, -0.908935546875, -1.757812500000, 2.273437500000, -3.476562500000, 1492749021
-0.069580078125, -0.095214843750, -0.908935546875, -1.757812500000, 2.273437500000, -3.476562500000, 1492749021
-0.069580078125, -0.095214843750, -0.908935546875, -1.757812500000, 2.273437500000, -3.476562500000, 1492749021
-0.069580078125, -0.095214843750, -0.908935546875, -1.757812500000, 2.273437500000, -3.476562500000, 1492749021
-0.208984375000, -0.251464843750, -1.019287109375, -3.335937500000, 0.953125000000, -1.867187500000, 1492749021
-0.208984375000, -0.251464843750, -1.019287109375, -3.335937500000, 0.953125000000, -1.867187500000, 1492749021
-0.208984375000, -0.251464843750, -1.019287109375, -3.335937500000, 0.953125000000, -1.867187500000, 1492749021
-0.114257812500, -0.194091796875, -1.072753906250, -3.203125000000, 0.000000000000, -3.750000000000, 1492749021
-0.114257812500, -0.194091796875, -1.072753906250, -3.203125000000, 0.000000000000, -3.750000000000, 1492749021
-0.114257812500, -0.194091796875, -1.072753906250, -3.203125000000, 0.000000000000, -3.750000000000, 1492749021
-0.140869140625, -0.152343750000, -1.023437500000, -4.835937500000, 0.429687500000, -6.992187500000, 1492749021
-0.140869140625, -0.152343750000, -1.023437500000, -4.835937500000, 0.429687500000, -6.992187500000, 1492749021
-0.140869140625, -0.152343750000, -1.023437500000, -4.835937500000, 0.429687500000, -6.992187500000, 1492749021
-0.140869140625, -0.152343750000, -1.023437500000, -4.835937500000, 0.429687500000, -6.992187500000, 1492749021
-0.041503906250, -0.148437500000, -1.022705078125, -4.210937500000, 0.117187500000, -3.570312500000, 1492749021
-0.041503906250, -0.148437500000, -1.022705078125, -4.210937500000, 0.117187500000, -3.570312500000, 1492749021
-0.041503906250, -0.148437500000, -1.022705078125, -4.210937500000, 0.117187500000, -3.570312500000, 1492749021
-0.129882812500, -0.167236328125, -1.010498046875, -4.734375000000, -0.507812500000, -4.960937500000, 1492749021
-0.129882812500, -0.167236328125, -1.010498046875, -4.734375000000, -0.507812500000, -4.960937500000, 1492749021
-0.129882812500, -0.167236328125, -1.010498046875, -4.734375000000, -0.507812500000, -4.960937500000, 1492749021
-0.142822265625, -0.183593750000, -1.002685546875, -4.257812500000, 0.914062500000, -3.296875000000, 1492749021
-0.142822265625, -0.183593750000, -1.002685546875, -4.257812500000, 0.914062500000, -3.296875000000, 1492749021
-0.142822265625, -0.183593750000, -1.002685546875, -4.257812500000, 0.914062500000, -3.296875000000, 1492749021
-0.050781250000, -0.208251953125, -1.008789062500, -4.070312500000, -2.242187500000, -4.625000000000, 1492749021
-0.050781250000, -0.208251953125, -1.008789062500, -4.070312500000, -2.242187500000, -4.625000000000, 1492749021
-0.050781250000, -0.208251953125, -1.008789062500, -4.070312500000, -2.242187500000, -4.625000000000, 1492749021
-0.050781250000, -0.208251953125, -1.008789062500, -4.070312500000, -2.242187500000, -4.625000000000, 1492749021
-0.132080078125, -0.168457031250, -0.854003906250, -4.820312500000, 0.703125000000, -5.492187500000, 1492749021
-0.132080078125, -0.168457031250, -0.854003906250, -4.820312500000, 0.703125000000, -5.492187500000, 1492749021
-0.132080078125, -0.168457031250, -0.854003906250, -4.820312500000, 0.703125000000, -5.492187500000, 1492749022
-0.127685546875, -0.278076171875, -0.933105468750, -1.976562500000, 0.812500000000, -4.976562500000, 1492749022
-0.127685546875, -0.278076171875, -0.933105468750, -1.976562500000, 0.812500000000, -4.976562500000, 1492749022
-0.127685546875, -0.278076171875, -0.933105468750, -1.976562500000, 0.812500000000, -4.976562500000, 1492749022
-0.048828125000, -0.316162109375, -0.956298828125, -1.828125000000, 0.437500000000, -4.437500000000, 1492749022
0.014892578125, -0.252929687500, -0.961669921875, -4.742187500000, -0.125000000000, -6.101562500000, 1492749022
0.014892578125, -0.252929687500, -0.961669921875, -4.742187500000, -0.125000000000, -6.101562500000, 1492749022
0.014892578125, -0.252929687500, -0.961669921875, -4.742187500000, -0.125000000000, -6.101562500000, 1492749022
0.021240234375, -0.320068359375, -0.977050781250, -4.343750000000, 0.203125000000, -3.250000000000, 1492749022
0.021240234375, -0.320068359375, -0.977050781250, -4.343750000000, 0.203125000000, -3.250000000000, 1492749022
0.021240234375, -0.320068359375, -0.977050781250, -4.343750000000, 0.203125000000, -3.250000000000, 1492749022
-0.101562500000, -0.196044921875, -0.919677734375, -3.406250000000, 0.609375000000, -1.992187500000, 1492749022
-0.101562500000, -0.196044921875, -0.919677734375, -3.406250000000, 0.609375000000, -1.992187500000, 1492749022
-0.101562500000, -0.196044921875, -0.919677734375, -3.406250000000, 0.609375000000, -1.992187500000, 1492749022
-0.101562500000, -0.196044921875, -0.919677734375, -3.406250000000, 0.609375000000, -1.992187500000, 1492749022
-0.101562500000, -0.196044921875, -0.919677734375, -3.406250000000, 0.609375000000, -1.992187500000, 1492749022
-0.059082031250, -0.278076171875, -0.933837890625, -3.539062500000, 2.289062500000, -5.343750000000, 1492749022
-0.059082031250, -0.278076171875, -0.933837890625, -3.539062500000, 2.289062500000, -5.343750000000, 1492749022
-0.059082031250, -0.278076171875, -0.933837890625, -3.539062500000, 2.289062500000, -5.343750000000, 1492749022
-0.059082031250, -0.278076171875, -0.933837890625, -3.539062500000, 2.289062500000, -5.343750000000, 1492749022
-0.129882812500, -0.252929687500, -1.011230468750, -1.921875000000, -0.578125000000, -3.742187500000, 1492749022
-0.129882812500, -0.252929687500, -1.011230468750, -1.921875000000, -0.578125000000, -3.742187500000, 1492749022
-0.129882812500, -0.252929687500, -1.011230468750, -1.921875000000, -0.578125000000, -3.742187500000, 1492749022
-0.129882812500, -0.252929687500, -1.011230468750, -1.921875000000, -0.578125000000, -3.742187500000, 1492749022
-0.046630859375, -0.171386718750, -0.936035156250, -1.820312500000, 0.875000000000, -3.609375000000, 1492749022
-0.046630859375, -0.171386718750, -0.936035156250, -1.820312500000, 0.875000000000, -3.609375000000, 1492749022
-0.046630859375, -0.171386718750, -0.936035156250, -1.820312500000, 0.875000000000, -3.609375000000, 1492749022
-0.041259765625, -0.251464843750, -0.996582031250, -4.914062500000, -0.125000000000, -3.343750000000, 1492749022
-0.041259765625, -0.251464843750, -0.996582031250, -4.914062500000, -0.125000000000, -3.343750000000, 1492749022
-0.041259765625, -0.251464843750, -0.996582031250, -4.914062500000, -0.125000000000, -3.343750000000, 1492749022
-0.041259765625, -0.251464843750, -0.996582031250, -4.914062500000, -0.125000000000, -3.343750000000, 1492749022
-0.152587890625, -0.115234375000, -0.959228515625, -4.140625000000, -0.812500000000, -5.343750000000, 1492749022
-0.152587890625, -0.115234375000, -0.959228515625, -4.140625000000, -0.812500000000, -5.343750000000, 1492749022
-0.152587890625, -0.115234375000, -0.959228515625, -4.140625000000, -0.812500000000, -5.343750000000, 1492749022
-0.153076171875, -0.181640625000, -1.023681640625, -3.601562500000, 0.945312500000, -6.406250000000, 1492749022
-0.153076171875, -0.181640625000, -1.023681640625, -3.601562500000, 0.945312500000, -6.406250000000, 1492749022
-0.153076171875, -0.181640625000, -1.023681640625, -3.601562500000, 0.945312500000, -6.406250000000, 1492749022
-0.153076171875, -0.181640625000, -1.023681640625, -3.601562500000, 0.945312500000, -6.406250000000, 1492749022
-0.190185546875, -0.168212890625, -0.943115234375, -3.367187500000, -0.515625000000, -3.312500000000, 1492749022
-0.190185546875, -0.168212890625, -0.943115234375, -3.367187500000, -0.515625000000, -3.312500000000, 1492749022
-0.190185546875, -0.168212890625, -0.943115234375, -3.367187500000, -0.515625000000, -3.312500000000, 1492749022
-0.052734375000, -0.166503906250, -0.920654296875, -3.218750000000, -1.000000000000, -4.601562500000, 1492749022
-0.052734375000, -0.166503906250, -0.920654296875, -3.218750000000, -1.000000000000, -4.601562500000, 1492749022
-0.052734375000, -0.166503906250, -0.920654296875, -3.218750000000, -1.000000000000, -4.601562500000, 1492749022
-0.052734375000, -0.166503906250, -0.920654296875, -3.218750000000, -1.000000000000, -4.601562500000, 1492749022
-0.052734375000, -0.166503906250, -0.920654296875, -3.218750000000, -1.000000000000, -4.601562500000, 1492749022
-0.033203125000, -0.166259765625, -0.915527343750, -4.812500000000, 0.500000000000, -3.210937500000, 1492749022
-0.033203125000, -0.166259765625, -0.915527343750, -4.812500000000, 0.500000000000, -3.210937500000, 1492749022
-0.033203125000, -0.166259765625, -0.915527343750, -4.812500000000, 0.500000000000, -3.210937500000, 1492749022
-0.033203125000, -0.166259765625, -0.915527343750, -4.812500000000, 0.500000000000, -3.210937500000, 1492749022
-0.036376953125, -0.220703125000, -0.968994140625, -4.648437500000, 0.273437500000, -3.726562500000, 1492749022
-0.036376953125, -0.220703125000, -0.968994140625, -4.648437500000, 0.273437500000, -3.726562500000, 1492749022
-0.036376953125, -0.220703125000, -0.968994140625, -4.648437500000, 0.273437500000, -3.726562500000, 1492749022
0.024414062500, -0.194335937500, -0.932861328125, -3.070312500000, 0.929687500000, -4.273437500000, 1492749022
0.024414062500, -0.194335937500, -0.932861328125, -3.070312500000, 0.929687500000, -4.273437500000, 1492749022
0.024414062500, -0.194335937500, -0.932861328125, -3.070312500000, 0.929687500000, -4.273437500000, 1492749022
-0.138183593750, -0.119140625000, -0.847412109375, -3.125000000000, 0.921875000000, -4.601562500000, 1492749022
-0.054687500000, -0.213134765625, -0.916259765625, -3.078125000000, 0.953125000000, -8.359375000000, 1492749022
-0.054687500000, -0.213134765625, -0.916259765625, -3.078125000000, 0.953125000000, -8.359375000000, 1492749022
-0.054687500000, -0.213134765625, -0.916259765625, -3.078125000000, 0.953125000000, -8.359375000000, 1492749022
-0.054687500000, -0.213134765625, -0.916259765625, -3.078125000000, 0.953125000000, -8.359375000000, 1492749022
-0.054687500000, -0.213134765625, -0.916259765625, -3.078125000000, 0.953125000000, -8.359375000000, 1492749022
-0.054687500000, -0.213134765625, -0.916259765625, -3.078125000000, 0.953125000000, -8.359375000000, 1492749022
-0.039550781250, -0.124511718750, -0.953613281250, -2.929687500000, 0.578125000000, -8.867187500000, 1492749022
-0.039550781250, -0.124511718750, -0.953613281250, -2.929687500000, 0.578125000000, -8.867187500000, 1492749022
-0.039550781250, -0.124511718750, -0.953613281250, -2.929687500000, 0.578125000000, -8.867187500000, 1492749022
0.009765625000, -0.094482421875, -0.961425781250, -3.039062500000, -0.164062500000, -3.687500000000, 1492749023
0.009765625000, -0.094482421875, -0.961425781250, -3.039062500000, -0.164062500000, -3.687500000000, 1492749023
0.009765625000, -0.094482421875, -0.961425781250, -3.039062500000, -0.164062500000, -3.687500000000, 1492749023
0.009765625000, -0.094482421875, -0.961425781250, -3.039062500000, -0.164062500000, -3.687500000000, 1492749023
0.009765625000, -0.094482421875, -0.961425781250, -3.039062500000, -0.164062500000, -3.687500000000, 1492749023
0.009765625000, -0.094482421875, -0.961425781250, -3.039062500000, -0.164062500000, -3.687500000000, 1492749023
-0.073242187500, -0.158935546875, -0.865234375000, -1.906250000000, 2.359375000000, -6.554687500000, 1492749023
-0.073242187500, -0.158935546875, -0.865234375000, -1.906250000000, 2.359375000000, -6.554687500000, 1492749023
-0.073242187500, -0.158935546875, -0.865234375000, -1.906250000000, 2.359375000000, -6.554687500000, 1492749023
-0.073242187500, -0.158935546875, -0.865234375000, -1.906250000000, 2.359375000000, -6.554687500000, 1492749023
-0.049316406250, -0.160644531250, -0.913085937500, -3.226562500000, -0.640625000000, -1.531250000000, 1492749023
-0.049316406250, -0.160644531250, -0.913085937500, -3.226562500000, -0.640625000000, -1.531250000000, 1492749023
-0.049316406250, -0.160644531250, -0.913085937500, -3.226562500000, -0.640625000000, -1.531250000000, 1492749023
-0.043457031250, -0.164794921875, -0.986083984375, -3.695312500000, -2.335937500000, -3.125000000000, 1492749023
-0.043457031250, -0.164794921875, -0.986083984375, -3.695312500000, -2.335937500000, -3.125000000000, 1492749023
-0.043457031250, -0.164794921875, -0.986083984375, -3.695312500000, -2.335937500000, -3.125000000000, 1492749023
-0.078369140625, -0.196044921875, -1.031738281250, -4.093750000000, -0.437500000000, -6.804687500000, 1492749023
-0.078369140625, -0.196044921875, -1.031738281250, -4.093750000000, -0.437500000000, -6.804687500000, 1492749023
-0.073730468750, -0.189453125000, -0.973144531250, -3.070312500000, -0.554687500000, -6.664062500000, 1492749023
-0.142578125000, -0.252197265625, -0.940185546875, -3.406250000000, -0.648437500000, -3.203125000000, 1492749023
-0.093994140625, -0.113769531250, -0.986816406250, -3.523437500000, 0.734375000000, -1.273437500000, 1492749023
-0.093994140625, -0.113769531250, -0.986816406250, -3.523437500000, 0.734375000000, -1.273437500000, 1492749023
-0.046386718750, -0.225097656250, -0.863037109375, -6.226562500000, 2.343750000000, -3.492187500000, 1492749023
-0.046386718750, -0.225097656250, -0.863037109375, -6.226562500000, 2.343750000000, -3.492187500000, 1492749023
-0.046386718750, -0.225097656250, -0.863037109375, -6.226562500000, 2.343750000000, -3.492187500000, 1492749023
-0.046386718750, -0.225097656250, -0.863037109375, -6.226562500000, 2.343750000000, -3.492187500000, 1492749023
-0.046386718750, -0.225097656250, -0.863037109375, -6.226562500000, 2.343750000000, -3.492187500000, 1492749023
-0.087890625000, -0.211425781250, -0.921386718750, -1.781250000000, -2.085937500000, -3.117187500000, 1492749023
-0.146484375000, -0.270996093750, -0.931152343750, -4.906250000000, -0.390625000000, -3.734375000000, 1492749023
-0.146484375000, -0.270996093750, -0.931152343750, -4.906250000000, -0.390625000000, -3.734375000000, 1492749023
-0.146484375000, -0.270996093750, -0.931152343750, -4.906250000000, -0.390625000000, -3.734375000000, 1492749023
-0.146484375000, -0.270996093750, -0.931152343750, -4.906250000000, -0.390625000000, -3.734375000000, 1492749023
0.002197265625, -0.173583984375, -1.028808593750, -4.242187500000, 0.265625000000, -4.242187500000, 1492749023
0.002197265625, -0.173583984375, -1.028808593750, -4.242187500000, 0.265625000000, -4.242187500000, 1492749023
0.002197265625, -0.173583984375, -1.028808593750, -4.242187500000, 0.265625000000, -4.242187500000, 1492749023
0.002197265625, -0.173583984375, -1.028808593750, -4.242187500000, 0.265625000000, -4.242187500000, 1492749023
-0.191894531250, -0.098388671875, -1.009521484375, -3.531250000000, 0.726562500000, -4.328125000000, 1492749023
-0.191894531250, -0.098388671875, -1.009521484375, -3.531250000000, 0.726562500000, -4.328125000000, 1492749023
-0.191894531250, -0.098388671875, -1.009521484375, -3.531250000000, 0.726562500000, -4.328125000000, 1492749023
-0.085937500000, -0.258300781250, -0.970458984375, -4.625000000000, 0.937500000000, -3.265625000000, 1492749023
-0.085937500000, -0.258300781250, -0.970458984375, -4.625000000000, 0.937500000000, -3.265625000000, 1492749023
-0.085937500000, -0.258300781250, -0.970458984375, -4.625000000000, 0.937500000000, -3.265625000000, 1492749023
-0.058593750000, -0.119873046875, -0.959472656250, -4.351562500000, -0.882812500000, -6.507812500000, 1492749023
-0.058593750000, -0.119873046875, -0.959472656250, -4.351562500000, -0.882812500000, -6.507812500000, 1492749023
-0.058593750000, -0.119873046875, -0.959472656250, -4.351562500000, -0.882812500000, -6.507812500000, 1492749023
-0.077636718750, -0.114013671875, -1.044677734375, -3.109375000000, -0.500000000000, -5.093750000000, 1492749023
-0.077636718750, -0.114013671875, -1.044677734375, -3.109375000000, -0.500000000000, -5.093750000000, 1492749023
-0.077636718750, -0.114013671875, -1.044677734375, -3.109375000000, -0.500000000000, -5.093750000000, 1492749023
-0.077636718750, -0.114013671875, -1.044677734375, -3.109375000000, -0.500000000000, -5.093750000000, 1492749023
-0.135009765625, -0.163330078125, -0.966308593750, -1.578125000000, -2.375000000000, -6.664062500000, 1492749023
-0.135009765625, -0.163330078125, -0.966308593750, -1.578125000000, -2.375000000000, -6.664062500000, 1492749023
-0.135009765625, -0.163330078125, -0.966308593750, -1.578125000000, -2.375000000000, -6.664062500000, 1492749023
0.002929687500, -0.187744140625, -0.918945312500, -3.023437500000, 0.828125000000, -4.734375000000, 1492749023
0.002929687500, -0.187744140625, -0.918945312500, -3.023437500000, 0.828125000000, -4.734375000000, 1492749023
0.002929687500, -0.187744140625, -0.918945312500, -3.023437500000, 0.828125000000, -4.734375000000, 1492749023
-0.139404296875, -0.258544921875, -1.021240234375, -3.773437500000, -0.656250000000, -4.062500000000, 1492749023
-0.139404296875, -0.258544921875, -1.021240234375, -3.773437500000, -0.656250000000, -4.062500000000, 1492749023
-0.139404296875, -0.258544921875, -1.021240234375, -3.773437500000, -0.656250000000, -4.062500000000, 1492749023
-0.104248046875, -0.109375000000, -0.908203125000, -1.679687500000, -0.914062500000, -3.093750000000, 1492749023
-0.104248046875, -0.109375000000, -0.908203125000, -1.679687500000, -0.914062500000, -3.093750000000, 1492749023
-0.039306640625, -0.194335937500, -1.028076171875, -4.390625000000, -0.742187500000, -6.070312500000, 1492749023
-0.039306640625, -0.194335937500, -1.028076171875, -4.390625000000, -0.742187500000, -6.070312500000, 1492749023
-0.039306640625, -0.194335937500, -1.028076171875, -4.390625000000, -0.742187500000, -6.070312500000, 1492749023
-0.046142578125, -0.177978515625, -0.947509765625, -4.382812500000, 0.804687500000, -4.968750000000, 1492749023
-0.046142578125, -0.177978515625, -0.947509765625, -4.382812500000, 0.804687500000, -4.968750000000, 1492749023
-0.046142578125, -0.177978515625, -0.947509765625, -4.382812500000, 0.804687500000, -4.968750000000, 1492749023
-0.046142578125, -0.177978515625, -0.947509765625, -4.382812500000, 0.804687500000, -4.968750000000, 1492749024
-0.046142578125, -0.177978515625, -0.947509765625, -4.382812500000, 0.804687500000, -4.968750000000, 1492749024
-0.196289062500, -0.186767578125, -0.908691406250, -4.851562500000, 0.687500000000, -6.406250000000, 1492749024
-0.196289062500, -0.186767578125, -0.908691406250, -4.851562500000, 0.687500000000, -6.406250000000, 1492749024
-0.196289062500, -0.186767578125, -0.908691406250, -4.851562500000, 0.687500000000, -6.406250000000, 1492749024
-0.134033203125, -0.136962890625, -0.980224609375, -3.593750000000, -2.093750000000, -3.781250000000, 1492749024
-0.134033203125, -0.136962890625, -0.980224609375, -3.593750000000, -2.093750000000, -3.781250000000, 1492749024
-0.134033203125, -0.136962890625, -0.980224609375, -3.593750000000, -2.093750000000, -3.781250000000, 1492749024
-0.134033203125, -0.136962890625, -0.980224609375, -3.593750000000, -2.093750000000, -3.781250000000, 1492749024
-0.047607421875, -0.114013671875, -1.006591796875, -4.750000000000, -0.984375000000, -4.242187500000, 1492749024
-0.047607421875, -0.114013671875, -1.006591796875, -4.750000000000, -0.984375000000, -4.242187500000, 1492749024
-0.047607421875, -0.114013671875, -1.006591796875, -4.750000000000, -0.984375000000, -4.242187500000, 1492749024
-0.077880859375, -0.119873046875, -0.927734375000, -3.250000000000, 0.453125000000, -5.796875000000, 1492749024
-0.077880859375, -0.119873046875, -0.927734375000, -3.250000000000, 0.453125000000, -5.796875000000, 1492749024
-0.077880859375, -0.119873046875, -0.927734375000, -3.250000000000, 0.453125000000, -5.796875000000, 1492749024
-0.060058593750, -0.165771484375, -1.008544921875, -4.648437500000, -2.031250000000, -3.234375000000, 1492749024
0.008789062500, -0.177734375000, -0.867675781250, -3.960937500000, -2.125000000000, -5.304687500000, 1492749024
0.008789062500, -0.177734375000, -0.867675781250, -3.960937500000, -2.125000000000, -5.304687500000, 1492749024
-0.064453125000, -0.164306640625, -1.024169921875, -4.492187500000, 0.796875000000, -1.250000000000, 1492749024
-0.085693359375, -0.165283203125, -0.923583984375, -4.179687500000, 0.304687500000, -3.109375000000, 1492749024
-0.085693359375, -0.165283203125, -0.923583984375, -4.179687500000, 0.304687500000, -3.109375000000, 1492749024
-0.085693359375, -0.165283203125, -0.923583984375, -4.179687500000, 0.304687500000, -3.109375000000, 1492749024
-0.085693359375, -0.165283203125, -0.923583984375, -4.179687500000, 0.304687500000, -3.109375000000, 1492749024
-0.085693359375, -0.165283203125, -0.923583984375, -4.179687500000, 0.304687500000, -3.109375000000, 1492749024
-0.085693359375, -0.165283203125, -0.923583984375, -4.179687500000, 0.304687500000, -3.109375000000, 1492749024
-0.143066406250, -0.184326171875, -0.993896484375, -3.515625000000, 0.078125000000, -2.734375000000, 1492749024
-0.143066406250, -0.184326171875, -0.993896484375, -3.515625000000, 0.078125000000, -2.734375000000, 1492749024
-0.143066406250, -0.184326171875, -0.993896484375, -3.515625000000, 0.078125000000, -2.734375000000, 1492749024
-0.046386718750, -0.259033203125, -0.955566406250, -3.242187500000, -0.226562500000, -3.960937500000, 1492749024
-0.046386718750, -0.259033203125, -0.955566406250, -3.242187500000, -0.226562500000, -3.960937500000, 1492749024
-0.046386718750, -0.259033203125, -0.955566406250, -3.242187500000, -0.226562500000, -3.960937500000, 1492749024
-0.126464843750, -0.154541015625, -0.941406250000, -1.648437500000, 0.367187500000, -6.203125000000, 1492749024
-0.126464843750, -0.154541015625, -0.941406250000, -1.648437500000, 0.367187500000, -6.203125000000, 1492749024
-0.126464843750, -0.154541015625, -0.941406250000, -1.648437500000, 0.367187500000, -6.203125000000, 1492749024
-0.126464843750, -0.154541015625, -0.941406250000, -1.648437500000, 0.367187500000, -6.203125000000, 1492749024
-0.063232421875, -0.104248046875, -0.919921875000, -4.289062500000, 0.257812500000, -4.679687500000, 1492749024
-0.063232421875, -0.104248046875, -0.919921875000, -4.289062500000, 0.257812500000, -4.679687500000, 1492749024
-0.063232421875, -0.104248046875, -0.919921875000, -4.289062500000, 0.257812500000, -4.679687500000, 1492749024
-0.057617187500, -0.181152343750, -1.016357421875, -1.976562500000, 0.578125000000, -4.421875000000, 1492749024
-0.057617187500, -0.181152343750, -1.016357421875, -1.976562500000, 0.578125000000, -4.421875000000, 1492749024
-0.057617187500, -0.181152343750, -1.016357421875, -1.976562500000, 0.578125000000, -4.421875000000, 1492749024
-0.142089843750, -0.206054687500, -0.960449218750, -1.921875000000, -0.578125000000, -6.054687500000, 1492749024
-0.142089843750, -0.206054687500, -0.960449218750, -1.921875000000, -0.578125000000, -6.054687500000, 1492749024
-0.142089843750, -0.206054687500, -0.960449218750, -1.921875000000, -0.578125000000, -6.054687500000, 1492749024
-0.146240234375, -0.152099609375, -0.917724609375, -4.296875000000, 0.953125000000, -5.015625000000, 1492749024
-0.146240234375, -0.152099609375, -0.917724609375, -4.296875000000, 0.953125000000, -5.015625000000, 1492749024
-0.146240234375, -0.152099609375, -0.917724609375, -4.296875000000, 0.953125000000, -5.015625000000, 1492749024
-0.146240234375, -0.152099609375, -0.917724609375, -4.296875000000, 0.953125000000, -5.015625000000, 1492749024
-0.095947265625, -0.190917968750, -0.968017578125, -3.226562500000, -0.484375000000, -5.281250000000, 1492749024
-0.095947265625, -0.190917968750, -0.968017578125, -3.226562500000, -0.484375000000, -5.281250000000, 1492749024
-0.095947265625, -0.190917968750, -0.968017578125, -3.226562500000, -0.484375000000, -5.281250000000, 1492749024
-0.098632812500, -0.213378906250, -0.918701171875, -3.445312500000, -0.851562500000, -3.343750000000, 1492749024
-0.098632812500, -0.213378906250, -0.918701171875, -3.445312500000, -0.851562500000, -3.343750000000, 1492749024
-0.098632812500, -0.213378906250, -0.918701171875, -3.445312500000, -0.851562500000, -3.343750000000, 1492749024
-0.077392578125, -0.124023437500, -0.971679687500, -4.054687500000, 0.273437500000, -3.984375000000, 1492749024
-0.077392578125, -0.124023437500, -0.971679687500, -4.054687500000, 0.273437500000, -3.984375000000, 1492749024
-0.077392578125, -0.124023437500, -0.971679687500, -4.054687500000, 0.273437500000, -3.984375000000, 1492749024
-0.077392578125, -0.124023437500, -0.971679687500, -4.054687500000, 0.273437500000, -3.984375000000, 1492749024
-0.077392578125, -0.124023437500, -0.971679687500, -4.054687500000, 0.273437500000, -3.984375000000, 1492749024
-0.077392578125, -0.124023437500, -0.971679687500, -4.054687500000, 0.273437500000, -3.984375000000, 1492749024
-0.153076171875, -0.167236328125, -0.915771484375, -4.367187500000, 0.531250000000, -6.812500000000, 1492749024
-0.153076171875, -0.167236328125, -0.915771484375, -4.367187500000, 0.531250000000, -6.812500000000, 1492749024
-0.153076171875, -0.167236328125, -0.915771484375, -4.367187500000, 0.531250000000, -6.812500000000, 1492749024
-0.153076171875, -0.167236328125, -0.915771484375, -4.367187500000, 0.531250000000, -6.812500000000, 1492749024
-0.134521484375, -0.225830078125, -1.025390625000, -1.500000000000, 0.171875000000, -1.062500000000, 1492749024
-0.134521484375, -0.225830078125, -1.025390625000, -1.500000000000, 0.171875000000, -1.062500000000, 1492749024
-0.134521484375, -0.225830078125, -1.025390625000, -1.500000000000, 0.171875000000, -1.062500000000, 1492749024
-0.100585937500, -0.169189453125, -1.000976562500, -4.828125000000, -0.601562500000, -6.421875000000, 1492749025
-0.100585937500, -0.169189453125, -1.000976562500, -4.828125000000, -0.601562500000, -6.421875000000, 1492749025
-0.100585937500, -0.169189453125, -1.000976562500, -4.828125000000, -0.601562500000, -6.421875000000, 1492749025
-0.090087890625, -0.185546875000, -0.933593750000, -3.195312500000, 0.546875000000, -3.546875000000, 1492749025
