ACC_X,ACC_Y,ACC_Z,G_X,G_Y,G_Z,Unix Time
0.135009765625, -0.986083984375, 0.222656250000, -12.382812500000, -2.078125000000, 2.789062500000, 1492750208
0.135009765625, -0.986083984375, 0.222656250000, -12.382812500000, -2.078125000000, 2.789062500000, 1492750208
0.135009765625, -0.986083984375, 0.222656250000, -12.382812500000, -2.078125000000, 2.789062500000, 1492750208
0.060058593750, -1.020263671875, 0.300781250000, 3.078125000000, 6.867187500000, 1.539062500000, 1492750209
0.060058593750, -1.020263671875, 0.300781250000, 3.078125000000, 6.867187500000, 1.539062500000, 1492750209
0.060058593750, -1.020263671875, 0.300781250000, 3.078125000000, 6.867187500000, 1.539062500000, 1492750209
0.111816406250, -1.066162109375, 0.243896484375, -6.617187500000, 6.054687500000, 1.773437500000, 1492750209
0.111816406250, -1.066162109375, 0.243896484375, -6.617187500000, 6.054687500000, 1.773437500000, 1492750209
0.111816406250, -1.066162109375, 0.243896484375, -6.617187500000, 6.054687500000, 1.773437500000, 1492750209
0.131591796875, -1.050292968750, 0.300292968750, -5.343750000000, 3.210937500000, -0.507812500000, 1492750209
0.131591796875, -1.050292968750, 0.300292968750, -5.343750000000, 3.210937500000, -0.507812500000, 1492750209
0.131591796875, -1.050292968750, 0.300292968750, -5.343750000000, 3.210937500000, -0.507812500000, 1492750209
0.131591796875, -1.050292968750, 0.300292968750, -5.343750000000, 3.210937500000, -0.507812500000, 1492750209
0.147460937500, -0.865478515625, 0.234130859375, -5.953125000000, 3.195312500000, 0.062500000000, 1492750209
0.147460937500, -0.865478515625, 0.234130859375, -5.953125000000, 3.195312500000, 0.062500000000, 1492750209
0.147460937500, -0.865478515625, 0.234130859375, -5.953125000000, 3.195312500000, 0.062500000000, 1492750209
0.095214843750, -0.849853515625, 0.249267578125, -5.804687500000, 3.218750000000, -4.906250000000, 1492750209
0.095214843750, -0.849853515625, 0.249267578125, -5.804687500000, 3.218750000000, -4.906250000000, 1492750209
0.095214843750, -0.849853515625, 0.249267578125, -5.804687500000, 3.218750000000, -4.906250000000, 1492750209
0.191650390625, -0.976806640625, 0.445068359375, -4.992187500000, 4.007812500000, -5.523437500000, 1492750209
0.191650390625, -0.976806640625, 0.445068359375, -4.992187500000, 4.007812500000, -5.523437500000, 1492750209
0.191650390625, -0.976806640625, 0.445068359375, -4.992187500000, 4.007812500000, -5.523437500000, 1492750209
0.191650390625, -0.976806640625, 0.445068359375, -4.992187500000, 4.007812500000, -5.523437500000, 1492750209
0.073242187500, -0.958740234375, 0.337890625000, -5.273437500000, 1.406250000000, -3.531250000000, 1492750209
0.073242187500, -0.958740234375, 0.337890625000, -5.273437500000, 1.406250000000, -3.531250000000, 1492750209
0.073242187500, -0.958740234375, 0.337890625000, -5.273437500000, 1.406250000000, -3.531250000000, 1492750209
-0.009033203125, -0.910888671875, 0.232910156250, -6.914062500000, 6.632812500000, 0.406250000000, 1492750209
-0.009033203125, -0.910888671875, 0.232910156250, -6.914062500000, 6.632812500000, 0.406250000000, 1492750209
-0.009033203125, -0.910888671875, 0.232910156250, -6.914062500000, 6.632812500000, 0.406250000000, 1492750209
0.061035156250, -0.983886718750, 0.238281250000, -5.265625000000, 3.695312500000, -2.796875000000, 1492750209
0.061035156250, -0.983886718750, 0.238281250000, -5.265625000000, 3.695312500000, -2.796875000000, 1492750209
0.061035156250, -0.983886718750, 0.238281250000, -5.265625000000, 3.695312500000, -2.796875000000, 1492750209
0.101318359375, -0.949218750000, 0.249511718750, -7.734375000000, -2.070312500000, -4.890625000000, 1492750209
0.101318359375, -0.949218750000, 0.249511718750, -7.734375000000, -2.070312500000, -4.890625000000, 1492750209
0.101318359375, -0.949218750000, 0.249511718750, -7.734375000000, -2.070312500000, -4.890625000000, 1492750209
0.101318359375, -0.949218750000, 0.249511718750, -7.734375000000, -2.070312500000, -4.890625000000, 1492750209
0.082763671875, -1.015136718750, 0.293945312500, -5.968750000000, 3.289062500000, -1.484375000000, 1492750209
0.082763671875, -1.015136718750, 0.293945312500, -5.968750000000, 3.289062500000, -1.484375000000, 1492750209
0.082763671875, -1.015136718750, 0.293945312500, -5.968750000000, 3.289062500000, -1.484375000000, 1492750209
0.091796875000, -0.930175781250, 0.281494140625, 5.617187500000, -6.273437500000, -1.398437500000, 1492750209
0.091796875000, -0.930175781250, 0.281494140625, 5.617187500000, -6.273437500000, -1.398437500000, 1492750209
0.091796875000, -0.930175781250, 0.281494140625, 5.617187500000, -6.273437500000, -1.398437500000, 1492750209
-0.016601562500, -0.903076171875, 0.390869140625, -6.117187500000, -0.921875000000, -2.953125000000, 1492750209
-0.016601562500, -0.903076171875, 0.390869140625, -6.117187500000, -0.921875000000, -2.953125000000, 1492750209
-0.016601562500, -0.903076171875, 0.390869140625, -6.117187500000, -0.921875000000, -2.953125000000, 1492750209
0.020996093750, -0.960205078125, 0.287353515625, -1.968750000000, 1.757812500000, 2.007812500000, 1492750209
0.020996093750, -0.960205078125, 0.287353515625, -1.968750000000, 1.757812500000, 2.007812500000, 1492750209
0.020996093750, -0.960205078125, 0.287353515625, -1.968750000000, 1.757812500000, 2.007812500000, 1492750209
0.020996093750, -0.960205078125, 0.287353515625, -1.968750000000, 1.757812500000, 2.007812500000, 1492750209
0.142089843750, -0.946533203125, 0.287597656250, -1.828125000000, -2.789062500000, -1.117187500000, 1492750209
0.032226562500, -1.024902343750, 0.239990234375, 0.773437500000, -4.398437500000, -1.835937500000, 1492750209
0.032226562500, -1.024902343750, 0.239990234375, 0.773437500000, -4.398437500000, -1.835937500000, 1492750209
0.032226562500, -1.024902343750, 0.239990234375, 0.773437500000, -4.398437500000, -1.835937500000, 1492750209
0.033203125000, -1.014648437500, 0.238769531250, -4.406250000000, -1.601562500000, -4.976562500000, 1492750209
0.033203125000, -1.014648437500, 0.238769531250, -4.406250000000, -1.601562500000, -4.976562500000, 1492750209
0.033203125000, -1.014648437500, 0.238769531250, -4.406250000000, -1.601562500000, -4.976562500000, 1492750209
0.033203125000, -1.014648437500, 0.238769531250, -4.406250000000, -1.601562500000, -4.976562500000, 1492750209
0.033203125000, -1.014648437500, 0.238769531250, -4.406250000000, -1.601562500000, -4.976562500000, 1492750209
0.139160156250, -0.911132812500, 0.328125000000, -3.031250000000, -1.578125000000, -6.265625000000, 1492750209
0.139160156250, -0.911132812500, 0.328125000000, -3.031250000000, -1.578125000000, -6.265625000000, 1492750209
0.139160156250, -0.911132812500, 0.328125000000, -3.031250000000, -1.578125000000, -6.265625000000, 1492750209
0.139160156250, -0.911132812500, 0.328125000000, -3.031250000000, -1.578125000000, -6.265625000000, 1492750209
0.136962890625, -1.069824218750, 0.330078125000, -5.250000000000, -0.796875000000, -4.359375000000, 1492750209
0.136962890625, -1.069824218750, 0.330078125000, -5.250000000000, -0.796875000000, -4.359375000000, 1492750209
0.136962890625, -1.069824218750, 0.330078125000, -5.250000000000, -0.796875000000, -4.359375000000, 1492750209
0.209472656250, -0.979003906250, 0.317138671875, -5.898437500000, -1.375000000000, -5.734375000000, 1492750209
0.209472656250, -0.979003906250, 0.317138671875, -5.898437500000, -1.375000000000, -5.734375000000, 1492750209
0.209472656250, -0.979003906250, 0.317138671875, -5.898437500000, -1.375000000000, -5.734375000000, 1492750209
0.081787109375, -0.970214843750, 0.282958984375, -4.953125000000, -1.781250000000, -3.820312500000, 1492750209
0.081787109375, -0.970214843750, 0.282958984375, -4.953125000000, -1.781250000000, -3.820312500000, 1492750209
0.081787109375, -0.970214843750, 0.282958984375, -4.953125000000, -1.781250000000, -3.820312500000, 1492750209
0.140625000000, -0.870605468750, 0.321533203125, 0.382812500000, 8.085937500000, -3.492187500000, 1492750210
0.140625000000, -0.870605468750, 0.321533203125, 0.382812500000, 8.085937500000, -3.492187500000, 1492750210
0.140625000000, -0.870605468750, 0.321533203125, 0.382812500000, 8.085937500000, -3.492187500000, 1492750210
0.140625000000, -0.870605468750, 0.321533203125, 0.382812500000, 8.085937500000, -3.492187500000, 1492750210
0.106933593750, -0.954101562500, 0.246826171875, -1.835937500000, -4.625000000000, -7.335937500000, 1492750210
0.106933593750, -0.954101562500, 0.246826171875, -1.835937500000, -4.625000000000, -7.335937500000, 1492750210
0.106933593750, -0.954101562500, 0.246826171875, -1.835937500000, -4.625000000000, -7.335937500000, 1492750210
0.054931640625, -0.937500000000, 0.294921875000, -10.164062500000, 0.164062500000, -1.656250000000, 1492750210
0.054931640625, -0.937500000000, 0.294921875000, -10.164062500000, 0.164062500000, -1.656250000000, 1492750210
0.054931640625, -0.937500000000, 0.294921875000, -10.164062500000, 0.164062500000, -1.656250000000, 1492750210
0.126220703125, -1.018066406250, 0.289062500000, -6.531250000000, 3.109375000000, -2.570312500000, 1492750210
0.126220703125, -1.018066406250, 0.289062500000, -6.531250000000, 3.109375000000, -2.570312500000, 1492750210
0.126220703125, -1.018066406250, 0.289062500000, -6.531250000000, 3.109375000000, -2.570312500000, 1492750210
0.069335937500, -0.936767578125, 0.295410156250, -8.570312500000, 3.328125000000, -4.953125000000, 1492750210
0.069335937500, -0.936767578125, 0.295410156250, -8.570312500000, 3.328125000000, -4.953125000000, 1492750210
0.069335937500, -0.936767578125, 0.295410156250, -8.570312500000, 3.328125000000, -4.953125000000, 1492750210
0.093994140625, -0.955810546875, 0.281494140625, -5.265625000000, 4.007812500000, -3.093750000000, 1492750210
0.093994140625, -0.955810546875, 0.281494140625, -5.265625000000, 4.007812500000, -3.093750000000, 1492750210
0.093994140625, -0.955810546875, 0.281494140625, -5.265625000000, 4.007812500000, -3.093750000000, 1492750210
0.093994140625, -0.955810546875, 0.281494140625, -5.265625000000, 4.007812500000, -3.093750000000, 1492750210
0.072998046875, -1.130126953125, 0.235595703125, -5.867187500000, 1.343750000000, -4.984375000000, 1492750210
0.072998046875, -1.130126953125, 0.235595703125, -5.867187500000, 1.343750000000, -4.984375000000, 1492750210
0.072998046875, -1.130126953125, 0.235595703125, -5.867187500000, 1.343750000000, -4.984375000000, 1492750210
0.135009765625, -0.953125000000, 0.289550781250, -8.187500000000, 4.351562500000, -3.609375000000, 1492750210
0.135009765625, -0.953125000000, 0.289550781250, -8.187500000000, 4.351562500000, -3.609375000000, 1492750210
0.135009765625, -0.953125000000, 0.289550781250, -8.187500000000, 4.351562500000, -3.609375000000, 1492750210
0.043457031250, -1.016601562500, 0.383056640625, -3.078125000000, -2.656250000000, -4.023437500000, 1492750210
0.043457031250, -1.016601562500, 0.383056640625, -3.078125000000, -2.656250000000, -4.023437500000, 1492750210
0.043457031250, -1.016601562500, 0.383056640625, -3.078125000000, -2.656250000000, -4.023437500000, 1492750210
0.043457031250, -1.016601562500, 0.383056640625, -3.078125000000, -2.656250000000, -4.023437500000, 1492750210
0.042724609375, -0.977294921875, 0.339843750000, -1.960937500000, 0.578125000000, -3.367187500000, 1492750210
0.042724609375, -0.977294921875, 0.339843750000, -1.960937500000, 0.578125000000, -3.367187500000, 1492750210
0.042724609375, -0.977294921875, 0.339843750000, -1.960937500000, 0.578125000000, -3.367187500000, 1492750210
0.080078125000, -0.912109375000, 0.238525390625, -4.492187500000, -1.445312500000, -6.335937500000, 1492750210
0.080078125000, -0.912109375000, 0.238525390625, -4.492187500000, -1.445312500000, -6.335937500000, 1492750210
0.080078125000, -0.912109375000, 0.238525390625, -4.492187500000, -1.445312500000, -6.335937500000, 1492750210
-0.030761718750, -0.937011718750, 0.288818359375, -0.539062500000, -6.562500000000, -5.203125000000, 1492750210
-0.030761718750, -0.937011718750, 0.288818359375, -0.539062500000, -6.562500000000, -5.203125000000, 1492750210
-0.030761718750, -0.937011718750, 0.288818359375, -0.539062500000, -6.562500000000, -5.203125000000, 1492750210
0.063964843750, -0.951171875000, 0.282226562500, -1.242187500000, -6.757812500000, -5.953125000000, 1492750210
0.063964843750, -0.951171875000, 0.282226562500, -1.242187500000, -6.757812500000, -5.953125000000, 1492750210
0.063964843750, -0.951171875000, 0.282226562500, -1.242187500000, -6.757812500000, -5.953125000000, 1492750210
0.063964843750, -0.951171875000, 0.282226562500, -1.242187500000, -6.757812500000, -5.953125000000, 1492750210
0.098388671875, -0.969238281250, 0.311035156250, 0.328125000000, 0.742187500000, -3.281250000000, 1492750210
0.098388671875, -0.969238281250, 0.311035156250, 0.328125000000, 0.742187500000, -3.281250000000, 1492750210
0.098388671875, -0.969238281250, 0.311035156250, 0.328125000000, 0.742187500000, -3.281250000000, 1492750210
0.098388671875, -0.969238281250, 0.311035156250, 0.328125000000, 0.742187500000, -3.281250000000, 1492750210
0.098388671875, -0.969238281250, 0.311035156250, 0.328125000000, 0.742187500000, -3.281250000000, 1492750210
0.098388671875, -0.969238281250, 0.311035156250, 0.328125000000, 0.742187500000, -3.281250000000, 1492750210
0.036621093750, -0.957519531250, 0.316162109375, -2.882812500000, 2.328125000000, -1.585937500000, 1492750210
0.036621093750, -0.957519531250, 0.316162109375, -2.882812500000, 2.328125000000, -1.585937500000, 1492750210
0.036621093750, -0.957519531250, 0.316162109375, -2.882812500000, 2.328125000000, -1.585937500000, 1492750210
-0.006347656250, -0.923583984375, 0.223632812500, -6.906250000000, -0.601562500000, 2.210937500000, 1492750210
-0.006347656250, -0.923583984375, 0.223632812500, -6.906250000000, -0.601562500000, 2.210937500000, 1492750210
-0.006347656250, -0.923583984375, 0.223632812500, -6.906250000000, -0.601562500000, 2.210937500000, 1492750210
-0.006347656250, -0.923583984375, 0.223632812500, -6.906250000000, -0.601562500000, 2.210937500000, 1492750210
0.099609375000, -1.008056640625, 0.239257812500, -2.570312500000, 4.734375000000, -6.398437500000, 1492750210
0.099609375000, -1.008056640625, 0.239257812500, -2.570312500000, 4.734375000000, -6.398437500000, 1492750210
0.099609375000, -1.008056640625, 0.239257812500, -2.570312500000, 4.734375000000, -6.398437500000, 1492750210
0.026611328125, -0.939208984375, 0.307861328125, -3.601562500000, 1.148437500000, -2.773437500000, 1492750210
0.026611328125, -0.939208984375, 0.307861328125, -3.601562500000, 1.148437500000, -2.773437500000, 1492750210
0.026611328125, -0.939208984375, 0.307861328125, -3.601562500000, 1.148437500000, -2.773437500000, 1492750210
0.113037109375, -0.974121093750, 0.235839843750, -4.429687500000, 2.859375000000, -4.226562500000, 1492750210
0.059082031250, -0.964355468750, 0.323974609375, -2.226562500000, 0.335937500000, -4.578125000000, 1492750211
0.059082031250, -0.964355468750, 0.323974609375, -2.226562500000, 0.335937500000, -4.578125000000, 1492750211
0.059082031250, -0.964355468750, 0.323974609375, -2.226562500000, 0.335937500000, -4.578125000000, 1492750211
0.126220703125, -1.008544921875, 0.292236328125, 0.687500000000, 2.078125000000, -6.335937500000, 1492750211
0.126220703125, -1.008544921875, 0.292236328125, 0.687500000000, 2.078125000000, -6.335937500000, 1492750211
0.126220703125, -1.008544921875, 0.292236328125, 0.687500000000, 2.078125000000, -6.335937500000, 1492750211
0.126220703125, -1.008544921875, 0.292236328125, 0.289062500000, -0.742187500000, -1.046875000000, 1492750211
0.046630859375, -0.979492187500, 0.325439453125, 5.687500000000, -6.125000000000, -6.992187500000, 1492750211
0.046630859375, -0.979492187500, 0.325439453125, 5.687500000000, -6.125000000000, -6.992187500000, 1492750211
0.046630859375, -0.979492187500, 0.325439453125, 5.687500000000, -6.125000000000, -6.992187500000, 1492750211
0.046630859375, -0.979492187500, 0.325439453125, 5.687500000000, -6.125000000000, -6.992187500000, 1492750211
0.046630859375, -0.979492187500, 0.325439453125, 5.687500000000, -6.125000000000, -6.992187500000, 1492750211
-0.024169921875, -0.856933593750, 0.285400390625, -8.640625000000, -0.546875000000, -1.695312500000, 1492750211
-0.024169921875, -0.856933593750, 0.285400390625, -8.640625000000, -0.546875000000, -1.695312500000, 1492750211
-0.024169921875, -0.856933593750, 0.285400390625, -8.640625000000, -0.546875000000, -1.695312500000, 1492750211
0.113281250000, -0.935546875000, 0.242431640625, 1.171875000000, -1.218750000000, -3.648437500000, 1492750211
0.113281250000, -0.935546875000, 0.242431640625, 1.171875000000, -1.218750000000, -3.648437500000, 1492750211
0.113281250000, -0.935546875000, 0.242431640625, 1.171875000000, -1.218750000000, -3.648437500000, 1492750211
0.113281250000, -0.935546875000, 0.242431640625, 1.171875000000, -1.218750000000, -3.648437500000, 1492750211
0.135986328125, -0.912597656250, 0.261230468750, 3.031250000000, -1.023437500000, -4.554687500000, 1492750211
0.135986328125, -0.912597656250, 0.261230468750, 3.031250000000, -1.023437500000, -4.554687500000, 1492750211
0.135986328125, -0.912597656250, 0.261230468750, 3.031250000000, -1.023437500000, -4.554687500000, 1492750211
0.127929687500, -0.863281250000, 0.332031250000, 8.773437500000, -2.296875000000, -6.203125000000, 1492750211
0.127929687500, -0.863281250000, 0.332031250000, 8.773437500000, -2.296875000000, -6.203125000000, 1492750211
0.127929687500, -0.863281250000, 0.332031250000, 8.773437500000, -2.296875000000, -6.203125000000, 1492750211
0.087402343750, -0.894531250000, 0.254394531250, 16.812500000000, 4.328125000000, -6.562500000000, 1492750211
0.087402343750, -0.894531250000, 0.254394531250, 16.812500000000, 4.328125000000, -6.562500000000, 1492750211
0.087402343750, -0.894531250000, 0.254394531250, 16.812500000000, 4.328125000000, -6.562500000000, 1492750211
0.154296875000, -0.962890625000, 0.274658203125, 17.320312500000, -8.109375000000, -6.781250000000, 1492750211
0.154296875000, -0.962890625000, 0.274658203125, 17.320312500000, -8.109375000000, -6.781250000000, 1492750211
0.154296875000, -0.962890625000, 0.274658203125, 17.320312500000, -8.109375000000, -6.781250000000, 1492750211
-0.020263671875, -1.015136718750, 0.322998046875, 12.335937500000, -3.953125000000, -5.500000000000, 1492750211
0.096191406250, -1.072265625000, 0.269042968750, 3.632812500000, -6.750000000000, -10.578125000000, 1492750211
0.096191406250, -1.072265625000, 0.269042968750, 3.632812500000, -6.750000000000, -10.578125000000, 1492750211
0.096191406250, -1.072265625000, 0.269042968750, 3.632812500000, -6.750000000000, -10.578125000000, 1492750211
0.068359375000, -0.972656250000, 0.224121093750, 3.125000000000, -12.687500000000, -10.617187500000, 1492750211
0.068359375000, -0.972656250000, 0.224121093750, 3.125000000000, -12.687500000000, -10.617187500000, 1492750211
0.088134765625, -1.008056640625, 0.226806640625, 0.773437500000, -11.171875000000, -8.945312500000, 1492750211
-0.011230468750, -0.934082031250, 0.174072265625, -2.835937500000, -12.828125000000, -10.804687500000, 1492750211
-0.011230468750, -0.934082031250, 0.174072265625, -2.835937500000, -12.828125000000, -10.804687500000, 1492750211
-0.011230468750, -0.934082031250, 0.174072265625, -2.835937500000, -12.828125000000, -10.804687500000, 1492750211
0.069335937500, -0.961914062500, 0.223144531250, 0.125000000000, -12.000000000000, -8.710937500000, 1492750211
0.069335937500, -0.961914062500, 0.223144531250, 0.125000000000, -12.000000000000, -8.710937500000, 1492750211
0.069335937500, -0.961914062500, 0.223144531250, 0.125000000000, -12.000000000000, -8.710937500000, 1492750211
0.069335937500, -0.961914062500, 0.223144531250, 0.125000000000, -12.000000000000, -8.710937500000, 1492750211
0.031494140625, -1.010009765625, 0.210937500000, 5.695312500000, -11.656250000000, -7.007812500000, 1492750211
0.031494140625, -1.010009765625, 0.210937500000, 5.695312500000, -11.656250000000, -7.007812500000, 1492750211
0.031494140625, -1.010009765625, 0.210937500000, 5.695312500000, -11.656250000000, -7.007812500000, 1492750211
0.152099609375, -0.981933593750, 0.253173828125, -2.468750000000, -8.945312500000, -5.046875000000, 1492750211
0.152099609375, -0.981933593750, 0.253173828125, -2.468750000000, -8.945312500000, -5.046875000000, 1492750211
0.152099609375, -0.981933593750, 0.253173828125, -2.468750000000, -8.945312500000, -5.046875000000, 1492750211
0.072021484375, -1.072753906250, 0.213134765625, -0.101562500000, -6.742187500000, -1.039062500000, 1492750211
0.072021484375, -1.072753906250, 0.213134765625, -0.101562500000, -6.742187500000, -1.039062500000, 1492750211
0.072021484375, -1.072753906250, 0.213134765625, -0.101562500000, -6.742187500000, -1.039062500000, 1492750211
0.072021484375, -1.072753906250, 0.213134765625, -0.101562500000, -6.742187500000, -1.039062500000, 1492750211
0.151123046875, -0.932128906250, 0.116210937500, 1.015625000000, -13.468750000000, -1.875000000000, 1492750211
0.151123046875, -0.932128906250, 0.116210937500, 1.015625000000, -13.468750000000, -1.875000000000, 1492750211
0.151123046875, -0.932128906250, 0.116210937500, 1.015625000000, -13.468750000000, -1.875000000000, 1492750211
0.151123046875, -0.932128906250, 0.116210937500, 1.015625000000, -13.468750000000, -1.875000000000, 1492750211
0.151123046875, -0.932128906250, 0.116210937500, 1.015625000000, -13.468750000000, -1.875000000000, 1492750211
0.151123046875, -0.932128906250, 0.116210937500, 1.015625000000, -13.468750000000, -1.875000000000, 1492750211
0.146972656250, -1.006591796875, 0.193603515625, 11.085937500000, -18.617187500000, -8.476562500000, 1492750211
0.146972656250, -1.006591796875, 0.193603515625, 11.085937500000, -18.617187500000, -8.476562500000, 1492750211
0.146972656250, -1.006591796875, 0.193603515625, 11.085937500000, -18.617187500000, -8.476562500000, 1492750211
0.066162109375, -0.942382812500, 0.269042968750, 13.046875000000, -19.125000000000, -10.281250000000, 1492750211
0.066162109375, -0.942382812500, 0.269042968750, 13.046875000000, -19.125000000000, -10.281250000000, 1492750211
0.066650390625, -0.933593750000, 0.159423828125, 1.835937500000, -17.875000000000, -12.648437500000, 1492750211
0.066650390625, -0.933593750000, 0.159423828125, 1.835937500000, -17.875000000000, -12.648437500000, 1492750211
0.066650390625, -0.933593750000, 0.159423828125, 1.835937500000, -17.875000000000, -12.648437500000, 1492750211
0.066650390625, -0.933593750000, 0.159423828125, 1.835937500000, -17.875000000000, -12.648437500000, 1492750211
0.066650390625, -0.933593750000, 0.159423828125, 1.835937500000, -17.875000000000, -12.648437500000, 1492750211
0.094970703125, -1.080322265625, 0.106933593750, -2.359375000000, -19.070312500000, -11.843750000000, 1492750212
0.094970703125, -1.080322265625, 0.106933593750, -2.359375000000, -19.070312500000, -11.843750000000, 1492750212
0.094970703125, -1.080322265625, 0.106933593750, -2.359375000000, -19.070312500000, -11.843750000000, 1492750212
0.189941406250, -0.988769531250, 0.146484375000, 2.390625000000, -15.609375000000, -12.125000000000, 1492750212
0.189941406250, -0.988769531250, 0.146484375000, 2.390625000000, -15.609375000000, -12.125000000000, 1492750212
0.189941406250, -0.988769531250, 0.146484375000, 2.390625000000, -15.609375000000, -12.125000000000, 1492750212
0.130615234375, -0.925537109375, 0.136474609375, 14.515625000000, -9.812500000000, -7.390625000000, 1492750212
0.130615234375, -0.925537109375, 0.136474609375, 14.515625000000, -9.812500000000, -7.390625000000, 1492750212
0.130615234375, -0.925537109375, 0.136474609375, 14.515625000000, -9.812500000000, -7.390625000000, 1492750212
-0.027587890625, -1.014160156250, 0.101318359375, 13.437500000000, -8.953125000000, -7.531250000000, 1492750212
-0.064208984375, -0.872802734375, 0.081298828125, 15.109375000000, -12.671875000000, -7.507812500000, 1492750212
-0.064208984375, -0.872802734375, 0.081298828125, 15.109375000000, -12.671875000000, -7.507812500000, 1492750212
-0.064208984375, -0.872802734375, 0.081298828125, 15.109375000000, -12.671875000000, -7.507812500000, 1492750212
-0.064208984375, -0.872802734375, 0.081298828125, 15.109375000000, -12.671875000000, -7.507812500000, 1492750212
0.081298828125, -0.936035156250, 0.089843750000, 18.796875000000, -10.921875000000, -6.773437500000, 1492750212
0.081298828125, -0.936035156250, 0.089843750000, 18.796875000000, -10.921875000000, -6.773437500000, 1492750212
0.081298828125, -0.936035156250, 0.089843750000, 18.796875000000, -10.921875000000, -6.773437500000, 1492750212
0.081298828125, -0.936035156250, 0.089843750000, 18.796875000000, -10.921875000000, -6.773437500000, 1492750212
0.081298828125, -0.936035156250, 0.089843750000, 18.796875000000, -10.921875000000, -6.773437500000, 1492750212
-0.011474609375, -0.790283203125, -0.001953125000, 25.531250000000, -22.867187500000, -4.984375000000, 1492750212
-0.011474609375, -0.790283203125, -0.001953125000, 25.531250000000, -22.867187500000, -4.984375000000, 1492750212
-0.011474609375, -0.790283203125, -0.001953125000, 25.531250000000, -22.867187500000, -4.984375000000, 1492750212
0.069335937500, -0.823486328125, 0.084716796875, 27.585937500000, -35.765625000000, -15.625000000000, 1492750212
0.069335937500, -0.823486328125, 0.084716796875, 27.585937500000, -35.765625000000, -15.625000000000, 1492750212
0.069335937500, -0.823486328125, 0.084716796875, 27.585937500000, -35.765625000000, -15.625000000000, 1492750212
0.069335937500, -0.823486328125, 0.084716796875, 27.585937500000, -35.765625000000, -15.625000000000, 1492750212
0.037353515625, -0.885009765625, -0.007080078125, 30.515625000000, -36.820312500000, -19.218750000000, 1492750212
0.037353515625, -0.885009765625, -0.007080078125, 30.515625000000, -36.820312500000, -19.218750000000, 1492750212
0.037353515625, -0.885009765625, -0.007080078125, 30.515625000000, -36.820312500000, -19.218750000000, 1492750212
-0.090820312500, -0.594238281250, 0.082031250000, 50.187500000000, -15.687500000000, -26.945312500000, 1492750212
-0.090820312500, -0.594238281250, 0.082031250000, 50.187500000000, -15.687500000000, -26.945312500000, 1492750212
-0.090820312500, -0.594238281250, 0.082031250000, 50.187500000000, -15.687500000000, -26.945312500000, 1492750212
0.022216796875, -0.641113281250, 0.083007812500, 47.867187500000, 31.367187500000, -24.804687500000, 1492750212
0.022216796875, -0.641113281250, 0.083007812500, 47.867187500000, 31.367187500000, -24.804687500000, 1492750212
0.022216796875, -0.641113281250, 0.083007812500, 47.867187500000, 31.367187500000, -24.804687500000, 1492750212
0.011474609375, -0.501953125000, 0.050781250000, 39.632812500000, 102.078125000000, -10.507812500000, 1492750212
0.011474609375, -0.501953125000, 0.050781250000, 39.632812500000, 102.078125000000, -10.507812500000, 1492750212
0.011474609375, -0.501953125000, 0.050781250000, 39.632812500000, 102.078125000000, -10.507812500000, 1492750212
0.011474609375, -0.501953125000, 0.050781250000, 39.632812500000, 102.078125000000, -10.507812500000, 1492750212
0.149169921875, -0.601806640625, -0.015625000000, 8.835937500000, 157.171875000000, 8.023437500000, 1492750212
0.149169921875, -0.601806640625, -0.015625000000, 8.835937500000, 157.171875000000, 8.023437500000, 1492750212
0.149169921875, -0.601806640625, -0.015625000000, 8.835937500000, 157.171875000000, 8.023437500000, 1492750212
0.105957031250, -0.784667968750, -0.088867187500, -106.828125000000, 117.718750000000, 9.187500000000, 1492750212
0.105957031250, -0.784667968750, -0.088867187500, -106.828125000000, 117.718750000000, 9.187500000000, 1492750212
0.105957031250, -0.784667968750, -0.088867187500, -106.828125000000, 117.718750000000, 9.187500000000, 1492750212
0.183349609375, -0.961181640625, 0.082275390625, -66.484375000000, 33.250000000000, 52.750000000000, 1492750212
0.183349609375, -0.961181640625, 0.082275390625, -66.484375000000, 33.250000000000, 52.750000000000, 1492750212
0.183349609375, -0.961181640625, 0.082275390625, -66.484375000000, 33.250000000000, 52.750000000000, 1492750212
0.357666015625, -1.131591796875, 0.029052734375, -6.656250000000, -29.914062500000, 94.148437500000, 1492750212
0.357666015625, -1.131591796875, 0.029052734375, -6.656250000000, -29.914062500000, 94.148437500000, 1492750212
0.357666015625, -1.131591796875, 0.029052734375, -6.656250000000, -29.914062500000, 94.148437500000, 1492750212
0.357666015625, -1.131591796875, 0.029052734375, -6.656250000000, -29.914062500000, 94.148437500000, 1492750212
0.450683593750, -0.988769531250, 0.029541015625, -136.789062500000, 47.304687500000, 45.140625000000, 1492750212
0.450683593750, -0.988769531250, 0.029541015625, -136.789062500000, 47.304687500000, 45.140625000000, 1492750212
0.450683593750, -0.988769531250, 0.029541015625, -136.789062500000, 47.304687500000, 45.140625000000, 1492750212
0.308837890625, -1.148681640625, -0.069091796875, -103.437500000000, 3.515625000000, 80.593750000000, 1492750212
0.308837890625, -1.148681640625, -0.069091796875, -103.437500000000, 3.515625000000, 80.593750000000, 1492750212
0.308837890625, -1.148681640625, -0.069091796875, -103.437500000000, 3.515625000000, 80.593750000000, 1492750212
0.245117187500, -1.450439453125, -0.016113281250, -88.867187500000, -15.414062500000, -57.703125000000, 1492750212
0.245117187500, -1.450439453125, -0.016113281250, -88.867187500000, -15.414062500000, -57.703125000000, 1492750212
0.245117187500, -1.450439453125, -0.016113281250, -88.867187500000, -15.414062500000, -57.703125000000, 1492750212
-0.156738281250, -1.193359375000, -0.015136718750, -210.804687500000, -29.343750000000, -20.148437500000, 1492750212
-0.156738281250, -1.193359375000, -0.015136718750, -210.804687500000, -29.343750000000, -20.148437500000, 1492750212
-0.156738281250, -1.193359375000, -0.015136718750, -210.804687500000, -29.343750000000, -20.148437500000, 1492750212
-0.156738281250, -1.193359375000, -0.015136718750, -210.804687500000, -29.343750000000, -20.148437500000, 1492750212
-0.324707031250, -1.334960937500, 0.121826171875, -132.476562500000, -44.531250000000, -16.117187500000, 1492750212
-0.324707031250, -1.334960937500, 0.121826171875, -132.476562500000, -44.531250000000, -16.117187500000, 1492750213
-0.324707031250, -1.334960937500, 0.121826171875, -132.476562500000, -44.531250000000, -16.117187500000, 1492750213
-0.080566406250, -1.036865234375, 0.069091796875, 48.328125000000, -11.937500000000, -13.289062500000, 1492750213
-0.080566406250, -1.036865234375, 0.069091796875, 48.328125000000, -11.937500000000, -13.289062500000, 1492750213
-0.080566406250, -1.036865234375, 0.069091796875, 48.328125000000, -11.937500000000, -13.289062500000, 1492750213
0.114746093750, -1.641357421875, 0.099121093750, 168.875000000000, -167.578125000000, -21.320312500000, 1492750213
0.114746093750, -1.641357421875, 0.099121093750, 168.875000000000, -167.578125000000, -21.320312500000, 1492750213
0.114746093750, -1.641357421875, 0.099121093750, 168.875000000000, -167.578125000000, -21.320312500000, 1492750213
0.773925781250, -0.925292968750, 0.024414062500, -28.312500000000, -61.898437500000, -4.351562500000, 1492750213
0.773925781250, -0.925292968750, 0.024414062500, -28.312500000000, -61.898437500000, -4.351562500000, 1492750213
0.773925781250, -0.925292968750, 0.024414062500, -28.312500000000, -61.898437500000, -4.351562500000, 1492750213
0.773925781250, -0.925292968750, 0.024414062500, -28.312500000000, -61.898437500000, -4.351562500000, 1492750213
0.590820312500, -1.027587890625, 0.011230468750, 185.773437500000, 55.250000000000, 29.554687500000, 1492750213
0.590820312500, -1.027587890625, 0.011230468750, 185.773437500000, 55.250000000000, 29.554687500000, 1492750213
0.590820312500, -1.027587890625, 0.011230468750, 185.773437500000, 55.250000000000, 29.554687500000, 1492750213
0.567626953125, -0.859375000000, 0.044677734375, 187.468750000000, 237.195312500000, 80.585937500000, 1492750213
0.567626953125, -0.859375000000, 0.044677734375, 187.468750000000, 237.195312500000, 80.585937500000, 1492750213
0.567626953125, -0.859375000000, 0.044677734375, 187.468750000000, 237.195312500000, 80.585937500000, 1492750213
0.609375000000, -1.033935546875, 0.000976562500, 137.539062500000, 195.859375000000, 120.281250000000, 1492750213
0.609375000000, -1.033935546875, 0.000976562500, 137.539062500000, 195.859375000000, 120.281250000000, 1492750213
0.609375000000, -1.033935546875, 0.000976562500, 137.539062500000, 195.859375000000, 120.281250000000, 1492750213
0.164306640625, -0.851074218750, -0.026611328125, -88.554687500000, 5.687500000000, -36.351562500000, 1492750213
0.164306640625, -0.851074218750, -0.026611328125, -88.554687500000, 5.687500000000, -36.351562500000, 1492750213
0.164306640625, -0.851074218750, -0.026611328125, -88.554687500000, 5.687500000000, -36.351562500000, 1492750213
0.164306640625, -0.851074218750, -0.026611328125, -88.554687500000, 5.687500000000, -36.351562500000, 1492750213
0.218261718750, -0.935546875000, 0.014404296875, -187.703125000000, -166.156250000000, 55.265625000000, 1492750213
0.218261718750, -0.935546875000, 0.014404296875, -187.703125000000, -166.156250000000, 55.265625000000, 1492750213
0.218261718750, -0.935546875000, 0.014404296875, -187.703125000000, -166.156250000000, 55.265625000000, 1492750213
-0.276611328125, -1.297851562500, 0.231933593750, -127.156250000000, -256.000000000000, -129.414062500000, 1492750213
-0.276611328125, -1.297851562500, 0.231933593750, -127.156250000000, -256.000000000000, -129.414062500000, 1492750213
-0.276611328125, -1.297851562500, 0.231933593750, -127.156250000000, -256.000000000000, -129.414062500000, 1492750213
-0.338378906250, -1.027343750000, 0.085937500000, 3.210937500000, -166.250000000000, -53.023437500000, 1492750213
-0.338378906250, -1.027343750000, 0.085937500000, 3.210937500000, -166.250000000000, -53.023437500000, 1492750213
-0.338378906250, -1.027343750000, 0.085937500000, 3.210937500000, -166.250000000000, -53.023437500000, 1492750213
0.131591796875, -1.423828125000, -0.211914062500, -156.281250000000, -30.460937500000, -47.265625000000, 1492750213
0.131591796875, -1.423828125000, -0.211914062500, -156.281250000000, -30.460937500000, -47.265625000000, 1492750213
0.131591796875, -1.423828125000, -0.211914062500, -156.281250000000, -30.460937500000, -47.265625000000, 1492750213
0.131591796875, -1.423828125000, -0.211914062500, -156.281250000000, -30.460937500000, -47.265625000000, 1492750213
0.156494140625, -1.446777343750, 0.138427734375, -256.000000000000, 116.570312500000, -183.437500000000, 1492750213
0.156494140625, -1.446777343750, 0.138427734375, -256.000000000000, 116.570312500000, -183.437500000000, 1492750213
0.156494140625, -1.446777343750, 0.138427734375, -256.000000000000, 116.570312500000, -183.437500000000, 1492750213
0.577392578125, -1.484863281250, 0.145996093750, -220.796875000000, 126.343750000000, 19.164062500000, 1492750213
0.577392578125, -1.484863281250, 0.145996093750, -220.796875000000, 126.343750000000, 19.164062500000, 1492750213
0.577392578125, -1.484863281250, 0.145996093750, -220.796875000000, 126.343750000000, 19.164062500000, 1492750213
1.023681640625, -1.623046875000, 0.057617187500, -50.812500000000, -138.289062500000, -49.632812500000, 1492750213
1.023681640625, -1.623046875000, 0.057617187500, -50.812500000000, -138.289062500000, -49.632812500000, 1492750213
1.023681640625, -1.623046875000, 0.057617187500, -50.812500000000, -138.289062500000, -49.632812500000, 1492750213
0.643798828125, -0.853515625000, 0.068847656250, -256.000000000000, 164.750000000000, 30.468750000000, 1492750213
0.643798828125, -0.853515625000, 0.068847656250, -256.000000000000, 164.750000000000, 30.468750000000, 1492750213
0.878906250000, -0.968261718750, 0.202148437500, 217.468750000000, -256.000000000000, -99.765625000000, 1492750213
0.878906250000, -0.968261718750, 0.202148437500, 217.468750000000, -256.000000000000, -99.765625000000, 1492750213
0.878906250000, -0.968261718750, 0.202148437500, 217.468750000000, -256.000000000000, -99.765625000000, 1492750213
0.878906250000, -0.968261718750, 0.202148437500, 217.468750000000, -256.000000000000, -99.765625000000, 1492750213
0.878906250000, -0.968261718750, 0.202148437500, 217.468750000000, -256.000000000000, -99.765625000000, 1492750213
0.838623046875, -0.900878906250, 0.119384765625, 140.585937500000, -139.343750000000, 29.062500000000, 1492750213
0.838623046875, -0.900878906250, 0.119384765625, 140.585937500000, -139.343750000000, 29.062500000000, 1492750213
0.838623046875, -0.900878906250, 0.119384765625, 140.585937500000, -139.343750000000, 29.062500000000, 1492750213
1.603515625000, 0.032470703125, 2.234619140625, 253.992187500000, -19.000000000000, -53.789062500000, 1492750213
1.603515625000, 0.032470703125, 2.234619140625, 253.992187500000, -19.000000000000, -53.789062500000, 1492750213
1.603515625000, 0.032470703125, 2.234619140625, 253.992187500000, -19.000000000000, -53.789062500000, 1492750213
-0.723144531250, 0.615234375000, -0.267822265625, 91.609375000000, -137.867187500000, 253.992187500000, 1492750213
-0.723144531250, 0.615234375000, -0.267822265625, 91.609375000000, -137.867187500000, 253.992187500000, 1492750213
-0.723144531250, 0.615234375000, -0.267822265625, 91.609375000000, -137.867187500000, 253.992187500000, 1492750213
-0.723144531250, 0.615234375000, -0.267822265625, 91.609375000000, -137.867187500000, 253.992187500000, 1492750213
-0.506835937500, -0.638427734375, 0.877441406250, -140.148437500000, 153.460937500000, -256.000000000000, 1492750213
-0.506835937500, -0.638427734375, 0.877441406250, -140.148437500000, 153.460937500000, -256.000000000000, 1492750213
-0.506835937500, -0.638427734375, 0.877441406250, -140.148437500000, 153.460937500000, -256.000000000000, 1492750213
0.104248046875, -0.846191406250, 1.830566406250, -256.000000000000, -256.000000000000, -208.406250000000, 1492750214
0.104248046875, -0.846191406250, 1.830566406250, -256.000000000000, -256.000000000000, -208.406250000000, 1492750214
0.104248046875, -0.846191406250, 1.830566406250, -256.000000000000, -256.000000000000, -208.406250000000, 1492750214
0.385742187500, -0.285156250000, 2.541992187500, -256.000000000000, -182.828125000000, -176.132812500000, 1492750214
0.385742187500, -0.285156250000, 2.541992187500, -256.000000000000, -182.828125000000, -176.132812500000, 1492750214
0.385742187500, -0.285156250000, 2.541992187500, -256.000000000000, -182.828125000000, -176.132812500000, 1492750214
0.189208984375, 0.587158203125, 1.200927734375, -17.335937500000, -123.437500000000, -128.421875000000, 1492750214
0.189208984375, 0.587158203125, 1.200927734375, -17.335937500000, -123.437500000000, -128.421875000000, 1492750214
0.189208984375, 0.587158203125, 1.200927734375, -17.335937500000, -123.437500000000, -128.421875000000, 1492750214
0.189208984375, 0.587158203125, 1.200927734375, -17.335937500000, -123.437500000000, -128.421875000000, 1492750214
0.044433593750, 0.230468750000, 0.976562500000, -20.851562500000, -165.617187500000, -156.296875000000, 1492750214
0.167968750000, 0.047851562500, 0.820312500000, 77.882812500000, -100.140625000000, -48.984375000000, 1492750214
0.167968750000, 0.047851562500, 0.820312500000, 77.882812500000, -100.140625000000, -48.984375000000, 1492750214
0.167968750000, 0.047851562500, 0.820312500000, 77.882812500000, -100.140625000000, -48.984375000000, 1492750214
0.167968750000, 0.047851562500, 0.820312500000, 77.882812500000, -100.140625000000, -48.984375000000, 1492750214
0.435302734375, 0.223876953125, 0.823974609375, 28.804687500000, -99.507812500000, 64.960937500000, 1492750214
0.435302734375, 0.223876953125, 0.823974609375, 28.804687500000, -99.507812500000, 64.960937500000, 1492750214
0.435302734375, 0.223876953125, 0.823974609375, 28.804687500000, -99.507812500000, 64.960937500000, 1492750214
0.435302734375, 0.223876953125, 0.823974609375, 28.804687500000, -99.507812500000, 64.960937500000, 1492750214
0.104980468750, 0.150634765625, 0.656982421875, 23.953125000000, 9.710937500000, -25.812500000000, 1492750214
0.104980468750, 0.150634765625, 0.656982421875, 23.953125000000, 9.710937500000, -25.812500000000, 1492750214
0.104980468750, 0.150634765625, 0.656982421875, 23.953125000000, 9.710937500000, -25.812500000000, 1492750214
0.104980468750, 0.150634765625, 0.656982421875, 23.953125000000, 9.710937500000, -25.812500000000, 1492750214
-0.055908203125, -0.032226562500, 0.879882812500, -25.859375000000, 12.960937500000, -19.906250000000, 1492750214
-0.055908203125, -0.032226562500, 0.879882812500, -25.859375000000, 12.960937500000, -19.906250000000, 1492750214
-0.055908203125, -0.032226562500, 0.879882812500, -25.859375000000, 12.960937500000, -19.906250000000, 1492750214
0.472900390625, -0.039550781250, 0.943847656250, -22.289062500000, -41.843750000000, -57.289062500000, 1492750214
0.472900390625, -0.039550781250, 0.943847656250, -22.289062500000, -41.843750000000, -57.289062500000, 1492750214
0.472900390625, -0.039550781250, 0.943847656250, -22.289062500000, -41.843750000000, -57.289062500000, 1492750214
0.234130859375, -0.213623046875, 1.237548828125, 45.593750000000, 91.203125000000, 8.054687500000, 1492750214
0.234130859375, -0.213623046875, 1.237548828125, 45.593750000000, 91.203125000000, 8.054687500000, 1492750214
0.234130859375, -0.213623046875, 1.237548828125, 45.593750000000, 91.203125000000, 8.054687500000, 1492750214
-0.325195312500, -0.245361328125, 1.059570312500, -29.718750000000, -37.570312500000, 7.937500000000, 1492750214
-0.325195312500, -0.245361328125, 1.059570312500, -29.718750000000, -37.570312500000, 7.937500000000, 1492750214
-0.325195312500, -0.245361328125, 1.059570312500, -29.718750000000, -37.570312500000, 7.937500000000, 1492750214
-0.325195312500, -0.245361328125, 1.059570312500, -29.718750000000, -37.570312500000, 7.937500000000, 1492750214
0.048339843750, -0.117187500000, 0.818603515625, -18.554687500000, -77.078125000000, -18.500000000000, 1492750214
0.048339843750, -0.117187500000, 0.818603515625, -18.554687500000, -77.078125000000, -18.500000000000, 1492750214
0.048339843750, -0.117187500000, 0.818603515625, -18.554687500000, -77.078125000000, -18.500000000000, 1492750214
0.302246093750, -0.112060546875, 0.920654296875, 9.398437500000, -18.695312500000, -9.375000000000, 1492750214
0.302246093750, -0.112060546875, 0.920654296875, 9.398437500000, -18.695312500000, -9.375000000000, 1492750214
0.302246093750, -0.112060546875, 0.920654296875, 9.398437500000, -18.695312500000, -9.375000000000, 1492750214
0.322753906250, -0.112792968750, 0.916015625000, -4.632812500000, -23.093750000000, 5.570312500000, 1492750214
0.322753906250, -0.112792968750, 0.916015625000, -4.632812500000, -23.093750000000, 5.570312500000, 1492750214
0.322753906250, -0.112792968750, 0.916015625000, -4.632812500000, -23.093750000000, 5.570312500000, 1492750214
0.410156250000, -0.130859375000, 0.919921875000, -10.523437500000, -7.937500000000, -32.304687500000, 1492750214
0.410156250000, -0.130859375000, 0.919921875000, -10.523437500000, -7.937500000000, -32.304687500000, 1492750214
0.410156250000, -0.130859375000, 0.919921875000, -10.523437500000, -7.937500000000, -32.304687500000, 1492750214
0.410156250000, -0.130859375000, 0.919921875000, -10.523437500000, -7.937500000000, -32.304687500000, 1492750214
0.638916015625, -0.101562500000, 1.064453125000, -4.515625000000, 5.835937500000, -15.046875000000, 1492750214
0.638916015625, -0.101562500000, 1.064453125000, -4.515625000000, 5.835937500000, -15.046875000000, 1492750214
0.638916015625, -0.101562500000, 1.064453125000, -4.515625000000, 5.835937500000, -15.046875000000, 1492750214
0.223388671875, -0.166259765625, 1.019287109375, 5.359375000000, 22.835937500000, -8.328125000000, 1492750214
0.223388671875, -0.166259765625, 1.019287109375, 5.359375000000, 22.835937500000, -8.328125000000, 1492750214
0.223388671875, -0.166259765625, 1.019287109375, 5.359375000000, 22.835937500000, -8.328125000000, 1492750214
0.279052734375, -0.278808593750, 0.945556640625, 2.539062500000, 1.851562500000, -8.843750000000, 1492750214
0.279052734375, -0.278808593750, 0.945556640625, 2.539062500000, 1.851562500000, -8.843750000000, 1492750214
0.279052734375, -0.278808593750, 0.945556640625, 2.539062500000, 1.851562500000, -8.843750000000, 1492750214
0.211914062500, -0.218505859375, 1.078125000000, -9.265625000000, 36.867187500000, -1.414062500000, 1492750214
0.211914062500, -0.218505859375, 1.078125000000, -9.265625000000, 36.867187500000, -1.414062500000, 1492750214
0.211914062500, -0.218505859375, 1.078125000000, -9.265625000000, 36.867187500000, -1.414062500000, 1492750214
0.211914062500, -0.218505859375, 1.078125000000, -9.265625000000, 36.867187500000, -1.414062500000, 1492750214
0.125000000000, -0.056640625000, 0.972167968750, -16.757812500000, -4.234375000000, -6.546875000000, 1492750214
0.125000000000, -0.056640625000, 0.972167968750, -16.757812500000, -4.234375000000, -6.546875000000, 1492750214
0.125000000000, -0.056640625000, 0.972167968750, -16.757812500000, -4.234375000000, -6.546875000000, 1492750214
0.239013671875, 0.065185546875, 0.930175781250, -5.367187500000, 1.882812500000, -4.578125000000, 1492750214
0.239013671875, 0.065185546875, 0.930175781250, -5.367187500000, 1.882812500000, -4.578125000000, 1492750214
0.239013671875, 0.065185546875, 0.930175781250, -5.367187500000, 1.882812500000, -4.578125000000, 1492750215
0.236083984375, -0.213867187500, 0.936279296875, -3.156250000000, -6.351562500000, -5.718750000000, 1492750215
0.236083984375, -0.213867187500, 0.936279296875, -3.156250000000, -6.351562500000, -5.718750000000, 1492750215
0.236083984375, -0.213867187500, 0.936279296875, -3.156250000000, -6.351562500000, -5.718750000000, 1492750215
0.255615234375, -0.178955078125, 0.990234375000, -4.484375000000, -5.320312500000, -5.476562500000, 1492750215
0.255615234375, -0.178955078125, 0.990234375000, -4.484375000000, -5.320312500000, -5.476562500000, 1492750215
0.255615234375, -0.178955078125, 0.990234375000, -4.484375000000, -5.320312500000, -5.476562500000, 1492750215
0.255615234375, -0.178955078125, 0.990234375000, -4.484375000000, -5.320312500000, -5.476562500000, 1492750215
0.168457031250, -0.257080078125, 0.969970703125, -4.164062500000, 0.007812500000, -3.921875000000, 1492750215
0.168457031250, -0.257080078125, 0.969970703125, -4.164062500000, 0.007812500000, -3.921875000000, 1492750215
0.168457031250, -0.257080078125, 0.969970703125, -4.164062500000, 0.007812500000, -3.921875000000, 1492750215
0.210205078125, -0.199218750000, 0.999023437500, -3.289062500000, 4.179687500000, -4.148437500000, 1492750215
0.210205078125, -0.199218750000, 0.999023437500, -3.289062500000, 4.179687500000, -4.148437500000, 1492750215
0.210205078125, -0.199218750000, 0.999023437500, -3.289062500000, 4.179687500000, -4.148437500000, 1492750215
0.161132812500, -0.216552734375, 1.080078125000, -5.789062500000, 4.921875000000, -2.500000000000, 1492750215
0.161132812500, -0.216552734375, 1.080078125000, -5.789062500000, 4.921875000000, -2.500000000000, 1492750215
0.161132812500, -0.216552734375, 1.080078125000, -5.789062500000, 4.921875000000, -2.500000000000, 1492750215
0.101074218750, -0.191162109375, 1.014404296875, -3.562500000000, -3.203125000000, -0.101562500000, 1492750215
0.101074218750, -0.191162109375, 1.014404296875, -3.562500000000, -3.203125000000, -0.101562500000, 1492750215
0.101074218750, -0.191162109375, 1.014404296875, -3.562500000000, -3.203125000000, -0.101562500000, 1492750215
0.101074218750, -0.191162109375, 1.014404296875, -3.562500000000, -3.203125000000, -0.101562500000, 1492750215
0.321533203125, -0.061767578125, 0.908447265625, -3.992187500000, -1.132812500000, -2.953125000000, 1492750215
0.321533203125, -0.061767578125, 0.908447265625, -3.992187500000, -1.132812500000, -2.953125000000, 1492750215
0.321533203125, -0.061767578125, 0.908447265625, -3.992187500000, -1.132812500000, -2.953125000000, 1492750215
0.186767578125, -0.191650390625, 0.968994140625, -6.632812500000, -2.796875000000, -2.023437500000, 1492750215
0.186767578125, -0.191650390625, 0.968994140625, -6.632812500000, -2.796875000000, -2.023437500000, 1492750215
0.186767578125, -0.191650390625, 0.968994140625, -6.632812500000, -2.796875000000, -2.023437500000, 1492750215
0.282714843750, -0.036865234375, 1.030029296875, -1.164062500000, 0.070312500000, -1.015625000000, 1492750215
0.282714843750, -0.036865234375, 1.030029296875, -1.164062500000, 0.070312500000, -1.015625000000, 1492750215
0.282714843750, -0.036865234375, 1.030029296875, -1.164062500000, 0.070312500000, -1.015625000000, 1492750215
0.276855468750, -0.114501953125, 0.918701171875, -1.023437500000, 2.179687500000, -7.359375000000, 1492750215
0.276855468750, -0.114501953125, 0.918701171875, -1.023437500000, 2.179687500000, -7.359375000000, 1492750215
0.276855468750, -0.114501953125, 0.918701171875, -1.023437500000, 2.179687500000, -7.359375000000, 1492750215
0.276855468750, -0.114501953125, 0.918701171875, -1.023437500000, 2.179687500000, -7.359375000000, 1492750215
0.158691406250, -0.197753906250, 1.020019531250, -1.031250000000, 1.781250000000, -8.867187500000, 1492750215
0.158691406250, -0.197753906250, 1.020019531250, -1.031250000000, 1.781250000000, -8.867187500000, 1492750215
0.158691406250, -0.197753906250, 1.020019531250, -1.031250000000, 1.781250000000, -8.867187500000, 1492750215
0.259277343750, -0.041748046875, 1.000488281250, -4.031250000000, -0.953125000000, -3.171875000000, 1492750215
0.259277343750, -0.041748046875, 1.000488281250, -4.031250000000, -0.953125000000, -3.171875000000, 1492750215
0.259277343750, -0.041748046875, 1.000488281250, -4.031250000000, -0.953125000000, -3.171875000000, 1492750215
0.265869140625, -0.138916015625, 1.005126953125, -4.156250000000, -2.671875000000, -4.125000000000, 1492750215
0.265869140625, -0.138916015625, 1.005126953125, -4.156250000000, -2.671875000000, -4.125000000000, 1492750215
0.265869140625, -0.138916015625, 1.005126953125, -4.156250000000, -2.671875000000, -4.125000000000, 1492750215
0.168701171875, -0.215332031250, 0.988769531250, -3.429687500000, -0.828125000000, -3.539062500000, 1492750215
0.168701171875, -0.215332031250, 0.988769531250, -3.429687500000, -0.828125000000, -3.539062500000, 1492750215
0.168701171875, -0.215332031250, 0.988769531250, -3.429687500000, -0.828125000000, -3.539062500000, 1492750215
0.168701171875, -0.215332031250, 0.988769531250, -3.429687500000, -0.828125000000, -3.539062500000, 1492750215
0.335449218750, -0.218505859375, 1.041503906250, -4.671875000000, 0.804687500000, -1.656250000000, 1492750215
0.335449218750, -0.218505859375, 1.041503906250, -4.671875000000, 0.804687500000, -1.656250000000, 1492750215
0.335449218750, -0.218505859375, 1.041503906250, -4.671875000000, 0.804687500000, -1.656250000000, 1492750215
0.253417968750, -0.129638671875, 1.086181640625, -4.890625000000, 2.164062500000, -2.281250000000, 1492750215
0.253417968750, -0.129638671875, 1.086181640625, -4.890625000000, 2.164062500000, -2.281250000000, 1492750215
0.253417968750, -0.129638671875, 1.086181640625, -4.890625000000, 2.164062500000, -2.281250000000, 1492750215
0.231445312500, -0.102294921875, 0.935058593750, -3.273437500000, -0.070312500000, -1.593750000000, 1492750215
0.231445312500, -0.102294921875, 0.935058593750, -3.273437500000, -0.070312500000, -1.593750000000, 1492750215
0.231445312500, -0.102294921875, 0.935058593750, -3.273437500000, -0.070312500000, -1.593750000000, 1492750215
0.299804687500, -0.158203125000, 1.009033203125, -4.195312500000, -0.820312500000, -1.398437500000, 1492750215
0.241210937500, -0.201171875000, 1.020751953125, -1.539062500000, -4.625000000000, -4.921875000000, 1492750215
0.241210937500, -0.201171875000, 1.020751953125, -1.539062500000, -4.625000000000, -4.921875000000, 1492750215
0.241210937500, -0.201171875000, 1.020751953125, -1.539062500000, -4.625000000000, -4.921875000000, 1492750215
0.236816406250, -0.204345703125, 0.908935546875, -2.992187500000, 2.531250000000, -3.781250000000, 1492750215
0.236816406250, -0.204345703125, 0.908935546875, -2.992187500000, 2.531250000000, -3.781250000000, 1492750215
0.236816406250, -0.204345703125, 0.908935546875, -2.992187500000, 2.531250000000, -3.781250000000, 1492750215
0.254150390625, 0.017822265625, 1.003906250000, -1.125000000000, -2.312500000000, -1.562500000000, 1492750216
0.226806640625, -0.157226562500, 1.076416015625, -6.328125000000, 1.273437500000, -4.195312500000, 1492750216
0.226806640625, -0.157226562500, 1.076416015625, -6.328125000000, 1.273437500000, -4.195312500000, 1492750216
0.226806640625, -0.157226562500, 1.076416015625, -6.328125000000, 1.273437500000, -4.195312500000, 1492750216
0.323242187500, -0.153076171875, 0.997802734375, -1.960937500000, -2.101562500000, -3.632812500000, 1492750216
0.323242187500, -0.153076171875, 0.997802734375, -1.960937500000, -2.101562500000, -3.632812500000, 1492750216
0.323242187500, -0.153076171875, 0.997802734375, -1.960937500000, -2.101562500000, -3.632812500000, 1492750216
0.323242187500, -0.153076171875, 0.997802734375, -1.960937500000, -2.101562500000, -3.632812500000, 1492750216
0.323242187500, -0.153076171875, 0.997802734375, -1.960937500000, -2.101562500000, -3.632812500000, 1492750216
0.328369140625, -0.117919921875, 1.009033203125, -1.007812500000, 2.453125000000, -3.195312500000, 1492750216
0.328369140625, -0.117919921875, 1.009033203125, -1.007812500000, 2.453125000000, -3.195312500000, 1492750216
0.328369140625, -0.117919921875, 1.009033203125, -1.007812500000, 2.453125000000, -3.195312500000, 1492750216
0.328369140625, -0.117919921875, 1.009033203125, -1.007812500000, 2.453125000000, -3.195312500000, 1492750216
0.271240234375, -0.115234375000, 0.962402343750, -3.679687500000, -0.585937500000, -6.382812500000, 1492750216
0.271240234375, -0.115234375000, 0.962402343750, -3.679687500000, -0.585937500000, -6.382812500000, 1492750216
0.271240234375, -0.115234375000, 0.962402343750, -3.679687500000, -0.585937500000, -6.382812500000, 1492750216
0.224365234375, -0.145996093750, 1.010009765625, -6.312500000000, -2.023437500000, -5.546875000000, 1492750216
0.224365234375, -0.145996093750, 1.010009765625, -6.312500000000, -2.023437500000, -5.546875000000, 1492750216
0.224365234375, -0.145996093750, 1.010009765625, -6.312500000000, -2.023437500000, -5.546875000000, 1492750216
0.225585937500, -0.132080078125, 0.974121093750, -4.625000000000, -0.648437500000, -1.765625000000, 1492750216
0.225585937500, -0.132080078125, 0.974121093750, -4.625000000000, -0.648437500000, -1.765625000000, 1492750216
0.225585937500, -0.132080078125, 0.974121093750, -4.625000000000, -0.648437500000, -1.765625000000, 1492750216
0.225585937500, -0.132080078125, 0.974121093750, -4.625000000000, -0.648437500000, -1.765625000000, 1492750216
0.224365234375, -0.202148437500, 1.050537109375, -4.937500000000, -0.070312500000, -3.046875000000, 1492750216
0.224365234375, -0.202148437500, 1.050537109375, -4.937500000000, -0.070312500000, -3.046875000000, 1492750216
0.224365234375, -0.202148437500, 1.050537109375, -4.937500000000, -0.070312500000, -3.046875000000, 1492750216
0.270996093750, -0.126708984375, 0.874511718750, -4.476562500000, 0.992187500000, -3.804687500000, 1492750216
0.270996093750, -0.126708984375, 0.874511718750, -4.476562500000, 0.992187500000, -3.804687500000, 1492750216
0.270996093750, -0.126708984375, 0.874511718750, -4.476562500000, 0.992187500000, -3.804687500000, 1492750216
0.178955078125, -0.145263671875, 0.931884765625, -3.343750000000, -0.656250000000, -3.164062500000, 1492750216
0.178955078125, -0.145263671875, 0.931884765625, -3.343750000000, -0.656250000000, -3.164062500000, 1492750216
0.178955078125, -0.145263671875, 0.931884765625, -3.343750000000, -0.656250000000, -3.164062500000, 1492750216
0.276367187500, -0.121337890625, 0.916748046875, -3.203125000000, -2.007812500000, -4.375000000000, 1492750216
0.276367187500, -0.121337890625, 0.916748046875, -3.203125000000, -2.007812500000, -4.375000000000, 1492750216
0.276367187500, -0.121337890625, 0.916748046875, -3.203125000000, -2.007812500000, -4.375000000000, 1492750216
0.281005859375, -0.207519531250, 1.083251953125, -2.265625000000, 0.687500000000, -3.617187500000, 1492750216
0.281005859375, -0.207519531250, 1.083251953125, -2.265625000000, 0.687500000000, -3.617187500000, 1492750216
0.281005859375, -0.207519531250, 1.083251953125, -2.265625000000, 0.687500000000, -3.617187500000, 1492750216
0.341552734375, 0.013183593750, 0.991943359375, -1.179687500000, -8.109375000000, -6.031250000000, 1492750216
0.395751953125, -0.188720703125, 1.021240234375, -3.742187500000, 0.242187500000, -3.140625000000, 1492750216
0.395751953125, -0.188720703125, 1.021240234375, -3.742187500000, 0.242187500000, -3.140625000000, 1492750216
0.395751953125, -0.188720703125, 1.021240234375, -3.742187500000, 0.242187500000, -3.140625000000, 1492750216
0.178222656250, -0.199462890625, 1.006103515625, -6.421875000000, -2.046875000000, -1.570312500000, 1492750216
0.178222656250, -0.199462890625, 1.006103515625, -6.421875000000, -2.046875000000, -1.570312500000, 1492750216
0.178222656250, -0.199462890625, 1.006103515625, -6.421875000000, -2.046875000000, -1.570312500000, 1492750216
0.274658203125, -0.203857421875, 1.072265625000, -3.148437500000, 1.070312500000, -3.078125000000, 1492750216
0.274658203125, -0.203857421875, 1.072265625000, -3.148437500000, 1.070312500000, -3.078125000000, 1492750216
0.274658203125, -0.203857421875, 1.072265625000, -3.148437500000, 1.070312500000, -3.078125000000, 1492750216
0.274658203125, -0.203857421875, 1.072265625000, -3.148437500000, 1.070312500000, -3.078125000000, 1492750216
0.275146484375, -0.116455078125, 1.020507812500, -6.070312500000, 0.796875000000, -1.984375000000, 1492750216
0.275146484375, -0.116455078125, 1.020507812500, -6.070312500000, 0.796875000000, -1.984375000000, 1492750216
0.275146484375, -0.116455078125, 1.020507812500, -6.070312500000, 0.796875000000, -1.984375000000, 1492750216
0.255859375000, -0.191650390625, 1.011230468750, -1.484375000000, 2.781250000000, -1.835937500000, 1492750216
0.255859375000, -0.191650390625, 1.011230468750, -1.484375000000, 2.781250000000, -1.835937500000, 1492750216
0.255859375000, -0.191650390625, 1.011230468750, -1.484375000000, 2.781250000000, -1.835937500000, 1492750216
0.327392578125, -0.211425781250, 0.988037109375, -3.039062500000, -2.382812500000, -1.703125000000, 1492750216
0.327392578125, -0.211425781250, 0.988037109375, -3.039062500000, -2.382812500000, -1.703125000000, 1492750216
0.327392578125, -0.211425781250, 0.988037109375, -3.039062500000, -2.382812500000, -1.703125000000, 1492750216
0.174316406250, -0.188720703125, 1.030029296875, -4.492187500000, 2.023437500000, -5.078125000000, 1492750216
0.174316406250, -0.188720703125, 1.030029296875, -4.492187500000, 2.023437500000, -5.078125000000, 1492750216
0.174316406250, -0.188720703125, 1.030029296875, -4.492187500000, 2.023437500000, -5.078125000000, 1492750216
0.174316406250, -0.188720703125, 1.030029296875, -4.492187500000, 2.023437500000, -5.078125000000, 1492750216
0.296386718750, -0.238037109375, 1.016357421875, -6.398437500000, 1.140625000000, -2.296875000000, 1492750216
0.296386718750, -0.238037109375, 1.016357421875, -6.398437500000, 1.140625000000, -2.296875000000, 1492750216
0.296386718750, -0.238037109375, 1.016357421875, -6.398437500000, 1.140625000000, -2.296875000000, 1492750216
0.281005859375, -0.217773437500, 0.975341796875, -3.820312500000, -0.476562500000, -3.039062500000, 1492750216
0.281005859375, -0.217773437500, 0.975341796875, -3.820312500000, -0.476562500000, -3.039062500000, 1492750216
0.281005859375, -0.217773437500, 0.975341796875, -3.820312500000, -0.476562500000, -3.039062500000, 1492750216
0.179931640625, -0.054687500000, 1.076904296875, -3.062500000000, -0.703125000000, -1.187500000000, 1492750216
0.179931640625, -0.054687500000, 1.076904296875, -3.062500000000, -0.703125000000, -1.187500000000, 1492750216
0.179931640625, -0.054687500000, 1.076904296875, -3.062500000000, -0.703125000000, -1.187500000000, 1492750217
0.280029296875, -0.101074218750, 1.010742187500, -4.476562500000, 0.648437500000, -3.007812500000, 1492750217
0.280029296875, -0.101074218750, 1.010742187500, -4.476562500000, 0.648437500000, -3.007812500000, 1492750217
0.280029296875, -0.101074218750, 1.010742187500, -4.476562500000, 0.648437500000, -3.007812500000, 1492750217
0.280029296875, -0.101074218750, 1.010742187500, -4.476562500000, 0.648437500000, -3.007812500000, 1492750217
0.169921875000, -0.119873046875, 0.992675781250, -6.257812500000, -0.710937500000, -4.695312500000, 1492750217
0.169921875000, -0.119873046875, 0.992675781250, -6.257812500000, -0.710937500000, -4.695312500000, 1492750217
0.169921875000, -0.119873046875, 0.992675781250, -6.257812500000, -0.710937500000, -4.695312500000, 1492750217
0.237060546875, -0.262451171875, 1.020507812500, -3.429687500000, 1.140625000000, -1.570312500000, 1492750217
0.237060546875, -0.262451171875, 1.020507812500, -3.429687500000, 1.140625000000, -1.570312500000, 1492750217
0.237060546875, -0.262451171875, 1.020507812500, -3.429687500000, 1.140625000000, -1.570312500000, 1492750217
0.199218750000, -0.178466796875, 1.023437500000, -4.539062500000, -3.640625000000, -1.843750000000, 1492750217
0.199218750000, -0.178466796875, 1.023437500000, -4.539062500000, -3.640625000000, -1.843750000000, 1492750217
0.199218750000, -0.178466796875, 1.023437500000, -4.539062500000, -3.640625000000, -1.843750000000, 1492750217
0.168701171875, -0.193603515625, 0.986328125000, -2.351562500000, 6.007812500000, -1.507812500000, 1492750217
0.168701171875, -0.193603515625, 0.986328125000, -2.351562500000, 6.007812500000, -1.507812500000, 1492750217
0.168701171875, -0.193603515625, 0.986328125000, -2.351562500000, 6.007812500000, -1.507812500000, 1492750217
0.168701171875, -0.193603515625, 0.986328125000, -2.351562500000, 6.007812500000, -1.507812500000, 1492750217
0.269042968750, -0.044921875000, 0.977294921875, -4.898437500000, -1.734375000000, -1.492187500000, 1492750217
0.269042968750, -0.044921875000, 0.977294921875, -4.898437500000, -1.734375000000, -1.492187500000, 1492750217
0.269042968750, -0.044921875000, 0.977294921875, -4.898437500000, -1.734375000000, -1.492187500000, 1492750217
0.278564453125, -0.153320312500, 0.977783203125, -4.226562500000, -0.648437500000, -1.453125000000, 1492750217
0.342773437500, -0.129394531250, 0.986816406250, -4.828125000000, 0.382812500000, -3.523437500000, 1492750217
0.342773437500, -0.129394531250, 0.986816406250, -4.828125000000, 0.382812500000, -3.523437500000, 1492750217
0.342773437500, -0.129394531250, 0.986816406250, -4.828125000000, 0.382812500000, -3.523437500000, 1492750217
0.226806640625, -0.105468750000, 1.023193359375, -4.093750000000, 2.843750000000, -4.945312500000, 1492750217
0.249023437500, -0.158203125000, 1.011962890625, -3.570312500000, -2.867187500000, -1.734375000000, 1492750217
0.249023437500, -0.158203125000, 1.011962890625, -3.570312500000, -2.867187500000, -1.734375000000, 1492750217
0.249023437500, -0.158203125000, 1.011962890625, -3.570312500000, -2.867187500000, -1.734375000000, 1492750217
0.249023437500, -0.158203125000, 1.011962890625, -3.570312500000, -2.867187500000, -1.734375000000, 1492750217
0.249023437500, -0.158203125000, 1.011962890625, -3.570312500000, -2.867187500000, -1.734375000000, 1492750217
0.115234375000, -0.120117187500, 1.021972656250, -3.015625000000, -0.656250000000, 0.015625000000, 1492750217
0.115234375000, -0.120117187500, 1.021972656250, -3.015625000000, -0.656250000000, 0.015625000000, 1492750217
0.115234375000, -0.120117187500, 1.021972656250, -3.015625000000, -0.656250000000, 0.015625000000, 1492750217
0.208251953125, -0.196777343750, 0.974365234375, -4.117187500000, 0.437500000000, -2.898437500000, 1492750217
0.208251953125, -0.196777343750, 0.974365234375, -4.117187500000, 0.437500000000, -2.898437500000, 1492750217
0.208251953125, -0.196777343750, 0.974365234375, -4.117187500000, 0.437500000000, -2.898437500000, 1492750217
0.313476562500, -0.114990234375, 0.941894531250, -4.804687500000, -0.507812500000, -4.382812500000, 1492750217
0.313476562500, -0.114990234375, 0.941894531250, -4.804687500000, -0.507812500000, -4.382812500000, 1492750217
0.313476562500, -0.114990234375, 0.941894531250, -4.804687500000, -0.507812500000, -4.382812500000, 1492750217
0.230712890625, -0.145751953125, 0.974121093750, -4.195312500000, -0.968750000000, -4.093750000000, 1492750217
0.230712890625, -0.145751953125, 0.974121093750, -4.195312500000, -0.968750000000, -4.093750000000, 1492750217
0.230712890625, -0.145751953125, 0.974121093750, -4.195312500000, -0.968750000000, -4.093750000000, 1492750217
0.230712890625, -0.145751953125, 0.974121093750, -4.195312500000, -0.968750000000, -4.093750000000, 1492750217
0.186523437500, -0.100341796875, 1.008056640625, -1.507812500000, 2.281250000000, -2.140625000000, 1492750217
0.186523437500, -0.100341796875, 1.008056640625, -1.507812500000, 2.281250000000, -2.140625000000, 1492750217
0.186523437500, -0.100341796875, 1.008056640625, -1.507812500000, 2.281250000000, -2.140625000000, 1492750217
0.187011718750, -0.144042968750, 0.993896484375, -3.117187500000, -0.062500000000, 0.140625000000, 1492750217
0.187011718750, -0.144042968750, 0.993896484375, -3.117187500000, -0.062500000000, 0.140625000000, 1492750217
0.187011718750, -0.144042968750, 0.993896484375, -3.117187500000, -0.062500000000, 0.140625000000, 1492750217
0.174316406250, -0.032714843750, 1.063964843750, -4.351562500000, 0.437500000000, -2.867187500000, 1492750217
0.189697265625, -0.175781250000, 1.079345703125, -2.804687500000, -4.421875000000, -6.351562500000, 1492750217
0.189697265625, -0.175781250000, 1.079345703125, -2.804687500000, -4.421875000000, -6.351562500000, 1492750217
0.189697265625, -0.175781250000, 1.079345703125, -2.804687500000, -4.421875000000, -6.351562500000, 1492750217
0.189697265625, -0.175781250000, 1.079345703125, -2.804687500000, -4.421875000000, -6.351562500000, 1492750217
0.189697265625, -0.175781250000, 1.079345703125, -2.804687500000, -4.421875000000, -6.351562500000, 1492750217
0.189697265625, -0.175781250000, 1.079345703125, -2.804687500000, -4.421875000000, -6.351562500000, 1492750217
0.237792968750, -0.208984375000, 0.929199218750, -4.296875000000, 4.359375000000, -6.429687500000, 1492750217
0.237792968750, -0.208984375000, 0.929199218750, -4.296875000000, 4.359375000000, -6.429687500000, 1492750217
0.237792968750, -0.208984375000, 0.929199218750, -4.296875000000, 4.359375000000, -6.429687500000, 1492750217
0.161376953125, -0.132324218750, 1.081298828125, -5.117187500000, -2.734375000000, -6.632812500000, 1492750217
0.161376953125, -0.132324218750, 1.081298828125, -5.117187500000, -2.734375000000, -6.632812500000, 1492750217
0.161376953125, -0.132324218750, 1.081298828125, -5.117187500000, -2.734375000000, -6.632812500000, 1492750217
0.219482421875, -0.184326171875, 1.040771484375, -3.867187500000, 1.960937500000, -5.093750000000, 1492750217
0.219482421875, -0.184326171875, 1.040771484375, -3.867187500000, 1.960937500000, -5.093750000000, 1492750217
0.219482421875, -0.184326171875, 1.040771484375, -3.867187500000, 1.960937500000, -5.093750000000, 1492750217
0.273193359375, -0.128906250000, 1.090576171875, -1.242187500000, -1.429687500000, -4.406250000000, 1492750218
0.273193359375, -0.128906250000, 1.090576171875, -1.242187500000, -1.429687500000, -4.406250000000, 1492750218
0.273193359375, -0.128906250000, 1.090576171875, -1.242187500000, -1.429687500000, -4.406250000000, 1492750218
0.273193359375, -0.128906250000, 1.090576171875, -1.242187500000, -1.429687500000, -4.406250000000, 1492750218
0.203857421875, -0.200439453125, 1.022705078125, -1.750000000000, 0.679687500000, -3.351562500000, 1492750218
0.203857421875, -0.200439453125, 1.022705078125, -1.750000000000, 0.679687500000, -3.351562500000, 1492750218
0.203857421875, -0.200439453125, 1.022705078125, -1.750000000000, 0.679687500000, -3.351562500000, 1492750218
0.247314453125, -0.058349609375, 1.089355468750, -3.843750000000, -0.867187500000, -3.625000000000, 1492750218
0.247314453125, -0.058349609375, 1.089355468750, -3.843750000000, -0.867187500000, -3.625000000000, 1492750218
0.247314453125, -0.058349609375, 1.089355468750, -3.843750000000, -0.867187500000, -3.625000000000, 1492750218
0.281494140625, -0.112304687500, 0.969970703125, -4.421875000000, 0.468750000000, -1.445312500000, 1492750218
0.281494140625, -0.112304687500, 0.969970703125, -4.421875000000, 0.468750000000, -1.445312500000, 1492750218
0.281494140625, -0.112304687500, 0.969970703125, -4.421875000000, 0.468750000000, -1.445312500000, 1492750218
0.192871093750, -0.093750000000, 1.073974609375, -4.710937500000, 0.750000000000, -3.078125000000, 1492750218
0.192871093750, -0.093750000000, 1.073974609375, -4.710937500000, 0.750000000000, -3.078125000000, 1492750218
0.192871093750, -0.093750000000, 1.073974609375, -4.710937500000, 0.750000000000, -3.078125000000, 1492750218
0.192871093750, -0.093750000000, 1.073974609375, -4.710937500000, 0.750000000000, -3.078125000000, 1492750218
0.260742187500, -0.131835937500, 1.023193359375, -4.031250000000, -0.757812500000, -4.148437500000, 1492750218
0.260742187500, -0.131835937500, 1.023193359375, -4.031250000000, -0.757812500000, -4.148437500000, 1492750218
0.260742187500, -0.131835937500, 1.023193359375, -4.031250000000, -0.757812500000, -4.148437500000, 1492750218
0.378662109375, -0.202392578125, 0.969238281250, -3.445312500000, 0.898437500000, -4.468750000000, 1492750218
0.378662109375, -0.202392578125, 0.969238281250, -3.445312500000, 0.898437500000, -4.468750000000, 1492750218
0.378662109375, -0.202392578125, 0.969238281250, -3.445312500000, 0.898437500000, -4.468750000000, 1492750218
0.240966796875, -0.194824218750, 1.030761718750, -1.875000000000, 0.890625000000, -1.562500000000, 1492750218
0.240966796875, -0.194824218750, 1.030761718750, -1.875000000000, 0.890625000000, -1.562500000000, 1492750218
0.240966796875, -0.194824218750, 1.030761718750, -1.875000000000, 0.890625000000, -1.562500000000, 1492750218
0.324218750000, -0.120361328125, 0.949707031250, -3.367187500000, 1.218750000000, -4.781250000000, 1492750218
0.324218750000, -0.120361328125, 0.949707031250, -3.367187500000, 1.218750000000, -4.781250000000, 1492750218
0.324218750000, -0.120361328125, 0.949707031250, -3.367187500000, 1.218750000000, -4.781250000000, 1492750218
0.324218750000, -0.120361328125, 0.949707031250, -3.367187500000, 1.218750000000, -4.781250000000, 1492750218
0.228515625000, -0.170654296875, 0.959960937500, -4.304687500000, -0.351562500000, -4.093750000000, 1492750218
0.228515625000, -0.170654296875, 0.959960937500, -4.304687500000, -0.351562500000, -4.093750000000, 1492750218
0.228515625000, -0.170654296875, 0.959960937500, -4.304687500000, -0.351562500000, -4.093750000000, 1492750218
0.228515625000, -0.170654296875, 0.959960937500, -4.304687500000, -0.351562500000, -4.093750000000, 1492750218
0.228515625000, -0.170654296875, 0.959960937500, -4.304687500000, -0.351562500000, -4.093750000000, 1492750218
0.228515625000, -0.170654296875, 0.959960937500, -4.304687500000, -0.351562500000, -4.093750000000, 1492750218
0.230468750000, -0.053222656250, 0.978271484375, -5.351562500000, -1.117187500000, -1.304687500000, 1492750218
0.230468750000, -0.053222656250, 0.978271484375, -5.351562500000, -1.117187500000, -1.304687500000, 1492750218
0.230468750000, -0.053222656250, 0.978271484375, -5.351562500000, -1.117187500000, -1.304687500000, 1492750218
0.261718750000, -0.184570312500, 1.027343750000, -3.304687500000, 3.632812500000, -2.382812500000, 1492750218
0.261718750000, -0.184570312500, 1.027343750000, -3.304687500000, 3.632812500000, -2.382812500000, 1492750218
0.261718750000, -0.184570312500, 1.027343750000, -3.304687500000, 3.632812500000, -2.382812500000, 1492750218
0.261718750000, -0.184570312500, 1.027343750000, -3.304687500000, 3.632812500000, -2.382812500000, 1492750218
0.277099609375, -0.161865234375, 1.092041015625, -3.515625000000, 0.867187500000, -2.500000000000, 1492750218
0.277099609375, -0.161865234375, 1.092041015625, -3.515625000000, 0.867187500000, -2.500000000000, 1492750218
0.277099609375, -0.161865234375, 1.092041015625, -3.515625000000, 0.867187500000, -2.500000000000, 1492750218
0.186035156250, -0.062011718750, 1.058105468750, -4.648437500000, -0.328125000000, -4.492187500000, 1492750218
0.186035156250, -0.062011718750, 1.058105468750, -4.648437500000, -0.328125000000, -4.492187500000, 1492750218
0.186035156250, -0.062011718750, 1.058105468750, -4.648437500000, -0.328125000000, -4.492187500000, 1492750218
0.331542968750, -0.156250000000, 1.078125000000, -3.734375000000, -0.914062500000, -3.164062500000, 1492750218
0.331542968750, -0.156250000000, 1.078125000000, -3.734375000000, -0.914062500000, -3.164062500000, 1492750218
0.331542968750, -0.156250000000, 1.078125000000, -3.734375000000, -0.914062500000, -3.164062500000, 1492750218
0.184570312500, -0.043701171875, 1.019775390625, -3.734375000000, 0.648437500000, 0.062500000000, 1492750218
0.184570312500, -0.043701171875, 1.019775390625, -3.734375000000, 0.648437500000, 0.062500000000, 1492750218
0.233886718750, -0.095947265625, 1.085937500000, -6.375000000000, 0.796875000000, -3.453125000000, 1492750218
0.233886718750, -0.095947265625, 1.085937500000, -6.375000000000, 0.796875000000, -3.453125000000, 1492750218
0.233886718750, -0.095947265625, 1.085937500000, -6.375000000000, 0.796875000000, -3.453125000000, 1492750218
0.233886718750, -0.095947265625, 1.085937500000, -6.375000000000, 0.796875000000, -3.453125000000, 1492750218
0.334716796875, -0.203369140625, 1.008544921875, -3.078125000000, 2.062500000000, -6.921875000000, 1492750218
0.172851562500, -0.042724609375, 1.081054687500, -4.109375000000, 2.265625000000, -5.828125000000, 1492750218
0.172851562500, -0.042724609375, 1.081054687500, -4.109375000000, 2.265625000000, -5.828125000000, 1492750218
0.172851562500, -0.042724609375, 1.081054687500, -4.109375000000, 2.265625000000, -5.828125000000, 1492750218
0.387695312500, -0.217773437500, 1.029296875000, -3.031250000000, 0.007812500000, -1.156250000000, 1492750218
0.387695312500, -0.217773437500, 1.029296875000, -3.031250000000, 0.007812500000, -1.156250000000, 1492750218
0.387695312500, -0.217773437500, 1.029296875000, -3.031250000000, 0.007812500000, -1.156250000000, 1492750218
0.282958984375, -0.205322265625, 1.029785156250, -3.078125000000, 2.125000000000, -6.929687500000, 1492750218
0.282958984375, -0.205322265625, 1.029785156250, -3.078125000000, 2.125000000000, -6.929687500000, 1492750218
0.282958984375, -0.205322265625, 1.029785156250, -3.078125000000, 2.125000000000, -6.929687500000, 1492750219
0.282958984375, -0.205322265625, 1.029785156250, -3.078125000000, 2.125000000000, -6.929687500000, 1492750219
0.177978515625, -0.097167968750, 0.935058593750, -4.359375000000, 2.414062500000, -1.531250000000, 1492750219
0.177978515625, -0.097167968750, 0.935058593750, -4.359375000000, 2.414062500000, -1.531250000000, 1492750219
0.177978515625, -0.097167968750, 0.935058593750, -4.359375000000, 2.414062500000, -1.531250000000, 1492750219
0.313720703125, -0.156250000000, 0.937500000000, -1.562500000000, -3.851562500000, -4.367187500000, 1492750219
0.313720703125, -0.156250000000, 0.937500000000, -1.562500000000, -3.851562500000, -4.367187500000, 1492750219
0.313720703125, -0.156250000000, 0.937500000000, -1.562500000000, -3.851562500000, -4.367187500000, 1492750219
0.287841796875, -0.099853515625, 1.025146484375, -4.218750000000, 4.390625000000, -4.289062500000, 1492750219
0.287841796875, -0.099853515625, 1.025146484375, -4.218750000000, 4.390625000000, -4.289062500000, 1492750219
0.287841796875, -0.099853515625, 1.025146484375, -4.218750000000, 4.390625000000, -4.289062500000, 1492750219
0.323242187500, -0.162353515625, 0.961425781250, -4.921875000000, -4.320312500000, -2.531250000000, 1492750219
0.323242187500, -0.162353515625, 0.961425781250, -4.921875000000, -4.320312500000, -2.531250000000, 1492750219
0.323242187500, -0.162353515625, 0.961425781250, -4.921875000000, -4.320312500000, -2.531250000000, 1492750219
0.323242187500, -0.162353515625, 0.961425781250, -4.921875000000, -4.320312500000, -2.531250000000, 1492750219
0.333984375000, -0.057861328125, 1.061767578125, -3.468750000000, 3.500000000000, -3.570312500000, 1492750219
0.333984375000, -0.057861328125, 1.061767578125, -3.468750000000, 3.500000000000, -3.570312500000, 1492750219
0.333984375000, -0.057861328125, 1.061767578125, -3.468750000000, 3.500000000000, -3.570312500000, 1492750219
0.223144531250, -0.105468750000, 1.044677734375, -3.132812500000, -2.046875000000, -3.421875000000, 1492750219
0.223144531250, -0.105468750000, 1.044677734375, -3.132812500000, -2.046875000000, -3.421875000000, 1492750219
0.223144531250, -0.105468750000, 1.044677734375, -3.132812500000, -2.046875000000, -3.421875000000, 1492750219
0.233154296875, -0.055419921875, 0.924316406250, -4.453125000000, 0.343750000000, -3.140625000000, 1492750219
0.233154296875, -0.055419921875, 0.924316406250, -4.453125000000, 0.343750000000, -3.140625000000, 1492750219
0.233154296875, -0.055419921875, 0.924316406250, -4.453125000000, 0.343750000000, -3.140625000000, 1492750219
0.181640625000, -0.095947265625, 1.013671875000, -6.195312500000, -0.921875000000, -1.890625000000, 1492750219
0.181640625000, -0.095947265625, 1.013671875000, -6.195312500000, -0.921875000000, -1.890625000000, 1492750219
0.181640625000, -0.095947265625, 1.013671875000, -6.195312500000, -0.921875000000, -1.890625000000, 1492750219
0.181640625000, -0.095947265625, 1.013671875000, -6.195312500000, -0.921875000000, -1.890625000000, 1492750219
0.195312500000, -0.093994140625, 1.079345703125, -4.031250000000, -0.257812500000, -3.242187500000, 1492750219
0.195312500000, -0.093994140625, 1.079345703125, -4.031250000000, -0.257812500000, -3.242187500000, 1492750219
0.195312500000, -0.093994140625, 1.079345703125, -4.031250000000, -0.257812500000, -3.242187500000, 1492750219
0.224609375000, -0.141601562500, 0.971923828125, -3.156250000000, 1.468750000000, -4.367187500000, 1492750219
0.268310546875, -0.107910156250, 0.977539062500, -4.757812500000, -0.664062500000, -1.218750000000, 1492750219
0.268310546875, -0.107910156250, 0.977539062500, -4.757812500000, -0.664062500000, -1.218750000000, 1492750219
0.268310546875, -0.107910156250, 0.977539062500, -4.757812500000, -0.664062500000, -1.218750000000, 1492750219
0.245361328125, 0.023681640625, 1.010986328125, -1.703125000000, 0.695312500000, 0.421875000000, 1492750219
0.245361328125, 0.023681640625, 1.010986328125, -1.703125000000, 0.695312500000, 0.421875000000, 1492750219
0.245361328125, 0.023681640625, 1.010986328125, -1.703125000000, 0.695312500000, 0.421875000000, 1492750219
0.245361328125, 0.023681640625, 1.010986328125, -1.703125000000, 0.695312500000, 0.421875000000, 1492750219
0.245361328125, 0.023681640625, 1.010986328125, -1.703125000000, 0.695312500000, 0.421875000000, 1492750219
0.245361328125, 0.023681640625, 1.010986328125, -1.703125000000, 0.695312500000, 0.421875000000, 1492750219
0.222412109375, -0.133056640625, 0.908935546875, -4.976562500000, 0.523437500000, -4.046875000000, 1492750219
0.222412109375, -0.133056640625, 0.908935546875, -4.976562500000, 0.523437500000, -4.046875000000, 1492750219
0.222412109375, -0.133056640625, 0.908935546875, -4.976562500000, 0.523437500000, -4.046875000000, 1492750219
0.199462890625, -0.195556640625, 0.932128906250, -2.281250000000, 2.351562500000, -4.406250000000, 1492750219
0.199462890625, -0.195556640625, 0.932128906250, -2.281250000000, 2.351562500000, -4.406250000000, 1492750219
0.199462890625, -0.195556640625, 0.932128906250, -2.281250000000, 2.351562500000, -4.406250000000, 1492750219
0.245849609375, -0.088623046875, 0.973388671875, -1.757812500000, -3.382812500000, -6.328125000000, 1492750219
0.245849609375, -0.088623046875, 0.973388671875, -1.757812500000, -3.382812500000, -6.328125000000, 1492750219
0.245849609375, -0.088623046875, 0.973388671875, -1.757812500000, -3.382812500000, -6.328125000000, 1492750219
0.217041015625, -0.047363281250, 0.973876953125, -4.468750000000, 1.960937500000, -3.312500000000, 1492750219
0.217041015625, -0.047363281250, 0.973876953125, -4.468750000000, 1.960937500000, -3.312500000000, 1492750219
0.217041015625, -0.047363281250, 0.973876953125, -4.468750000000, 1.960937500000, -3.312500000000, 1492750219
0.217041015625, -0.047363281250, 0.973876953125, -4.468750000000, 1.960937500000, -3.312500000000, 1492750219
0.248779296875, -0.154541015625, 1.012939453125, -4.101562500000, -1.796875000000, -2.921875000000, 1492750219
0.248779296875, -0.154541015625, 1.012939453125, -4.101562500000, -1.796875000000, -2.921875000000, 1492750219
0.248779296875, -0.154541015625, 1.012939453125, -4.101562500000, -1.796875000000, -2.921875000000, 1492750219
0.219238281250, -0.129394531250, 1.073242187500, -4.867187500000, 1.359375000000, -3.101562500000, 1492750219
0.219238281250, -0.129394531250, 1.073242187500, -4.867187500000, 1.359375000000, -3.101562500000, 1492750219
0.219238281250, -0.129394531250, 1.073242187500, -4.867187500000, 1.359375000000, -3.101562500000, 1492750219
0.315185546875, -0.132812500000, 1.001220703125, -6.054687500000, 2.070312500000, -3.257812500000, 1492750219
0.315185546875, -0.132812500000, 1.001220703125, -6.054687500000, 2.070312500000, -3.257812500000, 1492750219
0.315185546875, -0.132812500000, 1.001220703125, -6.054687500000, 2.070312500000, -3.257812500000, 1492750219
0.253417968750, -0.053955078125, 1.009033203125, -3.671875000000, 2.078125000000, -3.179687500000, 1492750219
0.253417968750, -0.053955078125, 1.009033203125, -3.671875000000, 2.078125000000, -3.179687500000, 1492750219
0.253417968750, -0.053955078125, 1.009033203125, -3.671875000000, 2.078125000000, -3.179687500000, 1492750219
0.253417968750, -0.053955078125, 1.009033203125, -3.671875000000, 2.078125000000, -3.179687500000, 1492750220
0.246093750000, -0.130859375000, 0.976562500000, -4.320312500000, -0.812500000000, -1.140625000000, 1492750220
0.246093750000, -0.130859375000, 0.976562500000, -4.320312500000, -0.812500000000, -1.140625000000, 1492750220
0.246093750000, -0.130859375000, 0.976562500000, -4.320312500000, -0.812500000000, -1.140625000000, 1492750220
0.165771484375, -0.051269531250, 1.074218750000, -1.507812500000, -0.859375000000, -1.851562500000, 1492750220
0.165771484375, -0.051269531250, 1.074218750000, -1.507812500000, -0.859375000000, -1.851562500000, 1492750220
0.165771484375, -0.051269531250, 1.074218750000, -1.507812500000, -0.859375000000, -1.851562500000, 1492750220
0.316894531250, -0.210693359375, 0.985107421875, -3.726562500000, 0.609375000000, -3.054687500000, 1492750220
0.315917968750, -0.215087890625, 1.022949218750, -1.828125000000, -0.625000000000, -6.187500000000, 1492750220
0.315917968750, -0.215087890625, 1.022949218750, -1.828125000000, -0.625000000000, -6.187500000000, 1492750220
0.315917968750, -0.215087890625, 1.022949218750, -1.828125000000, -0.625000000000, -6.187500000000, 1492750220
0.265625000000, -0.117431640625, 0.983398437500, -4.335937500000, -0.320312500000, -6.585937500000, 1492750220
0.305419921875, -0.125976562500, 0.966796875000, -1.664062500000, 0.187500000000, -1.351562500000, 1492750220
0.305419921875, -0.125976562500, 0.966796875000, -1.664062500000, 0.187500000000, -1.351562500000, 1492750220
0.305419921875, -0.125976562500, 0.966796875000, -1.664062500000, 0.187500000000, -1.351562500000, 1492750220
0.305419921875, -0.125976562500, 0.966796875000, -1.664062500000, 0.187500000000, -1.351562500000, 1492750220
0.305419921875, -0.125976562500, 0.966796875000, -1.664062500000, 0.187500000000, -1.351562500000, 1492750220
0.343261718750, -0.093750000000, 0.929443359375, -1.359375000000, -0.445312500000, -3.914062500000, 1492750220
0.343261718750, -0.093750000000, 0.929443359375, -1.359375000000, -0.445312500000, -3.914062500000, 1492750220
0.343261718750, -0.093750000000, 0.929443359375, -1.359375000000, -0.445312500000, -3.914062500000, 1492750220
0.203857421875, -0.215087890625, 1.025634765625, -1.078125000000, 4.828125000000, -1.890625000000, 1492750220
0.203857421875, -0.215087890625, 1.025634765625, -1.078125000000, 4.828125000000, -1.890625000000, 1492750220
0.203857421875, -0.215087890625, 1.025634765625, -1.078125000000, 4.828125000000, -1.890625000000, 1492750220
0.333740234375, -0.151123046875, 0.975341796875, -1.992187500000, -5.945312500000, -3.992187500000, 1492750220
0.333740234375, -0.151123046875, 0.975341796875, -1.992187500000, -5.945312500000, -3.992187500000, 1492750220
0.333740234375, -0.151123046875, 0.975341796875, -1.992187500000, -5.945312500000, -3.992187500000, 1492750220
0.333740234375, -0.151123046875, 0.975341796875, -1.992187500000, -5.945312500000, -3.992187500000, 1492750220
0.315917968750, -0.160156250000, 0.977050781250, -4.562500000000, 5.984375000000, -4.023437500000, 1492750220
0.315917968750, -0.160156250000, 0.977050781250, -4.562500000000, 5.984375000000, -4.023437500000, 1492750220
0.315917968750, -0.160156250000, 0.977050781250, -4.562500000000, 5.984375000000, -4.023437500000, 1492750220
0.221435546875, -0.141601562500, 0.974121093750, -6.726562500000, 1.046875000000, -4.148437500000, 1492750220
0.221435546875, -0.141601562500, 0.974121093750, -6.726562500000, 1.046875000000, -4.148437500000, 1492750220
0.221435546875, -0.141601562500, 0.974121093750, -6.726562500000, 1.046875000000, -4.148437500000, 1492750220
0.163818359375, -0.116699218750, 1.009521484375, -3.320312500000, 1.335937500000, -5.710937500000, 1492750220
0.163818359375, -0.116699218750, 1.009521484375, -3.320312500000, 1.335937500000, -5.710937500000, 1492750220
0.163818359375, -0.116699218750, 1.009521484375, -3.320312500000, 1.335937500000, -5.710937500000, 1492750220
0.274169921875, -0.276611328125, 1.103271484375, -3.132812500000, 20.671875000000, -2.671875000000, 1492750220
0.274169921875, -0.276611328125, 1.103271484375, -3.132812500000, 20.671875000000, -2.671875000000, 1492750220
0.274169921875, -0.276611328125, 1.103271484375, -3.132812500000, 20.671875000000, -2.671875000000, 1492750220
0.274169921875, -0.276611328125, 1.103271484375, -3.132812500000, 20.671875000000, -2.671875000000, 1492750220
0.383544921875, -0.106933593750, 1.002441406250, -3.421875000000, 0.304687500000, 3.429687500000, 1492750220
0.383544921875, -0.106933593750, 1.002441406250, -3.421875000000, 0.304687500000, 3.429687500000, 1492750220
0.383544921875, -0.106933593750, 1.002441406250, -3.421875000000, 0.304687500000, 3.429687500000, 1492750220
0.383544921875, -0.106933593750, 1.002441406250, -3.421875000000, 0.304687500000, 3.429687500000, 1492750220
0.231933593750, -0.145996093750, 1.036621093750, -6.359375000000, -0.867187500000, 1.851562500000, 1492750220
0.196289062500, -0.127685546875, 0.977539062500, -6.257812500000, 0.515625000000, -2.273437500000, 1492750220
0.196289062500, -0.127685546875, 0.977539062500, -6.257812500000, 0.515625000000, -2.273437500000, 1492750220
0.196289062500, -0.127685546875, 0.977539062500, -6.257812500000, 0.515625000000, -2.273437500000, 1492750220
0.196289062500, -0.127685546875, 0.977539062500, -6.257812500000, 0.515625000000, -2.273437500000, 1492750220
0.242675781250, -0.111083984375, 1.017333984375, -1.398437500000, -2.312500000000, -2.882812500000, 1492750220
0.242675781250, -0.111083984375, 1.017333984375, -1.398437500000, -2.312500000000, -2.882812500000, 1492750220
0.242675781250, -0.111083984375, 1.017333984375, -1.398437500000, -2.312500000000, -2.882812500000, 1492750220
0.242675781250, -0.111083984375, 1.017333984375, -1.398437500000, -2.312500000000, -2.882812500000, 1492750220
0.186035156250, -0.112792968750, 0.980224609375, -4.250000000000, 4.007812500000, -6.312500000000, 1492750220
0.186035156250, -0.112792968750, 0.980224609375, -4.250000000000, 4.007812500000, -6.312500000000, 1492750220
0.186035156250, -0.112792968750, 0.980224609375, -4.250000000000, 4.007812500000, -6.312500000000, 1492750220
0.096191406250, -0.167480468750, 1.001464843750, -3.664062500000, 8.367187500000, -6.742187500000, 1492750220
0.096191406250, -0.167480468750, 1.001464843750, -3.664062500000, 8.367187500000, -6.742187500000, 1492750220
0.096191406250, -0.167480468750, 1.001464843750, -3.664062500000, 8.367187500000, -6.742187500000, 1492750220
