ACC_X,ACC_Y,ACC_Z,G_X,G_Y,G_Z,Unix Time
0.081787109375, -1.018066406250, 0.278564453125, -6.125000000000, 2.570312500000, -1.585937500000, 1492750284
0.081787109375, -1.018066406250, 0.278564453125, -6.125000000000, 2.570312500000, -1.585937500000, 1492750284
0.081787109375, -1.018066406250, 0.278564453125, -6.125000000000, 2.570312500000, -1.585937500000, 1492750284
0.070068359375, -0.997314453125, 0.204589843750, -3.109375000000, -2.453125000000, -1.382812500000, 1492750284
0.070068359375, -0.997314453125, 0.204589843750, -3.109375000000, -2.453125000000, -1.382812500000, 1492750284
0.068115234375, -1.002685546875, 0.174804687500, -3.109375000000, -4.859375000000, -1.140625000000, 1492750284
0.062744140625, -0.933105468750, 0.168212890625, -4.664062500000, 0.312500000000, -0.914062500000, 1492750284
0.062744140625, -0.933105468750, 0.168212890625, -4.664062500000, 0.312500000000, -0.914062500000, 1492750284
0.062744140625, -0.933105468750, 0.168212890625, -4.664062500000, 0.312500000000, -0.914062500000, 1492750284
-0.066162109375, -0.989257812500, 0.099365234375, -1.765625000000, -6.015625000000, -4.960937500000, 1492750284
0.056396484375, -0.986572265625, 0.115722656250, -0.421875000000, -6.421875000000, -1.750000000000, 1492750284
0.056396484375, -0.986572265625, 0.115722656250, -0.421875000000, -6.421875000000, -1.750000000000, 1492750284
0.056396484375, -0.986572265625, 0.115722656250, -0.421875000000, -6.421875000000, -1.750000000000, 1492750284
0.152832031250, -0.983886718750, 0.101562500000, -12.562500000000, -1.296875000000, -2.031250000000, 1492750284
0.152832031250, -0.983886718750, 0.101562500000, -12.562500000000, -1.296875000000, -2.031250000000, 1492750284
0.152832031250, -0.983886718750, 0.101562500000, -12.562500000000, -1.296875000000, -2.031250000000, 1492750284
0.068603515625, -0.912597656250, 0.148925781250, 2.515625000000, -2.617187500000, -2.976562500000, 1492750284
0.068603515625, -0.912597656250, 0.148925781250, 2.515625000000, -2.617187500000, -2.976562500000, 1492750284
0.068603515625, -0.912597656250, 0.148925781250, 2.515625000000, -2.617187500000, -2.976562500000, 1492750284
0.093261718750, -1.075439453125, 0.103515625000, -1.421875000000, -2.710937500000, 0.648437500000, 1492750284
0.093261718750, -1.075439453125, 0.103515625000, -1.421875000000, -2.710937500000, 0.648437500000, 1492750284
0.093261718750, -1.075439453125, 0.103515625000, -1.421875000000, -2.710937500000, 0.648437500000, 1492750284
0.093261718750, -1.075439453125, 0.103515625000, -1.421875000000, -2.710937500000, 0.648437500000, 1492750284
0.093017578125, -1.015625000000, 0.190673828125, -2.179687500000, 0.828125000000, 0.601562500000, 1492750284
0.093017578125, -1.015625000000, 0.190673828125, -2.179687500000, 0.828125000000, 0.601562500000, 1492750284
0.093017578125, -1.015625000000, 0.190673828125, -2.179687500000, 0.828125000000, 0.601562500000, 1492750284
0.050048828125, -1.093750000000, 0.177490234375, 0.015625000000, 2.359375000000, -2.703125000000, 1492750284
0.050048828125, -1.093750000000, 0.177490234375, 0.015625000000, 2.359375000000, -2.703125000000, 1492750284
0.050048828125, -1.093750000000, 0.177490234375, 0.015625000000, 2.359375000000, -2.703125000000, 1492750284
0.141113281250, -1.000488281250, 0.169677734375, 0.460937500000, 2.359375000000, -2.773437500000, 1492750284
0.141113281250, -1.000488281250, 0.169677734375, 0.460937500000, 2.359375000000, -2.773437500000, 1492750284
0.141113281250, -1.000488281250, 0.169677734375, 0.460937500000, 2.359375000000, -2.773437500000, 1492750284
0.071533203125, -1.066894531250, 0.214355468750, -1.835937500000, 4.882812500000, -4.382812500000, 1492750284
0.071533203125, -1.066894531250, 0.214355468750, -1.835937500000, 4.882812500000, -4.382812500000, 1492750284
0.071533203125, -1.066894531250, 0.214355468750, -1.835937500000, 4.882812500000, -4.382812500000, 1492750284
0.071533203125, -1.066894531250, 0.214355468750, -1.835937500000, 4.882812500000, -4.382812500000, 1492750284
0.067871093750, -1.092285156250, 0.107177734375, -3.085937500000, 3.679687500000, 0.937500000000, 1492750284
0.067871093750, -1.092285156250, 0.107177734375, -3.085937500000, 3.679687500000, 0.937500000000, 1492750284
0.067871093750, -1.092285156250, 0.107177734375, -3.085937500000, 3.679687500000, 0.937500000000, 1492750284
-0.079833984375, -0.982421875000, 0.210205078125, -4.726562500000, 3.515625000000, 0.093750000000, 1492750284
-0.079833984375, -0.982421875000, 0.210205078125, -4.726562500000, 3.515625000000, 0.093750000000, 1492750284
-0.079833984375, -0.982421875000, 0.210205078125, -4.726562500000, 3.515625000000, 0.093750000000, 1492750284
0.094482421875, -1.028076171875, 0.191650390625, -4.312500000000, -0.101562500000, 0.484375000000, 1492750284
0.094482421875, -1.028076171875, 0.191650390625, -4.312500000000, -0.101562500000, 0.484375000000, 1492750285
0.094482421875, -1.028076171875, 0.191650390625, -4.312500000000, -0.101562500000, 0.484375000000, 1492750285
0.132324218750, -0.976806640625, 0.050292968750, -10.937500000000, 1.898437500000, 0.890625000000, 1492750285
0.132324218750, -0.976806640625, 0.050292968750, -10.937500000000, 1.898437500000, 0.890625000000, 1492750285
0.132324218750, -0.976806640625, 0.050292968750, -10.937500000000, 1.898437500000, 0.890625000000, 1492750285
0.084228515625, -0.918701171875, 0.109863281250, 1.195312500000, 1.796875000000, -3.335937500000, 1492750285
0.059570312500, -0.968017578125, 0.200439453125, 4.476562500000, 4.125000000000, -2.437500000000, 1492750285
0.059570312500, -0.968017578125, 0.200439453125, 4.476562500000, 4.125000000000, -2.437500000000, 1492750285
0.059570312500, -0.968017578125, 0.200439453125, 4.476562500000, 4.125000000000, -2.437500000000, 1492750285
0.061035156250, -0.904541015625, 0.126464843750, -5.390625000000, -0.703125000000, -4.484375000000, 1492750285
0.061035156250, -0.904541015625, 0.126464843750, -5.390625000000, -0.703125000000, -4.484375000000, 1492750285
0.061035156250, -0.904541015625, 0.126464843750, -5.390625000000, -0.703125000000, -4.484375000000, 1492750285
0.004882812500, -1.018310546875, 0.164062500000, -2.312500000000, -0.812500000000, -1.679687500000, 1492750285
0.004882812500, -1.018310546875, 0.164062500000, -2.312500000000, -0.812500000000, -1.679687500000, 1492750285
0.004882812500, -1.018310546875, 0.164062500000, -2.312500000000, -0.812500000000, -1.679687500000, 1492750285
0.091796875000, -0.983154296875, 0.056884765625, -4.851562500000, 0.109375000000, -1.828125000000, 1492750285
0.091796875000, -0.983154296875, 0.056884765625, -4.851562500000, 0.109375000000, -1.828125000000, 1492750285
0.091796875000, -0.983154296875, 0.056884765625, -4.851562500000, 0.109375000000, -1.828125000000, 1492750285
0.091796875000, -0.983154296875, 0.056884765625, -4.851562500000, 0.109375000000, -1.828125000000, 1492750285
0.070068359375, -1.127197265625, 0.112792968750, -3.523437500000, -0.109375000000, -1.421875000000, 1492750285
0.070068359375, -1.127197265625, 0.112792968750, -3.523437500000, -0.109375000000, -1.421875000000, 1492750285
0.070068359375, -1.127197265625, 0.112792968750, -3.523437500000, -0.109375000000, -1.421875000000, 1492750285
-0.014404296875, -0.981445312500, 0.212646484375, -4.984375000000, 0.562500000000, -4.750000000000, 1492750285
-0.014404296875, -0.981445312500, 0.212646484375, -4.984375000000, 0.562500000000, -4.750000000000, 1492750285
-0.014404296875, -0.981445312500, 0.212646484375, -4.984375000000, 0.562500000000, -4.750000000000, 1492750285
0.023925781250, -0.965087890625, 0.199707031250, -4.367187500000, 0.640625000000, -3.210937500000, 1492750285
0.023925781250, -0.965087890625, 0.199707031250, -4.367187500000, 0.640625000000, -3.210937500000, 1492750285
0.023925781250, -0.965087890625, 0.199707031250, -4.367187500000, 0.640625000000, -3.210937500000, 1492750285
0.103271484375, -0.954345703125, 0.142822265625, -4.226562500000, -1.156250000000, -4.132812500000, 1492750285
0.103271484375, -0.954345703125, 0.142822265625, -4.226562500000, -1.156250000000, -4.132812500000, 1492750285
0.103271484375, -0.954345703125, 0.142822265625, -4.226562500000, -1.156250000000, -4.132812500000, 1492750285
0.103271484375, -0.954345703125, 0.142822265625, -4.226562500000, -1.156250000000, -4.132812500000, 1492750285
0.044677734375, -1.092529296875, 0.099853515625, -6.132812500000, -1.140625000000, -6.929687500000, 1492750285
0.044677734375, -1.092529296875, 0.099853515625, -6.132812500000, -1.140625000000, -6.929687500000, 1492750285
0.044677734375, -1.092529296875, 0.099853515625, -6.132812500000, -1.140625000000, -6.929687500000, 1492750285
0.096679687500, -1.071533203125, 0.257812500000, -2.679687500000, 1.109375000000, -1.843750000000, 1492750285
0.096679687500, -1.071533203125, 0.257812500000, -2.679687500000, 1.109375000000, -1.843750000000, 1492750285
0.096679687500, -1.071533203125, 0.257812500000, -2.679687500000, 1.109375000000, -1.843750000000, 1492750285
0.080810546875, -1.078369140625, 0.105957031250, -4.515625000000, -1.750000000000, -3.187500000000, 1492750285
0.080810546875, -1.078369140625, 0.105957031250, -4.515625000000, -1.750000000000, -3.187500000000, 1492750285
0.080810546875, -1.078369140625, 0.105957031250, -4.515625000000, -1.750000000000, -3.187500000000, 1492750285
0.088134765625, -1.028564453125, 0.168212890625, -6.476562500000, 0.078125000000, -4.289062500000, 1492750285
0.088134765625, -1.028564453125, 0.168212890625, -6.476562500000, 0.078125000000, -4.289062500000, 1492750285
0.088134765625, -1.028564453125, 0.168212890625, -6.476562500000, 0.078125000000, -4.289062500000, 1492750285
0.088134765625, -1.028564453125, 0.168212890625, -6.476562500000, 0.078125000000, -4.289062500000, 1492750285
0.105712890625, -1.012939453125, 0.161132812500, -1.625000000000, -0.351562500000, -4.632812500000, 1492750285
0.105712890625, -1.012939453125, 0.161132812500, -1.625000000000, -0.351562500000, -4.632812500000, 1492750285
0.105712890625, -1.012939453125, 0.161132812500, -1.625000000000, -0.351562500000, -4.632812500000, 1492750285
-0.002929687500, -1.082031250000, 0.119628906250, -5.320312500000, 1.945312500000, -2.335937500000, 1492750285
-0.002929687500, -1.082031250000, 0.119628906250, -5.320312500000, 1.945312500000, -2.335937500000, 1492750285
-0.002929687500, -1.082031250000, 0.119628906250, -5.320312500000, 1.945312500000, -2.335937500000, 1492750285
0.128662109375, -0.970947265625, 0.159912109375, -4.796875000000, 3.250000000000, -2.742187500000, 1492750285
0.128662109375, -0.970947265625, 0.159912109375, -4.796875000000, 3.250000000000, -2.742187500000, 1492750285
0.128662109375, -0.970947265625, 0.159912109375, -4.796875000000, 3.250000000000, -2.742187500000, 1492750285
0.069335937500, -1.007568359375, 0.121337890625, -5.039062500000, 7.820312500000, -2.835937500000, 1492750285
0.069335937500, -1.007568359375, 0.121337890625, -5.039062500000, 7.820312500000, -2.835937500000, 1492750285
0.069335937500, -1.007568359375, 0.121337890625, -5.039062500000, 7.820312500000, -2.835937500000, 1492750285
0.069335937500, -1.007568359375, 0.121337890625, -5.039062500000, 7.820312500000, -2.835937500000, 1492750285
0.097900390625, -0.859619140625, 0.197021484375, -4.109375000000, 5.460937500000, -4.273437500000, 1492750285
0.097900390625, -0.859619140625, 0.197021484375, -4.109375000000, 5.460937500000, -4.273437500000, 1492750285
0.097900390625, -0.859619140625, 0.197021484375, -4.109375000000, 5.460937500000, -4.273437500000, 1492750285
0.085205078125, -0.972412109375, 0.269775390625, -3.843750000000, 4.140625000000, -4.335937500000, 1492750285
0.085205078125, -0.972412109375, 0.269775390625, -3.843750000000, 4.140625000000, -4.335937500000, 1492750285
0.085205078125, -0.972412109375, 0.269775390625, -3.843750000000, 4.140625000000, -4.335937500000, 1492750285
0.076416015625, -0.928222656250, 0.125000000000, -8.492187500000, 2.843750000000, -1.515625000000, 1492750285
0.076416015625, -0.928222656250, 0.125000000000, -8.492187500000, 2.843750000000, -1.515625000000, 1492750285
0.076416015625, -0.928222656250, 0.125000000000, -8.492187500000, 2.843750000000, -1.515625000000, 1492750285
0.083496093750, -0.872558593750, 0.118652343750, -0.968750000000, 1.250000000000, -1.054687500000, 1492750286
0.083496093750, -0.872558593750, 0.118652343750, -0.968750000000, 1.250000000000, -1.054687500000, 1492750286
0.083496093750, -0.872558593750, 0.118652343750, -0.968750000000, 1.250000000000, -1.054687500000, 1492750286
0.083496093750, -0.872558593750, 0.118652343750, -0.968750000000, 1.250000000000, -1.054687500000, 1492750286
0.144531250000, -0.983886718750, 0.103271484375, -8.382812500000, 2.656250000000, -4.703125000000, 1492750286
0.144531250000, -0.983886718750, 0.103271484375, -8.382812500000, 2.656250000000, -4.703125000000, 1492750286
0.144531250000, -0.983886718750, 0.103271484375, -8.382812500000, 2.656250000000, -4.703125000000, 1492750286
0.197021484375, -0.911376953125, 0.161621093750, 2.960937500000, -4.546875000000, -1.218750000000, 1492750286
0.197021484375, -0.911376953125, 0.161621093750, 2.960937500000, -4.546875000000, -1.218750000000, 1492750286
0.197021484375, -0.911376953125, 0.161621093750, 2.960937500000, -4.546875000000, -1.218750000000, 1492750286
0.072998046875, -0.906494140625, 0.198730468750, -6.531250000000, -3.164062500000, -1.539062500000, 1492750286
0.072998046875, -0.906494140625, 0.198730468750, -6.531250000000, -3.164062500000, -1.539062500000, 1492750286
0.072998046875, -0.906494140625, 0.198730468750, -6.531250000000, -3.164062500000, -1.539062500000, 1492750286
-0.000488281250, -1.016357421875, 0.094726562500, -3.054687500000, -5.757812500000, -1.476562500000, 1492750286
-0.000488281250, -1.016357421875, 0.094726562500, -3.054687500000, -5.757812500000, -1.476562500000, 1492750286
-0.000488281250, -1.016357421875, 0.094726562500, -3.054687500000, -5.757812500000, -1.476562500000, 1492750286
-0.000488281250, -1.016357421875, 0.094726562500, -3.054687500000, -5.757812500000, -1.476562500000, 1492750286
-0.009033203125, -0.957763671875, 0.098876953125, -8.515625000000, -9.539062500000, -4.609375000000, 1492750286
-0.009033203125, -0.957763671875, 0.098876953125, -8.515625000000, -9.539062500000, -4.609375000000, 1492750286
-0.009033203125, -0.957763671875, 0.098876953125, -8.515625000000, -9.539062500000, -4.609375000000, 1492750286
0.053466796875, -0.934326171875, 0.166015625000, -4.625000000000, -6.960937500000, -3.632812500000, 1492750286
0.053466796875, -0.934326171875, 0.166015625000, -4.625000000000, -6.960937500000, -3.632812500000, 1492750286
0.021728515625, -1.078125000000, 0.185058593750, -7.171875000000, -8.125000000000, -2.078125000000, 1492750286
0.021728515625, -1.078125000000, 0.185058593750, -7.171875000000, -8.125000000000, -2.078125000000, 1492750286
0.021728515625, -1.078125000000, 0.185058593750, -7.171875000000, -8.125000000000, -2.078125000000, 1492750286
0.021728515625, -1.078125000000, 0.185058593750, -7.171875000000, -8.125000000000, -2.078125000000, 1492750286
-0.001220703125, -0.971191406250, 0.202880859375, -3.171875000000, -8.859375000000, -2.179687500000, 1492750286
-0.001220703125, -0.971191406250, 0.202880859375, -3.171875000000, -8.859375000000, -2.179687500000, 1492750286
-0.001220703125, -0.971191406250, 0.202880859375, -3.171875000000, -8.859375000000, -2.179687500000, 1492750286
-0.001220703125, -0.971191406250, 0.202880859375, -3.171875000000, -8.859375000000, -2.179687500000, 1492750286
0.058349609375, -0.913574218750, 0.148925781250, -2.179687500000, -1.468750000000, -2.289062500000, 1492750286
0.058349609375, -0.913574218750, 0.148925781250, -2.179687500000, -1.468750000000, -2.289062500000, 1492750286
0.058349609375, -0.913574218750, 0.148925781250, -2.179687500000, -1.468750000000, -2.289062500000, 1492750286
0.043212890625, -1.062988281250, 0.195068359375, 1.921875000000, -4.164062500000, -1.984375000000, 1492750286
0.043212890625, -1.062988281250, 0.195068359375, 1.921875000000, -4.164062500000, -1.984375000000, 1492750286
0.043212890625, -1.062988281250, 0.195068359375, 1.921875000000, -4.164062500000, -1.984375000000, 1492750286
0.144042968750, -1.063476562500, 0.206054687500, -2.992187500000, 2.375000000000, -2.062500000000, 1492750286
0.144042968750, -1.063476562500, 0.206054687500, -2.992187500000, 2.375000000000, -2.062500000000, 1492750286
0.144042968750, -1.063476562500, 0.206054687500, -2.992187500000, 2.375000000000, -2.062500000000, 1492750286
0.041015625000, -1.031005859375, 0.146728515625, 0.343750000000, -2.382812500000, -1.359375000000, 1492750286
0.041015625000, -1.031005859375, 0.146728515625, 0.343750000000, -2.382812500000, -1.359375000000, 1492750286
0.041015625000, -1.031005859375, 0.146728515625, 0.343750000000, -2.382812500000, -1.359375000000, 1492750286
0.041015625000, -1.031005859375, 0.146728515625, 0.343750000000, -2.382812500000, -1.359375000000, 1492750286
0.126953125000, -0.992187500000, 0.118652343750, -5.492187500000, 0.101562500000, -1.640625000000, 1492750286
0.126953125000, -0.992187500000, 0.118652343750, -5.492187500000, 0.101562500000, -1.640625000000, 1492750286
0.126953125000, -0.992187500000, 0.118652343750, -5.492187500000, 0.101562500000, -1.640625000000, 1492750286
0.034667968750, -0.972412109375, 0.189453125000, -1.968750000000, -0.125000000000, -2.453125000000, 1492750286
0.034667968750, -0.972412109375, 0.189453125000, -1.968750000000, -0.125000000000, -2.453125000000, 1492750286
0.034667968750, -0.972412109375, 0.189453125000, -1.968750000000, -0.125000000000, -2.453125000000, 1492750286
0.078369140625, -0.852294921875, 0.153808593750, 9.171875000000, 19.375000000000, 2.085937500000, 1492750286
0.078369140625, -0.852294921875, 0.153808593750, 9.171875000000, 19.375000000000, 2.085937500000, 1492750286
0.078369140625, -0.852294921875, 0.153808593750, 9.171875000000, 19.375000000000, 2.085937500000, 1492750286
0.156005859375, -0.966552734375, 0.281250000000, 2.101562500000, -1.851562500000, -4.015625000000, 1492750286
0.156005859375, -0.966552734375, 0.281250000000, 2.101562500000, -1.851562500000, -4.015625000000, 1492750286
0.156005859375, -0.966552734375, 0.281250000000, 2.101562500000, -1.851562500000, -4.015625000000, 1492750286
0.156005859375, -0.966552734375, 0.281250000000, 2.101562500000, -1.851562500000, -4.015625000000, 1492750286
0.084228515625, -1.001464843750, 0.173828125000, -13.570312500000, -0.093750000000, -4.351562500000, 1492750286
0.084228515625, -1.001464843750, 0.173828125000, -13.570312500000, -0.093750000000, -4.351562500000, 1492750286
0.084228515625, -1.001464843750, 0.173828125000, -13.570312500000, -0.093750000000, -4.351562500000, 1492750286
0.051757812500, -0.989990234375, 0.131103515625, -5.640625000000, -7.921875000000, -5.562500000000, 1492750286
0.051757812500, -0.989990234375, 0.131103515625, -5.640625000000, -7.921875000000, -5.562500000000, 1492750286
0.051757812500, -0.989990234375, 0.131103515625, -5.640625000000, -7.921875000000, -5.562500000000, 1492750286
0.127929687500, -0.970947265625, 0.036865234375, -7.937500000000, -3.390625000000, -5.656250000000, 1492750286
0.127929687500, -0.970947265625, 0.036865234375, -7.937500000000, -3.390625000000, -5.656250000000, 1492750286
0.127929687500, -0.970947265625, 0.036865234375, -7.937500000000, -3.390625000000, -5.656250000000, 1492750286
0.079101562500, -0.929931640625, 0.213867187500, 6.171875000000, -3.437500000000, -4.898437500000, 1492750286
0.079101562500, -0.929931640625, 0.213867187500, 6.171875000000, -3.437500000000, -4.898437500000, 1492750287
0.079101562500, -0.929931640625, 0.213867187500, 6.171875000000, -3.437500000000, -4.898437500000, 1492750287
0.079101562500, -0.929931640625, 0.213867187500, 6.171875000000, -3.437500000000, -4.898437500000, 1492750287
0.152832031250, -1.019531250000, 0.100341796875, -4.406250000000, -12.640625000000, -4.515625000000, 1492750287
0.152832031250, -1.019531250000, 0.100341796875, -4.406250000000, -12.640625000000, -4.515625000000, 1492750287
0.152832031250, -1.019531250000, 0.100341796875, -4.406250000000, -12.640625000000, -4.515625000000, 1492750287
0.125244140625, -1.030273437500, 0.138183593750, -3.906250000000, -5.742187500000, -4.687500000000, 1492750287
0.125244140625, -1.030273437500, 0.138183593750, -3.906250000000, -5.742187500000, -4.687500000000, 1492750287
0.125244140625, -1.030273437500, 0.138183593750, -3.906250000000, -5.742187500000, -4.687500000000, 1492750287
0.038574218750, -0.969726562500, 0.196289062500, -0.968750000000, -4.742187500000, -4.882812500000, 1492750287
0.038574218750, -0.969726562500, 0.196289062500, -0.968750000000, -4.742187500000, -4.882812500000, 1492750287
0.038574218750, -0.969726562500, 0.196289062500, -0.968750000000, -4.742187500000, -4.882812500000, 1492750287
0.154785156250, -1.078369140625, 0.095703125000, -6.085937500000, -8.890625000000, -2.992187500000, 1492750287
0.154785156250, -1.078369140625, 0.095703125000, -6.085937500000, -8.890625000000, -2.992187500000, 1492750287
0.154785156250, -1.078369140625, 0.095703125000, -6.085937500000, -8.890625000000, -2.992187500000, 1492750287
0.154785156250, -1.078369140625, 0.095703125000, -6.085937500000, -8.890625000000, -2.992187500000, 1492750287
0.079589843750, -0.956054687500, 0.150634765625, -6.367187500000, -3.929687500000, -4.390625000000, 1492750287
0.079589843750, -0.956054687500, 0.150634765625, -6.367187500000, -3.929687500000, -4.390625000000, 1492750287
0.133544921875, -0.982666015625, 0.147216796875, -6.359375000000, -6.859375000000, -4.148437500000, 1492750287
0.133544921875, -0.982666015625, 0.147216796875, -6.359375000000, -6.859375000000, -4.148437500000, 1492750287
0.133544921875, -0.982666015625, 0.147216796875, -6.359375000000, -6.859375000000, -4.148437500000, 1492750287
0.133544921875, -0.982666015625, 0.147216796875, -6.359375000000, -6.859375000000, -4.148437500000, 1492750287
0.073974609375, -1.072021484375, 0.204589843750, -2.382812500000, -10.007812500000, -1.429687500000, 1492750287
0.073974609375, -1.072021484375, 0.204589843750, -2.382812500000, -10.007812500000, -1.429687500000, 1492750287
0.073974609375, -1.072021484375, 0.204589843750, -2.382812500000, -10.007812500000, -1.429687500000, 1492750287
0.049316406250, -1.071533203125, 0.145751953125, -5.914062500000, -12.914062500000, -4.312500000000, 1492750287
0.049316406250, -1.071533203125, 0.145751953125, -5.914062500000, -12.914062500000, -4.312500000000, 1492750287
0.049316406250, -1.071533203125, 0.145751953125, -5.914062500000, -12.914062500000, -4.312500000000, 1492750287
0.049316406250, -1.071533203125, 0.145751953125, -5.914062500000, -12.914062500000, -4.312500000000, 1492750287
0.047119140625, -0.980957031250, 0.194335937500, -1.296875000000, -12.328125000000, -1.773437500000, 1492750287
0.047119140625, -0.980957031250, 0.194335937500, -1.296875000000, -12.328125000000, -1.773437500000, 1492750287
0.047119140625, -0.980957031250, 0.194335937500, -1.296875000000, -12.328125000000, -1.773437500000, 1492750287
0.193847656250, -1.061767578125, 0.156494140625, -1.765625000000, -11.117187500000, -6.195312500000, 1492750287
0.193847656250, -1.061767578125, 0.156494140625, -1.765625000000, -11.117187500000, -6.195312500000, 1492750287
0.193847656250, -1.061767578125, 0.156494140625, -1.765625000000, -11.117187500000, -6.195312500000, 1492750287
0.091796875000, -1.055908203125, 0.072753906250, -2.007812500000, -13.804687500000, -6.929687500000, 1492750287
0.091796875000, -1.055908203125, 0.072753906250, -2.007812500000, -13.804687500000, -6.929687500000, 1492750287
0.091796875000, -1.055908203125, 0.072753906250, -2.007812500000, -13.804687500000, -6.929687500000, 1492750287
0.072509765625, -0.941894531250, 0.151367187500, -11.835937500000, -10.437500000000, -4.593750000000, 1492750287
0.072509765625, -0.941894531250, 0.151367187500, -11.835937500000, -10.437500000000, -4.593750000000, 1492750287
0.072509765625, -0.941894531250, 0.151367187500, -11.835937500000, -10.437500000000, -4.593750000000, 1492750287
0.072509765625, -0.941894531250, 0.151367187500, -11.835937500000, -10.437500000000, -4.593750000000, 1492750287
0.068359375000, -0.991699218750, 0.143798828125, -1.234375000000, -10.007812500000, -4.273437500000, 1492750287
0.068359375000, -0.991699218750, 0.143798828125, -1.234375000000, -10.007812500000, -4.273437500000, 1492750287
0.068359375000, -0.991699218750, 0.143798828125, -1.234375000000, -10.007812500000, -4.273437500000, 1492750287
0.110107421875, -0.930664062500, 0.116699218750, -11.039062500000, -5.101562500000, -1.507812500000, 1492750287
0.110107421875, -0.930664062500, 0.116699218750, -11.039062500000, -5.101562500000, -1.507812500000, 1492750287
0.110107421875, -0.930664062500, 0.116699218750, -11.039062500000, -5.101562500000, -1.507812500000, 1492750287
0.152099609375, -0.907714843750, 0.193115234375, -18.203125000000, -14.750000000000, -1.359375000000, 1492750287
0.152099609375, -0.907714843750, 0.193115234375, -18.203125000000, -14.750000000000, -1.359375000000, 1492750287
0.152099609375, -0.907714843750, 0.193115234375, -18.203125000000, -14.750000000000, -1.359375000000, 1492750287
0.070068359375, -0.972656250000, 0.147216796875, -12.984375000000, -9.257812500000, -6.335937500000, 1492750287
0.070068359375, -0.972656250000, 0.147216796875, -12.984375000000, -9.257812500000, -6.335937500000, 1492750287
0.070068359375, -0.972656250000, 0.147216796875, -12.984375000000, -9.257812500000, -6.335937500000, 1492750287
0.070068359375, -0.972656250000, 0.147216796875, -12.984375000000, -9.257812500000, -6.335937500000, 1492750287
0.097900390625, -0.933593750000, 0.103515625000, -10.031250000000, -7.812500000000, -4.468750000000, 1492750287
0.097900390625, -0.933593750000, 0.103515625000, -10.031250000000, -7.812500000000, -4.468750000000, 1492750287
0.097900390625, -0.933593750000, 0.103515625000, -10.031250000000, -7.812500000000, -4.468750000000, 1492750287
0.042236328125, -1.073730468750, 0.172607421875, -8.367187500000, -6.617187500000, -2.039062500000, 1492750287
0.042236328125, -1.073730468750, 0.172607421875, -8.367187500000, -6.617187500000, -2.039062500000, 1492750287
0.036376953125, -0.976562500000, 0.213134765625, -12.039062500000, -8.390625000000, -2.242187500000, 1492750287
0.036376953125, -0.976562500000, 0.213134765625, -12.039062500000, -8.390625000000, -2.242187500000, 1492750287
0.036376953125, -0.976562500000, 0.213134765625, -12.039062500000, -8.390625000000, -2.242187500000, 1492750287
0.036376953125, -0.976562500000, 0.213134765625, -12.039062500000, -8.390625000000, -2.242187500000, 1492750287
0.136718750000, -0.969970703125, 0.170166015625, -5.750000000000, -10.328125000000, -1.812500000000, 1492750287
0.136718750000, -0.969970703125, 0.170166015625, -5.750000000000, -10.328125000000, -1.812500000000, 1492750287
0.136718750000, -0.969970703125, 0.170166015625, -5.750000000000, -10.328125000000, -1.812500000000, 1492750287
0.136718750000, -0.969970703125, 0.170166015625, -5.750000000000, -10.328125000000, -1.812500000000, 1492750288
0.117919921875, -1.005126953125, 0.188964843750, -0.796875000000, -16.664062500000, -3.648437500000, 1492750288
0.117919921875, -1.005126953125, 0.188964843750, -0.796875000000, -16.664062500000, -3.648437500000, 1492750288
0.117919921875, -1.005126953125, 0.188964843750, -0.796875000000, -16.664062500000, -3.648437500000, 1492750288
0.112060546875, -1.020751953125, 0.123291015625, -0.664062500000, -14.000000000000, -3.070312500000, 1492750288
0.112060546875, -1.020751953125, 0.123291015625, -0.664062500000, -14.000000000000, -3.070312500000, 1492750288
0.112060546875, -1.020751953125, 0.123291015625, -0.664062500000, -14.000000000000, -3.070312500000, 1492750288
0.112060546875, -1.020751953125, 0.123291015625, -0.664062500000, -14.000000000000, -3.070312500000, 1492750288
0.112060546875, -1.020751953125, 0.123291015625, -0.664062500000, -14.000000000000, -3.070312500000, 1492750288
0.118896484375, -0.916748046875, 0.198242187500, -8.390625000000, -15.164062500000, -5.992187500000, 1492750288
0.118896484375, -0.916748046875, 0.198242187500, -8.390625000000, -15.164062500000, -5.992187500000, 1492750288
0.118896484375, -0.916748046875, 0.198242187500, -8.390625000000, -15.164062500000, -5.992187500000, 1492750288
0.118896484375, -0.916748046875, 0.198242187500, -8.390625000000, -15.164062500000, -5.992187500000, 1492750288
0.118896484375, -0.916748046875, 0.198242187500, -8.390625000000, -15.164062500000, -5.992187500000, 1492750288
0.058593750000, -0.977539062500, 0.205810546875, -3.562500000000, -11.734375000000, -7.250000000000, 1492750288
0.058593750000, -0.977539062500, 0.205810546875, -3.562500000000, -11.734375000000, -7.250000000000, 1492750288
0.058593750000, -0.977539062500, 0.205810546875, -3.562500000000, -11.734375000000, -7.250000000000, 1492750288
0.115234375000, -1.086425781250, 0.160644531250, -5.718750000000, -12.156250000000, -5.937500000000, 1492750288
0.115234375000, -1.086425781250, 0.160644531250, -5.718750000000, -12.156250000000, -5.937500000000, 1492750288
0.115234375000, -1.086425781250, 0.160644531250, -5.718750000000, -12.156250000000, -5.937500000000, 1492750288
0.042480468750, -0.915039062500, 0.109375000000, -4.039062500000, -11.000000000000, -8.640625000000, 1492750288
0.042480468750, -0.915039062500, 0.109375000000, -4.039062500000, -11.000000000000, -8.640625000000, 1492750288
0.042480468750, -0.915039062500, 0.109375000000, -4.039062500000, -11.000000000000, -8.640625000000, 1492750288
-0.015869140625, -0.985351562500, 0.117431640625, -3.898437500000, -3.070312500000, -4.679687500000, 1492750288
-0.015869140625, -0.985351562500, 0.117431640625, -3.898437500000, -3.070312500000, -4.679687500000, 1492750288
-0.015869140625, -0.985351562500, 0.117431640625, -3.898437500000, -3.070312500000, -4.679687500000, 1492750288
-0.015869140625, -0.985351562500, 0.117431640625, -3.898437500000, -3.070312500000, -4.679687500000, 1492750288
0.045410156250, -0.916992187500, 0.203857421875, -6.632812500000, -4.718750000000, -3.585937500000, 1492750288
0.045410156250, -0.916992187500, 0.203857421875, -6.632812500000, -4.718750000000, -3.585937500000, 1492750288
0.045410156250, -0.916992187500, 0.203857421875, -6.632812500000, -4.718750000000, -3.585937500000, 1492750288
0.044433593750, -1.000244140625, 0.134765625000, -1.726562500000, 0.750000000000, -4.484375000000, 1492750288
0.044433593750, -1.000244140625, 0.134765625000, -1.726562500000, 0.750000000000, -4.484375000000, 1492750288
0.044433593750, -1.000244140625, 0.134765625000, -1.726562500000, 0.750000000000, -4.484375000000, 1492750288
0.104980468750, -0.916748046875, 0.205810546875, 2.171875000000, -2.429687500000, -1.296875000000, 1492750288
0.104980468750, -0.916748046875, 0.205810546875, 2.171875000000, -2.429687500000, -1.296875000000, 1492750288
0.104980468750, -0.916748046875, 0.205810546875, 2.171875000000, -2.429687500000, -1.296875000000, 1492750288
0.127197265625, -0.943115234375, 0.152099609375, 5.593750000000, 0.625000000000, 1.882812500000, 1492750288
0.127197265625, -0.943115234375, 0.152099609375, 5.593750000000, 0.625000000000, 1.882812500000, 1492750288
0.127197265625, -0.943115234375, 0.152099609375, 5.593750000000, 0.625000000000, 1.882812500000, 1492750288
0.127197265625, -0.943115234375, 0.152099609375, 5.593750000000, 0.625000000000, 1.882812500000, 1492750288
-0.024414062500, -0.598144531250, 0.059814453125, 26.007812500000, -0.296875000000, 10.351562500000, 1492750288
-0.024414062500, -0.598144531250, 0.059814453125, 26.007812500000, -0.296875000000, 10.351562500000, 1492750288
-0.024414062500, -0.598144531250, 0.059814453125, 26.007812500000, -0.296875000000, 10.351562500000, 1492750288
0.083251953125, -0.358398437500, 0.082763671875, 45.187500000000, -11.882812500000, 8.421875000000, 1492750288
0.083251953125, -0.358398437500, 0.082763671875, 45.187500000000, -11.882812500000, 8.421875000000, 1492750288
0.083251953125, -0.358398437500, 0.082763671875, 45.187500000000, -11.882812500000, 8.421875000000, 1492750288
0.031494140625, -0.220703125000, 0.077880859375, 56.085937500000, -12.015625000000, 2.468750000000, 1492750288
-0.066650390625, -0.616699218750, 0.006103515625, -34.617187500000, -17.593750000000, -0.007812500000, 1492750288
-0.066650390625, -0.616699218750, 0.006103515625, -34.617187500000, -17.593750000000, -0.007812500000, 1492750288
-0.066650390625, -0.616699218750, 0.006103515625, -34.617187500000, -17.593750000000, -0.007812500000, 1492750288
-0.066650390625, -0.616699218750, 0.006103515625, -34.617187500000, -17.593750000000, -0.007812500000, 1492750288
0.205810546875, -1.074218750000, 0.141601562500, 4.968750000000, -1.867187500000, -19.031250000000, 1492750288
0.205810546875, -1.074218750000, 0.141601562500, 4.968750000000, -1.867187500000, -19.031250000000, 1492750288
0.205810546875, -1.074218750000, 0.141601562500, 4.968750000000, -1.867187500000, -19.031250000000, 1492750288
0.205810546875, -1.074218750000, 0.141601562500, 4.968750000000, -1.867187500000, -19.031250000000, 1492750288
0.205810546875, -1.074218750000, 0.141601562500, 4.968750000000, -1.867187500000, -19.031250000000, 1492750288
0.187255859375, -0.738769531250, 0.042968750000, 57.843750000000, 2.843750000000, 5.406250000000, 1492750288
0.187255859375, -0.738769531250, 0.042968750000, 57.843750000000, 2.843750000000, 5.406250000000, 1492750288
0.187255859375, -0.738769531250, 0.042968750000, 57.843750000000, 2.843750000000, 5.406250000000, 1492750288
0.220703125000, -1.098632812500, 0.082031250000, -54.148437500000, 56.710937500000, 19.296875000000, 1492750288
0.220703125000, -1.098632812500, 0.082031250000, -54.148437500000, 56.710937500000, 19.296875000000, 1492750288
0.220703125000, -1.098632812500, 0.082031250000, -54.148437500000, 56.710937500000, 19.296875000000, 1492750288
0.183349609375, -0.927246093750, 0.017089843750, -8.914062500000, -8.148437500000, 11.320312500000, 1492750288
0.183349609375, -0.927246093750, 0.017089843750, -8.914062500000, -8.148437500000, 11.320312500000, 1492750288
0.183349609375, -0.927246093750, 0.017089843750, -8.914062500000, -8.148437500000, 11.320312500000, 1492750288
0.183349609375, -0.927246093750, 0.017089843750, -8.914062500000, -8.148437500000, 11.320312500000, 1492750288
0.101562500000, -1.020996093750, 0.027099609375, -79.031250000000, -89.023437500000, 21.843750000000, 1492750288
0.101562500000, -1.020996093750, 0.027099609375, -79.031250000000, -89.023437500000, 21.843750000000, 1492750289
0.101562500000, -1.020996093750, 0.027099609375, -79.031250000000, -89.023437500000, 21.843750000000, 1492750289
0.105224609375, -1.091064453125, -0.015625000000, -111.093750000000, -64.078125000000, 40.085937500000, 1492750289
0.105224609375, -1.091064453125, -0.015625000000, -111.093750000000, -64.078125000000, 40.085937500000, 1492750289
0.105224609375, -1.091064453125, -0.015625000000, -102.929687500000, -50.664062500000, 34.250000000000, 1492750289
0.103271484375, -1.160156250000, -0.038818359375, -106.914062500000, -14.968750000000, 37.156250000000, 1492750289
0.103271484375, -1.160156250000, -0.038818359375, -106.914062500000, -14.968750000000, 37.156250000000, 1492750289
0.103271484375, -1.160156250000, -0.038818359375, -106.914062500000, -14.968750000000, 37.156250000000, 1492750289
-0.001464843750, -1.440673828125, -0.088378906250, -128.484375000000, -16.218750000000, 32.335937500000, 1492750289
-0.001464843750, -1.440673828125, -0.088378906250, -128.484375000000, -16.218750000000, 32.335937500000, 1492750289
-0.001464843750, -1.440673828125, -0.088378906250, -128.484375000000, -16.218750000000, 32.335937500000, 1492750289
-0.001464843750, -1.440673828125, -0.088378906250, -128.484375000000, -16.218750000000, 32.335937500000, 1492750289
-0.002929687500, -1.411376953125, 0.082763671875, -170.500000000000, -62.023437500000, -12.570312500000, 1492750289
-0.002929687500, -1.411376953125, 0.082763671875, -170.500000000000, -62.023437500000, -12.570312500000, 1492750289
-0.002929687500, -1.411376953125, 0.082763671875, -170.500000000000, -62.023437500000, -12.570312500000, 1492750289
0.082031250000, -1.021728515625, 0.033691406250, -59.250000000000, -45.617187500000, -67.812500000000, 1492750289
0.082031250000, -1.021728515625, 0.033691406250, -59.250000000000, -45.617187500000, -67.812500000000, 1492750289
0.082031250000, -1.021728515625, 0.033691406250, -59.250000000000, -45.617187500000, -67.812500000000, 1492750289
-0.079589843750, -0.916748046875, -0.002685546875, -49.820312500000, 19.515625000000, -44.695312500000, 1492750289
-0.079589843750, -0.916748046875, -0.002685546875, -49.820312500000, 19.515625000000, -44.695312500000, 1492750289
-0.079589843750, -0.916748046875, -0.002685546875, -49.820312500000, 19.515625000000, -44.695312500000, 1492750289
0.994384765625, -0.873535156250, 0.087646484375, -13.273437500000, 148.742187500000, 213.320312500000, 1492750289
0.994384765625, -0.873535156250, 0.087646484375, -13.273437500000, 148.742187500000, 213.320312500000, 1492750289
0.994384765625, -0.873535156250, 0.087646484375, -13.273437500000, 148.742187500000, 213.320312500000, 1492750289
0.994384765625, -0.873535156250, 0.087646484375, -13.273437500000, 148.742187500000, 213.320312500000, 1492750289
0.777343750000, -0.706298828125, 0.110107421875, 188.617187500000, -121.570312500000, -67.484375000000, 1492750289
0.777343750000, -0.706298828125, 0.110107421875, 188.617187500000, -121.570312500000, -67.484375000000, 1492750289
0.777343750000, -0.706298828125, 0.110107421875, 188.617187500000, -121.570312500000, -67.484375000000, 1492750289
1.015625000000, -1.783691406250, 0.262695312500, 251.187500000000, -19.460937500000, 60.460937500000, 1492750289
1.015625000000, -1.783691406250, 0.262695312500, 251.187500000000, -19.460937500000, 60.460937500000, 1492750289
1.015625000000, -1.783691406250, 0.262695312500, 251.187500000000, -19.460937500000, 60.460937500000, 1492750289
-0.122802734375, -3.430664062500, 7.054687500000, 253.992187500000, 253.992187500000, 152.773437500000, 1492750289
-0.122802734375, -3.430664062500, 7.054687500000, 253.992187500000, 253.992187500000, 152.773437500000, 1492750289
-0.122802734375, -3.430664062500, 7.054687500000, 253.992187500000, 253.992187500000, 152.773437500000, 1492750289
0.374023437500, -0.866210937500, 0.146484375000, -256.000000000000, 40.796875000000, -34.218750000000, 1492750289
0.374023437500, -0.866210937500, 0.146484375000, -256.000000000000, 40.796875000000, -34.218750000000, 1492750289
0.374023437500, -0.866210937500, 0.146484375000, -256.000000000000, 40.796875000000, -34.218750000000, 1492750289
0.374023437500, -0.866210937500, 0.146484375000, -256.000000000000, 40.796875000000, -34.218750000000, 1492750289
0.589111328125, -0.759277343750, 0.042236328125, -129.117187500000, -212.789062500000, 71.546875000000, 1492750289
0.589111328125, -0.759277343750, 0.042236328125, -129.117187500000, -212.789062500000, 71.546875000000, 1492750289
0.589111328125, -0.759277343750, 0.042236328125, -129.117187500000, -212.789062500000, 71.546875000000, 1492750289
0.114746093750, -0.376220703125, 0.124267578125, -84.718750000000, -115.882812500000, 26.421875000000, 1492750289
0.114746093750, -0.376220703125, 0.124267578125, -84.718750000000, -115.882812500000, 26.421875000000, 1492750289
0.114746093750, -0.376220703125, 0.124267578125, -84.718750000000, -115.882812500000, 26.421875000000, 1492750289
0.231933593750, -0.280029296875, 0.678466796875, 6.789062500000, 242.757812500000, 58.812500000000, 1492750289
0.231933593750, -0.280029296875, 0.678466796875, 6.789062500000, 242.757812500000, 58.812500000000, 1492750289
0.231933593750, -0.280029296875, 0.678466796875, 6.789062500000, 242.757812500000, 58.812500000000, 1492750289
0.166503906250, -0.402587890625, 0.129638671875, -91.773437500000, 128.085937500000, 22.695312500000, 1492750289
0.166503906250, -0.402587890625, 0.129638671875, -91.773437500000, 128.085937500000, 22.695312500000, 1492750289
0.166503906250, -0.402587890625, 0.129638671875, -91.773437500000, 128.085937500000, 22.695312500000, 1492750289
0.184814453125, -0.437744140625, 0.148193359375, -98.468750000000, 70.054687500000, 20.953125000000, 1492750289
0.207519531250, -0.356201171875, 0.383300781250, -66.242187500000, -40.351562500000, 31.171875000000, 1492750289
0.207519531250, -0.356201171875, 0.383300781250, -66.242187500000, -40.351562500000, 31.171875000000, 1492750289
0.207519531250, -0.356201171875, 0.383300781250, -66.242187500000, -40.351562500000, 31.171875000000, 1492750289
0.521728515625, -0.691406250000, 0.930419921875, -157.546875000000, -46.984375000000, 0.515625000000, 1492750289
0.521728515625, -0.691406250000, 0.930419921875, -157.546875000000, -46.984375000000, 0.515625000000, 1492750289
0.521728515625, -0.691406250000, 0.930419921875, -157.546875000000, -46.984375000000, 0.515625000000, 1492750289
0.404785156250, -0.541259765625, 0.645263671875, -124.023437500000, 51.898437500000, 35.554687500000, 1492750289
0.404785156250, -0.541259765625, 0.645263671875, -124.023437500000, 51.898437500000, 35.554687500000, 1492750289
0.404785156250, -0.541259765625, 0.645263671875, -124.023437500000, 51.898437500000, 35.554687500000, 1492750289
0.630859375000, -0.532470703125, 1.276855468750, -147.554687500000, -54.484375000000, 30.171875000000, 1492750289
0.630859375000, -0.532470703125, 1.276855468750, -147.554687500000, -54.484375000000, 30.171875000000, 1492750289
0.630859375000, -0.532470703125, 1.276855468750, -147.554687500000, -54.484375000000, 30.171875000000, 1492750289
0.630859375000, -0.532470703125, 1.276855468750, -147.554687500000, -54.484375000000, 30.171875000000, 1492750289
0.852539062500, -0.500488281250, 1.294677734375, -116.687500000000, 9.445312500000, 32.085937500000, 1492750289
0.852539062500, -0.500488281250, 1.294677734375, -116.687500000000, 9.445312500000, 32.085937500000, 1492750289
0.852539062500, -0.500488281250, 1.294677734375, -116.687500000000, 9.445312500000, 32.085937500000, 1492750289
0.688720703125, -0.174316406250, 1.296630859375, -110.437500000000, 14.093750000000, 49.039062500000, 1492750290
0.688720703125, -0.174316406250, 1.296630859375, -110.437500000000, 14.093750000000, 49.039062500000, 1492750290
0.688720703125, -0.174316406250, 1.296630859375, -110.437500000000, 14.093750000000, 49.039062500000, 1492750290
0.524658203125, 0.036865234375, 0.945068359375, -15.859375000000, -120.882812500000, -41.921875000000, 1492750290
0.524658203125, 0.036865234375, 0.945068359375, -15.859375000000, -120.882812500000, -41.921875000000, 1492750290
0.524658203125, 0.036865234375, 0.945068359375, -15.859375000000, -120.882812500000, -41.921875000000, 1492750290
0.385253906250, 0.147460937500, 0.714355468750, -94.625000000000, 79.789062500000, 37.484375000000, 1492750290
0.385253906250, 0.147460937500, 0.714355468750, -94.625000000000, 79.789062500000, 37.484375000000, 1492750290
0.385253906250, 0.147460937500, 0.714355468750, -94.625000000000, 79.789062500000, 37.484375000000, 1492750290
0.385253906250, 0.147460937500, 0.714355468750, -94.625000000000, 79.789062500000, 37.484375000000, 1492750290
0.279785156250, 0.111083984375, 0.403076171875, -46.500000000000, -41.085937500000, 1.171875000000, 1492750290
0.279785156250, 0.111083984375, 0.403076171875, -46.500000000000, -41.085937500000, 1.171875000000, 1492750290
0.279785156250, 0.111083984375, 0.403076171875, -46.500000000000, -41.085937500000, 1.171875000000, 1492750290
0.676269531250, 0.113037109375, 1.119873046875, 90.179687500000, -256.000000000000, -100.554687500000, 1492750290
0.676269531250, 0.113037109375, 1.119873046875, 90.179687500000, -256.000000000000, -100.554687500000, 1492750290
0.676269531250, 0.113037109375, 1.119873046875, 90.179687500000, -256.000000000000, -100.554687500000, 1492750290
0.640869140625, -0.121826171875, 0.712402343750, -126.289062500000, 38.609375000000, -67.992187500000, 1492750290
0.640869140625, -0.121826171875, 0.712402343750, -126.289062500000, 38.609375000000, -67.992187500000, 1492750290
0.640869140625, -0.121826171875, 0.712402343750, -126.289062500000, 38.609375000000, -67.992187500000, 1492750290
0.597167968750, -0.080810546875, 0.494384765625, -5.281250000000, -61.679687500000, -108.156250000000, 1492750290
0.597167968750, -0.080810546875, 0.494384765625, -5.281250000000, -61.679687500000, -108.156250000000, 1492750290
0.597167968750, -0.080810546875, 0.494384765625, -5.281250000000, -61.679687500000, -108.156250000000, 1492750290
0.597167968750, -0.080810546875, 0.494384765625, -5.281250000000, -61.679687500000, -108.156250000000, 1492750290
0.799072265625, -0.143066406250, 0.961669921875, 65.156250000000, -252.460937500000, -79.132812500000, 1492750290
0.799072265625, -0.143066406250, 0.961669921875, 65.156250000000, -252.460937500000, -79.132812500000, 1492750290
0.799072265625, -0.143066406250, 0.961669921875, 65.156250000000, -252.460937500000, -79.132812500000, 1492750290
0.936279296875, -0.262939453125, 0.831298828125, -75.632812500000, -33.562500000000, -63.015625000000, 1492750290
0.936279296875, -0.262939453125, 0.831298828125, -75.632812500000, -33.562500000000, -63.015625000000, 1492750290
0.936279296875, -0.262939453125, 0.831298828125, -75.632812500000, -33.562500000000, -63.015625000000, 1492750290
1.464355468750, -0.478515625000, 0.725341796875, -19.906250000000, -0.617187500000, -10.695312500000, 1492750290
1.464355468750, -0.478515625000, 0.725341796875, -19.906250000000, -0.617187500000, -10.695312500000, 1492750290
1.464355468750, -0.478515625000, 0.725341796875, -19.906250000000, -0.617187500000, -10.695312500000, 1492750290
0.945556640625, -0.415527343750, 0.501953125000, -26.062500000000, -53.273437500000, 8.148437500000, 1492750290
0.802978515625, -0.360107421875, 0.334472656250, 30.500000000000, -7.953125000000, -3.960937500000, 1492750290
0.802978515625, -0.360107421875, 0.334472656250, 30.500000000000, -7.953125000000, -3.960937500000, 1492750290
0.802978515625, -0.360107421875, 0.334472656250, 30.500000000000, -7.953125000000, -3.960937500000, 1492750290
0.802978515625, -0.360107421875, 0.334472656250, 30.500000000000, -7.953125000000, -3.960937500000, 1492750290
1.015625000000, -0.357910156250, 0.300048828125, 34.203125000000, 5.000000000000, 66.398437500000, 1492750290
0.549316406250, -0.170654296875, 0.333251953125, 34.203125000000, 5.000000000000, 66.398437500000, 1492750290
0.549316406250, -0.170654296875, 0.333251953125, 34.203125000000, 5.000000000000, 66.398437500000, 1492750290
0.549316406250, -0.170654296875, 0.333251953125, 34.203125000000, 5.000000000000, 66.398437500000, 1492750290
0.881103515625, -0.578125000000, 0.488525390625, 31.851562500000, 0.593750000000, -9.171875000000, 1492750290
0.881103515625, -0.578125000000, 0.488525390625, 31.851562500000, 0.593750000000, -9.171875000000, 1492750290
0.881103515625, -0.578125000000, 0.488525390625, 31.851562500000, 0.593750000000, -9.171875000000, 1492750290
0.881103515625, -0.578125000000, 0.488525390625, 31.851562500000, 0.593750000000, -9.171875000000, 1492750290
0.736328125000, -0.394042968750, 0.308593750000, -3.312500000000, -8.804687500000, 11.867187500000, 1492750290
0.736328125000, -0.394042968750, 0.308593750000, -3.312500000000, -8.804687500000, 11.867187500000, 1492750290
0.736328125000, -0.394042968750, 0.308593750000, -3.312500000000, -8.804687500000, 11.867187500000, 1492750290
0.736328125000, -0.394042968750, 0.308593750000, -3.312500000000, -8.804687500000, 11.867187500000, 1492750290
0.736328125000, -0.394042968750, 0.308593750000, -3.312500000000, -8.804687500000, 11.867187500000, 1492750290
0.921875000000, -0.506103515625, 0.467529296875, -12.218750000000, 52.054687500000, -40.171875000000, 1492750290
0.921875000000, -0.506103515625, 0.467529296875, -12.218750000000, 52.054687500000, -40.171875000000, 1492750290
0.921875000000, -0.506103515625, 0.467529296875, -12.218750000000, 52.054687500000, -40.171875000000, 1492750290
0.921875000000, -0.506103515625, 0.467529296875, -12.218750000000, 52.054687500000, -40.171875000000, 1492750290
0.680175781250, -0.517333984375, 0.354492187500, -26.132812500000, 43.210937500000, -36.640625000000, 1492750290
0.680175781250, -0.517333984375, 0.354492187500, -26.132812500000, 43.210937500000, -36.640625000000, 1492750290
0.680175781250, -0.517333984375, 0.354492187500, -26.132812500000, 43.210937500000, -36.640625000000, 1492750290
0.680175781250, -0.517333984375, 0.354492187500, -26.132812500000, 43.210937500000, -36.640625000000, 1492750290
0.690429687500, -0.509521484375, 0.655517578125, -43.593750000000, 76.992187500000, -19.179687500000, 1492750290
0.690429687500, -0.509521484375, 0.655517578125, -43.593750000000, 76.992187500000, -19.179687500000, 1492750290
0.690429687500, -0.509521484375, 0.655517578125, -43.593750000000, 76.992187500000, -19.179687500000, 1492750290
0.690429687500, -0.509521484375, 0.655517578125, -43.593750000000, 76.992187500000, -19.179687500000, 1492750290
0.716064453125, -0.426513671875, 0.695068359375, -28.085937500000, 29.687500000000, -19.632812500000, 1492750290
0.716064453125, -0.426513671875, 0.695068359375, -28.085937500000, 29.687500000000, -19.632812500000, 1492750290
0.716064453125, -0.426513671875, 0.695068359375, -28.085937500000, 29.687500000000, -19.632812500000, 1492750290
0.596923828125, -0.504394531250, 0.674072265625, -24.562500000000, 27.132812500000, -27.546875000000, 1492750290
0.596923828125, -0.504394531250, 0.674072265625, -24.562500000000, 27.132812500000, -27.546875000000, 1492750291
0.596923828125, -0.504394531250, 0.674072265625, -24.562500000000, 27.132812500000, -27.546875000000, 1492750291
0.431152343750, -0.387695312500, 0.677246093750, -10.562500000000, -22.601562500000, -5.179687500000, 1492750291
0.431152343750, -0.387695312500, 0.677246093750, -10.562500000000, -22.601562500000, -5.179687500000, 1492750291
0.431152343750, -0.387695312500, 0.677246093750, -10.562500000000, -22.601562500000, -5.179687500000, 1492750291
0.769531250000, -0.395019531250, 0.826416015625, -4.437500000000, 9.890625000000, -3.820312500000, 1492750291
0.769531250000, -0.395019531250, 0.826416015625, -4.437500000000, 9.890625000000, -3.820312500000, 1492750291
0.769531250000, -0.395019531250, 0.826416015625, -4.437500000000, 9.890625000000, -3.820312500000, 1492750291
0.769531250000, -0.395019531250, 0.826416015625, -4.437500000000, 9.890625000000, -3.820312500000, 1492750291
0.628417968750, -0.375732421875, 0.719238281250, -7.476562500000, 5.046875000000, -7.148437500000, 1492750291
0.628417968750, -0.375732421875, 0.719238281250, -7.476562500000, 5.046875000000, -7.148437500000, 1492750291
0.628417968750, -0.375732421875, 0.719238281250, -7.476562500000, 5.046875000000, -7.148437500000, 1492750291
0.753173828125, -0.408691406250, 0.753173828125, -4.257812500000, -0.890625000000, -3.890625000000, 1492750291
0.753173828125, -0.408691406250, 0.753173828125, -4.257812500000, -0.890625000000, -3.890625000000, 1492750291
0.753173828125, -0.408691406250, 0.753173828125, -4.257812500000, -0.890625000000, -3.890625000000, 1492750291
0.628906250000, -0.406738281250, 0.699951171875, 6.093750000000, 7.109375000000, 3.406250000000, 1492750291
0.628906250000, -0.406738281250, 0.699951171875, 6.093750000000, 7.109375000000, 3.406250000000, 1492750291
0.628906250000, -0.406738281250, 0.699951171875, 6.093750000000, 7.109375000000, 3.406250000000, 1492750291
0.635009765625, -0.417724609375, 0.716796875000, -5.398437500000, -2.187500000000, -7.617187500000, 1492750291
0.635009765625, -0.417724609375, 0.716796875000, -5.398437500000, -2.187500000000, -7.617187500000, 1492750291
0.635009765625, -0.417724609375, 0.716796875000, -5.398437500000, -2.187500000000, -7.617187500000, 1492750291
0.635009765625, -0.417724609375, 0.716796875000, -5.398437500000, -2.187500000000, -7.617187500000, 1492750291
0.697021484375, -0.465576171875, 0.660156250000, -5.148437500000, 5.718750000000, -0.367187500000, 1492750291
0.697021484375, -0.465576171875, 0.660156250000, -5.148437500000, 5.718750000000, -0.367187500000, 1492750291
0.697021484375, -0.465576171875, 0.660156250000, -5.148437500000, 5.718750000000, -0.367187500000, 1492750291
0.583740234375, -0.440185546875, 0.623535156250, -3.296875000000, -4.203125000000, -0.437500000000, 1492750291
0.583740234375, -0.440185546875, 0.623535156250, -3.296875000000, -4.203125000000, -0.437500000000, 1492750291
0.583740234375, -0.440185546875, 0.623535156250, -3.296875000000, -4.203125000000, -0.437500000000, 1492750291
0.701904296875, -0.525146484375, 0.706298828125, -1.703125000000, 3.429687500000, -0.695312500000, 1492750291
0.701904296875, -0.525146484375, 0.706298828125, -1.703125000000, 3.429687500000, -0.695312500000, 1492750291
0.701904296875, -0.525146484375, 0.706298828125, -1.703125000000, 3.429687500000, -0.695312500000, 1492750291
0.657958984375, -0.462646484375, 0.774414062500, -5.757812500000, 1.718750000000, -1.023437500000, 1492750291
0.657958984375, -0.462646484375, 0.774414062500, -5.757812500000, 1.718750000000, -1.023437500000, 1492750291
0.657958984375, -0.462646484375, 0.774414062500, -5.757812500000, 1.718750000000, -1.023437500000, 1492750291
0.657958984375, -0.462646484375, 0.774414062500, -5.757812500000, 1.718750000000, -1.023437500000, 1492750291
0.636718750000, -0.363281250000, 0.658935546875, -8.210937500000, -2.687500000000, -1.343750000000, 1492750291
0.636718750000, -0.363281250000, 0.658935546875, -8.210937500000, -2.687500000000, -1.343750000000, 1492750291
0.636718750000, -0.363281250000, 0.658935546875, -8.210937500000, -2.687500000000, -1.343750000000, 1492750291
0.629394531250, -0.452392578125, 0.766845703125, -4.328125000000, 4.898437500000, -3.757812500000, 1492750291
0.629394531250, -0.452392578125, 0.766845703125, -4.328125000000, 4.898437500000, -3.757812500000, 1492750291
0.629394531250, -0.452392578125, 0.766845703125, -4.328125000000, 4.898437500000, -3.757812500000, 1492750291
0.638916015625, -0.520751953125, 0.724365234375, -4.171875000000, -16.117187500000, -8.437500000000, 1492750291
0.638916015625, -0.520751953125, 0.724365234375, -4.171875000000, -16.117187500000, -8.437500000000, 1492750291
0.638916015625, -0.520751953125, 0.724365234375, -4.171875000000, -16.117187500000, -8.437500000000, 1492750291
0.646728515625, -0.424804687500, 0.585937500000, -3.289062500000, -12.750000000000, -3.531250000000, 1492750291
0.646728515625, -0.424804687500, 0.585937500000, -3.289062500000, -12.750000000000, -3.531250000000, 1492750291
0.646728515625, -0.424804687500, 0.585937500000, -3.289062500000, -12.750000000000, -3.531250000000, 1492750291
0.646728515625, -0.424804687500, 0.585937500000, -3.289062500000, -12.750000000000, -3.531250000000, 1492750291
0.538818359375, -0.358398437500, 0.662597656250, -2.070312500000, -0.609375000000, -4.671875000000, 1492750291
0.538818359375, -0.358398437500, 0.662597656250, -2.070312500000, -0.609375000000, -4.671875000000, 1492750291
0.538818359375, -0.358398437500, 0.662597656250, -2.070312500000, -0.609375000000, -4.671875000000, 1492750291
0.543457031250, -0.442382812500, 0.663574218750, -0.968750000000, -6.046875000000, 0.843750000000, 1492750291
0.543457031250, -0.442382812500, 0.663574218750, -0.968750000000, -6.046875000000, 0.843750000000, 1492750291
0.543457031250, -0.442382812500, 0.663574218750, -0.968750000000, -6.046875000000, 0.843750000000, 1492750291
0.554443359375, -0.489746093750, 0.706054687500, -4.554687500000, -2.562500000000, -2.875000000000, 1492750291
0.554443359375, -0.489746093750, 0.706054687500, -4.554687500000, -2.562500000000, -2.875000000000, 1492750291
0.554443359375, -0.489746093750, 0.706054687500, -4.554687500000, -2.562500000000, -2.875000000000, 1492750291
0.611328125000, -0.509765625000, 0.712158203125, -6.140625000000, 0.742187500000, -2.195312500000, 1492750291
0.611328125000, -0.509765625000, 0.712158203125, -6.140625000000, 0.742187500000, -2.195312500000, 1492750291
0.611328125000, -0.509765625000, 0.712158203125, -6.140625000000, 0.742187500000, -2.195312500000, 1492750291
0.646240234375, -0.500244140625, 0.715820312500, -2.710937500000, -0.781250000000, -4.992187500000, 1492750291
0.646240234375, -0.500244140625, 0.715820312500, -2.710937500000, -0.781250000000, -4.992187500000, 1492750291
0.646240234375, -0.500244140625, 0.715820312500, -2.710937500000, -0.781250000000, -4.992187500000, 1492750291
0.646240234375, -0.500244140625, 0.715820312500, -2.710937500000, -0.781250000000, -4.992187500000, 1492750291
0.577880859375, -0.458740234375, 0.612548828125, -3.109375000000, -0.562500000000, -4.257812500000, 1492750291
0.577880859375, -0.458740234375, 0.612548828125, -3.109375000000, -0.562500000000, -4.257812500000, 1492750291
0.577880859375, -0.458740234375, 0.612548828125, -3.109375000000, -0.562500000000, -4.257812500000, 1492750291
0.607177734375, -0.407958984375, 0.701660156250, -3.867187500000, 0.179687500000, -4.687500000000, 1492750292
0.607177734375, -0.407958984375, 0.701660156250, -3.867187500000, 0.179687500000, -4.687500000000, 1492750292
0.607177734375, -0.407958984375, 0.701660156250, -3.867187500000, 0.179687500000, -4.687500000000, 1492750292
0.641357421875, -0.452148437500, 0.702392578125, -5.070312500000, 4.390625000000, -4.265625000000, 1492750292
0.641357421875, -0.452148437500, 0.702392578125, -5.070312500000, 4.390625000000, -4.265625000000, 1492750292
0.641357421875, -0.452148437500, 0.702392578125, -5.070312500000, 4.390625000000, -4.265625000000, 1492750292
0.641357421875, -0.452148437500, 0.702392578125, -5.070312500000, 4.390625000000, -4.265625000000, 1492750292
0.759765625000, -0.530029296875, 0.668212890625, -3.453125000000, 1.593750000000, -5.164062500000, 1492750292
0.759765625000, -0.530029296875, 0.668212890625, -3.453125000000, 1.593750000000, -5.164062500000, 1492750292
0.759765625000, -0.530029296875, 0.668212890625, -3.453125000000, 1.593750000000, -5.164062500000, 1492750292
0.708251953125, -0.416503906250, 0.662841796875, -5.296875000000, 2.203125000000, -3.593750000000, 1492750292
0.708251953125, -0.416503906250, 0.662841796875, -5.296875000000, 2.203125000000, -3.593750000000, 1492750292
0.708251953125, -0.416503906250, 0.662841796875, -5.296875000000, 2.203125000000, -3.593750000000, 1492750292
0.693359375000, -0.473876953125, 0.713378906250, -3.312500000000, 1.367187500000, -3.515625000000, 1492750292
0.693359375000, -0.473876953125, 0.713378906250, -3.312500000000, 1.367187500000, -3.515625000000, 1492750292
0.693359375000, -0.473876953125, 0.713378906250, -3.312500000000, 1.367187500000, -3.515625000000, 1492750292
0.655517578125, -0.440185546875, 0.663574218750, -4.523437500000, 5.390625000000, -2.507812500000, 1492750292
0.655517578125, -0.440185546875, 0.663574218750, -4.523437500000, 5.390625000000, -2.507812500000, 1492750292
0.531738281250, -0.520996093750, 0.649658203125, -2.031250000000, 2.195312500000, -1.679687500000, 1492750292
0.531738281250, -0.520996093750, 0.649658203125, -2.031250000000, 2.195312500000, -1.679687500000, 1492750292
0.531738281250, -0.520996093750, 0.649658203125, -2.031250000000, 2.195312500000, -1.679687500000, 1492750292
0.531738281250, -0.520996093750, 0.649658203125, -2.031250000000, 2.195312500000, -1.679687500000, 1492750292
0.531738281250, -0.520996093750, 0.649658203125, -3.242187500000, 1.328125000000, -4.078125000000, 1492750292
0.655273437500, -0.374023437500, 0.760253906250, -3.062500000000, -2.539062500000, -1.710937500000, 1492750292
0.655273437500, -0.374023437500, 0.760253906250, -3.062500000000, -2.539062500000, -1.710937500000, 1492750292
0.655273437500, -0.374023437500, 0.760253906250, -3.062500000000, -2.539062500000, -1.710937500000, 1492750292
0.565917968750, -0.458251953125, 0.688232421875, -2.312500000000, 0.546875000000, -4.039062500000, 1492750292
0.565917968750, -0.458251953125, 0.688232421875, -2.312500000000, 0.546875000000, -4.039062500000, 1492750292
0.565917968750, -0.458251953125, 0.688232421875, -2.312500000000, 0.546875000000, -4.039062500000, 1492750292
0.705078125000, -0.426025390625, 0.708740234375, -3.984375000000, 2.414062500000, -1.437500000000, 1492750292
0.705078125000, -0.426025390625, 0.708740234375, -3.984375000000, 2.414062500000, -1.437500000000, 1492750292
0.705078125000, -0.426025390625, 0.708740234375, -3.984375000000, 2.414062500000, -1.437500000000, 1492750292
0.625732421875, -0.468017578125, 0.687988281250, -5.804687500000, 4.601562500000, -1.835937500000, 1492750292
0.625732421875, -0.468017578125, 0.687988281250, -5.804687500000, 4.601562500000, -1.835937500000, 1492750292
0.625732421875, -0.468017578125, 0.687988281250, -5.804687500000, 4.601562500000, -1.835937500000, 1492750292
0.625732421875, -0.468017578125, 0.687988281250, -5.804687500000, 4.601562500000, -1.835937500000, 1492750292
0.556884765625, -0.307617187500, 0.632568359375, -8.734375000000, 48.125000000000, -11.429687500000, 1492750292
0.556884765625, -0.307617187500, 0.632568359375, -8.734375000000, 48.125000000000, -11.429687500000, 1492750292
0.556884765625, -0.307617187500, 0.632568359375, -8.734375000000, 48.125000000000, -11.429687500000, 1492750292
0.661621093750, -0.464843750000, 0.719970703125, -4.265625000000, 99.335937500000, -19.187500000000, 1492750292
0.661621093750, -0.464843750000, 0.719970703125, -4.265625000000, 99.335937500000, -19.187500000000, 1492750292
0.661621093750, -0.464843750000, 0.719970703125, -4.265625000000, 99.335937500000, -19.187500000000, 1492750292
0.443359375000, -0.551269531250, 0.781738281250, -10.296875000000, 82.906250000000, -24.687500000000, 1492750292
0.443359375000, -0.551269531250, 0.781738281250, -10.296875000000, 82.906250000000, -24.687500000000, 1492750292
0.443359375000, -0.551269531250, 0.781738281250, -10.296875000000, 82.906250000000, -24.687500000000, 1492750292
0.414794921875, -0.570800781250, 0.781494140625, -24.281250000000, 73.468750000000, 10.429687500000, 1492750292
0.492919921875, -0.473144531250, 0.850097656250, -24.281250000000, 73.468750000000, 10.429687500000, 1492750292
0.492919921875, -0.473144531250, 0.850097656250, -24.281250000000, 73.468750000000, 10.429687500000, 1492750292
0.492919921875, -0.473144531250, 0.850097656250, -24.281250000000, 73.468750000000, 10.429687500000, 1492750292
0.512939453125, -0.494140625000, 0.887939453125, -5.023437500000, 32.359375000000, -7.500000000000, 1492750292
0.512939453125, -0.494140625000, 0.887939453125, -5.023437500000, 32.359375000000, -7.500000000000, 1492750292
0.512939453125, -0.494140625000, 0.887939453125, -5.023437500000, 32.359375000000, -7.500000000000, 1492750292
0.357421875000, -0.366943359375, 0.888916015625, -6.554687500000, 9.742187500000, -8.570312500000, 1492750292
0.357421875000, -0.366943359375, 0.888916015625, -6.554687500000, 9.742187500000, -8.570312500000, 1492750292
0.357421875000, -0.366943359375, 0.888916015625, -6.554687500000, 9.742187500000, -8.570312500000, 1492750292
0.404296875000, -0.448242187500, 0.730224609375, -10.976562500000, 23.085937500000, -3.500000000000, 1492750292
0.404296875000, -0.448242187500, 0.730224609375, -10.976562500000, 23.085937500000, -3.500000000000, 1492750292
0.404296875000, -0.448242187500, 0.730224609375, -10.976562500000, 23.085937500000, -3.500000000000, 1492750292
0.404296875000, -0.448242187500, 0.730224609375, -10.976562500000, 23.085937500000, -3.500000000000, 1492750292
0.358886718750, -0.443359375000, 0.964599609375, -1.343750000000, 39.781250000000, -7.429687500000, 1492750292
0.358886718750, -0.443359375000, 0.964599609375, -1.343750000000, 39.781250000000, -7.429687500000, 1492750292
0.358886718750, -0.443359375000, 0.964599609375, -1.343750000000, 39.781250000000, -7.429687500000, 1492750292
0.398193359375, -0.496826171875, 0.832031250000, -17.835937500000, -3.531250000000, -5.812500000000, 1492750292
0.398193359375, -0.496826171875, 0.832031250000, -17.835937500000, -3.531250000000, -5.812500000000, 1492750292
0.398193359375, -0.496826171875, 0.832031250000, -17.835937500000, -3.531250000000, -5.812500000000, 1492750292
0.263183593750, -0.287353515625, 0.780761718750, -4.906250000000, 25.609375000000, -4.406250000000, 1492750292
0.263183593750, -0.287353515625, 0.780761718750, -4.906250000000, 25.609375000000, -4.406250000000, 1492750293
0.263183593750, -0.287353515625, 0.780761718750, -4.906250000000, 25.609375000000, -4.406250000000, 1492750293
0.177978515625, -0.357666015625, 0.922851562500, 7.218750000000, 38.640625000000, -5.648437500000, 1492750293
0.177978515625, -0.357666015625, 0.922851562500, 7.218750000000, 38.640625000000, -5.648437500000, 1492750293
0.177978515625, -0.357666015625, 0.922851562500, 7.218750000000, 38.640625000000, -5.648437500000, 1492750293
0.177978515625, -0.357666015625, 0.922851562500, 7.218750000000, 38.640625000000, -5.648437500000, 1492750293
0.311279296875, -0.581787109375, 0.898437500000, -16.320312500000, -32.226562500000, -7.718750000000, 1492750293
0.311279296875, -0.581787109375, 0.898437500000, -16.320312500000, -32.226562500000, -7.718750000000, 1492750293
0.311279296875, -0.581787109375, 0.898437500000, -16.320312500000, -32.226562500000, -7.718750000000, 1492750293
0.393066406250, -0.419433593750, 0.677490234375, -8.968750000000, 15.015625000000, 5.007812500000, 1492750293
0.393066406250, -0.419433593750, 0.677490234375, -8.968750000000, 15.015625000000, 5.007812500000, 1492750293
0.393066406250, -0.419433593750, 0.677490234375, -8.968750000000, 15.015625000000, 5.007812500000, 1492750293
0.238037109375, -0.387207031250, 0.923095703125, -0.273437500000, 42.640625000000, -1.945312500000, 1492750293
0.238037109375, -0.387207031250, 0.923095703125, -0.273437500000, 42.640625000000, -1.945312500000, 1492750293
0.238037109375, -0.387207031250, 0.923095703125, -0.273437500000, 42.640625000000, -1.945312500000, 1492750293
0.279052734375, -0.583251953125, 1.028564453125, -12.195312500000, -3.679687500000, -10.046875000000, 1492750293
0.279052734375, -0.583251953125, 1.028564453125, -12.195312500000, -3.679687500000, -10.046875000000, 1492750293
0.279052734375, -0.583251953125, 1.028564453125, -12.195312500000, -3.679687500000, -10.046875000000, 1492750293
0.279052734375, -0.583251953125, 1.028564453125, -12.195312500000, -3.679687500000, -10.046875000000, 1492750293
0.270751953125, -0.530029296875, 0.739990234375, -4.921875000000, -41.679687500000, 4.695312500000, 1492750293
0.270751953125, -0.530029296875, 0.739990234375, -4.921875000000, -41.679687500000, 4.695312500000, 1492750293
0.270751953125, -0.530029296875, 0.739990234375, -4.921875000000, -41.679687500000, 4.695312500000, 1492750293
0.221191406250, -0.294189453125, 0.783447265625, -10.445312500000, 13.710937500000, 10.640625000000, 1492750293
0.221191406250, -0.294189453125, 0.783447265625, -10.445312500000, 13.710937500000, 10.640625000000, 1492750293
0.221191406250, -0.294189453125, 0.783447265625, -10.445312500000, 13.710937500000, 10.640625000000, 1492750293
0.230957031250, -0.380859375000, 1.023681640625, -7.062500000000, 6.140625000000, -2.007812500000, 1492750293
0.230957031250, -0.380859375000, 1.023681640625, -7.062500000000, 6.140625000000, -2.007812500000, 1492750293
0.230957031250, -0.380859375000, 1.023681640625, -7.062500000000, 6.140625000000, -2.007812500000, 1492750293
0.401611328125, -0.435546875000, 0.955810546875, -3.648437500000, -20.234375000000, -7.140625000000, 1492750293
0.401611328125, -0.435546875000, 0.955810546875, -3.648437500000, -20.234375000000, -7.140625000000, 1492750293
0.401611328125, -0.435546875000, 0.955810546875, -3.648437500000, -20.234375000000, -7.140625000000, 1492750293
0.401611328125, -0.435546875000, 0.955810546875, -3.648437500000, -20.234375000000, -7.140625000000, 1492750293
0.380371093750, -0.440917968750, 0.938476562500, -3.664062500000, 8.210937500000, 4.164062500000, 1492750293
0.380371093750, -0.440917968750, 0.938476562500, -3.664062500000, 8.210937500000, 4.164062500000, 1492750293
0.380371093750, -0.440917968750, 0.938476562500, -3.664062500000, 8.210937500000, 4.164062500000, 1492750293
0.329833984375, -0.244384765625, 0.894287109375, -4.671875000000, 4.757812500000, 0.914062500000, 1492750293
0.329833984375, -0.244384765625, 0.894287109375, -4.671875000000, 4.757812500000, 0.914062500000, 1492750293
0.329833984375, -0.244384765625, 0.894287109375, -4.671875000000, 4.757812500000, 0.914062500000, 1492750293
0.283203125000, -0.308593750000, 0.812255859375, 4.093750000000, 1.796875000000, -11.078125000000, 1492750293
0.283203125000, -0.308593750000, 0.812255859375, 4.093750000000, 1.796875000000, -11.078125000000, 1492750293
0.283203125000, -0.308593750000, 0.812255859375, 4.093750000000, 1.796875000000, -11.078125000000, 1492750293
0.295654296875, -0.456054687500, 0.959716796875, -1.359375000000, -1.710937500000, -4.085937500000, 1492750293
0.295654296875, -0.456054687500, 0.959716796875, -1.359375000000, -1.710937500000, -4.085937500000, 1492750293
0.295654296875, -0.456054687500, 0.959716796875, -1.359375000000, -1.710937500000, -4.085937500000, 1492750293
0.295654296875, -0.456054687500, 0.959716796875, -1.359375000000, -1.710937500000, -4.085937500000, 1492750293
0.334228515625, -0.392089843750, 0.885742187500, -3.109375000000, -1.265625000000, 1.601562500000, 1492750293
0.334228515625, -0.392089843750, 0.885742187500, -3.109375000000, -1.265625000000, 1.601562500000, 1492750293
0.334228515625, -0.392089843750, 0.885742187500, -3.109375000000, -1.265625000000, 1.601562500000, 1492750293
0.389892578125, -0.437988281250, 0.942626953125, -1.109375000000, 8.843750000000, -2.968750000000, 1492750293
0.389892578125, -0.437988281250, 0.942626953125, -1.109375000000, 8.843750000000, -2.968750000000, 1492750293
0.389892578125, -0.437988281250, 0.942626953125, -1.109375000000, 8.843750000000, -2.968750000000, 1492750293
0.247558593750, -0.437988281250, 0.917236328125, 4.960937500000, 10.750000000000, -12.507812500000, 1492750293
0.247558593750, -0.437988281250, 0.917236328125, 4.960937500000, 10.750000000000, -12.507812500000, 1492750293
0.247558593750, -0.437988281250, 0.917236328125, 4.960937500000, 10.750000000000, -12.507812500000, 1492750293
0.289794921875, -0.455322265625, 0.858398437500, -6.734375000000, -8.625000000000, -0.921875000000, 1492750293
0.289794921875, -0.455322265625, 0.858398437500, -6.734375000000, -8.625000000000, -0.921875000000, 1492750293
0.289794921875, -0.455322265625, 0.858398437500, -6.734375000000, -8.625000000000, -0.921875000000, 1492750293
0.289794921875, -0.455322265625, 0.858398437500, -6.734375000000, -8.625000000000, -0.921875000000, 1492750293
0.223876953125, -0.461181640625, 0.943115234375, -6.468750000000, 5.710937500000, 1.804687500000, 1492750293
0.223876953125, -0.461181640625, 0.943115234375, -6.468750000000, 5.710937500000, 1.804687500000, 1492750293
0.223876953125, -0.461181640625, 0.943115234375, -6.468750000000, 5.710937500000, 1.804687500000, 1492750293
0.225830078125, -0.448486328125, 0.781982421875, -1.953125000000, 7.953125000000, -5.953125000000, 1492750293
0.225830078125, -0.448486328125, 0.781982421875, -1.953125000000, 7.953125000000, -5.953125000000, 1492750293
0.225830078125, -0.448486328125, 0.781982421875, -1.953125000000, 7.953125000000, -5.953125000000, 1492750293
0.245117187500, -0.416259765625, 0.950195312500, -3.515625000000, 8.429687500000, -9.203125000000, 1492750293
0.245117187500, -0.416259765625, 0.950195312500, -3.515625000000, 8.429687500000, -9.203125000000, 1492750293
0.245117187500, -0.416259765625, 0.950195312500, -3.515625000000, 8.429687500000, -9.203125000000, 1492750293
0.343750000000, -0.454589843750, 0.939941406250, -3.390625000000, -5.835937500000, 2.304687500000, 1492750294
0.343750000000, -0.454589843750, 0.939941406250, -3.390625000000, -5.835937500000, 2.304687500000, 1492750294
0.343750000000, -0.454589843750, 0.939941406250, -3.390625000000, -5.835937500000, 2.304687500000, 1492750294
0.343750000000, -0.454589843750, 0.939941406250, -3.390625000000, -5.835937500000, 2.304687500000, 1492750294
0.260742187500, -0.454833984375, 0.869628906250, -6.421875000000, 0.335937500000, -0.656250000000, 1492750294
0.260742187500, -0.454833984375, 0.869628906250, -6.421875000000, 0.335937500000, -0.656250000000, 1492750294
0.260742187500, -0.454833984375, 0.869628906250, -6.421875000000, 0.335937500000, -0.656250000000, 1492750294
0.314453125000, -0.392578125000, 0.886962890625, -1.921875000000, 12.000000000000, -5.125000000000, 1492750294
0.314453125000, -0.392578125000, 0.886962890625, -1.921875000000, 12.000000000000, -5.125000000000, 1492750294
0.314453125000, -0.392578125000, 0.886962890625, -1.921875000000, 12.000000000000, -5.125000000000, 1492750294
0.251464843750, -0.370361328125, 1.008056640625, 0.203125000000, -2.585937500000, -7.843750000000, 1492750294
0.251464843750, -0.370361328125, 1.008056640625, 0.203125000000, -2.585937500000, -7.843750000000, 1492750294
0.251464843750, -0.370361328125, 1.008056640625, 0.203125000000, -2.585937500000, -7.843750000000, 1492750294
0.338867187500, -0.364990234375, 0.950683593750, -3.781250000000, -1.179687500000, -1.000000000000, 1492750294
0.338867187500, -0.364990234375, 0.950683593750, -3.781250000000, -1.179687500000, -1.000000000000, 1492750294
0.338867187500, -0.364990234375, 0.950683593750, -3.781250000000, -1.179687500000, -1.000000000000, 1492750294
0.257812500000, -0.383544921875, 0.954833984375, -1.507812500000, -1.406250000000, -1.539062500000, 1492750294
0.257812500000, -0.383544921875, 0.954833984375, -1.507812500000, -1.406250000000, -1.539062500000, 1492750294
0.257812500000, -0.383544921875, 0.954833984375, -1.507812500000, -1.406250000000, -1.539062500000, 1492750294
0.257812500000, -0.383544921875, 0.954833984375, -1.507812500000, -1.406250000000, -1.539062500000, 1492750294
0.399169921875, -0.362060546875, 0.945800781250, -1.890625000000, -4.132812500000, -1.984375000000, 1492750294
0.399169921875, -0.362060546875, 0.945800781250, -1.890625000000, -4.132812500000, -1.984375000000, 1492750294
0.399169921875, -0.362060546875, 0.945800781250, -1.890625000000, -4.132812500000, -1.984375000000, 1492750294
0.336914062500, -0.421386718750, 0.958007812500, -4.250000000000, -4.062500000000, -3.468750000000, 1492750294
0.336914062500, -0.421386718750, 0.958007812500, -4.250000000000, -4.062500000000, -3.468750000000, 1492750294
0.336914062500, -0.421386718750, 0.958007812500, -4.250000000000, -4.062500000000, -3.468750000000, 1492750294
0.244873046875, -0.455810546875, 0.862304687500, -1.281250000000, 0.828125000000, -2.984375000000, 1492750294
0.244873046875, -0.455810546875, 0.862304687500, -1.281250000000, 0.828125000000, -2.984375000000, 1492750294
0.244873046875, -0.455810546875, 0.862304687500, -1.281250000000, 0.828125000000, -2.984375000000, 1492750294
0.244873046875, -0.455810546875, 0.862304687500, -1.281250000000, 0.828125000000, -2.984375000000, 1492750294
0.303222656250, -0.429443359375, 0.944580078125, 0.023437500000, 0.015625000000, -3.937500000000, 1492750294
0.303222656250, -0.429443359375, 0.944580078125, 0.023437500000, 0.015625000000, -3.937500000000, 1492750294
0.303222656250, -0.429443359375, 0.944580078125, 0.023437500000, 0.015625000000, -3.937500000000, 1492750294
0.278320312500, -0.563964843750, 0.811523437500, -1.601562500000, 3.960937500000, -4.085937500000, 1492750294
0.278320312500, -0.563964843750, 0.811523437500, -1.601562500000, 3.960937500000, -4.085937500000, 1492750294
0.278320312500, -0.563964843750, 0.811523437500, -1.601562500000, 3.960937500000, -4.085937500000, 1492750294
0.304687500000, -0.441406250000, 0.916259765625, -4.765625000000, 8.359375000000, -3.179687500000, 1492750294
0.304687500000, -0.441406250000, 0.916259765625, -4.765625000000, 8.359375000000, -3.179687500000, 1492750294
0.304687500000, -0.441406250000, 0.916259765625, -4.765625000000, 8.359375000000, -3.179687500000, 1492750294
0.257080078125, -0.458007812500, 0.877441406250, -8.015625000000, -1.601562500000, -0.507812500000, 1492750294
0.257080078125, -0.458007812500, 0.877441406250, -8.015625000000, -1.601562500000, -0.507812500000, 1492750294
0.257080078125, -0.458007812500, 0.877441406250, -8.015625000000, -1.601562500000, -0.507812500000, 1492750294
0.257080078125, -0.458007812500, 0.877441406250, -8.015625000000, -1.601562500000, -0.507812500000, 1492750294
0.308837890625, -0.449218750000, 0.941894531250, -1.054687500000, 4.085937500000, 0.484375000000, 1492750294
0.308837890625, -0.449218750000, 0.941894531250, -1.054687500000, 4.085937500000, 0.484375000000, 1492750294
0.308837890625, -0.449218750000, 0.941894531250, -1.054687500000, 4.085937500000, 0.484375000000, 1492750294
0.210693359375, -0.344970703125, 0.968750000000, 0.007812500000, -4.031250000000, -5.710937500000, 1492750294
0.210693359375, -0.344970703125, 0.968750000000, 0.007812500000, -4.031250000000, -5.710937500000, 1492750294
0.210693359375, -0.344970703125, 0.968750000000, 0.007812500000, -4.031250000000, -5.710937500000, 1492750294
0.294921875000, -0.483154296875, 0.852294921875, -1.890625000000, 0.929687500000, -4.921875000000, 1492750294
0.294921875000, -0.483154296875, 0.852294921875, -1.890625000000, 0.929687500000, -4.921875000000, 1492750294
0.294921875000, -0.483154296875, 0.852294921875, -1.890625000000, 0.929687500000, -4.921875000000, 1492750294
0.215820312500, -0.414062500000, 0.846679687500, 0.218750000000, 3.554687500000, 0.953125000000, 1492750294
0.215820312500, -0.414062500000, 0.846679687500, 0.218750000000, 3.554687500000, 0.953125000000, 1492750294
0.215820312500, -0.414062500000, 0.846679687500, 0.218750000000, 3.554687500000, 0.953125000000, 1492750294
0.215820312500, -0.414062500000, 0.846679687500, 0.218750000000, 3.554687500000, 0.953125000000, 1492750294
0.232666015625, -0.475585937500, 0.860107421875, -4.289062500000, -1.921875000000, -3.125000000000, 1492750294
0.232666015625, -0.475585937500, 0.860107421875, -4.289062500000, -1.921875000000, -3.125000000000, 1492750294
0.232666015625, -0.475585937500, 0.860107421875, -4.289062500000, -1.921875000000, -3.125000000000, 1492750294
0.314208984375, -0.300781250000, 0.898193359375, -3.046875000000, 2.500000000000, -2.445312500000, 1492750294
0.314208984375, -0.300781250000, 0.898193359375, -3.046875000000, 2.500000000000, -2.445312500000, 1492750294
0.314208984375, -0.300781250000, 0.898193359375, -3.046875000000, 2.500000000000, -2.445312500000, 1492750294
0.229736328125, -0.488037109375, 0.963867187500, -3.218750000000, -1.390625000000, -1.968750000000, 1492750294
0.229736328125, -0.488037109375, 0.963867187500, -3.218750000000, -1.390625000000, -1.968750000000, 1492750294
0.229736328125, -0.488037109375, 0.963867187500, -3.218750000000, -1.390625000000, -1.968750000000, 1492750294
0.245849609375, -0.371582031250, 0.960449218750, -4.539062500000, 5.726562500000, 0.320312500000, 1492750294
0.245849609375, -0.371582031250, 0.960449218750, -4.539062500000, 5.726562500000, 0.320312500000, 1492750294
0.245849609375, -0.371582031250, 0.960449218750, -4.539062500000, 5.726562500000, 0.320312500000, 1492750295
0.245849609375, -0.371582031250, 0.960449218750, -4.539062500000, 5.726562500000, 0.320312500000, 1492750295
0.238769531250, -0.456298828125, 0.921875000000, 1.492187500000, -2.718750000000, -1.015625000000, 1492750295
0.238769531250, -0.456298828125, 0.921875000000, 1.492187500000, -2.718750000000, -1.015625000000, 1492750295
0.238769531250, -0.456298828125, 0.921875000000, 1.492187500000, -2.718750000000, -1.015625000000, 1492750295
0.182128906250, -0.422851562500, 0.875000000000, 2.914062500000, -3.515625000000, -4.632812500000, 1492750295
0.182128906250, -0.422851562500, 0.875000000000, 2.914062500000, -3.515625000000, -4.632812500000, 1492750295
0.182128906250, -0.422851562500, 0.875000000000, 2.914062500000, -3.515625000000, -4.632812500000, 1492750295
0.226562500000, -0.547607421875, 0.940185546875, -0.687500000000, 2.140625000000, 0.507812500000, 1492750295
0.226562500000, -0.547607421875, 0.940185546875, -0.687500000000, 2.140625000000, 0.507812500000, 1492750295
0.226562500000, -0.547607421875, 0.940185546875, -0.687500000000, 2.140625000000, 0.507812500000, 1492750295
0.278076171875, -0.395507812500, 0.889404296875, 0.875000000000, 3.875000000000, 0.093750000000, 1492750295
0.278076171875, -0.395507812500, 0.889404296875, 0.875000000000, 3.875000000000, 0.093750000000, 1492750295
0.278076171875, -0.395507812500, 0.889404296875, 0.875000000000, 3.875000000000, 0.093750000000, 1492750295
0.278076171875, -0.395507812500, 0.889404296875, 0.875000000000, 3.875000000000, 0.093750000000, 1492750295
0.282226562500, -0.523437500000, 0.925537109375, -5.093750000000, 4.570312500000, -4.054687500000, 1492750295
0.282226562500, -0.523437500000, 0.925537109375, -5.093750000000, 4.570312500000, -4.054687500000, 1492750295
0.282226562500, -0.523437500000, 0.925537109375, -5.093750000000, 4.570312500000, -4.054687500000, 1492750295
0.322753906250, -0.513916015625, 0.811279296875, -5.531250000000, -6.515625000000, -1.039062500000, 1492750295
0.322753906250, -0.513916015625, 0.811279296875, -5.531250000000, -6.515625000000, -1.039062500000, 1492750295
0.322753906250, -0.513916015625, 0.811279296875, -5.531250000000, -6.515625000000, -1.039062500000, 1492750295
0.203369140625, -0.368164062500, 0.957763671875, -8.335937500000, 5.789062500000, -2.406250000000, 1492750295
0.203369140625, -0.368164062500, 0.957763671875, -8.335937500000, 5.789062500000, -2.406250000000, 1492750295
0.203369140625, -0.368164062500, 0.957763671875, -8.335937500000, 5.789062500000, -2.406250000000, 1492750295
0.337646484375, -0.488525390625, 0.896484375000, -5.437500000000, 1.484375000000, -3.984375000000, 1492750295
0.337646484375, -0.488525390625, 0.896484375000, -5.437500000000, 1.484375000000, -3.984375000000, 1492750295
0.337646484375, -0.488525390625, 0.896484375000, -5.437500000000, 1.484375000000, -3.984375000000, 1492750295
0.231201171875, -0.454101562500, 0.870605468750, -8.414062500000, 4.921875000000, -4.812500000000, 1492750295
0.231201171875, -0.454101562500, 0.870605468750, -8.414062500000, 4.921875000000, -4.812500000000, 1492750295
0.231201171875, -0.454101562500, 0.870605468750, -8.414062500000, 4.921875000000, -4.812500000000, 1492750295
0.231201171875, -0.454101562500, 0.870605468750, -8.414062500000, 4.921875000000, -4.812500000000, 1492750295
0.314453125000, -0.409179687500, 0.911132812500, -4.734375000000, -5.000000000000, -2.335937500000, 1492750295
0.314453125000, -0.409179687500, 0.911132812500, -4.734375000000, -5.000000000000, -2.335937500000, 1492750295
0.314453125000, -0.409179687500, 0.911132812500, -4.734375000000, -5.000000000000, -2.335937500000, 1492750295
0.339111328125, -0.361572265625, 0.951416015625, -4.031250000000, 2.460937500000, -4.046875000000, 1492750295
0.339111328125, -0.361572265625, 0.951416015625, -4.031250000000, 2.460937500000, -4.046875000000, 1492750295
0.339111328125, -0.361572265625, 0.951416015625, -4.031250000000, 2.460937500000, -4.046875000000, 1492750295
0.240234375000, -0.463623046875, 0.861328125000, -1.093750000000, -2.312500000000, -1.710937500000, 1492750295
0.240234375000, -0.463623046875, 0.861328125000, -1.093750000000, -2.312500000000, -1.710937500000, 1492750295
0.240234375000, -0.463623046875, 0.861328125000, -1.093750000000, -2.312500000000, -1.710937500000, 1492750295
0.240234375000, -0.463623046875, 0.861328125000, -1.093750000000, -2.312500000000, -1.710937500000, 1492750295
0.323486328125, -0.410156250000, 0.867675781250, -4.695312500000, -2.695312500000, -1.210937500000, 1492750295
0.323486328125, -0.410156250000, 0.867675781250, -4.695312500000, -2.695312500000, -1.210937500000, 1492750295
0.323486328125, -0.410156250000, 0.867675781250, -4.695312500000, -2.695312500000, -1.210937500000, 1492750295
0.284667968750, -0.442138671875, 0.925781250000, -2.468750000000, -2.382812500000, -2.015625000000, 1492750295
0.284667968750, -0.442138671875, 0.925781250000, -2.468750000000, -2.382812500000, -2.015625000000, 1492750295
0.284667968750, -0.442138671875, 0.925781250000, -2.468750000000, -2.382812500000, -2.015625000000, 1492750295
0.274902343750, -0.501708984375, 0.925292968750, -2.984375000000, 0.000000000000, -4.453125000000, 1492750295
0.274902343750, -0.501708984375, 0.925292968750, -2.984375000000, 0.000000000000, -4.453125000000, 1492750295
0.274902343750, -0.501708984375, 0.925292968750, -2.984375000000, 0.000000000000, -4.453125000000, 1492750295
0.328857421875, -0.488281250000, 0.867187500000, -6.054687500000, 4.671875000000, -4.718750000000, 1492750295
0.328857421875, -0.488281250000, 0.867187500000, -6.054687500000, 4.671875000000, -4.718750000000, 1492750295
0.328857421875, -0.488281250000, 0.867187500000, -6.054687500000, 4.671875000000, -4.718750000000, 1492750295
0.328857421875, -0.488281250000, 0.867187500000, -6.054687500000, 4.671875000000, -4.718750000000, 1492750295
0.247314453125, -0.502685546875, 0.851806640625, -6.132812500000, 4.617187500000, -1.679687500000, 1492750295
0.247314453125, -0.502685546875, 0.851806640625, -6.132812500000, 4.617187500000, -1.679687500000, 1492750295
0.247314453125, -0.502685546875, 0.851806640625, -6.132812500000, 4.617187500000, -1.679687500000, 1492750295
0.249511718750, -0.394775390625, 0.812011718750, -1.210937500000, -2.187500000000, -6.289062500000, 1492750295
0.249511718750, -0.394775390625, 0.812011718750, -1.210937500000, -2.187500000000, -6.289062500000, 1492750295
0.249511718750, -0.394775390625, 0.812011718750, -1.210937500000, -2.187500000000, -6.289062500000, 1492750295
0.274902343750, -0.412353515625, 0.953613281250, -3.492187500000, 4.070312500000, -3.492187500000, 1492750295
0.274902343750, -0.412353515625, 0.953613281250, -3.492187500000, 4.070312500000, -3.492187500000, 1492750295
0.274902343750, -0.412353515625, 0.953613281250, -3.492187500000, 4.070312500000, -3.492187500000, 1492750295
0.230224609375, -0.515625000000, 0.846679687500, -1.390625000000, 0.593750000000, -2.820312500000, 1492750295
0.230224609375, -0.515625000000, 0.846679687500, -1.390625000000, 0.593750000000, -2.820312500000, 1492750295
0.230224609375, -0.515625000000, 0.846679687500, -1.390625000000, 0.593750000000, -2.820312500000, 1492750295
0.230224609375, -0.515625000000, 0.846679687500, -1.390625000000, 0.593750000000, -2.820312500000, 1492750295
0.346679687500, -0.442382812500, 0.954833984375, -4.539062500000, 2.343750000000, -4.382812500000, 1492750296
0.346679687500, -0.442382812500, 0.954833984375, -4.539062500000, 2.343750000000, -4.382812500000, 1492750296
0.346679687500, -0.442382812500, 0.954833984375, -4.539062500000, 2.343750000000, -4.382812500000, 1492750296
0.243164062500, -0.415283203125, 0.875000000000, -5.375000000000, -4.585937500000, -1.187500000000, 1492750296
0.243164062500, -0.415283203125, 0.875000000000, -5.375000000000, -4.585937500000, -1.187500000000, 1492750296
0.243164062500, -0.415283203125, 0.875000000000, -5.375000000000, -4.585937500000, -1.187500000000, 1492750296
0.264892578125, -0.363525390625, 0.958496093750, -4.609375000000, 1.929687500000, -2.601562500000, 1492750296
0.264892578125, -0.363525390625, 0.958496093750, -4.609375000000, 1.929687500000, -2.601562500000, 1492750296
0.264892578125, -0.363525390625, 0.958496093750, -4.609375000000, 1.929687500000, -2.601562500000, 1492750296
0.281494140625, -0.467041015625, 0.922607421875, -6.343750000000, 2.179687500000, -4.609375000000, 1492750296
0.281494140625, -0.467041015625, 0.922607421875, -6.343750000000, 2.179687500000, -4.609375000000, 1492750296
0.281494140625, -0.467041015625, 0.922607421875, -6.343750000000, 2.179687500000, -4.609375000000, 1492750296
0.281494140625, -0.467041015625, 0.922607421875, -6.343750000000, 2.179687500000, -4.609375000000, 1492750296
0.233642578125, -0.465087890625, 0.809326171875, -4.359375000000, 2.242187500000, -4.828125000000, 1492750296
0.233642578125, -0.465087890625, 0.809326171875, -4.359375000000, 2.242187500000, -4.828125000000, 1492750296
0.233642578125, -0.465087890625, 0.809326171875, -4.359375000000, 2.242187500000, -4.828125000000, 1492750296
0.261718750000, -0.363525390625, 1.005615234375, -1.570312500000, 1.617187500000, -0.218750000000, 1492750296
0.261718750000, -0.363525390625, 1.005615234375, -1.570312500000, 1.617187500000, -0.218750000000, 1492750296
0.261718750000, -0.363525390625, 1.005615234375, -1.570312500000, 1.617187500000, -0.218750000000, 1492750296
0.176025390625, -0.461181640625, 0.879882812500, -4.289062500000, -1.765625000000, -1.039062500000, 1492750296
0.176025390625, -0.461181640625, 0.879882812500, -4.289062500000, -1.765625000000, -1.039062500000, 1492750296
0.176025390625, -0.461181640625, 0.879882812500, -4.289062500000, -1.765625000000, -1.039062500000, 1492750296
0.297119140625, -0.349609375000, 0.892822265625, -4.773437500000, -0.156250000000, 0.679687500000, 1492750296
0.297119140625, -0.349609375000, 0.892822265625, -4.773437500000, -0.156250000000, 0.679687500000, 1492750296
0.297119140625, -0.349609375000, 0.892822265625, -4.773437500000, -0.156250000000, 0.679687500000, 1492750296
0.297119140625, -0.349609375000, 0.892822265625, -4.773437500000, -0.156250000000, 0.679687500000, 1492750296
0.281005859375, -0.511230468750, 0.873291015625, -4.523437500000, -3.320312500000, -1.562500000000, 1492750296
0.281005859375, -0.511230468750, 0.873291015625, -4.523437500000, -3.320312500000, -1.562500000000, 1492750296
0.281005859375, -0.511230468750, 0.873291015625, -4.523437500000, -3.320312500000, -1.562500000000, 1492750296
0.283691406250, -0.447021484375, 0.923828125000, 0.351562500000, 1.632812500000, -2.312500000000, 1492750296
0.283691406250, -0.447021484375, 0.923828125000, 0.351562500000, 1.632812500000, -2.312500000000, 1492750296
0.283691406250, -0.447021484375, 0.923828125000, 0.351562500000, 1.632812500000, -2.312500000000, 1492750296
0.229492187500, -0.431640625000, 0.938964843750, -1.148437500000, -5.421875000000, -5.257812500000, 1492750296
0.229492187500, -0.431640625000, 0.938964843750, -1.148437500000, -5.421875000000, -5.257812500000, 1492750296
0.229492187500, -0.431640625000, 0.938964843750, -1.148437500000, -5.421875000000, -5.257812500000, 1492750296
