ACC_X,ACC_Y,ACC_Z,G_X,G_Y,G_Z,Unix Time
0.080322265625, -0.846435546875, 0.189208984375, -2.234375000000, -0.015625000000, -1.093750000000, 1492749752
0.080322265625, -0.846435546875, 0.189208984375, -2.234375000000, -0.015625000000, -1.093750000000, 1492749752
0.080322265625, -0.846435546875, 0.189208984375, -2.234375000000, -0.015625000000, -1.093750000000, 1492749752
0.080322265625, -0.846435546875, 0.189208984375, -2.234375000000, -0.015625000000, -1.093750000000, 1492749752
0.210693359375, -1.001464843750, 0.168457031250, -2.164062500000, 0.515625000000, -3.664062500000, 1492749752
0.210693359375, -1.001464843750, 0.168457031250, -2.164062500000, 0.515625000000, -3.664062500000, 1492749752
0.126220703125, -0.976074218750, 0.189208984375, -6.007812500000, 3.523437500000, -1.062500000000, 1492749752
0.126220703125, -0.976074218750, 0.189208984375, -6.007812500000, 3.523437500000, -1.062500000000, 1492749752
0.126220703125, -0.976074218750, 0.189208984375, -6.007812500000, 3.523437500000, -1.062500000000, 1492749752
0.126220703125, -0.976074218750, 0.189208984375, -6.007812500000, 3.523437500000, -1.062500000000, 1492749752
0.050048828125, -1.001708984375, 0.159423828125, -1.781250000000, -0.164062500000, -2.851562500000, 1492749752
0.050048828125, -1.001708984375, 0.159423828125, -1.781250000000, -0.164062500000, -2.851562500000, 1492749752
0.050048828125, -1.001708984375, 0.159423828125, -1.781250000000, -0.164062500000, -2.851562500000, 1492749752
0.153076171875, -1.082519531250, 0.206787109375, -3.507812500000, 4.937500000000, -1.515625000000, 1492749752
0.153076171875, -1.082519531250, 0.206787109375, -3.507812500000, 4.937500000000, -1.515625000000, 1492749752
0.153076171875, -1.082519531250, 0.206787109375, -3.507812500000, 4.937500000000, -1.515625000000, 1492749752
0.153076171875, -1.082519531250, 0.206787109375, -3.507812500000, 4.937500000000, -1.515625000000, 1492749752
0.051025390625, -0.916748046875, 0.174560546875, -4.976562500000, 3.812500000000, -0.007812500000, 1492749752
0.051025390625, -0.916748046875, 0.174560546875, -4.976562500000, 3.812500000000, -0.007812500000, 1492749752
0.051025390625, -0.916748046875, 0.174560546875, -4.976562500000, 3.812500000000, -0.007812500000, 1492749752
0.033935546875, -1.026123046875, 0.109130859375, -3.093750000000, 4.093750000000, 0.273437500000, 1492749752
0.033935546875, -1.026123046875, 0.109130859375, -3.093750000000, 4.093750000000, 0.273437500000, 1492749752
0.033935546875, -1.026123046875, 0.109130859375, -3.093750000000, 4.093750000000, 0.273437500000, 1492749752
0.187988281250, -0.925048828125, 0.123779296875, -4.375000000000, 3.234375000000, 0.062500000000, 1492749752
0.187988281250, -0.925048828125, 0.123779296875, -4.375000000000, 3.234375000000, 0.062500000000, 1492749752
0.187988281250, -0.925048828125, 0.123779296875, -4.375000000000, 3.234375000000, 0.062500000000, 1492749752
0.153808593750, -0.996826171875, 0.097656250000, -3.085937500000, 6.703125000000, 0.734375000000, 1492749753
0.153808593750, -0.996826171875, 0.097656250000, -3.085937500000, 6.703125000000, 0.734375000000, 1492749753
0.153808593750, -0.996826171875, 0.097656250000, -3.085937500000, 6.703125000000, 0.734375000000, 1492749753
0.153808593750, -0.996826171875, 0.097656250000, -3.085937500000, 6.703125000000, 0.734375000000, 1492749753
0.117187500000, -0.995361328125, 0.236328125000, 2.796875000000, 8.109375000000, 0.281250000000, 1492749753
0.117187500000, -0.995361328125, 0.236328125000, 2.796875000000, 8.109375000000, 0.281250000000, 1492749753
0.117187500000, -0.995361328125, 0.236328125000, 2.796875000000, 8.109375000000, 0.281250000000, 1492749753
0.088134765625, -0.915283203125, 0.146972656250, -4.617187500000, -14.515625000000, -0.906250000000, 1492749753
0.088134765625, -0.915283203125, 0.146972656250, -4.617187500000, -14.515625000000, -0.906250000000, 1492749753
0.088134765625, -0.915283203125, 0.146972656250, -4.617187500000, -14.515625000000, -0.906250000000, 1492749753
0.046630859375, -0.985595703125, 0.107666015625, -1.226562500000, 10.078125000000, -1.328125000000, 1492749753
0.046630859375, -0.985595703125, 0.107666015625, -1.226562500000, 10.078125000000, -1.328125000000, 1492749753
0.046630859375, -0.985595703125, 0.107666015625, -1.226562500000, 10.078125000000, -1.328125000000, 1492749753
0.149902343750, -1.015136718750, 0.207519531250, -6.359375000000, 2.898437500000, -2.703125000000, 1492749753
0.149902343750, -1.015136718750, 0.207519531250, -6.359375000000, 2.898437500000, -2.703125000000, 1492749753
0.149902343750, -1.015136718750, 0.207519531250, -6.359375000000, 2.898437500000, -2.703125000000, 1492749753
0.149902343750, -1.015136718750, 0.207519531250, -6.359375000000, 2.898437500000, -2.703125000000, 1492749753
0.135742187500, -0.925048828125, 0.153564453125, -5.898437500000, 1.078125000000, 0.078125000000, 1492749753
0.135742187500, -0.925048828125, 0.153564453125, -5.898437500000, 1.078125000000, 0.078125000000, 1492749753
0.135742187500, -0.925048828125, 0.153564453125, -5.898437500000, 1.078125000000, 0.078125000000, 1492749753
0.108642578125, -0.969726562500, 0.201416015625, -4.796875000000, 1.687500000000, 0.046875000000, 1492749753
0.108642578125, -0.969726562500, 0.201416015625, -4.796875000000, 1.687500000000, 0.046875000000, 1492749753
0.108642578125, -0.969726562500, 0.201416015625, -4.796875000000, 1.687500000000, 0.046875000000, 1492749753
0.118896484375, -0.979492187500, 0.198486328125, -6.953125000000, -0.492187500000, -1.406250000000, 1492749753
0.118896484375, -0.979492187500, 0.198486328125, -6.953125000000, -0.492187500000, -1.406250000000, 1492749753
0.118896484375, -0.979492187500, 0.198486328125, -6.953125000000, -0.492187500000, -1.406250000000, 1492749753
0.048828125000, -1.010009765625, 0.206787109375, -3.640625000000, 2.906250000000, -2.398437500000, 1492749753
0.048828125000, -1.010009765625, 0.206787109375, -3.640625000000, 2.906250000000, -2.398437500000, 1492749753
0.048828125000, -1.010009765625, 0.206787109375, -3.640625000000, 2.906250000000, -2.398437500000, 1492749753
0.048828125000, -1.010009765625, 0.206787109375, -3.640625000000, 2.906250000000, -2.398437500000, 1492749753
0.042724609375, -0.965576171875, 0.199951171875, -6.046875000000, 1.593750000000, 0.195312500000, 1492749753
0.042724609375, -0.965576171875, 0.199951171875, -6.046875000000, 1.593750000000, 0.195312500000, 1492749753
0.042724609375, -0.965576171875, 0.199951171875, -6.046875000000, 1.593750000000, 0.195312500000, 1492749753
0.049560546875, -0.977783203125, 0.157714843750, -8.101562500000, -2.679687500000, -4.992187500000, 1492749753
0.049560546875, -0.977783203125, 0.157714843750, -8.101562500000, -2.679687500000, -4.992187500000, 1492749753
0.049560546875, -0.977783203125, 0.157714843750, -8.101562500000, -2.679687500000, -4.992187500000, 1492749753
0.105468750000, -0.929199218750, 0.213378906250, -4.507812500000, -2.625000000000, -1.210937500000, 1492749753
0.105468750000, -0.929199218750, 0.213378906250, -4.507812500000, -2.625000000000, -1.210937500000, 1492749753
0.105468750000, -0.929199218750, 0.213378906250, -4.507812500000, -2.625000000000, -1.210937500000, 1492749753
0.127929687500, -0.924316406250, 0.275390625000, -4.445312500000, -0.812500000000, 0.398437500000, 1492749753
0.151611328125, -1.007324218750, 0.136962890625, -3.531250000000, -4.335937500000, -4.195312500000, 1492749753
0.151611328125, -1.007324218750, 0.136962890625, -3.531250000000, -4.335937500000, -4.195312500000, 1492749753
0.151611328125, -1.007324218750, 0.136962890625, -3.531250000000, -4.335937500000, -4.195312500000, 1492749753
0.151611328125, -1.007324218750, 0.136962890625, -3.531250000000, -4.335937500000, -4.195312500000, 1492749753
0.151611328125, -1.007324218750, 0.136962890625, -3.531250000000, -4.335937500000, -4.195312500000, 1492749753
0.151611328125, -1.007324218750, 0.136962890625, -3.531250000000, -4.335937500000, -4.195312500000, 1492749753
0.146240234375, -0.961669921875, 0.179931640625, -4.718750000000, 3.703125000000, -2.679687500000, 1492749753
0.146240234375, -0.961669921875, 0.179931640625, -4.718750000000, 3.703125000000, -2.679687500000, 1492749753
0.146240234375, -0.961669921875, 0.179931640625, -4.718750000000, 3.703125000000, -2.679687500000, 1492749753
0.256835937500, -0.960693359375, 0.168457031250, -5.437500000000, -1.812500000000, -4.375000000000, 1492749753
0.256835937500, -0.960693359375, 0.168457031250, -5.437500000000, -1.812500000000, -4.375000000000, 1492749753
0.256835937500, -0.960693359375, 0.168457031250, -5.437500000000, -1.812500000000, -4.375000000000, 1492749753
0.108154296875, -1.027587890625, 0.200927734375, -6.562500000000, 1.601562500000, -3.851562500000, 1492749753
0.108154296875, -1.027587890625, 0.200927734375, -6.562500000000, 1.601562500000, -3.851562500000, 1492749753
0.108154296875, -1.027587890625, 0.200927734375, -6.562500000000, 1.601562500000, -3.851562500000, 1492749753
0.108154296875, -1.027587890625, 0.200927734375, -6.562500000000, 1.601562500000, -3.851562500000, 1492749753
0.144287109375, -1.003906250000, 0.201416015625, -3.132812500000, -0.773437500000, -5.242187500000, 1492749753
0.144287109375, -1.003906250000, 0.201416015625, -3.132812500000, -0.773437500000, -5.242187500000, 1492749753
0.144287109375, -1.003906250000, 0.201416015625, -3.132812500000, -0.773437500000, -5.242187500000, 1492749753
0.136230468750, -1.004882812500, 0.207275390625, -5.703125000000, 0.835937500000, -4.109375000000, 1492749753
0.136230468750, -1.004882812500, 0.207275390625, -5.703125000000, 0.835937500000, -4.109375000000, 1492749753
0.136230468750, -1.004882812500, 0.207275390625, -5.703125000000, 0.835937500000, -4.109375000000, 1492749753
0.128662109375, -1.076660156250, 0.208496093750, -6.390625000000, -2.132812500000, -3.039062500000, 1492749753
0.128662109375, -1.076660156250, 0.208496093750, -6.390625000000, -2.132812500000, -3.039062500000, 1492749753
0.128662109375, -1.076660156250, 0.208496093750, -6.390625000000, -2.132812500000, -3.039062500000, 1492749753
0.059814453125, -0.926757812500, 0.143310546875, -6.968750000000, -1.140625000000, -4.992187500000, 1492749754
0.059814453125, -0.926757812500, 0.143310546875, -6.968750000000, -1.140625000000, -4.992187500000, 1492749754
0.059814453125, -0.926757812500, 0.143310546875, -6.968750000000, -1.140625000000, -4.992187500000, 1492749754
0.059814453125, -0.926757812500, 0.143310546875, -6.968750000000, -1.140625000000, -4.992187500000, 1492749754
0.154541015625, -1.026855468750, 0.123291015625, -3.054687500000, 0.234375000000, -3.093750000000, 1492749754
0.154541015625, -1.026855468750, 0.123291015625, -3.054687500000, 0.234375000000, -3.093750000000, 1492749754
0.154541015625, -1.026855468750, 0.123291015625, -3.054687500000, 0.234375000000, -3.093750000000, 1492749754
0.149902343750, -0.933593750000, 0.321289062500, -2.656250000000, -2.382812500000, -3.507812500000, 1492749754
0.149902343750, -0.933593750000, 0.321289062500, -2.656250000000, -2.382812500000, -3.507812500000, 1492749754
0.149902343750, -0.933593750000, 0.321289062500, -2.656250000000, -2.382812500000, -3.507812500000, 1492749754
0.198242187500, -1.038574218750, 0.145019531250, -0.703125000000, -3.054687500000, -6.382812500000, 1492749754
0.198242187500, -1.038574218750, 0.145019531250, -0.703125000000, -3.054687500000, -6.382812500000, 1492749754
0.198242187500, -1.038574218750, 0.145019531250, -0.703125000000, -3.054687500000, -6.382812500000, 1492749754
0.031738281250, -1.037841796875, 0.147460937500, 0.703125000000, -5.007812500000, -3.226562500000, 1492749754
0.031738281250, -1.037841796875, 0.147460937500, 0.703125000000, -5.007812500000, -3.226562500000, 1492749754
0.031738281250, -1.037841796875, 0.147460937500, 0.703125000000, -5.007812500000, -3.226562500000, 1492749754
0.031738281250, -1.037841796875, 0.147460937500, 0.703125000000, -5.007812500000, -3.226562500000, 1492749754
0.121582031250, -1.025634765625, 0.210449218750, 0.687500000000, 1.992187500000, -4.320312500000, 1492749754
0.121582031250, -1.025634765625, 0.210449218750, 0.687500000000, 1.992187500000, -4.320312500000, 1492749754
0.121582031250, -1.025634765625, 0.210449218750, 0.687500000000, 1.992187500000, -4.320312500000, 1492749754
0.056152343750, -0.944335937500, 0.201416015625, -3.070312500000, -4.898437500000, -1.476562500000, 1492749754
0.056152343750, -0.944335937500, 0.201416015625, -3.070312500000, -4.898437500000, -1.476562500000, 1492749754
0.056152343750, -0.944335937500, 0.201416015625, -3.070312500000, -4.898437500000, -1.476562500000, 1492749754
0.059814453125, -1.014404296875, 0.118896484375, -1.226562500000, 2.195312500000, -1.562500000000, 1492749754
0.059814453125, -1.014404296875, 0.118896484375, -1.226562500000, 2.195312500000, -1.562500000000, 1492749754
0.059814453125, -1.014404296875, 0.118896484375, -1.226562500000, 2.195312500000, -1.562500000000, 1492749754
0.045410156250, -0.909667968750, 0.201416015625, -4.476562500000, 0.179687500000, -3.062500000000, 1492749754
0.045410156250, -0.909667968750, 0.201416015625, -4.476562500000, 0.179687500000, -3.062500000000, 1492749754
0.045410156250, -0.909667968750, 0.201416015625, -4.476562500000, 0.179687500000, -3.062500000000, 1492749754
0.045410156250, -0.909667968750, 0.201416015625, -4.476562500000, 0.179687500000, -3.062500000000, 1492749754
0.153808593750, -1.000976562500, 0.179687500000, -3.960937500000, 2.226562500000, -6.062500000000, 1492749754
0.153808593750, -1.000976562500, 0.179687500000, -3.960937500000, 2.226562500000, -6.062500000000, 1492749754
0.153808593750, -1.000976562500, 0.179687500000, -3.960937500000, 2.226562500000, -6.062500000000, 1492749754
0.107910156250, -0.917480468750, 0.197753906250, -3.984375000000, 0.593750000000, -4.820312500000, 1492749754
0.107910156250, -0.917480468750, 0.197753906250, -3.984375000000, 0.593750000000, -4.820312500000, 1492749754
0.107910156250, -0.917480468750, 0.197753906250, -3.984375000000, 0.593750000000, -4.820312500000, 1492749754
0.103271484375, -0.927001953125, 0.118164062500, -3.250000000000, -0.664062500000, -1.984375000000, 1492749754
0.103271484375, -0.927001953125, 0.118164062500, -3.250000000000, -0.664062500000, -1.984375000000, 1492749754
0.103271484375, -0.927001953125, 0.118164062500, -3.250000000000, -0.664062500000, -1.984375000000, 1492749754
0.055908203125, -1.022705078125, 0.182617187500, -6.062500000000, 0.523437500000, -3.625000000000, 1492749754
0.055908203125, -1.022705078125, 0.182617187500, -6.062500000000, 0.523437500000, -3.625000000000, 1492749754
0.055908203125, -1.022705078125, 0.182617187500, -6.062500000000, 0.523437500000, -3.625000000000, 1492749754
0.055908203125, -1.022705078125, 0.182617187500, -6.062500000000, 0.523437500000, -3.625000000000, 1492749754
0.096435546875, -1.009033203125, 0.180664062500, -5.226562500000, -0.476562500000, -3.445312500000, 1492749754
0.096435546875, -1.009033203125, 0.180664062500, -5.226562500000, -0.476562500000, -3.445312500000, 1492749754
0.096435546875, -1.009033203125, 0.180664062500, -5.226562500000, -0.476562500000, -3.445312500000, 1492749754
0.088378906250, -1.044189453125, 0.116455078125, 0.351562500000, -6.046875000000, -1.226562500000, 1492749754
0.088378906250, -1.044189453125, 0.116455078125, 0.351562500000, -6.046875000000, -1.226562500000, 1492749754
0.088378906250, -1.044189453125, 0.116455078125, 0.351562500000, -6.046875000000, -1.226562500000, 1492749754
0.144531250000, -0.925292968750, 0.153320312500, -10.312500000000, -4.859375000000, -3.367187500000, 1492749754
0.144531250000, -0.925292968750, 0.153320312500, -10.312500000000, -4.859375000000, -3.367187500000, 1492749754
0.144531250000, -0.925292968750, 0.153320312500, -10.312500000000, -4.859375000000, -3.367187500000, 1492749754
-0.000732421875, -1.016601562500, 0.253906250000, -3.570312500000, 4.312500000000, -4.445312500000, 1492749754
-0.000732421875, -1.016601562500, 0.253906250000, -3.570312500000, 4.312500000000, -4.445312500000, 1492749754
-0.000732421875, -1.016601562500, 0.253906250000, -3.570312500000, 4.312500000000, -4.445312500000, 1492749754
-0.000732421875, -1.016601562500, 0.253906250000, -3.570312500000, 4.312500000000, -4.445312500000, 1492749754
0.061035156250, -1.025634765625, 0.157958984375, -3.546875000000, -4.601562500000, -4.515625000000, 1492749754
0.061035156250, -1.025634765625, 0.157958984375, -3.546875000000, -4.601562500000, -4.515625000000, 1492749754
0.061035156250, -1.025634765625, 0.157958984375, -3.546875000000, -4.601562500000, -4.515625000000, 1492749754
0.054443359375, -0.981933593750, 0.117187500000, -3.812500000000, -0.960937500000, -1.960937500000, 1492749754
0.054443359375, -0.981933593750, 0.117187500000, -3.812500000000, -0.960937500000, -1.960937500000, 1492749754
0.054443359375, -0.981933593750, 0.117187500000, -3.812500000000, -0.960937500000, -1.960937500000, 1492749754
0.137695312500, -0.865234375000, 0.195800781250, -3.500000000000, 0.242187500000, -2.859375000000, 1492749754
0.137695312500, -0.865234375000, 0.195800781250, -3.500000000000, 0.242187500000, -2.859375000000, 1492749754
0.137695312500, -0.865234375000, 0.195800781250, -3.500000000000, 0.242187500000, -2.859375000000, 1492749754
0.130126953125, -0.976806640625, 0.203369140625, -6.281250000000, -2.726562500000, -2.414062500000, 1492749755
0.130126953125, -0.976806640625, 0.203369140625, -6.281250000000, -2.726562500000, -2.414062500000, 1492749755
0.130126953125, -0.976806640625, 0.203369140625, -6.281250000000, -2.726562500000, -2.414062500000, 1492749755
0.130126953125, -0.976806640625, 0.203369140625, -6.281250000000, -2.726562500000, -2.414062500000, 1492749755
0.149902343750, -1.067871093750, 0.275146484375, -8.640625000000, 2.390625000000, 2.515625000000, 1492749755
0.149902343750, -1.067871093750, 0.275146484375, -8.640625000000, 2.390625000000, 2.515625000000, 1492749755
0.149902343750, -1.067871093750, 0.275146484375, -8.640625000000, 2.390625000000, 2.515625000000, 1492749755
-0.090332031250, -1.133300781250, 0.260009765625, -5.703125000000, 12.781250000000, 6.390625000000, 1492749755
-0.090332031250, -1.133300781250, 0.260009765625, -5.703125000000, 12.781250000000, 6.390625000000, 1492749755
-0.090332031250, -1.133300781250, 0.260009765625, -5.703125000000, 12.781250000000, 6.390625000000, 1492749755
0.079345703125, -1.019042968750, 0.077392578125, -32.375000000000, 12.257812500000, -34.140625000000, 1492749755
0.079345703125, -1.019042968750, 0.077392578125, -32.375000000000, 12.257812500000, -34.140625000000, 1492749755
0.079345703125, -1.019042968750, 0.077392578125, -32.375000000000, 12.257812500000, -34.140625000000, 1492749755
0.230468750000, -1.255371093750, 0.006347656250, -157.789062500000, -55.640625000000, -12.375000000000, 1492749755
0.230468750000, -1.255371093750, 0.006347656250, -157.789062500000, -55.640625000000, -12.375000000000, 1492749755
0.230468750000, -1.255371093750, 0.006347656250, -157.789062500000, -55.640625000000, -12.375000000000, 1492749755
0.230468750000, -1.255371093750, 0.006347656250, -157.789062500000, -55.640625000000, -12.375000000000, 1492749755
0.244384765625, -1.194091796875, 0.131835937500, 30.398437500000, -14.695312500000, 30.218750000000, 1492749755
0.244384765625, -1.194091796875, 0.131835937500, 30.398437500000, -14.695312500000, 30.218750000000, 1492749755
0.244384765625, -1.194091796875, 0.131835937500, 30.398437500000, -14.695312500000, 30.218750000000, 1492749755
0.156250000000, -0.832275390625, 0.064697265625, -90.093750000000, 34.867187500000, -21.210937500000, 1492749755
0.156250000000, -0.832275390625, 0.064697265625, -90.093750000000, 34.867187500000, -21.210937500000, 1492749755
0.156250000000, -0.832275390625, 0.064697265625, -90.093750000000, 34.867187500000, -21.210937500000, 1492749755
0.095947265625, -1.842285156250, -0.031250000000, -24.140625000000, 44.179687500000, -30.867187500000, 1492749755
0.095947265625, -1.842285156250, -0.031250000000, -24.140625000000, 44.179687500000, -30.867187500000, 1492749755
0.095947265625, -1.842285156250, -0.031250000000, -24.140625000000, 44.179687500000, -30.867187500000, 1492749755
-0.116210937500, -0.477050781250, 0.050781250000, -29.281250000000, 44.023437500000, -7.757812500000, 1492749755
-0.116210937500, -0.477050781250, 0.050781250000, -29.281250000000, 44.023437500000, -7.757812500000, 1492749755
-0.116210937500, -0.477050781250, 0.050781250000, -29.281250000000, 44.023437500000, -7.757812500000, 1492749755
-0.116210937500, -0.477050781250, 0.050781250000, -29.281250000000, 44.023437500000, -7.757812500000, 1492749755
-0.120605468750, -0.506347656250, -0.046875000000, -30.296875000000, -11.968750000000, -24.281250000000, 1492749755
-0.120605468750, -0.506347656250, -0.046875000000, -30.296875000000, -11.968750000000, -24.281250000000, 1492749755
-0.120605468750, -0.506347656250, -0.046875000000, -30.296875000000, -11.968750000000, -24.281250000000, 1492749755
-0.165283203125, -0.483154296875, -0.062500000000, -88.578125000000, -216.929687500000, 114.562500000000, 1492749755
-0.165283203125, -0.483154296875, -0.062500000000, -88.578125000000, -216.929687500000, 114.562500000000, 1492749755
-0.165283203125, -0.483154296875, -0.062500000000, -88.578125000000, -216.929687500000, 114.562500000000, 1492749755
-0.083251953125, -0.535888671875, 0.074218750000, 29.929687500000, -256.000000000000, 41.703125000000, 1492749755
-0.083251953125, -0.535888671875, 0.074218750000, 29.929687500000, -256.000000000000, 41.703125000000, 1492749755
-0.083251953125, -0.535888671875, 0.074218750000, 29.929687500000, -256.000000000000, 41.703125000000, 1492749755
0.031738281250, -0.534423828125, 0.041992187500, 85.375000000000, -157.398437500000, 4.929687500000, 1492749755
0.031738281250, -0.534423828125, 0.041992187500, 85.375000000000, -157.398437500000, 4.929687500000, 1492749755
0.031738281250, -0.534423828125, 0.041992187500, 85.375000000000, -157.398437500000, 4.929687500000, 1492749755
0.031738281250, -0.534423828125, 0.041992187500, 85.375000000000, -157.398437500000, 4.929687500000, 1492749755
0.157226562500, -0.650146484375, 0.049072265625, 120.515625000000, 110.507812500000, 20.585937500000, 1492749755
0.157226562500, -0.650146484375, 0.049072265625, 120.515625000000, 110.507812500000, 20.585937500000, 1492749755
0.157226562500, -0.650146484375, 0.049072265625, 120.515625000000, 110.507812500000, 20.585937500000, 1492749755
0.606933593750, -0.490722656250, 0.269287109375, 108.523437500000, 125.421875000000, -0.312500000000, 1492749755
0.606933593750, -0.490722656250, 0.269287109375, 108.523437500000, 125.421875000000, -0.312500000000, 1492749755
0.606933593750, -0.490722656250, 0.269287109375, 108.523437500000, 125.421875000000, -0.312500000000, 1492749755
0.347656250000, -0.318359375000, 0.165771484375, 23.726562500000, -136.250000000000, 13.789062500000, 1492749755
0.347656250000, -0.318359375000, 0.165771484375, 23.726562500000, -136.250000000000, 13.789062500000, 1492749755
0.347656250000, -0.318359375000, 0.165771484375, 23.726562500000, -136.250000000000, 13.789062500000, 1492749755
0.276855468750, -0.232666015625, 0.104492187500, -41.148437500000, -84.632812500000, 32.617187500000, 1492749755
0.276855468750, -0.232666015625, 0.104492187500, -41.148437500000, -84.632812500000, 32.617187500000, 1492749755
0.276855468750, -0.232666015625, 0.104492187500, -41.148437500000, -84.632812500000, 32.617187500000, 1492749755
0.276855468750, -0.232666015625, 0.104492187500, -41.148437500000, -84.632812500000, 32.617187500000, 1492749755
0.122314453125, -0.275634765625, 0.092285156250, -36.023437500000, -19.351562500000, 18.664062500000, 1492749755
0.122314453125, -0.275634765625, 0.092285156250, -36.023437500000, -19.351562500000, 18.664062500000, 1492749755
0.122314453125, -0.275634765625, 0.092285156250, -36.023437500000, -19.351562500000, 18.664062500000, 1492749755
0.003173828125, -0.044189453125, 0.050537109375, -16.234375000000, -12.867187500000, 23.976562500000, 1492749755
0.003173828125, -0.044189453125, 0.050537109375, -16.234375000000, -12.867187500000, 23.976562500000, 1492749755
0.003173828125, -0.044189453125, 0.050537109375, -16.234375000000, -12.867187500000, 23.976562500000, 1492749755
-0.010742187500, 0.109130859375, 0.082031250000, 28.406250000000, -142.914062500000, 14.187500000000, 1492749755
-0.010742187500, 0.109130859375, 0.082031250000, 28.406250000000, -142.914062500000, 14.187500000000, 1492749755
-0.010742187500, 0.109130859375, 0.082031250000, 28.406250000000, -142.914062500000, 14.187500000000, 1492749755
0.072509765625, 0.008056640625, 0.120849609375, -21.906250000000, -183.132812500000, 7.890625000000, 1492749755
0.072509765625, 0.008056640625, 0.120849609375, -21.906250000000, -183.132812500000, 7.890625000000, 1492749755
0.072509765625, 0.008056640625, 0.120849609375, -21.906250000000, -183.132812500000, 7.890625000000, 1492749755
0.072509765625, 0.008056640625, 0.120849609375, -21.906250000000, -183.132812500000, 7.890625000000, 1492749755
2.572753906250, -3.807128906250, 0.468017578125, -256.000000000000, 253.992187500000, 234.796875000000, 1492749756
2.572753906250, -3.807128906250, 0.468017578125, -256.000000000000, 253.992187500000, 234.796875000000, 1492749756
2.572753906250, -3.807128906250, 0.468017578125, -256.000000000000, 253.992187500000, 234.796875000000, 1492749756
2.156982421875, -3.935302734375, 0.484375000000, -256.000000000000, -201.242187500000, 40.898437500000, 1492749756
2.156982421875, -3.935302734375, 0.484375000000, -256.000000000000, -201.242187500000, 40.898437500000, 1492749756
2.156982421875, -3.935302734375, 0.484375000000, -256.000000000000, -201.242187500000, 40.898437500000, 1492749756
3.037353515625, -0.937255859375, 0.565185546875, -24.734375000000, 253.992187500000, 253.992187500000, 1492749756
3.037353515625, -0.937255859375, 0.565185546875, -24.734375000000, 253.992187500000, 253.992187500000, 1492749756
3.037353515625, -0.937255859375, 0.565185546875, -24.734375000000, 253.992187500000, 253.992187500000, 1492749756
0.603271484375, -0.141601562500, 0.879394531250, -60.328125000000, -177.578125000000, 253.992187500000, 1492749756
0.603271484375, -0.141601562500, 0.879394531250, -60.328125000000, -177.578125000000, 253.992187500000, 1492749756
0.603271484375, -0.141601562500, 0.879394531250, -60.328125000000, -177.578125000000, 253.992187500000, 1492749756
0.603271484375, -0.141601562500, 0.879394531250, -60.328125000000, -177.578125000000, 253.992187500000, 1492749756
0.090576171875, -0.058349609375, 0.981201171875, -21.015625000000, 180.148437500000, 71.132812500000, 1492749756
0.090576171875, -0.058349609375, 0.981201171875, -21.015625000000, 180.148437500000, 71.132812500000, 1492749756
0.090576171875, -0.058349609375, 0.981201171875, -21.015625000000, 180.148437500000, 71.132812500000, 1492749756
0.263916015625, 0.347656250000, 0.121337890625, -112.062500000000, 132.562500000000, -13.703125000000, 1492749756
0.263916015625, 0.347656250000, 0.121337890625, -112.062500000000, 132.562500000000, -13.703125000000, 1492749756
0.263916015625, 0.347656250000, 0.121337890625, -112.062500000000, 132.562500000000, -13.703125000000, 1492749756
0.156250000000, 0.188720703125, 0.201171875000, 73.453125000000, 26.843750000000, 19.328125000000, 1492749756
0.156250000000, 0.188720703125, 0.201171875000, 73.453125000000, 26.843750000000, 19.328125000000, 1492749756
0.290283203125, 0.534423828125, 0.758300781250, 30.273437500000, -256.000000000000, 62.882812500000, 1492749756
0.290283203125, 0.534423828125, 0.758300781250, 30.273437500000, -256.000000000000, 62.882812500000, 1492749756
0.290283203125, 0.534423828125, 0.758300781250, 30.273437500000, -256.000000000000, 62.882812500000, 1492749756
0.290283203125, 0.534423828125, 0.758300781250, 30.273437500000, -256.000000000000, 62.882812500000, 1492749756
1.015625000000, 0.145507812500, 0.509033203125, -84.546875000000, -66.281250000000, -41.437500000000, 1492749756
1.015625000000, 0.145507812500, 0.509033203125, -84.546875000000, -66.281250000000, -41.437500000000, 1492749756
1.015625000000, 0.145507812500, 0.509033203125, -84.546875000000, -66.281250000000, -41.437500000000, 1492749756
1.015625000000, 0.145507812500, 0.509033203125, -84.546875000000, -66.281250000000, -41.437500000000, 1492749756
2.053955078125, 0.177001953125, 0.520507812500, -57.890625000000, -40.734375000000, -256.000000000000, 1492749756
2.053955078125, 0.177001953125, 0.520507812500, -57.890625000000, -40.734375000000, -256.000000000000, 1492749756
2.053955078125, 0.177001953125, 0.520507812500, -57.890625000000, -40.734375000000, -256.000000000000, 1492749756
0.471191406250, -0.039306640625, 0.017333984375, -110.164062500000, 253.992187500000, -140.671875000000, 1492749756
0.471191406250, -0.039306640625, 0.017333984375, -110.164062500000, 253.992187500000, -140.671875000000, 1492749756
0.471191406250, -0.039306640625, 0.017333984375, -110.164062500000, 253.992187500000, -140.671875000000, 1492749756
0.811767578125, -1.049072265625, 1.751708984375, 253.992187500000, 208.804687500000, -146.843750000000, 1492749756
0.811767578125, -1.049072265625, 1.751708984375, 253.992187500000, 208.804687500000, -146.843750000000, 1492749756
0.811767578125, -1.049072265625, 1.751708984375, 253.992187500000, 208.804687500000, -146.843750000000, 1492749756
0.811767578125, -1.049072265625, 1.751708984375, 253.992187500000, 208.804687500000, -146.843750000000, 1492749756
0.189697265625, -0.189697265625, 0.855957031250, -137.789062500000, 36.976562500000, 18.500000000000, 1492749756
0.189697265625, -0.189697265625, 0.855957031250, -137.789062500000, 36.976562500000, 18.500000000000, 1492749756
0.189697265625, -0.189697265625, 0.855957031250, -137.789062500000, 36.976562500000, 18.500000000000, 1492749756
-0.698242187500, -0.756591796875, 0.821289062500, -134.585937500000, 167.617187500000, 110.421875000000, 1492749756
-0.698242187500, -0.756591796875, 0.821289062500, -134.585937500000, 167.617187500000, 110.421875000000, 1492749756
-0.698242187500, -0.756591796875, 0.821289062500, -134.585937500000, 167.617187500000, 110.421875000000, 1492749756
0.330078125000, -0.484375000000, 0.777099609375, 155.179687500000, -247.882812500000, -42.078125000000, 1492749756
0.330078125000, -0.484375000000, 0.777099609375, 155.179687500000, -247.882812500000, -42.078125000000, 1492749756
0.330078125000, -0.484375000000, 0.777099609375, 155.179687500000, -247.882812500000, -42.078125000000, 1492749756
0.543212890625, -0.253662109375, 0.788574218750, -74.570312500000, -44.140625000000, 27.875000000000, 1492749756
0.543212890625, -0.253662109375, 0.788574218750, -74.570312500000, -44.140625000000, 27.875000000000, 1492749756
0.543212890625, -0.253662109375, 0.788574218750, -74.570312500000, -44.140625000000, 27.875000000000, 1492749756
0.543212890625, -0.253662109375, 0.788574218750, -74.570312500000, -44.140625000000, 27.875000000000, 1492749756
-0.254394531250, -0.370605468750, 0.659179687500, 15.140625000000, -28.312500000000, 21.531250000000, 1492749756
-0.254394531250, -0.370605468750, 0.659179687500, 15.140625000000, -28.312500000000, 21.531250000000, 1492749756
-0.254394531250, -0.370605468750, 0.659179687500, 15.140625000000, -28.312500000000, 21.531250000000, 1492749756
0.633789062500, -0.298828125000, 0.816894531250, -50.804687500000, -48.898437500000, -9.890625000000, 1492749756
0.633789062500, -0.298828125000, 0.816894531250, -50.804687500000, -48.898437500000, -9.890625000000, 1492749756
0.633789062500, -0.298828125000, 0.816894531250, -50.804687500000, -48.898437500000, -9.890625000000, 1492749756
0.866699218750, -0.560791015625, 0.618408203125, 40.078125000000, -60.093750000000, -23.226562500000, 1492749756
0.866699218750, -0.560791015625, 0.618408203125, 40.078125000000, -60.093750000000, -23.226562500000, 1492749756
0.866699218750, -0.560791015625, 0.618408203125, 40.078125000000, -60.093750000000, -23.226562500000, 1492749756
0.866699218750, -0.560791015625, 0.618408203125, 40.078125000000, -60.093750000000, -23.226562500000, 1492749756
0.723876953125, -0.586669921875, 0.410644531250, 48.273437500000, -64.820312500000, -4.296875000000, 1492749756
0.723876953125, -0.586669921875, 0.410644531250, 48.273437500000, -64.820312500000, -4.296875000000, 1492749756
0.723876953125, -0.586669921875, 0.410644531250, 48.273437500000, -64.820312500000, -4.296875000000, 1492749756
0.723876953125, -0.586669921875, 0.410644531250, 48.273437500000, -64.820312500000, -4.296875000000, 1492749757
0.723876953125, -0.586669921875, 0.410644531250, 48.273437500000, -64.820312500000, -4.296875000000, 1492749757
0.723876953125, -0.586669921875, 0.410644531250, 48.273437500000, -64.820312500000, -4.296875000000, 1492749757
0.664550781250, -0.480468750000, 0.459472656250, 18.890625000000, -25.171875000000, 20.500000000000, 1492749757
0.664550781250, -0.480468750000, 0.459472656250, 18.890625000000, -25.171875000000, 20.500000000000, 1492749757
0.664550781250, -0.480468750000, 0.459472656250, 18.890625000000, -25.171875000000, 20.500000000000, 1492749757
0.685791015625, -0.604980468750, 0.480712890625, -27.164062500000, 51.859375000000, 10.109375000000, 1492749757
0.685791015625, -0.604980468750, 0.480712890625, -27.164062500000, 51.859375000000, 10.109375000000, 1492749757
0.685791015625, -0.604980468750, 0.480712890625, -27.164062500000, 51.859375000000, 10.109375000000, 1492749757
0.489990234375, -0.460449218750, 0.755615234375, -3.187500000000, 51.781250000000, -5.117187500000, 1492749757
0.489990234375, -0.460449218750, 0.755615234375, -3.187500000000, 51.781250000000, -5.117187500000, 1492749757
0.489990234375, -0.460449218750, 0.755615234375, -3.187500000000, 51.781250000000, -5.117187500000, 1492749757
0.489990234375, -0.460449218750, 0.755615234375, -3.187500000000, 51.781250000000, -5.117187500000, 1492749757
0.649902343750, -0.441162109375, 0.662597656250, -8.218750000000, 23.195312500000, -20.382812500000, 1492749757
0.649902343750, -0.441162109375, 0.662597656250, -8.218750000000, 23.195312500000, -20.382812500000, 1492749757
0.649902343750, -0.441162109375, 0.662597656250, -8.218750000000, 23.195312500000, -20.382812500000, 1492749757
0.635009765625, -0.405761718750, 0.750976562500, -22.023437500000, 60.640625000000, -39.468750000000, 1492749757
0.635009765625, -0.405761718750, 0.750976562500, -22.023437500000, 60.640625000000, -39.468750000000, 1492749757
0.635009765625, -0.405761718750, 0.750976562500, -22.023437500000, 60.640625000000, -39.468750000000, 1492749757
0.413330078125, -0.584228515625, 0.724609375000, -17.710937500000, 43.039062500000, -25.929687500000, 1492749757
0.413330078125, -0.584228515625, 0.724609375000, -17.710937500000, 43.039062500000, -25.929687500000, 1492749757
0.413330078125, -0.584228515625, 0.724609375000, -17.710937500000, 43.039062500000, -25.929687500000, 1492749757
0.505615234375, -0.476562500000, 0.800292968750, -6.898437500000, 9.281250000000, -1.664062500000, 1492749757
0.505615234375, -0.476562500000, 0.800292968750, -6.898437500000, 9.281250000000, -1.664062500000, 1492749757
0.505615234375, -0.476562500000, 0.800292968750, -6.898437500000, 9.281250000000, -1.664062500000, 1492749757
0.505615234375, -0.476562500000, 0.800292968750, -6.898437500000, 9.281250000000, -1.664062500000, 1492749757
0.436035156250, -0.441650390625, 0.827148437500, -1.312500000000, 14.023437500000, -7.843750000000, 1492749757
0.436035156250, -0.441650390625, 0.827148437500, -1.312500000000, 14.023437500000, -7.843750000000, 1492749757
0.436035156250, -0.441650390625, 0.827148437500, -1.312500000000, 14.023437500000, -7.843750000000, 1492749757
0.340576171875, -0.521484375000, 0.739257812500, -4.562500000000, -1.789062500000, -6.773437500000, 1492749757
0.340576171875, -0.521484375000, 0.739257812500, -4.562500000000, -1.789062500000, -6.773437500000, 1492749757
0.340576171875, -0.521484375000, 0.739257812500, -4.562500000000, -1.789062500000, -6.773437500000, 1492749757
0.428466796875, -0.481933593750, 0.670166015625, -4.984375000000, -5.093750000000, -10.070312500000, 1492749757
0.428466796875, -0.481933593750, 0.670166015625, -4.984375000000, -5.093750000000, -10.070312500000, 1492749757
0.428466796875, -0.481933593750, 0.670166015625, -4.984375000000, -5.093750000000, -10.070312500000, 1492749757
0.434814453125, -0.565429687500, 0.681884765625, -1.914062500000, -14.265625000000, 0.539062500000, 1492749757
0.434814453125, -0.565429687500, 0.681884765625, -1.914062500000, -14.265625000000, 0.539062500000, 1492749757
0.434814453125, -0.565429687500, 0.681884765625, -1.914062500000, -14.265625000000, 0.539062500000, 1492749757
0.434814453125, -0.565429687500, 0.681884765625, -1.914062500000, -14.265625000000, 0.539062500000, 1492749757
0.631347656250, -0.485595703125, 0.678710937500, 2.843750000000, -12.445312500000, 6.500000000000, 1492749757
0.631347656250, -0.485595703125, 0.678710937500, 2.843750000000, -12.445312500000, 6.500000000000, 1492749757
0.631347656250, -0.485595703125, 0.678710937500, 2.843750000000, -12.445312500000, 6.500000000000, 1492749757
0.510253906250, -0.422851562500, 0.602294921875, -4.406250000000, -4.406250000000, -4.492187500000, 1492749757
0.510253906250, -0.422851562500, 0.602294921875, -4.406250000000, -4.406250000000, -4.492187500000, 1492749757
0.510253906250, -0.422851562500, 0.602294921875, -4.406250000000, -4.406250000000, -4.492187500000, 1492749757
0.520751953125, -0.524658203125, 0.779541015625, -6.906250000000, 2.179687500000, -8.468750000000, 1492749757
0.520751953125, -0.524658203125, 0.779541015625, -6.906250000000, 2.179687500000, -8.468750000000, 1492749757
0.520751953125, -0.524658203125, 0.779541015625, -6.906250000000, 2.179687500000, -8.468750000000, 1492749757
0.432861328125, -0.477050781250, 0.613769531250, -4.828125000000, 10.562500000000, -2.601562500000, 1492749757
0.432861328125, -0.477050781250, 0.613769531250, -4.828125000000, 10.562500000000, -2.601562500000, 1492749757
0.432861328125, -0.477050781250, 0.613769531250, -4.828125000000, 10.562500000000, -2.601562500000, 1492749757
0.432861328125, -0.477050781250, 0.613769531250, -4.828125000000, 10.562500000000, -2.601562500000, 1492749757
0.523681640625, -0.479736328125, 0.662353515625, -5.007812500000, 9.148437500000, -3.523437500000, 1492749757
0.523681640625, -0.479736328125, 0.662353515625, -5.007812500000, 9.148437500000, -3.523437500000, 1492749757
0.523681640625, -0.479736328125, 0.662353515625, -5.007812500000, 9.148437500000, -3.523437500000, 1492749757
0.527343750000, -0.575927734375, 0.779785156250, -9.757812500000, 12.640625000000, -4.070312500000, 1492749757
0.527343750000, -0.575927734375, 0.779785156250, -9.757812500000, 12.640625000000, -4.070312500000, 1492749757
0.527343750000, -0.575927734375, 0.779785156250, -9.757812500000, 12.640625000000, -4.070312500000, 1492749757
0.425048828125, -0.480468750000, 0.746093750000, -6.507812500000, 8.578125000000, -5.320312500000, 1492749757
0.425048828125, -0.480468750000, 0.746093750000, -6.507812500000, 8.578125000000, -5.320312500000, 1492749757
0.425048828125, -0.480468750000, 0.746093750000, -6.507812500000, 8.578125000000, -5.320312500000, 1492749757
0.417236328125, -0.521240234375, 0.757080078125, -5.039062500000, 0.500000000000, -7.882812500000, 1492749757
0.417236328125, -0.521240234375, 0.757080078125, -5.039062500000, 0.500000000000, -7.882812500000, 1492749757
0.417236328125, -0.521240234375, 0.757080078125, -5.039062500000, 0.500000000000, -7.882812500000, 1492749757
0.397216796875, -0.452148437500, 0.730712890625, -4.703125000000, 1.812500000000, -8.195312500000, 1492749757
0.397216796875, -0.452148437500, 0.730712890625, -4.703125000000, 1.812500000000, -8.195312500000, 1492749757
0.397216796875, -0.452148437500, 0.730712890625, -4.703125000000, 1.812500000000, -8.195312500000, 1492749757
0.397216796875, -0.452148437500, 0.730712890625, -4.703125000000, 1.812500000000, -8.195312500000, 1492749757
0.432128906250, -0.475097656250, 0.765869140625, -6.195312500000, 2.546875000000, -7.187500000000, 1492749758
0.432128906250, -0.475097656250, 0.765869140625, -6.195312500000, 2.546875000000, -7.187500000000, 1492749758
0.432128906250, -0.475097656250, 0.765869140625, -6.195312500000, 2.546875000000, -7.187500000000, 1492749758
0.493164062500, -0.416503906250, 0.815185546875, -5.929687500000, -3.000000000000, -6.859375000000, 1492749758
0.493164062500, -0.416503906250, 0.815185546875, -5.929687500000, -3.000000000000, -6.859375000000, 1492749758
0.504150390625, -0.572509765625, 0.729492187500, -4.687500000000, 5.156250000000, -6.429687500000, 1492749758
0.504150390625, -0.572509765625, 0.729492187500, -4.687500000000, 5.156250000000, -6.429687500000, 1492749758
0.504150390625, -0.572509765625, 0.729492187500, -4.687500000000, 5.156250000000, -6.429687500000, 1492749758
0.504150390625, -0.572509765625, 0.729492187500, -4.687500000000, 5.156250000000, -6.429687500000, 1492749758
0.472412109375, -0.587646484375, 0.819824218750, -3.179687500000, 6.484375000000, -6.093750000000, 1492749758
0.472412109375, -0.587646484375, 0.819824218750, -3.179687500000, 6.484375000000, -6.093750000000, 1492749758
0.472412109375, -0.587646484375, 0.819824218750, -3.179687500000, 6.484375000000, -6.093750000000, 1492749758
0.472412109375, -0.587646484375, 0.819824218750, -3.179687500000, 6.484375000000, -6.093750000000, 1492749758
0.475341796875, -0.406738281250, 0.832031250000, -6.648437500000, 10.976562500000, -6.500000000000, 1492749758
0.475341796875, -0.406738281250, 0.832031250000, -6.648437500000, 10.976562500000, -6.500000000000, 1492749758
0.475341796875, -0.406738281250, 0.832031250000, -6.648437500000, 10.976562500000, -6.500000000000, 1492749758
0.429199218750, -0.473632812500, 0.842041015625, -4.375000000000, 8.351562500000, -6.453125000000, 1492749758
0.429199218750, -0.473632812500, 0.842041015625, -4.375000000000, 8.351562500000, -6.453125000000, 1492749758
0.429199218750, -0.473632812500, 0.842041015625, -4.375000000000, 8.351562500000, -6.453125000000, 1492749758
0.359619140625, -0.479980468750, 0.748779296875, -6.296875000000, 6.835937500000, -1.664062500000, 1492749758
0.359619140625, -0.479980468750, 0.748779296875, -6.296875000000, 6.835937500000, -1.664062500000, 1492749758
0.359619140625, -0.479980468750, 0.748779296875, -6.296875000000, 6.835937500000, -1.664062500000, 1492749758
0.359619140625, -0.479980468750, 0.748779296875, -6.296875000000, 6.835937500000, -1.664062500000, 1492749758
0.365722656250, -0.433105468750, 0.832275390625, -6.015625000000, 0.851562500000, -3.070312500000, 1492749758
0.365722656250, -0.433105468750, 0.832275390625, -6.015625000000, 0.851562500000, -3.070312500000, 1492749758
0.365722656250, -0.433105468750, 0.832275390625, -6.015625000000, 0.851562500000, -3.070312500000, 1492749758
0.411376953125, -0.528808593750, 0.744628906250, -4.257812500000, -1.773437500000, -1.875000000000, 1492749758
0.411376953125, -0.528808593750, 0.744628906250, -4.257812500000, -1.773437500000, -1.875000000000, 1492749758
0.411376953125, -0.528808593750, 0.744628906250, -4.257812500000, -1.773437500000, -1.875000000000, 1492749758
0.427490234375, -0.556640625000, 0.739990234375, -4.484375000000, 2.406250000000, -4.273437500000, 1492749758
0.427490234375, -0.556640625000, 0.739990234375, -4.484375000000, 2.406250000000, -4.273437500000, 1492749758
0.427490234375, -0.556640625000, 0.739990234375, -4.484375000000, 2.406250000000, -4.273437500000, 1492749758
0.476318359375, -0.487792968750, 0.740478515625, -5.351562500000, -0.085937500000, -5.039062500000, 1492749758
0.476318359375, -0.487792968750, 0.740478515625, -5.351562500000, -0.085937500000, -5.039062500000, 1492749758
0.476318359375, -0.487792968750, 0.740478515625, -5.351562500000, -0.085937500000, -5.039062500000, 1492749758
0.476318359375, -0.487792968750, 0.740478515625, -5.351562500000, -0.085937500000, -5.039062500000, 1492749758
0.453857421875, -0.502441406250, 0.818847656250, -6.890625000000, 1.656250000000, -4.257812500000, 1492749758
0.453857421875, -0.502441406250, 0.818847656250, -6.890625000000, 1.656250000000, -4.257812500000, 1492749758
0.453857421875, -0.502441406250, 0.818847656250, -6.890625000000, 1.656250000000, -4.257812500000, 1492749758
0.515625000000, -0.571533203125, 0.830322265625, -3.625000000000, 6.218750000000, -6.570312500000, 1492749758
0.515625000000, -0.571533203125, 0.830322265625, -3.625000000000, 6.218750000000, -6.570312500000, 1492749758
0.515625000000, -0.571533203125, 0.830322265625, -3.625000000000, 6.218750000000, -6.570312500000, 1492749758
0.530273437500, -0.427246093750, 0.843261718750, -5.179687500000, -0.710937500000, -5.203125000000, 1492749758
0.530273437500, -0.427246093750, 0.843261718750, -5.179687500000, -0.710937500000, -5.203125000000, 1492749758
0.530273437500, -0.427246093750, 0.843261718750, -5.179687500000, -0.710937500000, -5.203125000000, 1492749758
0.364746093750, -0.525390625000, 0.706542968750, -6.468750000000, 7.429687500000, -6.507812500000, 1492749758
0.364746093750, -0.525390625000, 0.706542968750, -6.468750000000, 7.429687500000, -6.507812500000, 1492749758
0.364746093750, -0.525390625000, 0.706542968750, -6.468750000000, 7.429687500000, -6.507812500000, 1492749758
0.364746093750, -0.525390625000, 0.706542968750, -6.468750000000, 7.429687500000, -6.507812500000, 1492749758
0.309082031250, -0.480224609375, 0.729248046875, -3.148437500000, 9.359375000000, -2.640625000000, 1492749758
0.309082031250, -0.480224609375, 0.729248046875, -3.148437500000, 9.359375000000, -2.640625000000, 1492749758
0.465087890625, -0.530517578125, 0.825927734375, -6.664062500000, 6.039062500000, -5.632812500000, 1492749758
0.465087890625, -0.530517578125, 0.825927734375, -6.664062500000, 6.039062500000, -5.632812500000, 1492749758
0.354492187500, -0.480957031250, 0.732910156250, -3.656250000000, 2.937500000000, -3.710937500000, 1492749758
0.354492187500, -0.480957031250, 0.732910156250, -3.656250000000, 2.937500000000, -3.710937500000, 1492749758
0.354492187500, -0.480957031250, 0.732910156250, -3.656250000000, 2.937500000000, -3.710937500000, 1492749758
0.354492187500, -0.480957031250, 0.732910156250, -3.656250000000, 2.937500000000, -3.710937500000, 1492749758
0.354492187500, -0.480957031250, 0.732910156250, -3.656250000000, 2.937500000000, -3.710937500000, 1492749758
0.310546875000, -0.464111328125, 0.744384765625, -4.054687500000, 4.671875000000, 0.210937500000, 1492749758
0.310546875000, -0.464111328125, 0.744384765625, -4.054687500000, 4.671875000000, 0.210937500000, 1492749758
0.310546875000, -0.464111328125, 0.744384765625, -4.054687500000, 4.671875000000, 0.210937500000, 1492749758
0.310546875000, -0.464111328125, 0.744384765625, -4.054687500000, 4.671875000000, 0.210937500000, 1492749758
0.360351562500, -0.581787109375, 0.748046875000, -3.335937500000, -0.132812500000, 0.429687500000, 1492749758
0.360351562500, -0.581787109375, 0.748046875000, -3.335937500000, -0.132812500000, 0.429687500000, 1492749758
0.360351562500, -0.581787109375, 0.748046875000, -3.335937500000, -0.132812500000, 0.429687500000, 1492749758
0.442871093750, -0.432617187500, 0.834472656250, -4.750000000000, -1.679687500000, -1.257812500000, 1492749758
0.442871093750, -0.432617187500, 0.834472656250, -4.750000000000, -1.679687500000, -1.257812500000, 1492749758
0.442871093750, -0.432617187500, 0.834472656250, -4.750000000000, -1.679687500000, -1.257812500000, 1492749758
0.508789062500, -0.566162109375, 0.740478515625, -5.000000000000, -1.312500000000, 0.257812500000, 1492749759
0.508789062500, -0.566162109375, 0.740478515625, -5.000000000000, -1.312500000000, 0.257812500000, 1492749759
0.508789062500, -0.566162109375, 0.740478515625, -5.000000000000, -1.312500000000, 0.257812500000, 1492749759
0.305908203125, -0.577636718750, 0.794433593750, -4.382812500000, -0.007812500000, -1.070312500000, 1492749759
0.305908203125, -0.577636718750, 0.794433593750, -4.382812500000, -0.007812500000, -1.070312500000, 1492749759
0.305908203125, -0.577636718750, 0.794433593750, -4.382812500000, -0.007812500000, -1.070312500000, 1492749759
0.305908203125, -0.577636718750, 0.794433593750, -4.382812500000, -0.007812500000, -1.070312500000, 1492749759
0.448730468750, -0.406494140625, 0.837402343750, -4.070312500000, 0.468750000000, -4.429687500000, 1492749759
0.448730468750, -0.406494140625, 0.837402343750, -4.070312500000, 0.468750000000, -4.429687500000, 1492749759
0.448730468750, -0.406494140625, 0.837402343750, -4.070312500000, 0.468750000000, -4.429687500000, 1492749759
0.531005859375, -0.478271484375, 0.780273437500, -4.523437500000, -1.382812500000, -4.250000000000, 1492749759
0.531005859375, -0.478271484375, 0.780273437500, -4.523437500000, -1.382812500000, -4.250000000000, 1492749759
0.531005859375, -0.478271484375, 0.780273437500, -4.523437500000, -1.382812500000, -4.250000000000, 1492749759
0.406982421875, -0.534912109375, 0.817626953125, -3.281250000000, -0.687500000000, -2.398437500000, 1492749759
0.406982421875, -0.534912109375, 0.817626953125, -3.281250000000, -0.687500000000, -2.398437500000, 1492749759
0.406982421875, -0.534912109375, 0.817626953125, -3.281250000000, -0.687500000000, -2.398437500000, 1492749759
0.425048828125, -0.489013671875, 0.824218750000, -1.789062500000, -2.656250000000, -3.101562500000, 1492749759
0.425048828125, -0.489013671875, 0.824218750000, -1.789062500000, -2.656250000000, -3.101562500000, 1492749759
0.425048828125, -0.489013671875, 0.824218750000, -1.789062500000, -2.656250000000, -3.101562500000, 1492749759
0.425048828125, -0.489013671875, 0.824218750000, -1.789062500000, -2.656250000000, -3.101562500000, 1492749759
0.426269531250, -0.579589843750, 0.748535156250, -5.000000000000, 0.914062500000, -2.453125000000, 1492749759
0.426269531250, -0.579589843750, 0.748535156250, -5.000000000000, 0.914062500000, -2.453125000000, 1492749759
0.426269531250, -0.579589843750, 0.748535156250, -5.000000000000, 0.914062500000, -2.453125000000, 1492749759
0.438964843750, -0.343994140625, 0.833251953125, -4.242187500000, -2.109375000000, 0.765625000000, 1492749759
0.438964843750, -0.343994140625, 0.833251953125, -4.242187500000, -2.109375000000, 0.765625000000, 1492749759
0.438964843750, -0.343994140625, 0.833251953125, -4.242187500000, -2.109375000000, 0.765625000000, 1492749759
0.438964843750, -0.343994140625, 0.833251953125, -4.242187500000, -2.109375000000, 0.765625000000, 1492749759
0.414062500000, -0.442138671875, 0.721435546875, -3.523437500000, 0.156250000000, -3.968750000000, 1492749759
0.414062500000, -0.442138671875, 0.721435546875, -3.523437500000, 0.156250000000, -3.968750000000, 1492749759
0.414062500000, -0.442138671875, 0.721435546875, -3.523437500000, 0.156250000000, -3.968750000000, 1492749759
0.414062500000, -0.442138671875, 0.721435546875, -3.523437500000, 0.156250000000, -3.968750000000, 1492749759
0.414062500000, -0.442138671875, 0.721435546875, -3.523437500000, 0.156250000000, -3.968750000000, 1492749759
0.414062500000, -0.442138671875, 0.721435546875, -3.523437500000, 0.156250000000, -3.968750000000, 1492749759
0.365478515625, -0.517822265625, 0.746337890625, -3.484375000000, -2.140625000000, -1.218750000000, 1492749759
0.365478515625, -0.517822265625, 0.746337890625, -3.484375000000, -2.140625000000, -1.218750000000, 1492749759
0.365478515625, -0.517822265625, 0.746337890625, -3.484375000000, -2.140625000000, -1.218750000000, 1492749759
0.500488281250, -0.413085937500, 0.840087890625, -1.718750000000, 0.156250000000, -2.929687500000, 1492749759
0.500488281250, -0.413085937500, 0.840087890625, -1.718750000000, 0.156250000000, -2.929687500000, 1492749759
0.500488281250, -0.413085937500, 0.840087890625, -1.718750000000, 0.156250000000, -2.929687500000, 1492749759
0.446044921875, -0.501708984375, 0.744384765625, -3.210937500000, 0.226562500000, -4.492187500000, 1492749759
0.446044921875, -0.501708984375, 0.744384765625, -3.210937500000, 0.226562500000, -4.492187500000, 1492749759
0.446044921875, -0.501708984375, 0.744384765625, -3.210937500000, 0.226562500000, -4.492187500000, 1492749759
0.509277343750, -0.509277343750, 0.791259765625, -4.656250000000, 0.914062500000, -1.960937500000, 1492749759
0.509277343750, -0.509277343750, 0.791259765625, -4.656250000000, 0.914062500000, -1.960937500000, 1492749759
0.509277343750, -0.509277343750, 0.791259765625, -4.656250000000, 0.914062500000, -1.960937500000, 1492749759
0.509277343750, -0.509277343750, 0.791259765625, -4.656250000000, 0.914062500000, -1.960937500000, 1492749759
0.444580078125, -0.423095703125, 0.780273437500, -3.382812500000, -2.007812500000, -1.484375000000, 1492749759
0.444580078125, -0.423095703125, 0.780273437500, -3.382812500000, -2.007812500000, -1.484375000000, 1492749759
0.444580078125, -0.423095703125, 0.780273437500, -3.382812500000, -2.007812500000, -1.484375000000, 1492749759
0.367919921875, -0.472412109375, 0.828613281250, -3.929687500000, 2.851562500000, -1.367187500000, 1492749759
0.367919921875, -0.472412109375, 0.828613281250, -3.929687500000, 2.851562500000, -1.367187500000, 1492749759
0.367919921875, -0.472412109375, 0.828613281250, -3.929687500000, 2.851562500000, -1.367187500000, 1492749759
0.361572265625, -0.427246093750, 0.784912109375, -3.500000000000, 2.726562500000, -5.195312500000, 1492749759
0.361572265625, -0.427246093750, 0.784912109375, -3.500000000000, 2.726562500000, -5.195312500000, 1492749759
0.361572265625, -0.427246093750, 0.784912109375, -3.500000000000, 2.726562500000, -5.195312500000, 1492749759
0.353515625000, -0.484863281250, 0.687500000000, -4.703125000000, -0.820312500000, -4.656250000000, 1492749759
0.353515625000, -0.484863281250, 0.687500000000, -4.703125000000, -0.820312500000, -4.656250000000, 1492749759
0.353515625000, -0.484863281250, 0.687500000000, -4.703125000000, -0.820312500000, -4.656250000000, 1492749759
0.353515625000, -0.484863281250, 0.687500000000, -4.703125000000, -0.820312500000, -4.656250000000, 1492749759
0.396484375000, -0.574218750000, 0.739257812500, -3.585937500000, 2.429687500000, -1.500000000000, 1492749759
0.396484375000, -0.574218750000, 0.739257812500, -3.585937500000, 2.429687500000, -1.500000000000, 1492749759
0.396484375000, -0.574218750000, 0.739257812500, -3.585937500000, 2.429687500000, -1.500000000000, 1492749759
0.307861328125, -0.435058593750, 0.790771484375, -3.562500000000, 3.515625000000, -4.554687500000, 1492749759
0.307861328125, -0.435058593750, 0.790771484375, -3.562500000000, 3.515625000000, -4.554687500000, 1492749759
0.307861328125, -0.435058593750, 0.790771484375, -3.562500000000, 3.515625000000, -4.554687500000, 1492749759
0.502929687500, -0.521484375000, 0.841064453125, -3.468750000000, 0.710937500000, -3.539062500000, 1492749760
0.502929687500, -0.521484375000, 0.841064453125, -3.468750000000, 0.710937500000, -3.539062500000, 1492749760
0.502929687500, -0.521484375000, 0.841064453125, -3.468750000000, 0.710937500000, -3.539062500000, 1492749760
0.515625000000, -0.564697265625, 0.778076171875, -3.125000000000, 4.414062500000, -4.898437500000, 1492749760
0.515625000000, -0.564697265625, 0.778076171875, -3.125000000000, 4.414062500000, -4.898437500000, 1492749760
0.515625000000, -0.564697265625, 0.778076171875, -3.125000000000, 4.414062500000, -4.898437500000, 1492749760
0.515625000000, -0.564697265625, 0.778076171875, -3.125000000000, 4.414062500000, -4.898437500000, 1492749760
0.507324218750, -0.525634765625, 0.817382812500, -4.171875000000, 0.429687500000, -1.468750000000, 1492749760
0.507324218750, -0.525634765625, 0.817382812500, -4.171875000000, 0.429687500000, -1.468750000000, 1492749760
0.507324218750, -0.525634765625, 0.817382812500, -4.171875000000, 0.429687500000, -1.468750000000, 1492749760
0.434082031250, -0.350830078125, 0.728759765625, -5.195312500000, -0.218750000000, -3.742187500000, 1492749760
0.434082031250, -0.350830078125, 0.728759765625, -5.195312500000, -0.218750000000, -3.742187500000, 1492749760
0.291503906250, -0.435791015625, 0.812988281250, -3.914062500000, 0.687500000000, -4.773437500000, 1492749760
0.291503906250, -0.435791015625, 0.812988281250, -3.914062500000, 0.687500000000, -4.773437500000, 1492749760
0.291503906250, -0.435791015625, 0.812988281250, -3.914062500000, 0.687500000000, -4.773437500000, 1492749760
0.291503906250, -0.435791015625, 0.812988281250, -3.914062500000, 0.687500000000, -4.773437500000, 1492749760
0.408691406250, -0.488525390625, 0.887939453125, -3.343750000000, -0.531250000000, -3.625000000000, 1492749760
0.408691406250, -0.488525390625, 0.887939453125, -3.343750000000, -0.531250000000, -3.625000000000, 1492749760
0.408691406250, -0.488525390625, 0.887939453125, -3.343750000000, -0.531250000000, -3.625000000000, 1492749760
0.408691406250, -0.488525390625, 0.887939453125, -3.343750000000, -0.531250000000, -3.625000000000, 1492749760
0.361572265625, -0.436767578125, 0.813964843750, -6.164062500000, 0.429687500000, -3.171875000000, 1492749760
0.361572265625, -0.436767578125, 0.813964843750, -6.164062500000, 0.429687500000, -3.171875000000, 1492749760
0.361572265625, -0.436767578125, 0.813964843750, -6.164062500000, 0.429687500000, -3.171875000000, 1492749760
0.395751953125, -0.492675781250, 0.836914062500, -4.625000000000, 2.257812500000, -4.867187500000, 1492749760
0.395751953125, -0.492675781250, 0.836914062500, -4.625000000000, 2.257812500000, -4.867187500000, 1492749760
0.395751953125, -0.492675781250, 0.836914062500, -4.625000000000, 2.257812500000, -4.867187500000, 1492749760
0.363525390625, -0.516601562500, 0.748535156250, -4.445312500000, 0.062500000000, -4.671875000000, 1492749760
0.363525390625, -0.516601562500, 0.748535156250, -4.445312500000, 0.062500000000, -4.671875000000, 1492749760
0.363525390625, -0.516601562500, 0.748535156250, -4.445312500000, 0.062500000000, -4.671875000000, 1492749760
0.502441406250, -0.442626953125, 0.787353515625, -3.031250000000, 4.101562500000, -1.500000000000, 1492749760
0.502441406250, -0.442626953125, 0.787353515625, -3.031250000000, 4.101562500000, -1.500000000000, 1492749760
0.502441406250, -0.442626953125, 0.787353515625, -3.031250000000, 4.101562500000, -1.500000000000, 1492749760
0.502441406250, -0.442626953125, 0.787353515625, -3.031250000000, 4.101562500000, -1.500000000000, 1492749760
0.525146484375, -0.454589843750, 0.804443359375, -4.632812500000, 4.062500000000, -3.445312500000, 1492749760
0.525146484375, -0.454589843750, 0.804443359375, -4.632812500000, 4.062500000000, -3.445312500000, 1492749760
0.305175781250, -0.572998046875, 0.836914062500, -3.476562500000, 1.429687500000, -4.984375000000, 1492749760
0.305175781250, -0.572998046875, 0.836914062500, -3.476562500000, 1.429687500000, -4.984375000000, 1492749760
0.305175781250, -0.572998046875, 0.836914062500, -3.476562500000, 1.429687500000, -4.984375000000, 1492749760
0.305175781250, -0.572998046875, 0.836914062500, -3.476562500000, 1.429687500000, -4.984375000000, 1492749760
0.300292968750, -0.562988281250, 0.794433593750, -3.656250000000, 2.695312500000, -6.085937500000, 1492749760
0.300292968750, -0.562988281250, 0.794433593750, -3.656250000000, 2.695312500000, -6.085937500000, 1492749760
0.300292968750, -0.562988281250, 0.794433593750, -3.656250000000, 2.695312500000, -6.085937500000, 1492749760
0.501953125000, -0.476074218750, 0.814941406250, -3.851562500000, -0.445312500000, -4.953125000000, 1492749760
0.467529296875, -0.413574218750, 0.743652343750, -2.132812500000, 8.296875000000, -3.070312500000, 1492749760
0.467529296875, -0.413574218750, 0.743652343750, -2.132812500000, 8.296875000000, -3.070312500000, 1492749760
0.467529296875, -0.413574218750, 0.743652343750, -2.132812500000, 8.296875000000, -3.070312500000, 1492749760
0.467529296875, -0.413574218750, 0.743652343750, -2.132812500000, 8.296875000000, -3.070312500000, 1492749760
0.467529296875, -0.413574218750, 0.743652343750, -2.132812500000, 8.296875000000, -3.070312500000, 1492749760
0.438720703125, -0.509033203125, 0.812744140625, -3.281250000000, -0.343750000000, -1.460937500000, 1492749760
0.438720703125, -0.509033203125, 0.812744140625, -3.281250000000, -0.343750000000, -1.460937500000, 1492749760
0.438720703125, -0.509033203125, 0.812744140625, -3.281250000000, -0.343750000000, -1.460937500000, 1492749760
0.438720703125, -0.509033203125, 0.812744140625, -3.281250000000, -0.343750000000, -1.460937500000, 1492749760
0.354736328125, -0.407958984375, 0.728027343750, -6.570312500000, -2.234375000000, -3.906250000000, 1492749760
0.354736328125, -0.407958984375, 0.728027343750, -6.570312500000, -2.234375000000, -3.906250000000, 1492749760
0.354736328125, -0.407958984375, 0.728027343750, -6.570312500000, -2.234375000000, -3.906250000000, 1492749760
0.312255859375, -0.529052734375, 0.763183593750, -1.429687500000, 1.210937500000, -4.031250000000, 1492749760
0.312255859375, -0.529052734375, 0.763183593750, -1.429687500000, 1.210937500000, -4.031250000000, 1492749760
0.312255859375, -0.529052734375, 0.763183593750, -1.429687500000, 1.210937500000, -4.031250000000, 1492749760
0.312255859375, -0.529052734375, 0.763183593750, -1.429687500000, 1.210937500000, -4.031250000000, 1492749760
0.444091796875, -0.479248046875, 0.722167968750, -3.445312500000, -0.640625000000, -3.031250000000, 1492749760
0.444091796875, -0.479248046875, 0.722167968750, -3.445312500000, -0.640625000000, -3.031250000000, 1492749760
0.444091796875, -0.479248046875, 0.722167968750, -3.445312500000, -0.640625000000, -3.031250000000, 1492749760
0.394531250000, -0.487792968750, 0.817138671875, -3.453125000000, -0.468750000000, -5.398437500000, 1492749760
0.394531250000, -0.487792968750, 0.817138671875, -3.453125000000, -0.468750000000, -5.398437500000, 1492749760
0.394531250000, -0.487792968750, 0.817138671875, -3.453125000000, -0.468750000000, -5.398437500000, 1492749760
0.370117187500, -0.467773437500, 0.804443359375, -4.140625000000, -2.195312500000, -1.687500000000, 1492749760
0.370117187500, -0.467773437500, 0.804443359375, -4.140625000000, -2.195312500000, -1.687500000000, 1492749760
0.370117187500, -0.467773437500, 0.804443359375, -4.140625000000, -2.195312500000, -1.687500000000, 1492749760
0.404541015625, -0.518066406250, 0.825927734375, -1.562500000000, 0.851562500000, -2.070312500000, 1492749761
0.404541015625, -0.518066406250, 0.825927734375, -1.562500000000, 0.851562500000, -2.070312500000, 1492749761
0.404541015625, -0.518066406250, 0.825927734375, -1.562500000000, 0.851562500000, -2.070312500000, 1492749761
0.404541015625, -0.518066406250, 0.825927734375, -1.562500000000, 0.851562500000, -2.070312500000, 1492749761
0.454833984375, -0.499511718750, 0.803222656250, 0.101562500000, -2.023437500000, -2.093750000000, 1492749761
0.454833984375, -0.499511718750, 0.803222656250, 0.101562500000, -2.023437500000, -2.093750000000, 1492749761
0.454833984375, -0.499511718750, 0.803222656250, 0.101562500000, -2.023437500000, -2.093750000000, 1492749761
0.466552734375, -0.515625000000, 0.839843750000, -4.273437500000, -1.593750000000, -2.375000000000, 1492749761
0.466552734375, -0.515625000000, 0.839843750000, -4.273437500000, -1.593750000000, -2.375000000000, 1492749761
0.466552734375, -0.515625000000, 0.839843750000, -4.273437500000, -1.593750000000, -2.375000000000, 1492749761
0.358642578125, -0.420654296875, 0.843750000000, -1.851562500000, 0.000000000000, -1.429687500000, 1492749761
0.358642578125, -0.420654296875, 0.843750000000, -1.851562500000, 0.000000000000, -1.429687500000, 1492749761
0.358642578125, -0.420654296875, 0.843750000000, -1.851562500000, 0.000000000000, -1.429687500000, 1492749761
0.371093750000, -0.423583984375, 0.789062500000, -1.640625000000, 0.656250000000, -0.914062500000, 1492749761
0.371093750000, -0.423583984375, 0.789062500000, -1.640625000000, 0.656250000000, -0.914062500000, 1492749761
0.371093750000, -0.423583984375, 0.789062500000, -1.640625000000, 0.656250000000, -0.914062500000, 1492749761
0.371093750000, -0.423583984375, 0.789062500000, -1.640625000000, 0.656250000000, -0.914062500000, 1492749761
0.345458984375, -0.495117187500, 0.739013671875, -3.414062500000, 0.023437500000, 0.781250000000, 1492749761
0.345458984375, -0.495117187500, 0.739013671875, -3.414062500000, 0.023437500000, 0.781250000000, 1492749761
0.345458984375, -0.495117187500, 0.739013671875, -3.414062500000, 0.023437500000, 0.781250000000, 1492749761
0.359619140625, -0.527832031250, 0.722412109375, -2.703125000000, 4.828125000000, 0.781250000000, 1492749761
0.359619140625, -0.527832031250, 0.722412109375, -2.703125000000, 4.828125000000, 0.781250000000, 1492749761
0.359619140625, -0.527832031250, 0.722412109375, -2.703125000000, 4.828125000000, 0.781250000000, 1492749761
0.345458984375, -0.418701171875, 0.833984375000, -4.078125000000, -6.421875000000, -2.265625000000, 1492749761
0.345458984375, -0.418701171875, 0.833984375000, -4.078125000000, -6.421875000000, -2.265625000000, 1492749761
0.345458984375, -0.418701171875, 0.833984375000, -4.078125000000, -6.421875000000, -2.265625000000, 1492749761
0.415771484375, -0.467773437500, 0.718994140625, -4.820312500000, -1.187500000000, 0.164062500000, 1492749761
0.415771484375, -0.467773437500, 0.718994140625, -4.820312500000, -1.187500000000, 0.164062500000, 1492749761
0.415771484375, -0.467773437500, 0.718994140625, -4.820312500000, -1.187500000000, 0.164062500000, 1492749761
0.415771484375, -0.467773437500, 0.718994140625, -4.820312500000, -1.187500000000, 0.164062500000, 1492749761
0.432861328125, -0.577636718750, 0.741699218750, -1.585937500000, -2.773437500000, -2.320312500000, 1492749761
0.432861328125, -0.577636718750, 0.741699218750, -1.585937500000, -2.773437500000, -2.320312500000, 1492749761
0.432861328125, -0.577636718750, 0.741699218750, -1.585937500000, -2.773437500000, -2.320312500000, 1492749761
0.422851562500, -0.429687500000, 0.788085937500, -4.601562500000, -2.468750000000, -2.898437500000, 1492749761
0.422851562500, -0.429687500000, 0.788085937500, -4.601562500000, -2.468750000000, -2.898437500000, 1492749761
0.422851562500, -0.429687500000, 0.788085937500, -4.601562500000, -2.468750000000, -2.898437500000, 1492749761
0.411621093750, -0.504638671875, 0.841064453125, -4.289062500000, -1.820312500000, 0.031250000000, 1492749761
0.411621093750, -0.504638671875, 0.841064453125, -4.289062500000, -1.820312500000, 0.031250000000, 1492749761
0.411621093750, -0.504638671875, 0.841064453125, -4.289062500000, -1.820312500000, 0.031250000000, 1492749761
0.397705078125, -0.590576171875, 0.823730468750, -1.773437500000, -2.148437500000, -2.562500000000, 1492749761
0.397705078125, -0.590576171875, 0.823730468750, -1.773437500000, -2.148437500000, -2.562500000000, 1492749761
0.397705078125, -0.590576171875, 0.823730468750, -1.773437500000, -2.148437500000, -2.562500000000, 1492749761
0.446533203125, -0.420410156250, 0.834228515625, -4.796875000000, -2.710937500000, 0.414062500000, 1492749761
0.446533203125, -0.420410156250, 0.834228515625, -4.796875000000, -2.710937500000, 0.414062500000, 1492749761
0.446533203125, -0.420410156250, 0.834228515625, -4.796875000000, -2.710937500000, 0.414062500000, 1492749761
0.446533203125, -0.420410156250, 0.834228515625, -4.796875000000, -2.710937500000, 0.414062500000, 1492749761
0.463623046875, -0.518798828125, 0.801269531250, -3.195312500000, -2.539062500000, -1.234375000000, 1492749761
0.463623046875, -0.518798828125, 0.801269531250, -3.195312500000, -2.539062500000, -1.234375000000, 1492749761
0.350830078125, -0.513183593750, 0.830322265625, -1.328125000000, -2.390625000000, -2.414062500000, 1492749761
0.350830078125, -0.513183593750, 0.830322265625, -1.328125000000, -2.390625000000, -2.414062500000, 1492749761
0.350830078125, -0.513183593750, 0.830322265625, -1.328125000000, -2.390625000000, -2.414062500000, 1492749761
0.350830078125, -0.513183593750, 0.830322265625, -1.328125000000, -2.390625000000, -2.414062500000, 1492749761
0.307373046875, -0.525390625000, 0.791503906250, -4.210937500000, -2.414062500000, -1.593750000000, 1492749761
0.307373046875, -0.525390625000, 0.791503906250, -4.210937500000, -2.414062500000, -1.593750000000, 1492749761
0.307373046875, -0.525390625000, 0.791503906250, -4.210937500000, -2.414062500000, -1.593750000000, 1492749761
0.307373046875, -0.525390625000, 0.791503906250, -4.210937500000, -2.414062500000, -1.593750000000, 1492749761
0.500732421875, -0.475830078125, 0.736083984375, -3.054687500000, -2.679687500000, -4.187500000000, 1492749761
0.500732421875, -0.475830078125, 0.736083984375, -3.054687500000, -2.679687500000, -4.187500000000, 1492749761
0.500732421875, -0.475830078125, 0.736083984375, -3.054687500000, -2.679687500000, -4.187500000000, 1492749761
0.462890625000, -0.464355468750, 0.802734375000, -4.210937500000, 0.250000000000, -2.156250000000, 1492749761
0.462890625000, -0.464355468750, 0.802734375000, -4.210937500000, 0.250000000000, -2.156250000000, 1492749761
0.462890625000, -0.464355468750, 0.802734375000, -4.210937500000, 0.250000000000, -2.156250000000, 1492749761
0.462890625000, -0.464355468750, 0.802734375000, -4.210937500000, 0.250000000000, -2.156250000000, 1492749761
0.352539062500, -0.445312500000, 0.883789062500, -3.882812500000, -0.429687500000, -2.648437500000, 1492749762
0.442138671875, -0.417236328125, 0.801269531250, -4.976562500000, -2.445312500000, -6.125000000000, 1492749762
0.442138671875, -0.417236328125, 0.801269531250, -4.976562500000, -2.445312500000, -6.125000000000, 1492749762
0.442138671875, -0.417236328125, 0.801269531250, -4.976562500000, -2.445312500000, -6.125000000000, 1492749762
0.442138671875, -0.417236328125, 0.801269531250, -4.976562500000, -2.445312500000, -6.125000000000, 1492749762
0.442138671875, -0.417236328125, 0.801269531250, -3.296875000000, -0.898437500000, -3.460937500000, 1492749762
0.476318359375, -0.473388671875, 0.734130859375, -1.445312500000, -0.500000000000, -4.796875000000, 1492749762
0.476318359375, -0.473388671875, 0.734130859375, -1.445312500000, -0.500000000000, -4.796875000000, 1492749762
0.476318359375, -0.473388671875, 0.734130859375, -1.445312500000, -0.500000000000, -4.796875000000, 1492749762
0.447753906250, -0.424804687500, 0.828369140625, -3.875000000000, 1.390625000000, -6.179687500000, 1492749762
0.447753906250, -0.424804687500, 0.828369140625, -3.875000000000, 1.390625000000, -6.179687500000, 1492749762
0.447753906250, -0.424804687500, 0.828369140625, -3.875000000000, 1.390625000000, -6.179687500000, 1492749762
0.469238281250, -0.513183593750, 0.791748046875, -6.562500000000, 0.390625000000, -3.789062500000, 1492749762
0.469238281250, -0.513183593750, 0.791748046875, -6.562500000000, 0.390625000000, -3.789062500000, 1492749762
0.469238281250, -0.513183593750, 0.791748046875, -6.562500000000, 0.390625000000, -3.789062500000, 1492749762
0.395751953125, -0.526611328125, 0.812255859375, -3.203125000000, 5.335937500000, -4.078125000000, 1492749762
0.395751953125, -0.526611328125, 0.812255859375, -3.203125000000, 5.335937500000, -4.078125000000, 1492749762
0.395751953125, -0.526611328125, 0.812255859375, -3.203125000000, 5.335937500000, -4.078125000000, 1492749762
0.395751953125, -0.526611328125, 0.812255859375, -3.203125000000, 5.335937500000, -4.078125000000, 1492749762
0.413574218750, -0.564208984375, 0.806884765625, -5.117187500000, -2.250000000000, -4.023437500000, 1492749762
0.413574218750, -0.564208984375, 0.806884765625, -5.117187500000, -2.250000000000, -4.023437500000, 1492749762
0.413574218750, -0.564208984375, 0.806884765625, -5.117187500000, -2.250000000000, -4.023437500000, 1492749762
0.372070312500, -0.578857421875, 0.747802734375, -3.898437500000, 4.226562500000, -3.679687500000, 1492749762
0.372070312500, -0.578857421875, 0.747802734375, -3.898437500000, 4.226562500000, -3.679687500000, 1492749762
0.372070312500, -0.578857421875, 0.747802734375, -3.898437500000, 4.226562500000, -3.679687500000, 1492749762
0.450927734375, -0.424316406250, 0.826171875000, -1.984375000000, 4.296875000000, -2.609375000000, 1492749762
0.450927734375, -0.424316406250, 0.826171875000, -1.984375000000, 4.296875000000, -2.609375000000, 1492749762
0.450927734375, -0.424316406250, 0.826171875000, -1.984375000000, 4.296875000000, -2.609375000000, 1492749762
0.422851562500, -0.522705078125, 0.795898437500, -4.968750000000, 0.921875000000, -10.937500000000, 1492749762
0.422851562500, -0.522705078125, 0.795898437500, -4.968750000000, 0.921875000000, -10.937500000000, 1492749762
0.422851562500, -0.522705078125, 0.795898437500, -4.968750000000, 0.921875000000, -10.937500000000, 1492749762
0.422851562500, -0.522705078125, 0.795898437500, -4.968750000000, 0.921875000000, -10.937500000000, 1492749762
0.348388671875, -0.466796875000, 0.809570312500, -3.132812500000, 0.210937500000, -5.375000000000, 1492749762
0.348388671875, -0.466796875000, 0.809570312500, -3.132812500000, 0.210937500000, -5.375000000000, 1492749762
0.348388671875, -0.466796875000, 0.809570312500, -3.132812500000, 0.210937500000, -5.375000000000, 1492749762
0.529785156250, -0.479736328125, 0.794189453125, -4.578125000000, 2.328125000000, -5.000000000000, 1492749762
0.529785156250, -0.479736328125, 0.794189453125, -4.578125000000, 2.328125000000, -5.000000000000, 1492749762
0.529785156250, -0.479736328125, 0.794189453125, -4.578125000000, 2.328125000000, -5.000000000000, 1492749762
0.414794921875, -0.469238281250, 0.799560546875, -6.421875000000, 2.351562500000, -1.335937500000, 1492749762
0.414794921875, -0.469238281250, 0.799560546875, -6.421875000000, 2.351562500000, -1.335937500000, 1492749762
0.414794921875, -0.469238281250, 0.799560546875, -6.421875000000, 2.351562500000, -1.335937500000, 1492749762
0.403564453125, -0.475585937500, 0.888671875000, -3.085937500000, -0.500000000000, -4.406250000000, 1492749762
0.403564453125, -0.475585937500, 0.888671875000, -3.085937500000, -0.500000000000, -4.406250000000, 1492749762
0.403564453125, -0.475585937500, 0.888671875000, -3.085937500000, -0.500000000000, -4.406250000000, 1492749762
0.403564453125, -0.475585937500, 0.888671875000, -3.085937500000, -0.500000000000, -4.406250000000, 1492749762
0.416259765625, -0.505371093750, 0.749267578125, -3.648437500000, -0.960937500000, -3.828125000000, 1492749762
0.416259765625, -0.505371093750, 0.749267578125, -3.648437500000, -0.960937500000, -3.828125000000, 1492749762
0.416259765625, -0.505371093750, 0.749267578125, -3.648437500000, -0.960937500000, -3.828125000000, 1492749762
0.421875000000, -0.435546875000, 0.843017578125, -6.015625000000, 1.101562500000, -3.234375000000, 1492749762
0.421875000000, -0.435546875000, 0.843017578125, -6.015625000000, 1.101562500000, -3.234375000000, 1492749762
0.421875000000, -0.435546875000, 0.843017578125, -6.015625000000, 1.101562500000, -3.234375000000, 1492749762
0.347656250000, -0.507568359375, 0.822021484375, -6.984375000000, 4.335937500000, -4.937500000000, 1492749762
0.347656250000, -0.507568359375, 0.822021484375, -6.984375000000, 4.335937500000, -4.937500000000, 1492749762
0.347656250000, -0.507568359375, 0.822021484375, -6.984375000000, 4.335937500000, -4.937500000000, 1492749762
0.374267578125, -0.500976562500, 0.744140625000, -4.976562500000, 0.453125000000, -5.890625000000, 1492749762
0.374267578125, -0.500976562500, 0.744140625000, -4.976562500000, 0.453125000000, -5.890625000000, 1492749762
0.374267578125, -0.500976562500, 0.744140625000, -4.976562500000, 0.453125000000, -5.890625000000, 1492749762
0.374267578125, -0.500976562500, 0.744140625000, -4.976562500000, 0.453125000000, -5.890625000000, 1492749762
0.440429687500, -0.496582031250, 0.812500000000, -8.273437500000, 1.578125000000, -8.984375000000, 1492749762
0.440429687500, -0.496582031250, 0.812500000000, -8.273437500000, 1.578125000000, -8.984375000000, 1492749762
0.440429687500, -0.496582031250, 0.812500000000, -8.273437500000, 1.578125000000, -8.984375000000, 1492749762
