ACC_X,ACC_Y,ACC_Z,G_X,G_Y,G_Z,Unix Time
0.153808593750, -0.928955078125, 0.370117187500, -13.320312500000, -14.992187500000, -6.218750000000, 1492759522
0.153808593750, -0.928955078125, 0.370117187500, -13.320312500000, -14.992187500000, -6.218750000000, 1492759522
0.153808593750, -0.928955078125, 0.370117187500, -13.320312500000, -14.992187500000, -6.218750000000, 1492759522
0.260986328125, -1.010742187500, 0.371826171875, -28.460937500000, -18.757812500000, -11.515625000000, 1492759522
0.260986328125, -1.010742187500, 0.371826171875, -28.460937500000, -18.757812500000, -11.515625000000, 1492759522
0.260986328125, -1.010742187500, 0.371826171875, -28.460937500000, -18.757812500000, -11.515625000000, 1492759522
0.097900390625, -0.841064453125, 0.312500000000, -9.632812500000, -9.234375000000, -9.914062500000, 1492759522
0.097900390625, -0.841064453125, 0.312500000000, -9.632812500000, -9.234375000000, -9.914062500000, 1492759522
0.097900390625, -0.841064453125, 0.312500000000, -9.632812500000, -9.234375000000, -9.914062500000, 1492759522
0.096191406250, -0.982910156250, 0.447021484375, -21.515625000000, -8.187500000000, -13.476562500000, 1492759522
0.096191406250, -0.982910156250, 0.447021484375, -21.515625000000, -8.187500000000, -13.476562500000, 1492759522
0.096191406250, -0.982910156250, 0.447021484375, -21.515625000000, -8.187500000000, -13.476562500000, 1492759522
0.218261718750, -0.892089843750, 0.458007812500, -22.187500000000, 2.390625000000, -11.937500000000, 1492759522
0.031494140625, -0.923339843750, 0.460449218750, -11.195312500000, -2.953125000000, -16.570312500000, 1492759522
0.031494140625, -0.923339843750, 0.460449218750, -11.195312500000, -2.953125000000, -16.570312500000, 1492759522
0.031494140625, -0.923339843750, 0.460449218750, -11.195312500000, -2.953125000000, -16.570312500000, 1492759522
0.189697265625, -0.810546875000, 0.345703125000, 4.179687500000, -6.882812500000, -24.742187500000, 1492759522
0.189697265625, -0.810546875000, 0.345703125000, 4.179687500000, -6.882812500000, -24.742187500000, 1492759522
0.189697265625, -0.810546875000, 0.345703125000, 4.179687500000, -6.882812500000, -24.742187500000, 1492759522
0.100341796875, -0.812255859375, 0.373779296875, -0.710937500000, -0.218750000000, -11.765625000000, 1492759522
0.100341796875, -0.812255859375, 0.373779296875, -0.710937500000, -0.218750000000, -11.765625000000, 1492759522
0.100341796875, -0.812255859375, 0.373779296875, -0.710937500000, -0.218750000000, -11.765625000000, 1492759522
0.125244140625, -0.968261718750, 0.508789062500, 2.953125000000, 7.257812500000, -8.546875000000, 1492759522
0.125244140625, -0.968261718750, 0.508789062500, 2.953125000000, 7.257812500000, -8.546875000000, 1492759522
0.125244140625, -0.968261718750, 0.508789062500, 2.953125000000, 7.257812500000, -8.546875000000, 1492759522
0.125244140625, -0.968261718750, 0.508789062500, 2.953125000000, 7.257812500000, -8.546875000000, 1492759522
0.145507812500, -0.797119140625, 0.420898437500, -6.500000000000, 6.039062500000, -3.742187500000, 1492759522
0.145507812500, -0.797119140625, 0.420898437500, -6.500000000000, 6.039062500000, -3.742187500000, 1492759522
0.145507812500, -0.797119140625, 0.420898437500, -6.500000000000, 6.039062500000, -3.742187500000, 1492759522
0.025878906250, -0.803222656250, 0.348876953125, -10.281250000000, 2.656250000000, -7.281250000000, 1492759522
0.025878906250, -0.803222656250, 0.348876953125, -10.281250000000, 2.656250000000, -7.281250000000, 1492759522
0.025878906250, -0.803222656250, 0.348876953125, -10.281250000000, 2.656250000000, -7.281250000000, 1492759522
-0.006103515625, -0.905761718750, 0.407714843750, -6.210937500000, 0.507812500000, -6.812500000000, 1492759522
-0.006103515625, -0.905761718750, 0.407714843750, -6.210937500000, 0.507812500000, -6.812500000000, 1492759522
-0.006103515625, -0.905761718750, 0.407714843750, -6.210937500000, 0.507812500000, -6.812500000000, 1492759522
0.135009765625, -0.783691406250, 0.468017578125, -10.562500000000, 0.132812500000, -6.218750000000, 1492759522
0.135009765625, -0.783691406250, 0.468017578125, -10.562500000000, 0.132812500000, -6.218750000000, 1492759522
0.135009765625, -0.783691406250, 0.468017578125, -10.562500000000, 0.132812500000, -6.218750000000, 1492759522
0.135009765625, -0.783691406250, 0.468017578125, -10.562500000000, 0.132812500000, -6.218750000000, 1492759522
0.049804687500, -0.867187500000, 0.365478515625, -2.492187500000, -2.476562500000, -6.773437500000, 1492759522
0.049804687500, -0.867187500000, 0.365478515625, -2.492187500000, -2.476562500000, -6.773437500000, 1492759522
0.049804687500, -0.867187500000, 0.365478515625, -2.492187500000, -2.476562500000, -6.773437500000, 1492759522
0.056152343750, -0.864257812500, 0.527343750000, -7.078125000000, -0.054687500000, -3.726562500000, 1492759522
0.056152343750, -0.864257812500, 0.527343750000, -7.078125000000, -0.054687500000, -3.726562500000, 1492759522
0.056152343750, -0.864257812500, 0.527343750000, -7.078125000000, -0.054687500000, -3.726562500000, 1492759522
0.034423828125, -0.888671875000, 0.373046875000, -12.640625000000, 2.968750000000, -4.148437500000, 1492759522
0.034423828125, -0.888671875000, 0.373046875000, -12.640625000000, 2.968750000000, -4.148437500000, 1492759522
0.034423828125, -0.888671875000, 0.373046875000, -12.640625000000, 2.968750000000, -4.148437500000, 1492759522
-0.017822265625, -0.953857421875, 0.359619140625, -7.789062500000, -0.812500000000, -1.328125000000, 1492759522
-0.017822265625, -0.953857421875, 0.359619140625, -7.789062500000, -0.812500000000, -1.328125000000, 1492759522
0.035644531250, -0.849365234375, 0.517333984375, -8.765625000000, 3.390625000000, -2.414062500000, 1492759523
0.035644531250, -0.849365234375, 0.517333984375, -8.765625000000, 3.390625000000, -2.414062500000, 1492759523
0.035644531250, -0.849365234375, 0.517333984375, -8.765625000000, 3.390625000000, -2.414062500000, 1492759523
0.035644531250, -0.849365234375, 0.517333984375, -8.765625000000, 3.390625000000, -2.414062500000, 1492759523
-0.009033203125, -0.859130859375, 0.433593750000, -6.710937500000, 4.562500000000, -2.484375000000, 1492759523
-0.009033203125, -0.859130859375, 0.433593750000, -6.710937500000, 4.562500000000, -2.484375000000, 1492759523
0.042724609375, -0.838867187500, 0.458251953125, -6.195312500000, 4.375000000000, -4.859375000000, 1492759523
0.039794921875, -0.966552734375, 0.508300781250, -6.195312500000, 4.375000000000, -4.859375000000, 1492759523
0.039794921875, -0.966552734375, 0.508300781250, -6.195312500000, 4.375000000000, -4.859375000000, 1492759523
0.039794921875, -0.966552734375, 0.508300781250, -6.195312500000, 4.375000000000, -4.859375000000, 1492759523
0.039794921875, -0.966552734375, 0.508300781250, -6.195312500000, 4.375000000000, -4.859375000000, 1492759523
-0.005371093750, -0.797363281250, 0.455078125000, -8.601562500000, 1.406250000000, 0.054687500000, 1492759523
-0.005371093750, -0.797363281250, 0.455078125000, -8.601562500000, 1.406250000000, 0.054687500000, 1492759523
-0.005371093750, -0.797363281250, 0.455078125000, -8.601562500000, 1.406250000000, 0.054687500000, 1492759523
-0.005371093750, -0.797363281250, 0.455078125000, -8.601562500000, 1.406250000000, 0.054687500000, 1492759523
0.086181640625, -0.895751953125, 0.464111328125, -6.484375000000, 3.625000000000, -1.812500000000, 1492759523
0.086181640625, -0.895751953125, 0.464111328125, -6.484375000000, 3.625000000000, -1.812500000000, 1492759523
0.086181640625, -0.895751953125, 0.464111328125, -6.484375000000, 3.625000000000, -1.812500000000, 1492759523
0.092285156250, -0.887207031250, 0.419677734375, -8.312500000000, 3.414062500000, -4.093750000000, 1492759523
0.129882812500, -0.847412109375, 0.371582031250, -5.976562500000, -4.039062500000, -2.398437500000, 1492759523
0.129882812500, -0.847412109375, 0.371582031250, -5.976562500000, -4.039062500000, -2.398437500000, 1492759523
0.129882812500, -0.847412109375, 0.371582031250, -5.976562500000, -4.039062500000, -2.398437500000, 1492759523
0.129882812500, -0.847412109375, 0.371582031250, -5.976562500000, -4.039062500000, -2.398437500000, 1492759523
0.129882812500, -0.847412109375, 0.371582031250, -5.976562500000, -4.039062500000, -2.398437500000, 1492759523
0.086181640625, -0.851562500000, 0.436523437500, 0.523437500000, -1.054687500000, -4.820312500000, 1492759523
0.086181640625, -0.851562500000, 0.436523437500, 0.523437500000, -1.054687500000, -4.820312500000, 1492759523
0.086181640625, -0.851562500000, 0.436523437500, 0.523437500000, -1.054687500000, -4.820312500000, 1492759523
0.086181640625, -0.851562500000, 0.436523437500, 0.523437500000, -1.054687500000, -4.820312500000, 1492759523
0.072998046875, -0.795654296875, 0.423095703125, -2.484375000000, -0.960937500000, -3.562500000000, 1492759523
0.072998046875, -0.795654296875, 0.423095703125, -2.484375000000, -0.960937500000, -3.562500000000, 1492759523
0.072998046875, -0.795654296875, 0.423095703125, -2.484375000000, -0.960937500000, -3.562500000000, 1492759523
-0.008056640625, -0.803466796875, 0.506347656250, 0.460937500000, -2.437500000000, -3.882812500000, 1492759523
-0.008056640625, -0.803466796875, 0.506347656250, 0.460937500000, -2.437500000000, -3.882812500000, 1492759523
-0.008056640625, -0.803466796875, 0.506347656250, 0.460937500000, -2.437500000000, -3.882812500000, 1492759523
-0.019775390625, -0.939453125000, 0.426513671875, -3.773437500000, 0.007812500000, -3.070312500000, 1492759523
-0.019775390625, -0.939453125000, 0.426513671875, -3.773437500000, 0.007812500000, -3.070312500000, 1492759523
-0.019775390625, -0.939453125000, 0.426513671875, -3.773437500000, 0.007812500000, -3.070312500000, 1492759523
0.127441406250, -0.846435546875, 0.446777343750, -2.648437500000, -2.437500000000, -6.179687500000, 1492759523
0.127441406250, -0.846435546875, 0.446777343750, -2.648437500000, -2.437500000000, -6.179687500000, 1492759523
0.127441406250, -0.846435546875, 0.446777343750, -2.648437500000, -2.437500000000, -6.179687500000, 1492759523
0.127441406250, -0.846435546875, 0.446777343750, -2.648437500000, -2.437500000000, -6.179687500000, 1492759523
-0.019531250000, -0.941162109375, 0.414306640625, -3.679687500000, -0.265625000000, -1.500000000000, 1492759523
-0.019531250000, -0.941162109375, 0.414306640625, -3.679687500000, -0.265625000000, -1.500000000000, 1492759523
-0.019531250000, -0.941162109375, 0.414306640625, -3.679687500000, -0.265625000000, -1.500000000000, 1492759523
0.093017578125, -0.895996093750, 0.421142578125, -5.757812500000, 2.710937500000, -3.945312500000, 1492759523
0.093017578125, -0.895996093750, 0.421142578125, -5.757812500000, 2.710937500000, -3.945312500000, 1492759523
0.093017578125, -0.895996093750, 0.421142578125, -5.757812500000, 2.710937500000, -3.945312500000, 1492759523
0.093017578125, -0.895996093750, 0.421142578125, -5.757812500000, 2.710937500000, -3.945312500000, 1492759523
0.093017578125, -0.895996093750, 0.421142578125, -5.757812500000, 2.710937500000, -3.945312500000, 1492759523
0.093017578125, -0.895996093750, 0.421142578125, -5.757812500000, 2.710937500000, -3.945312500000, 1492759523
-0.014404296875, -0.842041015625, 0.522705078125, -6.875000000000, 1.742187500000, -1.406250000000, 1492759523
-0.014404296875, -0.842041015625, 0.522705078125, -6.875000000000, 1.742187500000, -1.406250000000, 1492759523
-0.014404296875, -0.842041015625, 0.522705078125, -6.875000000000, 1.742187500000, -1.406250000000, 1492759523
-0.014404296875, -0.842041015625, 0.522705078125, -6.875000000000, 1.742187500000, -1.406250000000, 1492759523
0.028076171875, -0.878662109375, 0.440917968750, -8.375000000000, -2.242187500000, -2.250000000000, 1492759523
0.028076171875, -0.878662109375, 0.440917968750, -8.375000000000, -2.242187500000, -2.250000000000, 1492759523
0.028076171875, -0.878662109375, 0.440917968750, -8.375000000000, -2.242187500000, -2.250000000000, 1492759523
0.086425781250, -0.876220703125, 0.415039062500, 0.093750000000, 0.585937500000, 0.539062500000, 1492759523
0.086425781250, -0.876220703125, 0.415039062500, 0.093750000000, 0.585937500000, 0.539062500000, 1492759523
0.086425781250, -0.876220703125, 0.415039062500, 0.093750000000, 0.585937500000, 0.539062500000, 1492759523
0.058349609375, -0.898925781250, 0.485839843750, -1.390625000000, -0.500000000000, -2.562500000000, 1492759523
0.058349609375, -0.898925781250, 0.485839843750, -1.390625000000, -0.500000000000, -2.562500000000, 1492759523
0.058349609375, -0.898925781250, 0.485839843750, -1.390625000000, -0.500000000000, -2.562500000000, 1492759523
0.053222656250, -0.796875000000, 0.422119140625, -4.140625000000, 1.085937500000, -6.164062500000, 1492759523
0.053222656250, -0.796875000000, 0.422119140625, -4.140625000000, 1.085937500000, -6.164062500000, 1492759523
0.053222656250, -0.796875000000, 0.422119140625, -4.140625000000, 1.085937500000, -6.164062500000, 1492759523
0.053222656250, -0.796875000000, 0.422119140625, -4.140625000000, 1.085937500000, -6.164062500000, 1492759523
0.031494140625, -0.854980468750, 0.420166015625, -4.648437500000, 1.695312500000, -1.117187500000, 1492759524
0.031494140625, -0.854980468750, 0.420166015625, -4.648437500000, 1.695312500000, -1.117187500000, 1492759524
0.031494140625, -0.854980468750, 0.420166015625, -4.648437500000, 1.695312500000, -1.117187500000, 1492759524
0.154296875000, -0.852050781250, 0.473388671875, -1.984375000000, 0.953125000000, -1.718750000000, 1492759524
0.154296875000, -0.852050781250, 0.473388671875, -1.984375000000, 0.953125000000, -1.718750000000, 1492759524
0.154296875000, -0.852050781250, 0.473388671875, -1.984375000000, 0.953125000000, -1.718750000000, 1492759524
0.065429687500, -0.885986328125, 0.502685546875, -6.390625000000, 0.609375000000, -4.671875000000, 1492759524
0.065429687500, -0.885986328125, 0.502685546875, -6.390625000000, 0.609375000000, -4.671875000000, 1492759524
0.065429687500, -0.885986328125, 0.502685546875, -6.390625000000, 0.609375000000, -4.671875000000, 1492759524
0.136962890625, -0.878417968750, 0.434082031250, -3.843750000000, -2.750000000000, -4.406250000000, 1492759524
0.136962890625, -0.878417968750, 0.434082031250, -3.843750000000, -2.750000000000, -4.406250000000, 1492759524
0.136962890625, -0.878417968750, 0.434082031250, -3.843750000000, -2.750000000000, -4.406250000000, 1492759524
0.136962890625, -0.878417968750, 0.434082031250, -3.843750000000, -2.750000000000, -4.406250000000, 1492759524
0.032958984375, -0.931640625000, 0.413085937500, -5.375000000000, -2.210937500000, -5.078125000000, 1492759524
0.032958984375, -0.931640625000, 0.413085937500, -5.375000000000, -2.210937500000, -5.078125000000, 1492759524
0.032958984375, -0.931640625000, 0.413085937500, -5.375000000000, -2.210937500000, -5.078125000000, 1492759524
0.056884765625, -0.802001953125, 0.474365234375, -7.304687500000, 0.210937500000, -4.898437500000, 1492759524
0.056884765625, -0.802001953125, 0.474365234375, -7.304687500000, 0.210937500000, -4.898437500000, 1492759524
0.056884765625, -0.802001953125, 0.474365234375, -7.304687500000, 0.210937500000, -4.898437500000, 1492759524
0.142578125000, -0.891357421875, 0.419189453125, -8.015625000000, 2.109375000000, -6.382812500000, 1492759524
0.142578125000, -0.891357421875, 0.419189453125, -8.015625000000, 2.109375000000, -6.382812500000, 1492759524
0.142578125000, -0.891357421875, 0.419189453125, -8.015625000000, 2.109375000000, -6.382812500000, 1492759524
-0.006347656250, -0.890625000000, 0.568603515625, -7.867187500000, -0.453125000000, -4.156250000000, 1492759524
-0.006347656250, -0.890625000000, 0.568603515625, -7.867187500000, -0.453125000000, -4.156250000000, 1492759524
-0.006347656250, -0.890625000000, 0.568603515625, -7.867187500000, -0.453125000000, -4.156250000000, 1492759524
-0.006347656250, -0.890625000000, 0.568603515625, -7.867187500000, -0.453125000000, -4.156250000000, 1492759524
0.082275390625, -0.729736328125, 0.517578125000, -5.703125000000, -1.765625000000, -4.796875000000, 1492759524
0.082275390625, -0.729736328125, 0.517578125000, -5.703125000000, -1.765625000000, -4.796875000000, 1492759524
0.082275390625, -0.729736328125, 0.517578125000, -5.703125000000, -1.765625000000, -4.796875000000, 1492759524
0.133300781250, -0.870849609375, 0.516845703125, -5.960937500000, -1.445312500000, -3.632812500000, 1492759524
0.133300781250, -0.870849609375, 0.516845703125, -5.960937500000, -1.445312500000, -3.632812500000, 1492759524
0.133300781250, -0.870849609375, 0.516845703125, -5.960937500000, -1.445312500000, -3.632812500000, 1492759524
0.135986328125, -0.892089843750, 0.515136718750, -7.484375000000, -1.953125000000, -8.914062500000, 1492759524
0.135986328125, -0.892089843750, 0.515136718750, -7.484375000000, -1.953125000000, -8.914062500000, 1492759524
0.135986328125, -0.892089843750, 0.515136718750, -7.484375000000, -1.953125000000, -8.914062500000, 1492759524
0.071777343750, -0.812500000000, 0.460449218750, -1.851562500000, -1.828125000000, -3.656250000000, 1492759524
0.071777343750, -0.812500000000, 0.460449218750, -1.851562500000, -1.828125000000, -3.656250000000, 1492759524
0.071777343750, -0.812500000000, 0.460449218750, -1.851562500000, -1.828125000000, -3.656250000000, 1492759524
0.071777343750, -0.812500000000, 0.460449218750, -1.851562500000, -1.828125000000, -3.656250000000, 1492759524
0.064697265625, -0.802490234375, 0.529541015625, -5.085937500000, 0.546875000000, -4.578125000000, 1492759524
0.064697265625, -0.802490234375, 0.529541015625, -5.085937500000, 0.546875000000, -4.578125000000, 1492759524
0.064697265625, -0.802490234375, 0.529541015625, -5.085937500000, 0.546875000000, -4.578125000000, 1492759524
0.137939453125, -0.889160156250, 0.480712890625, -4.960937500000, 0.304687500000, -3.156250000000, 1492759524
0.137939453125, -0.889160156250, 0.480712890625, -4.960937500000, 0.304687500000, -3.156250000000, 1492759524
0.137939453125, -0.889160156250, 0.480712890625, -4.960937500000, 0.304687500000, -3.156250000000, 1492759524
0.126464843750, -0.879638671875, 0.529296875000, -1.945312500000, -2.359375000000, -1.210937500000, 1492759524
0.126464843750, -0.879638671875, 0.529296875000, -1.945312500000, -2.359375000000, -1.210937500000, 1492759524
0.126464843750, -0.879638671875, 0.529296875000, -1.945312500000, -2.359375000000, -1.210937500000, 1492759524
0.054931640625, -0.902832031250, 0.483642578125, -1.421875000000, 0.054687500000, -1.414062500000, 1492759524
0.054931640625, -0.902832031250, 0.483642578125, -1.421875000000, 0.054687500000, -1.414062500000, 1492759524
0.054931640625, -0.902832031250, 0.483642578125, -1.421875000000, 0.054687500000, -1.414062500000, 1492759524
0.142822265625, -0.883544921875, 0.487792968750, -1.203125000000, 0.617187500000, -1.578125000000, 1492759524
0.142822265625, -0.883544921875, 0.487792968750, -1.203125000000, 0.617187500000, -1.578125000000, 1492759524
0.142822265625, -0.883544921875, 0.487792968750, -1.203125000000, 0.617187500000, -1.578125000000, 1492759524
0.142822265625, -0.883544921875, 0.487792968750, -1.203125000000, 0.617187500000, -1.578125000000, 1492759524
0.037597656250, -0.801757812500, 0.571533203125, 0.773437500000, -2.179687500000, -4.328125000000, 1492759524
0.037597656250, -0.801757812500, 0.571533203125, 0.773437500000, -2.179687500000, -4.328125000000, 1492759524
0.037597656250, -0.801757812500, 0.571533203125, 0.773437500000, -2.179687500000, -4.328125000000, 1492759524
0.125244140625, -0.953369140625, 0.494384765625, -4.265625000000, -0.781250000000, -4.625000000000, 1492759524
0.125244140625, -0.953369140625, 0.494384765625, -4.265625000000, -0.781250000000, -4.625000000000, 1492759524
0.125244140625, -0.953369140625, 0.494384765625, -4.265625000000, -0.781250000000, -4.625000000000, 1492759524
0.074951171875, -0.906250000000, 0.506835937500, -1.304687500000, 1.125000000000, -1.656250000000, 1492759524
0.074951171875, -0.906250000000, 0.506835937500, -1.304687500000, 1.125000000000, -1.656250000000, 1492759524
0.074951171875, -0.906250000000, 0.506835937500, -1.304687500000, 1.125000000000, -1.656250000000, 1492759524
0.130859375000, -0.799072265625, 0.437255859375, -3.312500000000, -0.789062500000, -6.453125000000, 1492759524
0.130859375000, -0.799072265625, 0.437255859375, -3.312500000000, -0.789062500000, -6.453125000000, 1492759524
0.130859375000, -0.799072265625, 0.437255859375, -3.312500000000, -0.789062500000, -6.453125000000, 1492759525
0.035888671875, -0.807617187500, 0.502685546875, -1.289062500000, -0.953125000000, -6.421875000000, 1492759525
0.052490234375, -0.802978515625, 0.503662109375, -1.500000000000, 0.359375000000, -3.359375000000, 1492759525
0.052490234375, -0.802978515625, 0.503662109375, -1.500000000000, 0.359375000000, -3.359375000000, 1492759525
0.052490234375, -0.802978515625, 0.503662109375, -1.500000000000, 0.359375000000, -3.359375000000, 1492759525
-0.000488281250, -0.843994140625, 0.503662109375, -4.609375000000, 2.554687500000, -3.828125000000, 1492759525
-0.000488281250, -0.843994140625, 0.503662109375, -4.609375000000, 2.554687500000, -3.828125000000, 1492759525
-0.000488281250, -0.843994140625, 0.503662109375, -4.609375000000, 2.554687500000, -3.828125000000, 1492759525
-0.027587890625, -0.896240234375, 0.480468750000, -6.320312500000, 6.578125000000, -3.328125000000, 1492759525
-0.027587890625, -0.896240234375, 0.480468750000, -6.320312500000, 6.578125000000, -3.328125000000, 1492759525
-0.027587890625, -0.896240234375, 0.480468750000, -6.320312500000, 6.578125000000, -3.328125000000, 1492759525
0.063720703125, -0.951416015625, 0.417480468750, -2.171875000000, 6.171875000000, -1.687500000000, 1492759525
0.063720703125, -0.951416015625, 0.417480468750, -2.171875000000, 6.171875000000, -1.687500000000, 1492759525
0.063720703125, -0.951416015625, 0.417480468750, -2.171875000000, 6.171875000000, -1.687500000000, 1492759525
-0.075439453125, -0.907226562500, 0.414794921875, -5.234375000000, 4.773437500000, -5.335937500000, 1492759525
-0.075439453125, -0.907226562500, 0.414794921875, -5.234375000000, 4.773437500000, -5.335937500000, 1492759525
-0.075439453125, -0.907226562500, 0.414794921875, -5.234375000000, 4.773437500000, -5.335937500000, 1492759525
-0.075439453125, -0.907226562500, 0.414794921875, -5.234375000000, 4.773437500000, -5.335937500000, 1492759525
0.033447265625, -0.801025390625, 0.439697265625, 0.984375000000, 1.320312500000, -1.046875000000, 1492759525
0.033447265625, -0.801025390625, 0.439697265625, 0.984375000000, 1.320312500000, -1.046875000000, 1492759525
0.033447265625, -0.801025390625, 0.439697265625, 0.984375000000, 1.320312500000, -1.046875000000, 1492759525
0.028320312500, -0.900390625000, 0.506347656250, 7.421875000000, 3.351562500000, 4.953125000000, 1492759525
0.028320312500, -0.900390625000, 0.506347656250, 7.421875000000, 3.351562500000, 4.953125000000, 1492759525
0.028320312500, -0.900390625000, 0.506347656250, 7.421875000000, 3.351562500000, 4.953125000000, 1492759525
0.028320312500, -0.900390625000, 0.506347656250, 7.421875000000, 3.351562500000, 4.953125000000, 1492759525
0.081542968750, -0.885009765625, 0.431640625000, -0.375000000000, 1.929687500000, 6.531250000000, 1492759525
0.081542968750, -0.885009765625, 0.431640625000, -0.375000000000, 1.929687500000, 6.531250000000, 1492759525
0.081542968750, -0.885009765625, 0.431640625000, -0.375000000000, 1.929687500000, 6.531250000000, 1492759525
-0.014160156250, -0.864501953125, 0.467285156250, 2.414062500000, 3.820312500000, 7.921875000000, 1492759525
-0.014160156250, -0.864501953125, 0.467285156250, 2.414062500000, 3.820312500000, 7.921875000000, 1492759525
-0.014160156250, -0.864501953125, 0.467285156250, 2.414062500000, 3.820312500000, 7.921875000000, 1492759525
0.020263671875, -0.938964843750, 0.510009765625, 4.757812500000, 4.984375000000, 11.179687500000, 1492759525
0.020263671875, -0.938964843750, 0.510009765625, 4.757812500000, 4.984375000000, 11.179687500000, 1492759525
0.020263671875, -0.938964843750, 0.510009765625, 4.757812500000, 4.984375000000, 11.179687500000, 1492759525
0.019531250000, -0.793212890625, 0.397705078125, 5.929687500000, 3.101562500000, 15.210937500000, 1492759525
0.019531250000, -0.793212890625, 0.397705078125, 5.929687500000, 3.101562500000, 15.210937500000, 1492759525
0.019531250000, -0.793212890625, 0.397705078125, 5.929687500000, 3.101562500000, 15.210937500000, 1492759525
0.008056640625, -0.863769531250, 0.408447265625, 6.632812500000, 1.851562500000, 18.125000000000, 1492759525
-0.006103515625, -0.870361328125, 0.372802734375, 3.031250000000, 1.468750000000, 18.195312500000, 1492759525
-0.006103515625, -0.870361328125, 0.372802734375, 3.031250000000, 1.468750000000, 18.195312500000, 1492759525
-0.006103515625, -0.870361328125, 0.372802734375, 3.031250000000, 1.468750000000, 18.195312500000, 1492759525
0.011474609375, -0.852783203125, 0.367187500000, 6.085937500000, -0.390625000000, 20.437500000000, 1492759525
0.011474609375, -0.852783203125, 0.367187500000, 6.085937500000, -0.390625000000, 20.437500000000, 1492759525
0.011474609375, -0.852783203125, 0.367187500000, 6.085937500000, -0.390625000000, 20.437500000000, 1492759525
-0.062988281250, -0.802490234375, 0.510009765625, 7.507812500000, -1.625000000000, 16.921875000000, 1492759525
-0.062988281250, -0.802490234375, 0.510009765625, 7.507812500000, -1.625000000000, 16.921875000000, 1492759525
-0.062988281250, -0.802490234375, 0.510009765625, 7.507812500000, -1.625000000000, 16.921875000000, 1492759525
-0.083496093750, -0.795898437500, 0.402832031250, 5.460937500000, -1.171875000000, 14.828125000000, 1492759525
-0.083496093750, -0.795898437500, 0.402832031250, 5.460937500000, -1.171875000000, 14.828125000000, 1492759525
-0.083496093750, -0.795898437500, 0.402832031250, 5.460937500000, -1.171875000000, 14.828125000000, 1492759525
-0.083496093750, -0.795898437500, 0.402832031250, 5.460937500000, -1.171875000000, 14.828125000000, 1492759525
0.011962890625, -0.877441406250, 0.310302734375, 9.718750000000, -2.523437500000, 11.351562500000, 1492759525
0.011962890625, -0.877441406250, 0.310302734375, 9.718750000000, -2.523437500000, 11.351562500000, 1492759525
0.011962890625, -0.877441406250, 0.310302734375, 9.718750000000, -2.523437500000, 11.351562500000, 1492759525
0.026367187500, -0.840576171875, 0.376953125000, 11.000000000000, 2.132812500000, 9.375000000000, 1492759525
0.026367187500, -0.840576171875, 0.376953125000, 11.000000000000, 2.132812500000, 9.375000000000, 1492759525
0.026367187500, -0.840576171875, 0.376953125000, 11.000000000000, 2.132812500000, 9.375000000000, 1492759525
-0.074462890625, -0.755615234375, 0.264648437500, 16.953125000000, 10.289062500000, 8.046875000000, 1492759525
-0.074462890625, -0.755615234375, 0.264648437500, 16.953125000000, 10.289062500000, 8.046875000000, 1492759525
-0.074462890625, -0.755615234375, 0.264648437500, 16.953125000000, 10.289062500000, 8.046875000000, 1492759525
-0.063720703125, -0.585205078125, 0.204833984375, 40.000000000000, 10.875000000000, 8.695312500000, 1492759525
-0.063720703125, -0.585205078125, 0.204833984375, 40.000000000000, 10.875000000000, 8.695312500000, 1492759525
-0.063720703125, -0.585205078125, 0.204833984375, 40.000000000000, 10.875000000000, 8.695312500000, 1492759525
-0.063720703125, -0.585205078125, 0.204833984375, 40.000000000000, 10.875000000000, 8.695312500000, 1492759525
0.052490234375, -0.440673828125, 0.160400390625, 61.203125000000, 28.906250000000, 9.273437500000, 1492759525
0.052490234375, -0.440673828125, 0.160400390625, 61.203125000000, 28.906250000000, 9.273437500000, 1492759525
0.052490234375, -0.440673828125, 0.160400390625, 61.203125000000, 28.906250000000, 9.273437500000, 1492759525
-0.026611328125, -0.237792968750, 0.152099609375, 47.460937500000, 28.539062500000, 16.812500000000, 1492759526
-0.026611328125, -0.237792968750, 0.152099609375, 47.460937500000, 28.539062500000, 16.812500000000, 1492759526
-0.026611328125, -0.237792968750, 0.152099609375, 47.460937500000, 28.539062500000, 16.812500000000, 1492759526
0.005371093750, -0.102294921875, 0.052734375000, 16.421875000000, 42.351562500000, 7.468750000000, 1492759526
0.005371093750, -0.102294921875, 0.052734375000, 16.421875000000, 42.351562500000, 7.468750000000, 1492759526
0.005371093750, -0.102294921875, 0.052734375000, 16.421875000000, 42.351562500000, 7.468750000000, 1492759526
0.047119140625, -0.095214843750, -0.013916015625, -20.382812500000, 60.468750000000, 4.945312500000, 1492759526
0.047119140625, -0.095214843750, -0.013916015625, -20.382812500000, 60.468750000000, 4.945312500000, 1492759526
0.047119140625, -0.095214843750, -0.013916015625, -20.382812500000, 60.468750000000, 4.945312500000, 1492759526
0.047119140625, -0.095214843750, -0.013916015625, -20.382812500000, 60.468750000000, 4.945312500000, 1492759526
-0.007568359375, -0.468750000000, -0.032470703125, -81.890625000000, 82.960937500000, 56.507812500000, 1492759526
-0.007568359375, -0.468750000000, -0.032470703125, -81.890625000000, 82.960937500000, 56.507812500000, 1492759526
-0.007568359375, -0.468750000000, -0.032470703125, -81.890625000000, 82.960937500000, 56.507812500000, 1492759526
0.210205078125, -0.937988281250, -0.007812500000, -88.265625000000, 89.046875000000, 85.054687500000, 1492759526
0.210205078125, -0.937988281250, -0.007812500000, -88.265625000000, 89.046875000000, 85.054687500000, 1492759526
0.210205078125, -0.937988281250, -0.007812500000, -88.265625000000, 89.046875000000, 85.054687500000, 1492759526
0.701416015625, -1.874511718750, 0.266113281250, -70.328125000000, 114.570312500000, 150.890625000000, 1492759526
0.701416015625, -1.874511718750, 0.266113281250, -70.328125000000, 114.570312500000, 150.890625000000, 1492759526
0.701416015625, -1.874511718750, 0.266113281250, -70.328125000000, 114.570312500000, 150.890625000000, 1492759526
1.111816406250, -2.276855468750, 0.986572265625, 222.820312500000, -95.085937500000, 124.046875000000, 1492759526
1.111816406250, -2.276855468750, 0.986572265625, 222.820312500000, -95.085937500000, 124.046875000000, 1492759526
1.111816406250, -2.276855468750, 0.986572265625, 222.820312500000, -95.085937500000, 124.046875000000, 1492759526
1.111816406250, -2.276855468750, 0.986572265625, 222.820312500000, -95.085937500000, 124.046875000000, 1492759526
1.189941406250, -2.684570312500, 1.128662109375, -152.328125000000, 78.421875000000, 253.992187500000, 1492759526
1.189941406250, -2.684570312500, 1.128662109375, -152.328125000000, 78.421875000000, 253.992187500000, 1492759526
1.189941406250, -2.684570312500, 1.128662109375, -152.328125000000, 78.421875000000, 253.992187500000, 1492759526
1.511718750000, -0.424560546875, 0.534179687500, 22.257812500000, -168.125000000000, 253.992187500000, 1492759526
1.511718750000, -0.424560546875, 0.534179687500, 22.257812500000, -168.125000000000, 253.992187500000, 1492759526
1.511718750000, -0.424560546875, 0.534179687500, 22.257812500000, -168.125000000000, 253.992187500000, 1492759526
1.115234375000, -0.319335937500, -0.002441406250, 42.617187500000, -250.828125000000, 253.992187500000, 1492759526
1.115234375000, -0.319335937500, -0.002441406250, 42.617187500000, -250.828125000000, 253.992187500000, 1492759526
1.115234375000, -0.319335937500, -0.002441406250, 42.617187500000, -250.828125000000, 253.992187500000, 1492759526
0.797363281250, -0.197509765625, 0.289794921875, 16.562500000000, 253.992187500000, 163.570312500000, 1492759526
0.797363281250, -0.197509765625, 0.289794921875, 16.562500000000, 253.992187500000, 163.570312500000, 1492759526
0.797363281250, -0.197509765625, 0.289794921875, 16.562500000000, 253.992187500000, 163.570312500000, 1492759526
0.797363281250, -0.197509765625, 0.289794921875, 16.562500000000, 253.992187500000, 163.570312500000, 1492759526
0.432861328125, 0.032958984375, 0.772949218750, -137.031250000000, 26.062500000000, 104.804687500000, 1492759526
0.432861328125, 0.032958984375, 0.772949218750, -137.031250000000, 26.062500000000, 104.804687500000, 1492759526
0.432861328125, 0.032958984375, 0.772949218750, -137.031250000000, 26.062500000000, 104.804687500000, 1492759526
0.357666015625, -0.041015625000, 0.172851562500, -55.226562500000, 253.992187500000, -27.890625000000, 1492759526
0.357666015625, -0.041015625000, 0.172851562500, -55.226562500000, 253.992187500000, -27.890625000000, 1492759526
0.357666015625, -0.041015625000, 0.172851562500, -55.226562500000, 253.992187500000, -27.890625000000, 1492759526
-0.193847656250, 0.099121093750, -0.448730468750, 61.289062500000, 253.992187500000, -123.109375000000, 1492759526
-0.193847656250, 0.099121093750, -0.448730468750, 61.289062500000, 253.992187500000, -123.109375000000, 1492759526
-0.193847656250, 0.099121093750, -0.448730468750, 61.289062500000, 253.992187500000, -123.109375000000, 1492759526
0.435546875000, 0.163330078125, 0.602294921875, 218.921875000000, 15.789062500000, -256.000000000000, 1492759526
0.435546875000, 0.163330078125, 0.602294921875, 218.921875000000, 15.789062500000, -256.000000000000, 1492759526
0.435546875000, 0.163330078125, 0.602294921875, 218.921875000000, 15.789062500000, -256.000000000000, 1492759526
0.435546875000, 0.163330078125, 0.602294921875, 218.921875000000, 15.789062500000, -256.000000000000, 1492759526
4.531005859375, -3.835205078125, 3.979248046875, 253.992187500000, 253.992187500000, -256.000000000000, 1492759526
4.531005859375, -3.835205078125, 3.979248046875, 253.992187500000, 253.992187500000, -256.000000000000, 1492759526
4.531005859375, -3.835205078125, 3.979248046875, 253.992187500000, 253.992187500000, -256.000000000000, 1492759526
-2.869873046875, -1.009277343750, 0.573242187500, 176.656250000000, 253.992187500000, 226.968750000000, 1492759526
-2.869873046875, -1.009277343750, 0.573242187500, 176.656250000000, 253.992187500000, 226.968750000000, 1492759526
-2.869873046875, -1.009277343750, 0.573242187500, 176.656250000000, 253.992187500000, 226.968750000000, 1492759526
0.205810546875, -0.549072265625, -0.153076171875, 103.906250000000, -256.000000000000, -103.585937500000, 1492759526
0.205810546875, -0.549072265625, -0.153076171875, 103.906250000000, -256.000000000000, -103.585937500000, 1492759526
0.205810546875, -0.549072265625, -0.153076171875, 103.906250000000, -256.000000000000, -103.585937500000, 1492759526
-0.355712890625, -0.761962890625, 0.179443359375, 87.125000000000, -256.000000000000, 42.320312500000, 1492759526
-0.355712890625, -0.761962890625, 0.179443359375, 87.125000000000, -256.000000000000, 42.320312500000, 1492759526
-0.355712890625, -0.761962890625, 0.179443359375, 87.125000000000, -256.000000000000, 42.320312500000, 1492759526
-0.355712890625, -0.761962890625, 0.179443359375, 87.125000000000, -256.000000000000, 42.320312500000, 1492759526
-0.527099609375, -0.764648437500, 0.518554687500, 26.179687500000, -113.632812500000, -55.476562500000, 1492759526
-0.527099609375, -0.764648437500, 0.518554687500, 26.179687500000, -113.632812500000, -55.476562500000, 1492759526
-0.527099609375, -0.764648437500, 0.518554687500, 26.179687500000, -113.632812500000, -55.476562500000, 1492759526
-0.477294921875, -0.601318359375, 0.413818359375, -18.085937500000, -10.976562500000, -42.125000000000, 1492759526
-0.477294921875, -0.601318359375, 0.413818359375, -18.085937500000, -10.976562500000, -42.125000000000, 1492759526
-0.535156250000, -0.748779296875, 0.343994140625, -20.351562500000, -12.132812500000, -26.539062500000, 1492759527
-0.535156250000, -0.748779296875, 0.343994140625, -20.351562500000, -12.132812500000, -26.539062500000, 1492759527
-0.535156250000, -0.748779296875, 0.343994140625, -20.351562500000, -12.132812500000, -26.539062500000, 1492759527
-0.535156250000, -0.748779296875, 0.343994140625, -20.351562500000, -12.132812500000, -26.539062500000, 1492759527
-0.336181640625, -0.664062500000, 0.226806640625, 74.851562500000, 66.570312500000, 22.546875000000, 1492759527
-0.336181640625, -0.664062500000, 0.226806640625, 74.851562500000, 66.570312500000, 22.546875000000, 1492759527
-0.336181640625, -0.664062500000, 0.226806640625, 74.851562500000, 66.570312500000, 22.546875000000, 1492759527
-0.336181640625, -0.664062500000, 0.226806640625, 74.851562500000, 66.570312500000, 22.546875000000, 1492759527
-0.232666015625, -1.088134765625, 0.260498046875, 93.429687500000, 85.914062500000, 57.210937500000, 1492759527
-0.232666015625, -1.088134765625, 0.260498046875, 93.429687500000, 85.914062500000, 57.210937500000, 1492759527
-0.232666015625, -1.088134765625, 0.260498046875, 93.429687500000, 85.914062500000, 57.210937500000, 1492759527
-0.376953125000, -0.740478515625, 0.156738281250, 49.679687500000, 3.195312500000, 4.109375000000, 1492759527
-0.376953125000, -0.740478515625, 0.156738281250, 49.679687500000, 3.195312500000, 4.109375000000, 1492759527
-0.376953125000, -0.740478515625, 0.156738281250, 49.679687500000, 3.195312500000, 4.109375000000, 1492759527
-0.228271484375, -1.000732421875, 0.267822265625, 51.515625000000, -7.281250000000, 12.812500000000, 1492759527
-0.228271484375, -1.000732421875, 0.267822265625, 51.515625000000, -7.281250000000, 12.812500000000, 1492759527
-0.228271484375, -1.000732421875, 0.267822265625, 51.515625000000, -7.281250000000, 12.812500000000, 1492759527
-0.366943359375, -0.990722656250, 0.129394531250, 56.460937500000, -2.023437500000, 2.320312500000, 1492759527
-0.366943359375, -0.990722656250, 0.129394531250, 56.460937500000, -2.023437500000, 2.320312500000, 1492759527
-0.366943359375, -0.990722656250, 0.129394531250, 56.460937500000, -2.023437500000, 2.320312500000, 1492759527
-0.366943359375, -0.990722656250, 0.129394531250, 56.460937500000, -2.023437500000, 2.320312500000, 1492759527
-0.466552734375, -1.002929687500, 0.001220703125, 40.062500000000, -7.460937500000, 14.812500000000, 1492759527
-0.466552734375, -1.002929687500, 0.001220703125, 40.062500000000, -7.460937500000, 14.812500000000, 1492759527
-0.466552734375, -1.002929687500, 0.001220703125, 40.062500000000, -7.460937500000, 14.812500000000, 1492759527
-0.313476562500, -1.013183593750, 0.020751953125, 71.281250000000, -16.945312500000, -1.046875000000, 1492759527
-0.313476562500, -1.013183593750, 0.020751953125, 71.281250000000, -16.945312500000, -1.046875000000, 1492759527
-0.313476562500, -1.013183593750, 0.020751953125, 71.281250000000, -16.945312500000, -1.046875000000, 1492759527
-0.297607421875, -0.968750000000, -0.028808593750, 44.710937500000, -13.304687500000, -12.695312500000, 1492759527
-0.297607421875, -0.968750000000, -0.028808593750, 44.710937500000, -13.304687500000, -12.695312500000, 1492759527
-0.297607421875, -0.968750000000, -0.028808593750, 44.710937500000, -13.304687500000, -12.695312500000, 1492759527
-0.294677734375, -0.845947265625, -0.207763671875, 37.515625000000, -5.898437500000, -15.101562500000, 1492759527
-0.294677734375, -0.845947265625, -0.207763671875, 37.515625000000, -5.898437500000, -15.101562500000, 1492759527
-0.294677734375, -0.845947265625, -0.207763671875, 37.515625000000, -5.898437500000, -15.101562500000, 1492759527
-0.294677734375, -0.845947265625, -0.207763671875, 37.515625000000, -5.898437500000, -15.101562500000, 1492759527
-0.461669921875, -0.973388671875, -0.099853515625, 6.164062500000, 2.367187500000, -8.148437500000, 1492759527
-0.461669921875, -0.973388671875, -0.099853515625, 6.164062500000, 2.367187500000, -8.148437500000, 1492759527
-0.461669921875, -0.973388671875, -0.099853515625, 6.164062500000, 2.367187500000, -8.148437500000, 1492759527
-0.300537109375, -0.882568359375, -0.038085937500, 7.351562500000, -1.773437500000, -0.835937500000, 1492759527
-0.300537109375, -0.882568359375, -0.038085937500, 7.351562500000, -1.773437500000, -0.835937500000, 1492759527
-0.300537109375, -0.882568359375, -0.038085937500, 7.351562500000, -1.773437500000, -0.835937500000, 1492759527
-0.392822265625, -1.021728515625, -0.041015625000, 17.343750000000, -6.101562500000, -0.203125000000, 1492759527
-0.392822265625, -1.021728515625, -0.041015625000, 17.343750000000, -6.101562500000, -0.203125000000, 1492759527
-0.392822265625, -1.021728515625, -0.041015625000, 17.343750000000, -6.101562500000, -0.203125000000, 1492759527
-0.307861328125, -0.852294921875, -0.164550781250, 25.640625000000, -13.304687500000, -0.617187500000, 1492759527
-0.307861328125, -0.852294921875, -0.164550781250, 25.640625000000, -13.304687500000, -0.617187500000, 1492759527
-0.307861328125, -0.852294921875, -0.164550781250, 25.640625000000, -13.304687500000, -0.617187500000, 1492759527
-0.307861328125, -0.852294921875, -0.164550781250, 25.640625000000, -13.304687500000, -0.617187500000, 1492759527
-0.382324218750, -0.883056640625, -0.269042968750, 17.679687500000, -11.234375000000, -31.343750000000, 1492759527
-0.382324218750, -0.883056640625, -0.269042968750, 17.679687500000, -11.234375000000, -31.343750000000, 1492759527
-0.382324218750, -0.883056640625, -0.269042968750, 17.679687500000, -11.234375000000, -31.343750000000, 1492759527
-0.371826171875, -0.856933593750, -0.214599609375, 19.554687500000, -3.632812500000, -26.156250000000, 1492759527
-0.371826171875, -0.856933593750, -0.214599609375, 19.554687500000, -3.632812500000, -26.156250000000, 1492759527
-0.371826171875, -0.856933593750, -0.214599609375, 19.554687500000, -3.632812500000, -26.156250000000, 1492759527
-0.363525390625, -0.856689453125, -0.176025390625, -8.234375000000, -1.007812500000, -3.656250000000, 1492759527
-0.363525390625, -0.856689453125, -0.176025390625, -8.234375000000, -1.007812500000, -3.656250000000, 1492759527
-0.363525390625, -0.856689453125, -0.176025390625, -8.234375000000, -1.007812500000, -3.656250000000, 1492759527
-0.447753906250, -0.824462890625, -0.274169921875, -25.039062500000, -2.453125000000, -22.070312500000, 1492759527
-0.447753906250, -0.824462890625, -0.274169921875, -25.039062500000, -2.453125000000, -22.070312500000, 1492759527
-0.447753906250, -0.824462890625, -0.274169921875, -25.039062500000, -2.453125000000, -22.070312500000, 1492759527
-0.447753906250, -0.824462890625, -0.274169921875, -25.039062500000, -2.453125000000, -22.070312500000, 1492759527
-0.453857421875, -0.888427734375, -0.208251953125, -27.765625000000, -2.843750000000, -17.179687500000, 1492759527
-0.453857421875, -0.888427734375, -0.208251953125, -27.765625000000, -2.843750000000, -17.179687500000, 1492759527
-0.453857421875, -0.888427734375, -0.208251953125, -27.765625000000, -2.843750000000, -17.179687500000, 1492759527
-0.392089843750, -0.859375000000, -0.100341796875, -28.546875000000, -2.421875000000, -11.429687500000, 1492759527
-0.392089843750, -0.859375000000, -0.100341796875, -28.546875000000, -2.421875000000, -11.429687500000, 1492759527
-0.392089843750, -0.859375000000, -0.100341796875, -28.546875000000, -2.421875000000, -11.429687500000, 1492759527
-0.360595703125, -0.947509765625, -0.171142578125, -26.382812500000, -0.203125000000, 0.351562500000, 1492759528
-0.360595703125, -0.947509765625, -0.171142578125, -26.382812500000, -0.203125000000, 0.351562500000, 1492759528
-0.360595703125, -0.947509765625, -0.171142578125, -26.382812500000, -0.203125000000, 0.351562500000, 1492759528
-0.348876953125, -0.893554687500, -0.128662109375, -17.820312500000, -2.359375000000, -8.046875000000, 1492759528
-0.348876953125, -0.893554687500, -0.128662109375, -17.820312500000, -2.359375000000, -8.046875000000, 1492759528
-0.348876953125, -0.893554687500, -0.128662109375, -17.820312500000, -2.359375000000, -8.046875000000, 1492759528
-0.348876953125, -0.893554687500, -0.128662109375, -17.820312500000, -2.359375000000, -8.046875000000, 1492759528
-0.348388671875, -0.843750000000, -0.054687500000, -16.187500000000, 0.679687500000, -1.054687500000, 1492759528
-0.369873046875, -0.898193359375, -0.051025390625, -9.539062500000, -0.320312500000, -4.132812500000, 1492759528
-0.369873046875, -0.898193359375, -0.051025390625, -9.539062500000, -0.320312500000, -4.132812500000, 1492759528
-0.369873046875, -0.898193359375, -0.051025390625, -9.539062500000, -0.320312500000, -4.132812500000, 1492759528
-0.369873046875, -0.898193359375, -0.051025390625, -9.539062500000, -0.320312500000, -4.132812500000, 1492759528
-0.284667968750, -0.914062500000, -0.035400390625, -1.492187500000, 0.101562500000, -6.929687500000, 1492759528
-0.284667968750, -0.914062500000, -0.035400390625, -1.492187500000, 0.101562500000, -6.929687500000, 1492759528
-0.284667968750, -0.914062500000, -0.035400390625, -1.492187500000, 0.101562500000, -6.929687500000, 1492759528
-0.284667968750, -0.914062500000, -0.035400390625, -1.492187500000, 0.101562500000, -6.929687500000, 1492759528
-0.458984375000, -0.817138671875, -0.140625000000, 4.601562500000, 2.085937500000, -11.640625000000, 1492759528
-0.458984375000, -0.817138671875, -0.140625000000, 4.601562500000, 2.085937500000, -11.640625000000, 1492759528
-0.458984375000, -0.817138671875, -0.140625000000, 4.601562500000, 2.085937500000, -11.640625000000, 1492759528
-0.458984375000, -0.817138671875, -0.140625000000, 4.601562500000, 2.085937500000, -11.640625000000, 1492759528
-0.360839843750, -0.834228515625, -0.190917968750, 8.789062500000, -0.671875000000, -1.187500000000, 1492759528
-0.360839843750, -0.834228515625, -0.190917968750, 8.789062500000, -0.671875000000, -1.187500000000, 1492759528
-0.360839843750, -0.834228515625, -0.190917968750, 8.789062500000, -0.671875000000, -1.187500000000, 1492759528
-0.406494140625, -0.958984375000, -0.136718750000, 5.578125000000, -0.656250000000, -4.132812500000, 1492759528
-0.406494140625, -0.958984375000, -0.136718750000, 5.578125000000, -0.656250000000, -4.132812500000, 1492759528
-0.406494140625, -0.958984375000, -0.136718750000, 5.578125000000, -0.656250000000, -4.132812500000, 1492759528
-0.439941406250, -0.945068359375, -0.123046875000, 3.929687500000, 0.343750000000, 0.789062500000, 1492759528
-0.439941406250, -0.945068359375, -0.123046875000, 3.929687500000, 0.343750000000, 0.789062500000, 1492759528
-0.439941406250, -0.945068359375, -0.123046875000, 3.929687500000, 0.343750000000, 0.789062500000, 1492759528
-0.402587890625, -0.856689453125, -0.126220703125, 1.554687500000, -0.882812500000, -5.062500000000, 1492759528
-0.402587890625, -0.856689453125, -0.126220703125, 1.554687500000, -0.882812500000, -5.062500000000, 1492759528
-0.402587890625, -0.856689453125, -0.126220703125, 1.554687500000, -0.882812500000, -5.062500000000, 1492759528
-0.402587890625, -0.856689453125, -0.126220703125, 1.554687500000, -0.882812500000, -5.062500000000, 1492759528
-0.356933593750, -0.881835937500, -0.257324218750, 4.328125000000, -0.953125000000, -5.953125000000, 1492759528
-0.291015625000, -0.807128906250, -0.134033203125, -1.960937500000, -0.648437500000, -5.085937500000, 1492759528
-0.291015625000, -0.807128906250, -0.134033203125, -1.960937500000, -0.648437500000, -5.085937500000, 1492759528
-0.291015625000, -0.807128906250, -0.134033203125, -1.960937500000, -0.648437500000, -5.085937500000, 1492759528
-0.291015625000, -0.807128906250, -0.134033203125, -1.960937500000, -0.648437500000, -5.085937500000, 1492759528
-0.291015625000, -0.807128906250, -0.134033203125, -1.960937500000, -0.648437500000, -5.085937500000, 1492759528
-0.291015625000, -0.807128906250, -0.134033203125, -1.960937500000, -0.648437500000, -5.085937500000, 1492759528
-0.386474609375, -0.875976562500, -0.189697265625, -3.242187500000, 0.554687500000, -6.000000000000, 1492759528
-0.386474609375, -0.875976562500, -0.189697265625, -3.242187500000, 0.554687500000, -6.000000000000, 1492759528
-0.386474609375, -0.875976562500, -0.189697265625, -3.242187500000, 0.554687500000, -6.000000000000, 1492759528
-0.386474609375, -0.875976562500, -0.189697265625, -3.242187500000, 0.554687500000, -6.000000000000, 1492759528
-0.386474609375, -0.875976562500, -0.189697265625, -3.242187500000, 0.554687500000, -6.000000000000, 1492759528
-0.406005859375, -0.947998046875, -0.106933593750, -6.664062500000, 2.015625000000, -3.242187500000, 1492759528
-0.406005859375, -0.947998046875, -0.106933593750, -6.664062500000, 2.015625000000, -3.242187500000, 1492759528
-0.406005859375, -0.947998046875, -0.106933593750, -6.664062500000, 2.015625000000, -3.242187500000, 1492759528
-0.406005859375, -0.947998046875, -0.106933593750, -6.664062500000, 2.015625000000, -3.242187500000, 1492759528
-0.400146484375, -0.959960937500, -0.113769531250, -5.921875000000, 0.734375000000, -4.632812500000, 1492759528
-0.400146484375, -0.959960937500, -0.113769531250, -5.921875000000, 0.734375000000, -4.632812500000, 1492759528
-0.400146484375, -0.959960937500, -0.113769531250, -5.921875000000, 0.734375000000, -4.632812500000, 1492759528
-0.463867187500, -0.831054687500, -0.138183593750, -4.585937500000, 0.757812500000, -4.078125000000, 1492759528
-0.463867187500, -0.831054687500, -0.138183593750, -4.585937500000, 0.757812500000, -4.078125000000, 1492759528
-0.463867187500, -0.831054687500, -0.138183593750, -4.585937500000, 0.757812500000, -4.078125000000, 1492759528
-0.424072265625, -0.860107421875, -0.095458984375, -4.773437500000, -0.687500000000, -3.867187500000, 1492759528
-0.424072265625, -0.860107421875, -0.095458984375, -4.773437500000, -0.687500000000, -3.867187500000, 1492759528
-0.424072265625, -0.860107421875, -0.095458984375, -4.773437500000, -0.687500000000, -3.867187500000, 1492759528
-0.424072265625, -0.860107421875, -0.095458984375, -4.773437500000, -0.687500000000, -3.867187500000, 1492759528
-0.421142578125, -0.843505859375, -0.116699218750, -1.062500000000, -0.968750000000, -3.500000000000, 1492759528
-0.421142578125, -0.843505859375, -0.116699218750, -1.062500000000, -0.968750000000, -3.500000000000, 1492759528
-0.421142578125, -0.843505859375, -0.116699218750, -1.062500000000, -0.968750000000, -3.500000000000, 1492759528
-0.353271484375, -0.888671875000, -0.212158203125, -1.578125000000, -0.148437500000, 0.226562500000, 1492759528
-0.353271484375, -0.888671875000, -0.212158203125, -1.578125000000, -0.148437500000, 0.226562500000, 1492759528
-0.353271484375, -0.888671875000, -0.212158203125, -1.578125000000, -0.148437500000, 0.226562500000, 1492759528
-0.352294921875, -0.947021484375, -0.126953125000, -6.085937500000, -2.750000000000, -1.031250000000, 1492759528
-0.352294921875, -0.947021484375, -0.126953125000, -6.085937500000, -2.750000000000, -1.031250000000, 1492759528
-0.352294921875, -0.947021484375, -0.126953125000, -6.085937500000, -2.750000000000, -1.031250000000, 1492759528
-0.448974609375, -0.841064453125, -0.143554687500, -5.421875000000, -0.742187500000, -6.375000000000, 1492759529
-0.448974609375, -0.841064453125, -0.143554687500, -5.421875000000, -0.742187500000, -6.375000000000, 1492759529
-0.448974609375, -0.841064453125, -0.143554687500, -5.421875000000, -0.742187500000, -6.375000000000, 1492759529
-0.448974609375, -0.841064453125, -0.143554687500, -5.421875000000, -0.742187500000, -6.375000000000, 1492759529
-0.448974609375, -0.841064453125, -0.143554687500, -5.421875000000, -0.742187500000, -6.375000000000, 1492759529
-0.448974609375, -0.841064453125, -0.143554687500, -5.421875000000, -0.742187500000, -6.375000000000, 1492759529
-0.448974609375, -0.841064453125, -0.143554687500, -5.421875000000, -0.742187500000, -6.375000000000, 1492759529
-0.370849609375, -0.951416015625, -0.191406250000, -3.664062500000, 0.984375000000, -4.179687500000, 1492759529
-0.370849609375, -0.951416015625, -0.191406250000, -3.664062500000, 0.984375000000, -4.179687500000, 1492759529
-0.370849609375, -0.951416015625, -0.191406250000, -3.664062500000, 0.984375000000, -4.179687500000, 1492759529
-0.364501953125, -0.870117187500, -0.201904296875, -6.218750000000, 0.726562500000, -4.343750000000, 1492759529
-0.364501953125, -0.870117187500, -0.201904296875, -6.218750000000, 0.726562500000, -4.343750000000, 1492759529
-0.364501953125, -0.870117187500, -0.201904296875, -6.218750000000, 0.726562500000, -4.343750000000, 1492759529
-0.369384765625, -0.804931640625, -0.103759765625, -3.195312500000, -1.484375000000, -4.976562500000, 1492759529
-0.369384765625, -0.804931640625, -0.103759765625, -3.195312500000, -1.484375000000, -4.976562500000, 1492759529
-0.369384765625, -0.804931640625, -0.103759765625, -3.195312500000, -1.484375000000, -4.976562500000, 1492759529
-0.369384765625, -0.804931640625, -0.103759765625, -3.195312500000, -1.484375000000, -4.976562500000, 1492759529
-0.392578125000, -0.862060546875, -0.140380859375, -6.765625000000, -0.718750000000, -3.171875000000, 1492759529
-0.392578125000, -0.862060546875, -0.140380859375, -6.765625000000, -0.718750000000, -3.171875000000, 1492759529
-0.392578125000, -0.862060546875, -0.140380859375, -6.765625000000, -0.718750000000, -3.171875000000, 1492759529
-0.519287109375, -0.874023437500, -0.137695312500, -3.250000000000, -0.992187500000, -4.421875000000, 1492759529
-0.519287109375, -0.874023437500, -0.137695312500, -3.250000000000, -0.992187500000, -4.421875000000, 1492759529
-0.519287109375, -0.874023437500, -0.137695312500, -3.250000000000, -0.992187500000, -4.421875000000, 1492759529
-0.442138671875, -0.889892578125, -0.129394531250, -3.718750000000, -0.476562500000, -1.484375000000, 1492759529
-0.442138671875, -0.889892578125, -0.129394531250, -3.718750000000, -0.476562500000, -1.484375000000, 1492759529
-0.442138671875, -0.889892578125, -0.129394531250, -3.718750000000, -0.476562500000, -1.484375000000, 1492759529
-0.417236328125, -0.888183593750, -0.147949218750, -3.484375000000, 0.679687500000, -6.039062500000, 1492759529
-0.417236328125, -0.888183593750, -0.147949218750, -3.484375000000, 0.679687500000, -6.039062500000, 1492759529
-0.417236328125, -0.888183593750, -0.147949218750, -3.484375000000, 0.679687500000, -6.039062500000, 1492759529
-0.417236328125, -0.888183593750, -0.147949218750, -3.484375000000, 0.679687500000, -6.039062500000, 1492759529
-0.410888671875, -0.842041015625, -0.105712890625, -4.218750000000, -2.273437500000, -2.976562500000, 1492759529
-0.410888671875, -0.842041015625, -0.105712890625, -4.218750000000, -2.273437500000, -2.976562500000, 1492759529
-0.410888671875, -0.842041015625, -0.105712890625, -4.218750000000, -2.273437500000, -2.976562500000, 1492759529
-0.370361328125, -0.809082031250, -0.149658203125, -3.937500000000, -0.960937500000, -6.031250000000, 1492759529
-0.370361328125, -0.809082031250, -0.149658203125, -3.937500000000, -0.960937500000, -6.031250000000, 1492759529
-0.370361328125, -0.809082031250, -0.149658203125, -3.937500000000, -0.960937500000, -6.031250000000, 1492759529
-0.467773437500, -0.910156250000, -0.060302734375, -3.414062500000, -0.765625000000, -1.140625000000, 1492759529
-0.467773437500, -0.910156250000, -0.060302734375, -3.414062500000, -0.765625000000, -1.140625000000, 1492759529
-0.467773437500, -0.910156250000, -0.060302734375, -3.414062500000, -0.765625000000, -1.140625000000, 1492759529
-0.352294921875, -0.748046875000, -0.105957031250, -3.656250000000, -0.867187500000, -4.414062500000, 1492759529
-0.352294921875, -0.748046875000, -0.105957031250, -3.656250000000, -0.867187500000, -4.414062500000, 1492759529
-0.352294921875, -0.748046875000, -0.105957031250, -3.656250000000, -0.867187500000, -4.414062500000, 1492759529
-0.352294921875, -0.748046875000, -0.105957031250, -3.656250000000, -0.867187500000, -4.414062500000, 1492759529
-0.440429687500, -0.941650390625, -0.150146484375, -6.539062500000, 0.406250000000, -3.687500000000, 1492759529
-0.440429687500, -0.941650390625, -0.150146484375, -6.539062500000, 0.406250000000, -3.687500000000, 1492759529
-0.440429687500, -0.941650390625, -0.150146484375, -6.539062500000, 0.406250000000, -3.687500000000, 1492759529
-0.368896484375, -0.810791015625, -0.096679687500, -6.742187500000, 0.593750000000, -1.742187500000, 1492759529
-0.368896484375, -0.810791015625, -0.096679687500, -6.742187500000, 0.593750000000, -1.742187500000, 1492759529
-0.368896484375, -0.810791015625, -0.096679687500, -6.742187500000, 0.593750000000, -1.742187500000, 1492759529
-0.445068359375, -0.887939453125, -0.175048828125, -4.460937500000, -0.882812500000, -6.078125000000, 1492759529
-0.445068359375, -0.887939453125, -0.175048828125, -4.460937500000, -0.882812500000, -6.078125000000, 1492759529
-0.445068359375, -0.887939453125, -0.175048828125, -4.460937500000, -0.882812500000, -6.078125000000, 1492759529
-0.405273437500, -0.885009765625, -0.208740234375, -3.914062500000, -0.710937500000, -6.031250000000, 1492759529
-0.405273437500, -0.885009765625, -0.208740234375, -3.914062500000, -0.710937500000, -6.031250000000, 1492759529
-0.405273437500, -0.885009765625, -0.208740234375, -3.914062500000, -0.710937500000, -6.031250000000, 1492759529
-0.405273437500, -0.885009765625, -0.208740234375, -3.914062500000, -0.710937500000, -6.031250000000, 1492759529
-0.351562500000, -0.810302734375, -0.102294921875, -6.257812500000, 0.968750000000, -3.156250000000, 1492759529
-0.351562500000, -0.810302734375, -0.102294921875, -6.257812500000, 0.968750000000, -3.156250000000, 1492759529
-0.351562500000, -0.810302734375, -0.102294921875, -6.257812500000, 0.968750000000, -3.156250000000, 1492759529
-0.400878906250, -0.809814453125, -0.190429687500, -6.500000000000, 0.468750000000, -1.531250000000, 1492759530
-0.400878906250, -0.809814453125, -0.190429687500, -6.500000000000, 0.468750000000, -1.531250000000, 1492759530
-0.365234375000, -0.945068359375, -0.118896484375, -1.765625000000, 0.570312500000, -4.359375000000, 1492759530
-0.365234375000, -0.945068359375, -0.118896484375, -1.765625000000, 0.570312500000, -4.359375000000, 1492759530
-0.365234375000, -0.945068359375, -0.118896484375, -1.765625000000, 0.570312500000, -4.359375000000, 1492759530
-0.365234375000, -0.945068359375, -0.118896484375, -1.765625000000, 0.570312500000, -4.359375000000, 1492759530
-0.365234375000, -0.945068359375, -0.118896484375, -1.765625000000, 0.570312500000, -4.359375000000, 1492759530
-0.365234375000, -0.945068359375, -0.118896484375, -1.765625000000, 0.570312500000, -4.359375000000, 1492759530
-0.365234375000, -0.945068359375, -0.118896484375, -1.765625000000, 0.570312500000, -4.359375000000, 1492759530
-0.365234375000, -0.945068359375, -0.118896484375, -1.765625000000, 0.570312500000, -4.359375000000, 1492759530
-0.444335937500, -0.934570312500, -0.128417968750, -4.203125000000, -0.804687500000, -1.046875000000, 1492759530
-0.444335937500, -0.934570312500, -0.128417968750, -4.203125000000, -0.804687500000, -1.046875000000, 1492759530
-0.444335937500, -0.934570312500, -0.128417968750, -4.203125000000, -0.804687500000, -1.046875000000, 1492759530
-0.444335937500, -0.934570312500, -0.128417968750, -4.203125000000, -0.804687500000, -1.046875000000, 1492759530
-0.444335937500, -0.934570312500, -0.128417968750, -4.203125000000, -0.804687500000, -1.046875000000, 1492759530
-0.444335937500, -0.934570312500, -0.128417968750, -4.203125000000, -0.804687500000, -1.046875000000, 1492759530
-0.441650390625, -0.954833984375, -0.165527343750, -3.429687500000, 0.570312500000, -8.148437500000, 1492759530
-0.441650390625, -0.954833984375, -0.165527343750, -3.429687500000, 0.570312500000, -8.148437500000, 1492759530
-0.441650390625, -0.954833984375, -0.165527343750, -3.429687500000, 0.570312500000, -8.148437500000, 1492759530
-0.352783203125, -0.845458984375, -0.187988281250, -5.164062500000, 2.117187500000, -3.101562500000, 1492759530
-0.352783203125, -0.845458984375, -0.187988281250, -5.164062500000, 2.117187500000, -3.101562500000, 1492759530
-0.352783203125, -0.845458984375, -0.187988281250, -5.164062500000, 2.117187500000, -3.101562500000, 1492759530
-0.352783203125, -0.845458984375, -0.187988281250, -5.164062500000, 2.117187500000, -3.101562500000, 1492759530
-0.504882812500, -0.951416015625, -0.212402343750, -6.265625000000, -0.226562500000, -4.023437500000, 1492759530
-0.504882812500, -0.951416015625, -0.212402343750, -6.265625000000, -0.226562500000, -4.023437500000, 1492759530
-0.504882812500, -0.951416015625, -0.212402343750, -6.265625000000, -0.226562500000, -4.023437500000, 1492759530
-0.360107421875, -0.942138671875, -0.212402343750, -3.742187500000, -0.132812500000, -3.507812500000, 1492759530
-0.360107421875, -0.942138671875, -0.212402343750, -3.742187500000, -0.132812500000, -3.507812500000, 1492759530
-0.360107421875, -0.942138671875, -0.212402343750, -3.742187500000, -0.132812500000, -3.507812500000, 1492759530
-0.346191406250, -0.915039062500, -0.198486328125, -3.156250000000, 0.960937500000, -4.460937500000, 1492759530
-0.346191406250, -0.915039062500, -0.198486328125, -3.156250000000, 0.960937500000, -4.460937500000, 1492759530
-0.346191406250, -0.915039062500, -0.198486328125, -3.156250000000, 0.960937500000, -4.460937500000, 1492759530
-0.446533203125, -0.847900390625, -0.208740234375, -3.468750000000, -0.281250000000, -1.945312500000, 1492759530
-0.446533203125, -0.847900390625, -0.208740234375, -3.468750000000, -0.281250000000, -1.945312500000, 1492759530
-0.446533203125, -0.847900390625, -0.208740234375, -3.468750000000, -0.281250000000, -1.945312500000, 1492759530
-0.405029296875, -0.803222656250, -0.107666015625, -3.093750000000, -0.945312500000, -3.585937500000, 1492759530
-0.404785156250, -0.877685546875, -0.095703125000, -4.679687500000, -0.601562500000, -3.117187500000, 1492759530
-0.404785156250, -0.877685546875, -0.095703125000, -4.679687500000, -0.601562500000, -3.117187500000, 1492759530
-0.404785156250, -0.877685546875, -0.095703125000, -4.679687500000, -0.601562500000, -3.117187500000, 1492759530
-0.455322265625, -0.944824218750, -0.144775390625, -1.656250000000, -0.203125000000, -2.742187500000, 1492759530
-0.455322265625, -0.944824218750, -0.144775390625, -1.656250000000, -0.203125000000, -2.742187500000, 1492759530
-0.455322265625, -0.944824218750, -0.144775390625, -1.656250000000, -0.203125000000, -2.742187500000, 1492759530
-0.379882812500, -0.966064453125, -0.113769531250, -4.554687500000, -0.062500000000, -4.750000000000, 1492759530
-0.379882812500, -0.966064453125, -0.113769531250, -4.554687500000, -0.062500000000, -4.750000000000, 1492759530
-0.379882812500, -0.966064453125, -0.113769531250, -4.554687500000, -0.062500000000, -4.750000000000, 1492759530
-0.424560546875, -0.937744140625, -0.187744140625, -4.984375000000, 2.210937500000, -3.851562500000, 1492759530
-0.424560546875, -0.937744140625, -0.187744140625, -4.984375000000, 2.210937500000, -3.851562500000, 1492759530
-0.424560546875, -0.937744140625, -0.187744140625, -4.984375000000, 2.210937500000, -3.851562500000, 1492759530
-0.424560546875, -0.937744140625, -0.187744140625, -4.984375000000, 2.210937500000, -3.851562500000, 1492759530
-0.360107421875, -0.874755859375, -0.217773437500, -4.976562500000, -0.617187500000, -4.148437500000, 1492759530
-0.360107421875, -0.874755859375, -0.217773437500, -4.976562500000, -0.617187500000, -4.148437500000, 1492759530
-0.360107421875, -0.874755859375, -0.217773437500, -4.976562500000, -0.617187500000, -4.148437500000, 1492759530
-0.445068359375, -0.951416015625, -0.194335937500, -3.500000000000, -0.203125000000, -2.343750000000, 1492759530
-0.445068359375, -0.951416015625, -0.194335937500, -3.500000000000, -0.203125000000, -2.343750000000, 1492759530
-0.445068359375, -0.951416015625, -0.194335937500, -3.500000000000, -0.203125000000, -2.343750000000, 1492759530
-0.468261718750, -0.788574218750, -0.191894531250, -6.781250000000, 2.562500000000, -6.742187500000, 1492759530
-0.468261718750, -0.788574218750, -0.191894531250, -6.781250000000, 2.562500000000, -6.742187500000, 1492759530
-0.468261718750, -0.788574218750, -0.191894531250, -6.781250000000, 2.562500000000, -6.742187500000, 1492759530
-0.360839843750, -0.947509765625, -0.211669921875, -3.039062500000, 2.968750000000, -1.734375000000, 1492759530
-0.360839843750, -0.947509765625, -0.211669921875, -3.039062500000, 2.968750000000, -1.734375000000, 1492759530
-0.360839843750, -0.947509765625, -0.211669921875, -3.039062500000, 2.968750000000, -1.734375000000, 1492759530
-0.360839843750, -0.947509765625, -0.211669921875, -3.039062500000, 2.968750000000, -1.734375000000, 1492759530
-0.407226562500, -0.893798828125, -0.199951171875, -6.117187500000, 0.476562500000, -3.609375000000, 1492759530
-0.407226562500, -0.893798828125, -0.199951171875, -6.117187500000, 0.476562500000, -3.609375000000, 1492759530
-0.407226562500, -0.893798828125, -0.199951171875, -6.117187500000, 0.476562500000, -3.609375000000, 1492759530
-0.442871093750, -0.903076171875, -0.119628906250, -3.421875000000, -0.757812500000, -3.507812500000, 1492759530
-0.442871093750, -0.903076171875, -0.119628906250, -3.421875000000, -0.757812500000, -3.507812500000, 1492759530
-0.442871093750, -0.903076171875, -0.119628906250, -3.421875000000, -0.757812500000, -3.507812500000, 1492759530
-0.305419921875, -0.858642578125, -0.148925781250, -3.179687500000, 0.476562500000, -3.375000000000, 1492759530
-0.305419921875, -0.858642578125, -0.148925781250, -3.179687500000, 0.476562500000, -3.375000000000, 1492759530
-0.305419921875, -0.858642578125, -0.148925781250, -3.179687500000, 0.476562500000, -3.375000000000, 1492759530
-0.458740234375, -0.837158203125, -0.190917968750, -6.171875000000, 0.609375000000, -6.179687500000, 1492759530
-0.409667968750, -0.937500000000, -0.119140625000, -4.515625000000, 0.406250000000, -4.976562500000, 1492759531
-0.409667968750, -0.937500000000, -0.119140625000, -4.515625000000, 0.406250000000, -4.976562500000, 1492759531
-0.409667968750, -0.937500000000, -0.119140625000, -4.515625000000, 0.406250000000, -4.976562500000, 1492759531
-0.409667968750, -0.937500000000, -0.119140625000, -4.515625000000, 0.406250000000, -4.976562500000, 1492759531
-0.409667968750, -0.937500000000, -0.119140625000, -4.515625000000, 0.406250000000, -4.976562500000, 1492759531
-0.409667968750, -0.937500000000, -0.119140625000, -4.515625000000, 0.406250000000, -4.976562500000, 1492759531
-0.364013671875, -0.944335937500, -0.204345703125, -4.742187500000, -0.445312500000, -6.882812500000, 1492759531
-0.364013671875, -0.944335937500, -0.204345703125, -4.742187500000, -0.445312500000, -6.882812500000, 1492759531
-0.364013671875, -0.944335937500, -0.204345703125, -4.742187500000, -0.445312500000, -6.882812500000, 1492759531
-0.444580078125, -1.002441406250, -0.175048828125, -3.171875000000, -2.101562500000, -4.476562500000, 1492759531
-0.444580078125, -1.002441406250, -0.175048828125, -3.171875000000, -2.101562500000, -4.476562500000, 1492759531
-0.444580078125, -1.002441406250, -0.175048828125, -3.171875000000, -2.101562500000, -4.476562500000, 1492759531
-0.338134765625, -0.867431640625, -0.139892578125, -6.296875000000, -0.468750000000, -3.968750000000, 1492759531
-0.338134765625, -0.867431640625, -0.139892578125, -6.296875000000, -0.468750000000, -3.968750000000, 1492759531
-0.338134765625, -0.867431640625, -0.139892578125, -6.296875000000, -0.468750000000, -3.968750000000, 1492759531
-0.338134765625, -0.867431640625, -0.139892578125, -6.296875000000, -0.468750000000, -3.968750000000, 1492759531
-0.362304687500, -0.845947265625, -0.144287109375, -4.054687500000, 0.531250000000, -1.625000000000, 1492759531
-0.362304687500, -0.845947265625, -0.144287109375, -4.054687500000, 0.531250000000, -1.625000000000, 1492759531
-0.362304687500, -0.845947265625, -0.144287109375, -4.054687500000, 0.531250000000, -1.625000000000, 1492759531
-0.462402343750, -0.862060546875, -0.125000000000, -1.820312500000, 2.031250000000, -6.742187500000, 1492759531
-0.462402343750, -0.862060546875, -0.125000000000, -1.820312500000, 2.031250000000, -6.742187500000, 1492759531
-0.462402343750, -0.862060546875, -0.125000000000, -1.820312500000, 2.031250000000, -6.742187500000, 1492759531
-0.379150390625, -0.894775390625, -0.133056640625, -1.484375000000, 0.570312500000, 0.203125000000, 1492759531
-0.379150390625, -0.894775390625, -0.133056640625, -1.484375000000, 0.570312500000, 0.203125000000, 1492759531
-0.379150390625, -0.894775390625, -0.133056640625, -1.484375000000, 0.570312500000, 0.203125000000, 1492759531
-0.500488281250, -0.956542968750, -0.150146484375, -1.843750000000, -0.796875000000, -2.171875000000, 1492759531
-0.500488281250, -0.956542968750, -0.150146484375, -1.843750000000, -0.796875000000, -2.171875000000, 1492759531
-0.500488281250, -0.956542968750, -0.150146484375, -1.843750000000, -0.796875000000, -2.171875000000, 1492759531
-0.500488281250, -0.956542968750, -0.150146484375, -1.843750000000, -0.796875000000, -2.171875000000, 1492759531
-0.460937500000, -0.964599609375, -0.166503906250, -6.515625000000, -0.968750000000, -3.398437500000, 1492759531
-0.460937500000, -0.964599609375, -0.166503906250, -6.515625000000, -0.968750000000, -3.398437500000, 1492759531
-0.460937500000, -0.964599609375, -0.166503906250, -6.515625000000, -0.968750000000, -3.398437500000, 1492759531
