ACC_X,ACC_Y,ACC_Z,G_X,G_Y,G_Z,Unix Time
0.025146484375, -0.896484375000, 0.421142578125, -28.250000000000, -11.781250000000, -8.929687500000, 1492760027
0.025146484375, -0.896484375000, 0.421142578125, -28.250000000000, -11.781250000000, -8.929687500000, 1492760027
0.025146484375, -0.896484375000, 0.421142578125, -28.250000000000, -11.781250000000, -8.929687500000, 1492760027
-0.016601562500, -0.861083984375, 0.375000000000, -34.625000000000, -21.617187500000, -1.664062500000, 1492760027
0.066894531250, -0.910888671875, 0.503662109375, -34.625000000000, -21.617187500000, -1.664062500000, 1492760027
0.066894531250, -0.910888671875, 0.503662109375, -34.625000000000, -21.617187500000, -1.664062500000, 1492760027
0.066894531250, -0.910888671875, 0.503662109375, -34.625000000000, -21.617187500000, -1.664062500000, 1492760027
0.072998046875, -0.927978515625, 0.500732421875, -23.812500000000, -16.171875000000, -1.515625000000, 1492760027
0.072998046875, -0.927978515625, 0.500732421875, -23.812500000000, -16.171875000000, -1.515625000000, 1492760027
0.072998046875, -0.927978515625, 0.500732421875, -23.812500000000, -16.171875000000, -1.515625000000, 1492760027
0.131835937500, -0.921386718750, 0.424072265625, -7.406250000000, 0.125000000000, -2.054687500000, 1492760027
0.131835937500, -0.921386718750, 0.424072265625, -7.406250000000, 0.125000000000, -2.054687500000, 1492760027
0.131835937500, -0.921386718750, 0.424072265625, -7.406250000000, 0.125000000000, -2.054687500000, 1492760027
0.192871093750, -0.883789062500, 0.442871093750, 6.046875000000, -1.109375000000, 0.156250000000, 1492760027
0.192871093750, -0.883789062500, 0.442871093750, 6.046875000000, -1.109375000000, 0.156250000000, 1492760027
0.192871093750, -0.883789062500, 0.442871093750, 6.046875000000, -1.109375000000, 0.156250000000, 1492760027
0.192871093750, -0.883789062500, 0.442871093750, 6.046875000000, -1.109375000000, 0.156250000000, 1492760027
0.031738281250, -0.922119140625, 0.420654296875, 8.992187500000, 14.476562500000, -0.695312500000, 1492760027
0.031738281250, -0.922119140625, 0.420654296875, 8.992187500000, 14.476562500000, -0.695312500000, 1492760027
0.031738281250, -0.922119140625, 0.420654296875, 8.992187500000, 14.476562500000, -0.695312500000, 1492760027
-0.088867187500, -0.856445312500, 0.444580078125, -10.476562500000, 16.085937500000, -7.296875000000, 1492760027
-0.088867187500, -0.856445312500, 0.444580078125, -10.476562500000, 16.085937500000, -7.296875000000, 1492760027
-0.088867187500, -0.856445312500, 0.444580078125, -10.476562500000, 16.085937500000, -7.296875000000, 1492760027
-0.075683593750, -0.958251953125, 0.413818359375, 2.843750000000, 8.578125000000, -2.085937500000, 1492760027
-0.075683593750, -0.958251953125, 0.413818359375, 2.843750000000, 8.578125000000, -2.085937500000, 1492760027
-0.075683593750, -0.958251953125, 0.413818359375, 2.843750000000, 8.578125000000, -2.085937500000, 1492760027
0.072265625000, -0.940917968750, 0.425048828125, -0.843750000000, -4.898437500000, -6.343750000000, 1492760027
0.072265625000, -0.940917968750, 0.425048828125, -0.843750000000, -4.898437500000, -6.343750000000, 1492760027
0.072265625000, -0.940917968750, 0.425048828125, -0.843750000000, -4.898437500000, -6.343750000000, 1492760027
0.072265625000, -0.940917968750, 0.425048828125, -0.843750000000, -4.898437500000, -6.343750000000, 1492760027
-0.027343750000, -0.866210937500, 0.458496093750, -2.125000000000, -8.453125000000, -8.570312500000, 1492760027
-0.027343750000, -0.866210937500, 0.458496093750, -2.125000000000, -8.453125000000, -8.570312500000, 1492760027
-0.027343750000, -0.866210937500, 0.458496093750, -2.125000000000, -8.453125000000, -8.570312500000, 1492760027
-0.026123046875, -0.938476562500, 0.508789062500, -6.304687500000, -8.289062500000, -6.992187500000, 1492760027
-0.026123046875, -0.938476562500, 0.508789062500, -6.304687500000, -8.289062500000, -6.992187500000, 1492760027
-0.026123046875, -0.938476562500, 0.508789062500, -6.304687500000, -8.289062500000, -6.992187500000, 1492760027
0.084960937500, -0.913574218750, 0.401367187500, 6.296875000000, -11.484375000000, -8.195312500000, 1492760028
0.084960937500, -0.913574218750, 0.401367187500, 6.296875000000, -11.484375000000, -8.195312500000, 1492760028
0.084960937500, -0.913574218750, 0.401367187500, 6.296875000000, -11.484375000000, -8.195312500000, 1492760028
0.084960937500, -0.913574218750, 0.401367187500, 6.296875000000, -11.484375000000, -8.195312500000, 1492760028
0.027343750000, -0.916015625000, 0.478027343750, 12.171875000000, -13.640625000000, -4.000000000000, 1492760028
0.045654296875, -0.921875000000, 0.457031250000, -1.343750000000, -12.539062500000, -6.164062500000, 1492760028
0.045654296875, -0.921875000000, 0.457031250000, -1.343750000000, -12.539062500000, -6.164062500000, 1492760028
0.045654296875, -0.921875000000, 0.457031250000, -1.343750000000, -12.539062500000, -6.164062500000, 1492760028
0.045654296875, -0.921875000000, 0.457031250000, -1.343750000000, -12.539062500000, -6.164062500000, 1492760028
0.045654296875, -0.921875000000, 0.457031250000, -1.343750000000, -12.539062500000, -6.164062500000, 1492760028
-0.012207031250, -0.942626953125, 0.366210937500, -12.695312500000, -5.671875000000, -6.625000000000, 1492760028
-0.012207031250, -0.942626953125, 0.366210937500, -12.695312500000, -5.671875000000, -6.625000000000, 1492760028
-0.012207031250, -0.942626953125, 0.366210937500, -12.695312500000, -5.671875000000, -6.625000000000, 1492760028
0.077636718750, -0.792724609375, 0.506591796875, 6.226562500000, -4.164062500000, -5.039062500000, 1492760028
0.077636718750, -0.792724609375, 0.506591796875, 6.226562500000, -4.164062500000, -5.039062500000, 1492760028
0.077636718750, -0.792724609375, 0.506591796875, 6.226562500000, -4.164062500000, -5.039062500000, 1492760028
0.088378906250, -0.966308593750, 0.464599609375, -2.164062500000, -1.953125000000, -0.945312500000, 1492760028
0.088378906250, -0.966308593750, 0.464599609375, -2.164062500000, -1.953125000000, -0.945312500000, 1492760028
0.088378906250, -0.966308593750, 0.464599609375, -2.164062500000, -1.953125000000, -0.945312500000, 1492760028
0.088378906250, -0.966308593750, 0.464599609375, -2.164062500000, -1.953125000000, -0.945312500000, 1492760028
0.081787109375, -0.857910156250, 0.464355468750, 0.609375000000, -2.523437500000, -2.156250000000, 1492760028
0.081787109375, -0.857910156250, 0.464355468750, 0.609375000000, -2.523437500000, -2.156250000000, 1492760028
0.081787109375, -0.857910156250, 0.464355468750, 0.609375000000, -2.523437500000, -2.156250000000, 1492760028
-0.011474609375, -0.863037109375, 0.464111328125, 1.031250000000, -0.820312500000, -1.671875000000, 1492760028
-0.011474609375, -0.863037109375, 0.464111328125, 1.031250000000, -0.820312500000, -1.671875000000, 1492760028
-0.011474609375, -0.863037109375, 0.464111328125, 1.031250000000, -0.820312500000, -1.671875000000, 1492760028
0.056396484375, -1.010253906250, 0.512939453125, -1.343750000000, 1.843750000000, -2.062500000000, 1492760028
0.056396484375, -1.010253906250, 0.512939453125, -1.343750000000, 1.843750000000, -2.062500000000, 1492760028
0.056396484375, -1.010253906250, 0.512939453125, -1.343750000000, 1.843750000000, -2.062500000000, 1492760028
0.083740234375, -0.956787109375, 0.462890625000, -8.929687500000, 1.085937500000, 0.140625000000, 1492760028
0.083740234375, -0.956787109375, 0.462890625000, -8.929687500000, 1.085937500000, 0.140625000000, 1492760028
0.083740234375, -0.956787109375, 0.462890625000, -8.929687500000, 1.085937500000, 0.140625000000, 1492760028
0.083740234375, -0.956787109375, 0.462890625000, -8.929687500000, 1.085937500000, 0.140625000000, 1492760028
-0.014892578125, -0.912597656250, 0.453857421875, -6.343750000000, 6.218750000000, -3.273437500000, 1492760028
-0.014892578125, -0.912597656250, 0.453857421875, -6.343750000000, 6.218750000000, -3.273437500000, 1492760028
-0.014892578125, -0.912597656250, 0.453857421875, -6.343750000000, 6.218750000000, -3.273437500000, 1492760028
0.136962890625, -0.870361328125, 0.359375000000, -2.445312500000, 1.734375000000, -1.851562500000, 1492760028
0.136962890625, -0.870361328125, 0.359375000000, -2.445312500000, 1.734375000000, -1.851562500000, 1492760028
0.136962890625, -0.870361328125, 0.359375000000, -2.445312500000, 1.734375000000, -1.851562500000, 1492760028
-0.009765625000, -0.845703125000, 0.366455078125, -2.750000000000, 4.109375000000, -1.070312500000, 1492760028
-0.009765625000, -0.845703125000, 0.366455078125, -2.750000000000, 4.109375000000, -1.070312500000, 1492760028
-0.009765625000, -0.845703125000, 0.366455078125, -2.750000000000, 4.109375000000, -1.070312500000, 1492760028
0.068359375000, -1.010498046875, 0.452148437500, -0.171875000000, 0.656250000000, -1.984375000000, 1492760028
0.068359375000, -1.010498046875, 0.452148437500, -0.171875000000, 0.656250000000, -1.984375000000, 1492760028
0.068359375000, -1.010498046875, 0.452148437500, -0.171875000000, 0.656250000000, -1.984375000000, 1492760028
0.068359375000, -1.010498046875, 0.452148437500, -0.171875000000, 0.656250000000, -1.984375000000, 1492760028
0.012939453125, -0.854492187500, 0.360595703125, 1.789062500000, 3.437500000000, -4.070312500000, 1492760028
0.012939453125, -0.854492187500, 0.360595703125, 1.789062500000, 3.437500000000, -4.070312500000, 1492760028
0.012939453125, -0.854492187500, 0.360595703125, 1.789062500000, 3.437500000000, -4.070312500000, 1492760028
-0.039062500000, -0.849365234375, 0.466064453125, -4.875000000000, 4.812500000000, -3.820312500000, 1492760028
-0.039062500000, -0.849365234375, 0.466064453125, -4.875000000000, 4.812500000000, -3.820312500000, 1492760028
-0.039062500000, -0.849365234375, 0.466064453125, -4.875000000000, 4.812500000000, -3.820312500000, 1492760028
0.073486328125, -0.867919921875, 0.458496093750, -9.898437500000, 3.101562500000, 0.585937500000, 1492760028
0.073486328125, -0.867919921875, 0.458496093750, -9.898437500000, 3.101562500000, 0.585937500000, 1492760028
0.073486328125, -0.867919921875, 0.458496093750, -9.898437500000, 3.101562500000, 0.585937500000, 1492760028
0.055664062500, -0.934814453125, 0.344482421875, -10.023437500000, 1.093750000000, -3.273437500000, 1492760028
0.055664062500, -0.934814453125, 0.344482421875, -10.023437500000, 1.093750000000, -3.273437500000, 1492760028
0.055664062500, -0.934814453125, 0.344482421875, -10.023437500000, 1.093750000000, -3.273437500000, 1492760028
0.055664062500, -0.934814453125, 0.344482421875, -10.023437500000, 1.093750000000, -3.273437500000, 1492760028
0.002929687500, -0.884277343750, 0.463623046875, -6.304687500000, -0.406250000000, -3.164062500000, 1492760028
0.002929687500, -0.884277343750, 0.463623046875, -6.304687500000, -0.406250000000, -3.164062500000, 1492760028
0.002929687500, -0.884277343750, 0.463623046875, -6.304687500000, -0.406250000000, -3.164062500000, 1492760028
0.127685546875, -0.917236328125, 0.414794921875, -3.320312500000, 0.687500000000, -1.539062500000, 1492760028
0.127685546875, -0.917236328125, 0.414794921875, -3.320312500000, 0.687500000000, -1.539062500000, 1492760028
0.127685546875, -0.917236328125, 0.414794921875, -3.320312500000, 0.687500000000, -1.539062500000, 1492760028
0.127685546875, -0.883789062500, 0.458007812500, -10.265625000000, 2.984375000000, -3.039062500000, 1492760028
0.127685546875, -0.883789062500, 0.458007812500, -10.265625000000, 2.984375000000, -3.039062500000, 1492760028
0.127685546875, -0.883789062500, 0.458007812500, -10.265625000000, 2.984375000000, -3.039062500000, 1492760028
0.002685546875, -0.915283203125, 0.373291015625, -11.304687500000, 6.007812500000, -6.937500000000, 1492760029
0.002685546875, -0.915283203125, 0.373291015625, -11.304687500000, 6.007812500000, -6.937500000000, 1492760029
0.002685546875, -0.915283203125, 0.373291015625, -11.304687500000, 6.007812500000, -6.937500000000, 1492760029
0.002685546875, -0.915283203125, 0.373291015625, -11.304687500000, 6.007812500000, -6.937500000000, 1492760029
0.040283203125, -0.852783203125, 0.461669921875, -1.390625000000, -2.007812500000, -8.015625000000, 1492760029
0.040283203125, -0.852783203125, 0.461669921875, -1.390625000000, -2.007812500000, -8.015625000000, 1492760029
0.040283203125, -0.852783203125, 0.461669921875, -1.390625000000, -2.007812500000, -8.015625000000, 1492760029
0.018310546875, -0.923339843750, 0.431884765625, 4.148437500000, -6.265625000000, -1.195312500000, 1492760029
0.018310546875, -0.923339843750, 0.431884765625, 4.148437500000, -6.265625000000, -1.195312500000, 1492760029
0.018310546875, -0.923339843750, 0.431884765625, 4.148437500000, -6.265625000000, -1.195312500000, 1492760029
0.089111328125, -0.871337890625, 0.298828125000, -1.031250000000, -4.914062500000, -1.812500000000, 1492760029
0.089111328125, -0.871337890625, 0.298828125000, -1.031250000000, -4.914062500000, -1.812500000000, 1492760029
0.089111328125, -0.871337890625, 0.298828125000, -1.031250000000, -4.914062500000, -1.812500000000, 1492760029
0.131103515625, -0.958740234375, 0.384765625000, 0.398437500000, 0.406250000000, -0.492187500000, 1492760029
0.131103515625, -0.958740234375, 0.384765625000, 0.398437500000, 0.406250000000, -0.492187500000, 1492760029
0.131103515625, -0.958740234375, 0.384765625000, 0.398437500000, 0.406250000000, -0.492187500000, 1492760029
0.037109375000, -0.959960937500, 0.427734375000, -0.773437500000, -5.187500000000, -6.445312500000, 1492760029
0.037109375000, -0.959960937500, 0.427734375000, -0.773437500000, -5.187500000000, -6.445312500000, 1492760029
0.037109375000, -0.959960937500, 0.427734375000, -0.773437500000, -5.187500000000, -6.445312500000, 1492760029
0.037109375000, -0.959960937500, 0.427734375000, -0.773437500000, -5.187500000000, -6.445312500000, 1492760029
0.021728515625, -0.982666015625, 0.426269531250, -3.507812500000, 1.390625000000, -4.703125000000, 1492760029
0.021728515625, -0.982666015625, 0.426269531250, -3.507812500000, 1.390625000000, -4.703125000000, 1492760029
0.021728515625, -0.982666015625, 0.426269531250, -3.507812500000, 1.390625000000, -4.703125000000, 1492760029
0.050292968750, -0.855224609375, 0.459472656250, -1.976562500000, -1.765625000000, -4.742187500000, 1492760029
0.050292968750, -0.855224609375, 0.459472656250, -1.976562500000, -1.765625000000, -4.742187500000, 1492760029
0.050292968750, -0.855224609375, 0.459472656250, -1.976562500000, -1.765625000000, -4.742187500000, 1492760029
0.125244140625, -0.951660156250, 0.373535156250, -3.937500000000, 2.203125000000, -8.210937500000, 1492760029
0.125244140625, -0.951660156250, 0.373535156250, -3.937500000000, 2.203125000000, -8.210937500000, 1492760029
0.125244140625, -0.951660156250, 0.373535156250, -3.937500000000, 2.203125000000, -8.210937500000, 1492760029
0.125244140625, -0.951660156250, 0.373535156250, -3.937500000000, 2.203125000000, -8.210937500000, 1492760029
0.117187500000, -0.861328125000, 0.362548828125, -8.609375000000, 11.382812500000, 0.531250000000, 1492760029
0.117187500000, -0.861328125000, 0.362548828125, -8.609375000000, 11.382812500000, 0.531250000000, 1492760029
0.117187500000, -0.861328125000, 0.362548828125, -8.609375000000, 11.382812500000, 0.531250000000, 1492760029
0.117187500000, -0.861328125000, 0.362548828125, -8.609375000000, 11.382812500000, 0.531250000000, 1492760029
0.117187500000, -0.861328125000, 0.362548828125, -8.609375000000, 11.382812500000, 0.531250000000, 1492760029
-0.019287109375, -1.011474609375, 0.398193359375, -4.976562500000, -5.546875000000, -6.375000000000, 1492760029
-0.019287109375, -1.011474609375, 0.398193359375, -4.976562500000, -5.546875000000, -6.375000000000, 1492760029
-0.019287109375, -1.011474609375, 0.398193359375, -4.976562500000, -5.546875000000, -6.375000000000, 1492760029
-0.019287109375, -1.011474609375, 0.398193359375, -4.976562500000, -5.546875000000, -6.375000000000, 1492760029
-0.019287109375, -1.011474609375, 0.398193359375, -4.976562500000, -5.546875000000, -6.375000000000, 1492760029
-0.064208984375, -0.932373046875, 0.413330078125, -2.296875000000, -11.234375000000, -4.546875000000, 1492760029
-0.064208984375, -0.932373046875, 0.413330078125, -2.296875000000, -11.234375000000, -4.546875000000, 1492760029
-0.064208984375, -0.932373046875, 0.413330078125, -2.296875000000, -11.234375000000, -4.546875000000, 1492760029
0.111816406250, -1.013671875000, 0.442871093750, 4.117187500000, -5.921875000000, -5.554687500000, 1492760029
0.111816406250, -1.013671875000, 0.442871093750, 4.117187500000, -5.921875000000, -5.554687500000, 1492760029
0.111816406250, -1.013671875000, 0.442871093750, 4.117187500000, -5.921875000000, -5.554687500000, 1492760029
0.052490234375, -0.869140625000, 0.438720703125, 3.468750000000, -0.656250000000, -3.312500000000, 1492760029
0.052490234375, -0.869140625000, 0.438720703125, 3.468750000000, -0.656250000000, -3.312500000000, 1492760029
0.052490234375, -0.869140625000, 0.438720703125, 3.468750000000, -0.656250000000, -3.312500000000, 1492760029
0.050292968750, -0.967773437500, 0.460937500000, -3.226562500000, 1.304687500000, -6.195312500000, 1492760029
0.050292968750, -0.967773437500, 0.460937500000, -3.226562500000, 1.304687500000, -6.195312500000, 1492760029
0.050292968750, -0.967773437500, 0.460937500000, -3.226562500000, 1.304687500000, -6.195312500000, 1492760029
0.032958984375, -1.018066406250, 0.448242187500, -18.546875000000, 9.656250000000, -10.773437500000, 1492760029
0.032958984375, -1.018066406250, 0.448242187500, -18.546875000000, 9.656250000000, -10.773437500000, 1492760029
0.032958984375, -1.018066406250, 0.448242187500, -18.546875000000, 9.656250000000, -10.773437500000, 1492760029
0.032958984375, -1.018066406250, 0.448242187500, -18.546875000000, 9.656250000000, -10.773437500000, 1492760029
-0.017089843750, -0.947265625000, 0.393066406250, -11.992187500000, 9.976562500000, -9.281250000000, 1492760029
-0.017089843750, -0.947265625000, 0.393066406250, -11.992187500000, 9.976562500000, -9.281250000000, 1492760029
-0.017089843750, -0.947265625000, 0.393066406250, -11.992187500000, 9.976562500000, -9.281250000000, 1492760029
0.069335937500, -0.962402343750, 0.409179687500, -5.929687500000, 10.976562500000, -1.570312500000, 1492760029
0.069335937500, -0.962402343750, 0.409179687500, -5.929687500000, 10.976562500000, -1.570312500000, 1492760029
0.069335937500, -0.962402343750, 0.409179687500, -5.929687500000, 10.976562500000, -1.570312500000, 1492760029
-0.062744140625, -0.866455078125, 0.459228515625, -2.218750000000, 4.507812500000, -3.742187500000, 1492760029
-0.062744140625, -0.866455078125, 0.459228515625, -2.218750000000, 4.507812500000, -3.742187500000, 1492760029
-0.062744140625, -0.866455078125, 0.459228515625, -2.218750000000, 4.507812500000, -3.742187500000, 1492760029
0.072753906250, -0.871337890625, 0.565673828125, -7.843750000000, 1.421875000000, -3.304687500000, 1492760029
0.072753906250, -0.871337890625, 0.565673828125, -7.843750000000, 1.421875000000, -3.304687500000, 1492760029
0.072753906250, -0.871337890625, 0.565673828125, -7.843750000000, 1.421875000000, -3.304687500000, 1492760029
0.072753906250, -0.871337890625, 0.565673828125, -7.843750000000, 1.421875000000, -3.304687500000, 1492760030
0.019042968750, -0.801757812500, 0.464355468750, -15.445312500000, 10.773437500000, -8.671875000000, 1492760030
0.019042968750, -0.801757812500, 0.464355468750, -15.445312500000, 10.773437500000, -8.671875000000, 1492760030
0.019042968750, -0.801757812500, 0.464355468750, -15.445312500000, 10.773437500000, -8.671875000000, 1492760030
0.068847656250, -0.874023437500, 0.503906250000, -7.304687500000, 8.531250000000, -7.500000000000, 1492760030
0.068847656250, -0.874023437500, 0.503906250000, -7.304687500000, 8.531250000000, -7.500000000000, 1492760030
0.068847656250, -0.874023437500, 0.503906250000, -7.304687500000, 8.531250000000, -7.500000000000, 1492760030
0.025390625000, -0.886474609375, 0.429687500000, -2.328125000000, 4.070312500000, -6.976562500000, 1492760030
0.025390625000, -0.886474609375, 0.429687500000, -2.328125000000, 4.070312500000, -6.976562500000, 1492760030
0.025390625000, -0.886474609375, 0.429687500000, -2.328125000000, 4.070312500000, -6.976562500000, 1492760030
0.025146484375, -0.850830078125, 0.428222656250, 6.765625000000, 2.359375000000, -3.718750000000, 1492760030
0.025146484375, -0.850830078125, 0.428222656250, 6.765625000000, 2.359375000000, -3.718750000000, 1492760030
0.025146484375, -0.850830078125, 0.428222656250, 6.765625000000, 2.359375000000, -3.718750000000, 1492760030
0.077148437500, -0.870849609375, 0.475585937500, -3.898437500000, 1.828125000000, -8.601562500000, 1492760030
0.003906250000, -0.932617187500, 0.438720703125, -3.898437500000, 1.828125000000, -8.601562500000, 1492760030
0.003906250000, -0.932617187500, 0.438720703125, -3.898437500000, 1.828125000000, -8.601562500000, 1492760030
0.019775390625, -0.897460937500, 0.461914062500, -2.921875000000, 2.093750000000, -12.578125000000, 1492760030
0.019775390625, -0.897460937500, 0.461914062500, -2.921875000000, 2.093750000000, -12.578125000000, 1492760030
0.019775390625, -0.897460937500, 0.461914062500, -2.921875000000, 2.093750000000, -12.578125000000, 1492760030
0.027587890625, -0.950195312500, 0.396240234375, 8.976562500000, -4.695312500000, -10.367187500000, 1492760030
0.027587890625, -0.950195312500, 0.396240234375, 8.976562500000, -4.695312500000, -10.367187500000, 1492760030
0.027587890625, -0.950195312500, 0.396240234375, 8.976562500000, -4.695312500000, -10.367187500000, 1492760030
0.027587890625, -0.950195312500, 0.396240234375, 8.976562500000, -4.695312500000, -10.367187500000, 1492760030
-0.076904296875, -0.786132812500, 0.353759765625, 6.039062500000, -9.960937500000, -19.039062500000, 1492760030
-0.076904296875, -0.786132812500, 0.353759765625, 6.039062500000, -9.960937500000, -19.039062500000, 1492760030
-0.076904296875, -0.786132812500, 0.353759765625, 6.039062500000, -9.960937500000, -19.039062500000, 1492760030
-0.000488281250, -0.901611328125, 0.372314453125, 2.382812500000, -16.109375000000, -16.953125000000, 1492760030
-0.000488281250, -0.901611328125, 0.372314453125, 2.382812500000, -16.109375000000, -16.953125000000, 1492760030
-0.000488281250, -0.901611328125, 0.372314453125, 2.382812500000, -16.109375000000, -16.953125000000, 1492760030
0.083984375000, -0.942871093750, 0.390380859375, 5.093750000000, -21.984375000000, -20.664062500000, 1492760030
0.083984375000, -0.942871093750, 0.390380859375, 5.093750000000, -21.984375000000, -20.664062500000, 1492760030
0.083984375000, -0.942871093750, 0.390380859375, 5.093750000000, -21.984375000000, -20.664062500000, 1492760030
0.083984375000, -0.942871093750, 0.390380859375, 5.093750000000, -21.984375000000, -20.664062500000, 1492760030
0.085449218750, -0.958740234375, 0.365234375000, 5.289062500000, -25.171875000000, -22.468750000000, 1492760030
0.085449218750, -0.958740234375, 0.365234375000, 5.289062500000, -25.171875000000, -22.468750000000, 1492760030
0.085449218750, -0.958740234375, 0.365234375000, 5.289062500000, -25.171875000000, -22.468750000000, 1492760030
0.103759765625, -0.948242187500, 0.442871093750, 2.507812500000, -29.171875000000, -20.757812500000, 1492760030
0.103759765625, -0.948242187500, 0.442871093750, 2.507812500000, -29.171875000000, -20.757812500000, 1492760030
0.103759765625, -0.948242187500, 0.442871093750, 2.507812500000, -29.171875000000, -20.757812500000, 1492760030
0.103759765625, -0.948242187500, 0.442871093750, 2.507812500000, -29.171875000000, -20.757812500000, 1492760030
0.037841796875, -0.854248046875, 0.365478515625, 4.351562500000, -28.789062500000, -15.070312500000, 1492760030
0.037841796875, -0.854248046875, 0.365478515625, 4.351562500000, -28.789062500000, -15.070312500000, 1492760030
0.037841796875, -0.854248046875, 0.365478515625, 4.351562500000, -28.789062500000, -15.070312500000, 1492760030
-0.007080078125, -0.790039062500, 0.337646484375, 12.875000000000, -25.617187500000, -13.515625000000, 1492760030
-0.007080078125, -0.790039062500, 0.337646484375, 12.875000000000, -25.617187500000, -13.515625000000, 1492760030
-0.007080078125, -0.790039062500, 0.337646484375, 12.875000000000, -25.617187500000, -13.515625000000, 1492760030
0.136718750000, -0.794921875000, 0.321044921875, 25.085937500000, -28.593750000000, -9.468750000000, 1492760030
0.136718750000, -0.794921875000, 0.321044921875, 25.085937500000, -28.593750000000, -9.468750000000, 1492760030
0.136718750000, -0.794921875000, 0.321044921875, 25.085937500000, -28.593750000000, -9.468750000000, 1492760030
0.155761718750, -0.733398437500, 0.283935546875, 15.632812500000, -20.656250000000, -10.687500000000, 1492760030
0.155761718750, -0.733398437500, 0.283935546875, 15.632812500000, -20.656250000000, -10.687500000000, 1492760030
0.155761718750, -0.733398437500, 0.283935546875, 15.632812500000, -20.656250000000, -10.687500000000, 1492760030
0.155761718750, -0.733398437500, 0.283935546875, 15.632812500000, -20.656250000000, -10.687500000000, 1492760030
-0.010009765625, -0.762207031250, 0.237060546875, 3.328125000000, -21.851562500000, -8.265625000000, 1492760030
-0.010009765625, -0.762207031250, 0.237060546875, 3.328125000000, -21.851562500000, -8.265625000000, 1492760030
-0.010009765625, -0.762207031250, 0.237060546875, 3.328125000000, -21.851562500000, -8.265625000000, 1492760030
0.057617187500, -0.816894531250, 0.233154296875, 14.835937500000, -30.921875000000, -7.093750000000, 1492760030
0.057617187500, -0.816894531250, 0.233154296875, 14.835937500000, -30.921875000000, -7.093750000000, 1492760030
0.057617187500, -0.816894531250, 0.233154296875, 14.835937500000, -30.921875000000, -7.093750000000, 1492760030
0.154296875000, -0.814208984375, 0.160156250000, 27.218750000000, -34.875000000000, -2.289062500000, 1492760030
0.154296875000, -0.814208984375, 0.160156250000, 27.218750000000, -34.875000000000, -2.289062500000, 1492760030
0.154296875000, -0.814208984375, 0.160156250000, 27.218750000000, -34.875000000000, -2.289062500000, 1492760030
0.216552734375, -0.755371093750, 0.321533203125, 40.343750000000, -42.046875000000, 9.218750000000, 1492760030
0.216552734375, -0.755371093750, 0.321533203125, 40.343750000000, -42.046875000000, 9.218750000000, 1492760030
0.216552734375, -0.755371093750, 0.321533203125, 40.343750000000, -42.046875000000, 9.218750000000, 1492760030
0.216552734375, -0.755371093750, 0.321533203125, 40.343750000000, -42.046875000000, 9.218750000000, 1492760030
0.138427734375, -0.664794921875, 0.097900390625, 30.164062500000, -32.070312500000, -1.617187500000, 1492760031
0.138427734375, -0.664794921875, 0.097900390625, 30.164062500000, -32.070312500000, -1.617187500000, 1492760031
0.138427734375, -0.664794921875, 0.097900390625, 30.164062500000, -32.070312500000, -1.617187500000, 1492760031
0.051757812500, -0.603271484375, 0.135742187500, 15.062500000000, -18.765625000000, -7.210937500000, 1492760031
0.051757812500, -0.603271484375, 0.135742187500, 15.062500000000, -18.765625000000, -7.210937500000, 1492760031
0.051757812500, -0.603271484375, 0.135742187500, 15.062500000000, -18.765625000000, -7.210937500000, 1492760031
0.152587890625, -0.538818359375, 0.056884765625, -6.929687500000, -26.429687500000, -21.921875000000, 1492760031
0.152587890625, -0.538818359375, 0.056884765625, -6.929687500000, -26.429687500000, -21.921875000000, 1492760031
0.152587890625, -0.538818359375, 0.056884765625, -6.929687500000, -26.429687500000, -21.921875000000, 1492760031
-0.072509765625, -0.484619140625, 0.079345703125, 21.468750000000, 10.367187500000, -65.578125000000, 1492760031
-0.072509765625, -0.484619140625, 0.079345703125, 21.468750000000, 10.367187500000, -65.578125000000, 1492760031
-0.072509765625, -0.484619140625, 0.079345703125, 21.468750000000, 10.367187500000, -65.578125000000, 1492760031
-0.072509765625, -0.484619140625, 0.079345703125, 21.468750000000, 10.367187500000, -65.578125000000, 1492760031
0.006103515625, -0.677001953125, 0.015380859375, -12.945312500000, -19.765625000000, -67.296875000000, 1492760031
0.006103515625, -0.677001953125, 0.015380859375, -12.945312500000, -19.765625000000, -67.296875000000, 1492760031
0.006103515625, -0.677001953125, 0.015380859375, -12.945312500000, -19.765625000000, -67.296875000000, 1492760031
-0.212402343750, -1.437744140625, 0.191406250000, -95.789062500000, -62.210937500000, -115.460937500000, 1492760031
-0.212402343750, -1.437744140625, 0.191406250000, -95.789062500000, -62.210937500000, -115.460937500000, 1492760031
-0.212402343750, -1.437744140625, 0.191406250000, -95.789062500000, -62.210937500000, -115.460937500000, 1492760031
-0.212402343750, -1.437744140625, 0.191406250000, -95.789062500000, -62.210937500000, -115.460937500000, 1492760031
-0.158203125000, -1.924560546875, 0.364990234375, 84.250000000000, -159.734375000000, -192.062500000000, 1492760031
-0.158203125000, -1.924560546875, 0.364990234375, 84.250000000000, -159.734375000000, -192.062500000000, 1492760031
-0.158203125000, -1.924560546875, 0.364990234375, 84.250000000000, -159.734375000000, -192.062500000000, 1492760031
-0.158203125000, -1.924560546875, 0.364990234375, 84.250000000000, -159.734375000000, -192.062500000000, 1492760031
-0.158203125000, -1.924560546875, 0.364990234375, 84.250000000000, -159.734375000000, -192.062500000000, 1492760031
-0.449707031250, -2.095947265625, 0.926269531250, 30.296875000000, 152.312500000000, -232.929687500000, 1492760031
-0.449707031250, -2.095947265625, 0.926269531250, 30.296875000000, 152.312500000000, -232.929687500000, 1492760031
-0.449707031250, -2.095947265625, 0.926269531250, 30.296875000000, 152.312500000000, -232.929687500000, 1492760031
-0.449707031250, -2.095947265625, 0.926269531250, 30.296875000000, 152.312500000000, -232.929687500000, 1492760031
-0.415527343750, -1.024658203125, 0.455566406250, -82.171875000000, 106.640625000000, -11.445312500000, 1492760031
-0.415527343750, -1.024658203125, 0.455566406250, -82.171875000000, 106.640625000000, -11.445312500000, 1492760031
-0.415527343750, -1.024658203125, 0.455566406250, -82.171875000000, 106.640625000000, -11.445312500000, 1492760031
-0.597167968750, -0.805419921875, 0.132812500000, 13.664062500000, -209.875000000000, -27.484375000000, 1492760031
-0.597167968750, -0.805419921875, 0.132812500000, 13.664062500000, -209.875000000000, -27.484375000000, 1492760031
-0.597167968750, -0.805419921875, 0.132812500000, 13.664062500000, -209.875000000000, -27.484375000000, 1492760031
-0.238281250000, -0.405761718750, 0.439453125000, 71.406250000000, -238.320312500000, 17.078125000000, 1492760031
-0.238281250000, -0.405761718750, 0.439453125000, 71.406250000000, -238.320312500000, 17.078125000000, 1492760031
-0.238281250000, -0.405761718750, 0.439453125000, 71.406250000000, -238.320312500000, 17.078125000000, 1492760031
-0.238281250000, -0.405761718750, 0.439453125000, 71.406250000000, -238.320312500000, 17.078125000000, 1492760031
-0.281982421875, -0.251464843750, 0.550537109375, -9.734375000000, -12.851562500000, -25.031250000000, 1492760031
-0.281982421875, -0.251464843750, 0.550537109375, -9.734375000000, -12.851562500000, -25.031250000000, 1492760031
-0.281982421875, -0.251464843750, 0.550537109375, -9.734375000000, -12.851562500000, -25.031250000000, 1492760031
-0.307128906250, -0.366455078125, 0.140136718750, -92.757812500000, 22.351562500000, -29.585937500000, 1492760031
-0.307128906250, -0.366455078125, 0.140136718750, -92.757812500000, 22.351562500000, -29.585937500000, 1492760031
-0.307128906250, -0.366455078125, 0.140136718750, -92.757812500000, 22.351562500000, -29.585937500000, 1492760031
-0.571289062500, -1.013916015625, 0.826660156250, -144.046875000000, -17.296875000000, 58.796875000000, 1492760031
-0.571289062500, -1.013916015625, 0.826660156250, -144.046875000000, -17.296875000000, 58.796875000000, 1492760031
-0.571289062500, -1.013916015625, 0.826660156250, -144.046875000000, -17.296875000000, 58.796875000000, 1492760031
-0.760742187500, -1.215087890625, 0.178222656250, 134.148437500000, -205.101562500000, 151.695312500000, 1492760031
-0.760742187500, -1.215087890625, 0.178222656250, 134.148437500000, -205.101562500000, 151.695312500000, 1492760031
-0.760742187500, -1.215087890625, 0.178222656250, 134.148437500000, -205.101562500000, 151.695312500000, 1492760031
-0.760742187500, -1.215087890625, 0.178222656250, 134.148437500000, -205.101562500000, 151.695312500000, 1492760031
-1.209472656250, -1.640380859375, 0.047363281250, 80.359375000000, 27.125000000000, 127.601562500000, 1492760031
-1.209472656250, -1.640380859375, 0.047363281250, 80.359375000000, 27.125000000000, 127.601562500000, 1492760031
-1.209472656250, -1.640380859375, 0.047363281250, 80.359375000000, 27.125000000000, 127.601562500000, 1492760031
-0.537353515625, 0.135498046875, 1.447509765625, -18.500000000000, 253.992187500000, -10.671875000000, 1492760031
-0.537353515625, 0.135498046875, 1.447509765625, -18.500000000000, 253.992187500000, -10.671875000000, 1492760031
-0.537353515625, 0.135498046875, 1.447509765625, -18.500000000000, 253.992187500000, -10.671875000000, 1492760031
-0.714355468750, -0.543212890625, 0.100097656250, -23.593750000000, -171.507812500000, 7.867187500000, 1492760031
-0.714355468750, -0.543212890625, 0.100097656250, -23.593750000000, -171.507812500000, 7.867187500000, 1492760031
-0.714355468750, -0.543212890625, 0.100097656250, -23.593750000000, -171.507812500000, 7.867187500000, 1492760031
-0.369873046875, -0.783447265625, 0.127197265625, 9.367187500000, -17.132812500000, 33.210937500000, 1492760031
-0.369873046875, -0.783447265625, 0.127197265625, 9.367187500000, -17.132812500000, 33.210937500000, 1492760031
-0.369873046875, -0.783447265625, 0.127197265625, 9.367187500000, -17.132812500000, 33.210937500000, 1492760031
-0.369873046875, -0.783447265625, 0.127197265625, 9.367187500000, -17.132812500000, 33.210937500000, 1492760031
-0.180419921875, -0.750488281250, 0.394531250000, 16.835937500000, 110.875000000000, 31.023437500000, 1492760031
-0.180419921875, -0.750488281250, 0.394531250000, 16.835937500000, 110.875000000000, 31.023437500000, 1492760031
-0.180419921875, -0.750488281250, 0.394531250000, 16.835937500000, 110.875000000000, 31.023437500000, 1492760031
-0.199951171875, -0.700439453125, 0.416748046875, 4.273437500000, 63.054687500000, 52.359375000000, 1492760032
-0.199951171875, -0.700439453125, 0.416748046875, 4.273437500000, 63.054687500000, 52.359375000000, 1492760032
-0.199951171875, -0.700439453125, 0.416748046875, 4.273437500000, 63.054687500000, 52.359375000000, 1492760032
-0.206054687500, -0.794433593750, 0.412353515625, -23.203125000000, -52.632812500000, 41.109375000000, 1492760032
-0.206054687500, -0.794433593750, 0.412353515625, -23.203125000000, -52.632812500000, 41.109375000000, 1492760032
-0.206054687500, -0.794433593750, 0.412353515625, -23.203125000000, -52.632812500000, 41.109375000000, 1492760032
-0.283935546875, -0.891357421875, 0.294677734375, 32.148437500000, 31.851562500000, 62.421875000000, 1492760032
-0.283935546875, -0.891357421875, 0.294677734375, 32.148437500000, 31.851562500000, 62.421875000000, 1492760032
-0.283935546875, -0.891357421875, 0.294677734375, 32.148437500000, 31.851562500000, 62.421875000000, 1492760032
-0.283935546875, -0.891357421875, 0.294677734375, 32.148437500000, 31.851562500000, 62.421875000000, 1492760032
-0.159179687500, -0.855712890625, 0.518066406250, 56.328125000000, 31.945312500000, 119.257812500000, 1492760032
-0.159179687500, -0.855712890625, 0.518066406250, 56.328125000000, 31.945312500000, 119.257812500000, 1492760032
-0.159179687500, -0.855712890625, 0.518066406250, 56.328125000000, 31.945312500000, 119.257812500000, 1492760032
0.025146484375, -0.918701171875, 0.128417968750, 57.382812500000, 37.796875000000, 83.359375000000, 1492760032
0.025146484375, -0.918701171875, 0.128417968750, 57.382812500000, 37.796875000000, 83.359375000000, 1492760032
0.025146484375, -0.918701171875, 0.128417968750, 57.382812500000, 37.796875000000, 83.359375000000, 1492760032
0.012939453125, -0.981445312500, 0.170410156250, 57.851562500000, 23.890625000000, 52.992187500000, 1492760032
0.012939453125, -0.981445312500, 0.170410156250, 57.851562500000, 23.890625000000, 52.992187500000, 1492760032
0.012939453125, -0.981445312500, 0.170410156250, 57.851562500000, 23.890625000000, 52.992187500000, 1492760032
-0.103027343750, -0.980468750000, 0.048828125000, 79.992187500000, 14.734375000000, 26.812500000000, 1492760032
-0.103027343750, -0.980468750000, 0.048828125000, 79.992187500000, 14.734375000000, 26.812500000000, 1492760032
-0.103027343750, -0.980468750000, 0.048828125000, 79.992187500000, 14.734375000000, 26.812500000000, 1492760032
-0.103027343750, -0.980468750000, 0.048828125000, 79.992187500000, 14.734375000000, 26.812500000000, 1492760032
0.012207031250, -1.076660156250, -0.076660156250, 74.695312500000, 8.914062500000, 22.859375000000, 1492760032
0.012207031250, -1.076660156250, -0.076660156250, 74.695312500000, 8.914062500000, 22.859375000000, 1492760032
0.012207031250, -1.076660156250, -0.076660156250, 74.695312500000, 8.914062500000, 22.859375000000, 1492760032
0.080078125000, -1.004394531250, 0.028076171875, 51.304687500000, 23.015625000000, 0.929687500000, 1492760032
0.080078125000, -1.004394531250, 0.028076171875, 51.304687500000, 23.015625000000, 0.929687500000, 1492760032
0.080078125000, -1.004394531250, 0.028076171875, 51.304687500000, 23.015625000000, 0.929687500000, 1492760032
0.052734375000, -1.004638671875, -0.054443359375, 48.039062500000, 46.960937500000, -9.929687500000, 1492760032
0.052734375000, -1.004638671875, -0.054443359375, 48.039062500000, 46.960937500000, -9.929687500000, 1492760032
0.052734375000, -1.004638671875, -0.054443359375, 48.039062500000, 46.960937500000, -9.929687500000, 1492760032
0.009033203125, -0.933105468750, -0.049072265625, 34.945312500000, 29.468750000000, -12.726562500000, 1492760032
0.009033203125, -0.933105468750, -0.049072265625, 34.945312500000, 29.468750000000, -12.726562500000, 1492760032
0.009033203125, -0.933105468750, -0.049072265625, 34.945312500000, 29.468750000000, -12.726562500000, 1492760032
0.009033203125, -0.933105468750, -0.049072265625, 34.945312500000, 29.468750000000, -12.726562500000, 1492760032
-0.030761718750, -0.998291015625, -0.134521484375, 20.656250000000, 13.796875000000, -1.195312500000, 1492760032
-0.030761718750, -0.998291015625, -0.134521484375, 20.656250000000, 13.796875000000, -1.195312500000, 1492760032
-0.030761718750, -0.998291015625, -0.134521484375, 20.656250000000, 13.796875000000, -1.195312500000, 1492760032
0.042724609375, -1.002197265625, -0.118408203125, 16.437500000000, 15.296875000000, -5.039062500000, 1492760032
0.042724609375, -1.002197265625, -0.118408203125, 16.437500000000, 15.296875000000, -5.039062500000, 1492760032
0.042724609375, -1.002197265625, -0.118408203125, 16.437500000000, 15.296875000000, -5.039062500000, 1492760032
-0.001220703125, -0.971435546875, -0.217041015625, 16.210937500000, 15.804687500000, -5.117187500000, 1492760032
-0.001220703125, -0.971435546875, -0.217041015625, 16.210937500000, 15.804687500000, -5.117187500000, 1492760032
-0.001220703125, -0.971435546875, -0.217041015625, 16.210937500000, 15.804687500000, -5.117187500000, 1492760032
-0.025634765625, -0.989501953125, -0.207519531250, 18.640625000000, 9.984375000000, -7.609375000000, 1492760032
-0.025634765625, -0.989501953125, -0.207519531250, 18.640625000000, 9.984375000000, -7.609375000000, 1492760032
-0.025634765625, -0.989501953125, -0.207519531250, 18.640625000000, 9.984375000000, -7.609375000000, 1492760032
-0.025634765625, -0.989501953125, -0.207519531250, 18.640625000000, 9.984375000000, -7.609375000000, 1492760032
0.032958984375, -0.967529296875, -0.313476562500, 26.031250000000, 26.585937500000, -28.679687500000, 1492760032
0.032958984375, -0.967529296875, -0.313476562500, 26.031250000000, 26.585937500000, -28.679687500000, 1492760032
0.032958984375, -0.967529296875, -0.313476562500, 26.031250000000, 26.585937500000, -28.679687500000, 1492760032
0.032958984375, -0.967529296875, -0.313476562500, 26.031250000000, 26.585937500000, -28.679687500000, 1492760032
0.032958984375, -0.967529296875, -0.313476562500, 26.031250000000, 26.585937500000, -28.679687500000, 1492760032
0.032958984375, -0.967529296875, -0.313476562500, 26.031250000000, 26.585937500000, -28.679687500000, 1492760032
0.028076171875, -0.929199218750, -0.327148437500, 24.882812500000, 34.882812500000, -41.875000000000, 1492760032
0.028076171875, -0.929199218750, -0.327148437500, 24.882812500000, 34.882812500000, -41.875000000000, 1492760032
0.028076171875, -0.929199218750, -0.327148437500, 24.882812500000, 34.882812500000, -41.875000000000, 1492760032
0.028076171875, -0.929199218750, -0.327148437500, 24.882812500000, 34.882812500000, -41.875000000000, 1492760032
0.028076171875, -0.929199218750, -0.327148437500, 24.882812500000, 34.882812500000, -41.875000000000, 1492760032
0.028076171875, -0.929199218750, -0.327148437500, 24.882812500000, 34.882812500000, -41.875000000000, 1492760032
-0.092773437500, -1.000732421875, -0.284912109375, 12.695312500000, 16.062500000000, -32.335937500000, 1492760032
-0.092773437500, -1.000732421875, -0.284912109375, 12.695312500000, 16.062500000000, -32.335937500000, 1492760032
-0.092773437500, -1.000732421875, -0.284912109375, 12.695312500000, 16.062500000000, -32.335937500000, 1492760032
-0.092773437500, -1.000732421875, -0.284912109375, 12.695312500000, 16.062500000000, -32.335937500000, 1492760032
-0.191650390625, -0.947998046875, -0.318847656250, 10.750000000000, 8.921875000000, -29.820312500000, 1492760033
-0.191650390625, -0.947998046875, -0.318847656250, 10.750000000000, 8.921875000000, -29.820312500000, 1492760033
-0.191650390625, -0.947998046875, -0.318847656250, 10.750000000000, 8.921875000000, -29.820312500000, 1492760033
-0.075683593750, -0.924316406250, -0.330566406250, 7.054687500000, 2.007812500000, -25.304687500000, 1492760033
-0.075683593750, -0.924316406250, -0.330566406250, 7.054687500000, 2.007812500000, -25.304687500000, 1492760033
-0.075683593750, -0.924316406250, -0.330566406250, 7.054687500000, 2.007812500000, -25.304687500000, 1492760033
-0.123046875000, -0.859130859375, -0.291992187500, 5.226562500000, 4.796875000000, -23.320312500000, 1492760033
-0.123046875000, -0.859130859375, -0.291992187500, 5.226562500000, 4.796875000000, -23.320312500000, 1492760033
-0.123046875000, -0.859130859375, -0.291992187500, 5.226562500000, 4.796875000000, -23.320312500000, 1492760033
-0.095703125000, -0.952148437500, -0.450927734375, 0.937500000000, 11.632812500000, -19.296875000000, 1492760033
-0.196289062500, -0.966308593750, -0.362304687500, 0.343750000000, 10.289062500000, -22.187500000000, 1492760033
-0.196289062500, -0.966308593750, -0.362304687500, 0.343750000000, 10.289062500000, -22.187500000000, 1492760033
-0.156982421875, -0.959960937500, -0.351806640625, -7.609375000000, 9.578125000000, -11.812500000000, 1492760033
-0.156982421875, -0.959960937500, -0.351806640625, -7.609375000000, 9.578125000000, -11.812500000000, 1492760033
-0.156982421875, -0.959960937500, -0.351806640625, -7.609375000000, 9.578125000000, -11.812500000000, 1492760033
-0.156982421875, -0.959960937500, -0.351806640625, -7.609375000000, 9.578125000000, -11.812500000000, 1492760033
-0.156982421875, -0.959960937500, -0.351806640625, -7.609375000000, 9.578125000000, -11.812500000000, 1492760033
-0.156982421875, -0.959960937500, -0.351806640625, -7.609375000000, 9.578125000000, -11.812500000000, 1492760033
-0.156982421875, -0.959960937500, -0.351806640625, -7.609375000000, 9.578125000000, -11.812500000000, 1492760033
-0.166015625000, -0.889892578125, -0.332763671875, -13.664062500000, 51.820312500000, -31.265625000000, 1492760033
-0.166015625000, -0.889892578125, -0.332763671875, -13.664062500000, 51.820312500000, -31.265625000000, 1492760033
-0.166015625000, -0.889892578125, -0.332763671875, -13.664062500000, 51.820312500000, -31.265625000000, 1492760033
-0.166015625000, -0.889892578125, -0.332763671875, -13.664062500000, 51.820312500000, -31.265625000000, 1492760033
-0.203125000000, -0.799560546875, -0.386962890625, -14.945312500000, 90.835937500000, -52.992187500000, 1492760033
-0.038085937500, -0.966796875000, -0.345947265625, -14.945312500000, 90.835937500000, -52.992187500000, 1492760033
-0.038085937500, -0.966796875000, -0.345947265625, -14.945312500000, 90.835937500000, -52.992187500000, 1492760033
-0.038085937500, -0.966796875000, -0.345947265625, -14.945312500000, 90.835937500000, -52.992187500000, 1492760033
-0.038085937500, -0.966796875000, -0.345947265625, -14.945312500000, 90.835937500000, -52.992187500000, 1492760033
-0.038085937500, -0.966796875000, -0.345947265625, -14.945312500000, 90.835937500000, -52.992187500000, 1492760033
-0.162109375000, -0.830810546875, -0.368408203125, 2.453125000000, -0.632812500000, -12.992187500000, 1492760033
-0.162109375000, -0.830810546875, -0.368408203125, 2.453125000000, -0.632812500000, -12.992187500000, 1492760033
-0.162109375000, -0.830810546875, -0.368408203125, 2.453125000000, -0.632812500000, -12.992187500000, 1492760033
-0.192626953125, -0.880859375000, -0.350585937500, -16.757812500000, -2.515625000000, 3.531250000000, 1492760033
-0.192626953125, -0.880859375000, -0.350585937500, -16.757812500000, -2.515625000000, 3.531250000000, 1492760033
-0.192626953125, -0.880859375000, -0.350585937500, -16.757812500000, -2.515625000000, 3.531250000000, 1492760033
-0.157714843750, -0.954833984375, -0.292236328125, -3.804687500000, -0.671875000000, -1.695312500000, 1492760033
-0.157714843750, -0.954833984375, -0.292236328125, -3.804687500000, -0.671875000000, -1.695312500000, 1492760033
-0.157714843750, -0.954833984375, -0.292236328125, -3.804687500000, -0.671875000000, -1.695312500000, 1492760033
-0.157714843750, -0.954833984375, -0.292236328125, -3.804687500000, -0.671875000000, -1.695312500000, 1492760033
-0.156738281250, -0.909667968750, -0.380615234375, -3.671875000000, 0.750000000000, -7.148437500000, 1492760033
-0.156738281250, -0.909667968750, -0.380615234375, -3.671875000000, 0.750000000000, -7.148437500000, 1492760033
-0.156738281250, -0.909667968750, -0.380615234375, -3.671875000000, 0.750000000000, -7.148437500000, 1492760033
-0.253417968750, -0.896240234375, -0.300048828125, 0.781250000000, 0.554687500000, -2.937500000000, 1492760033
-0.253417968750, -0.896240234375, -0.300048828125, 0.781250000000, 0.554687500000, -2.937500000000, 1492760033
-0.253417968750, -0.896240234375, -0.300048828125, 0.781250000000, 0.554687500000, -2.937500000000, 1492760033
-0.187011718750, -0.945800781250, -0.359375000000, 2.312500000000, 0.601562500000, -7.406250000000, 1492760033
-0.187011718750, -0.945800781250, -0.359375000000, 2.312500000000, 0.601562500000, -7.406250000000, 1492760033
-0.187011718750, -0.945800781250, -0.359375000000, 2.312500000000, 0.601562500000, -7.406250000000, 1492760033
-0.187011718750, -0.945800781250, -0.359375000000, 2.312500000000, 0.601562500000, -7.406250000000, 1492760033
-0.198730468750, -0.858642578125, -0.351562500000, 2.703125000000, 2.070312500000, -3.804687500000, 1492760033
-0.198730468750, -0.858642578125, -0.351562500000, 2.703125000000, 2.070312500000, -3.804687500000, 1492760033
-0.198730468750, -0.858642578125, -0.351562500000, 2.703125000000, 2.070312500000, -3.804687500000, 1492760033
-0.271484375000, -0.917236328125, -0.353271484375, -0.351562500000, 1.132812500000, -5.328125000000, 1492760033
-0.271484375000, -0.917236328125, -0.353271484375, -0.351562500000, 1.132812500000, -5.328125000000, 1492760033
-0.271484375000, -0.917236328125, -0.353271484375, -0.351562500000, 1.132812500000, -5.328125000000, 1492760033
-0.135253906250, -0.863281250000, -0.368652343750, -0.398437500000, 4.257812500000, -6.523437500000, 1492760033
-0.135253906250, -0.863281250000, -0.368652343750, -0.398437500000, 4.257812500000, -6.523437500000, 1492760033
-0.135253906250, -0.863281250000, -0.368652343750, -0.398437500000, 4.257812500000, -6.523437500000, 1492760033
-0.152343750000, -0.860351562500, -0.327148437500, -0.421875000000, -0.640625000000, 0.234375000000, 1492760033
-0.152343750000, -0.860351562500, -0.327148437500, -0.421875000000, -0.640625000000, 0.234375000000, 1492760033
-0.152343750000, -0.860351562500, -0.327148437500, -0.421875000000, -0.640625000000, 0.234375000000, 1492760033
-0.152343750000, -0.860351562500, -0.327148437500, -0.421875000000, -0.640625000000, 0.234375000000, 1492760033
-0.182617187500, -0.853271484375, -0.354492187500, -2.007812500000, 2.921875000000, -3.187500000000, 1492760033
-0.182617187500, -0.853271484375, -0.354492187500, -2.007812500000, 2.921875000000, -3.187500000000, 1492760033
-0.182617187500, -0.853271484375, -0.354492187500, -2.007812500000, 2.921875000000, -3.187500000000, 1492760033
-0.220214843750, -0.785644531250, -0.396240234375, -2.640625000000, 2.187500000000, -3.109375000000, 1492760033
-0.220214843750, -0.785644531250, -0.396240234375, -2.640625000000, 2.187500000000, -3.109375000000, 1492760033
-0.220214843750, -0.785644531250, -0.396240234375, -2.640625000000, 2.187500000000, -3.109375000000, 1492760034
-0.092773437500, -0.882080078125, -0.349121093750, -2.953125000000, 1.007812500000, -6.203125000000, 1492760034
-0.136962890625, -0.879394531250, -0.397216796875, -3.921875000000, 0.828125000000, -6.929687500000, 1492760034
-0.165039062500, -0.854248046875, -0.444580078125, -3.921875000000, 0.828125000000, -6.929687500000, 1492760034
-0.165039062500, -0.854248046875, -0.444580078125, -3.921875000000, 0.828125000000, -6.929687500000, 1492760034
-0.165039062500, -0.854248046875, -0.444580078125, -3.921875000000, 0.828125000000, -6.929687500000, 1492760034
-0.165039062500, -0.854248046875, -0.444580078125, -3.921875000000, 0.828125000000, -6.929687500000, 1492760034
-0.165039062500, -0.854248046875, -0.444580078125, -4.015625000000, 2.109375000000, -5.187500000000, 1492760034
-0.214355468750, -0.864013671875, -0.454589843750, -4.687500000000, -0.562500000000, -4.968750000000, 1492760034
-0.214355468750, -0.864013671875, -0.454589843750, -4.687500000000, -0.562500000000, -4.968750000000, 1492760034
-0.214355468750, -0.864013671875, -0.454589843750, -4.687500000000, -0.562500000000, -4.968750000000, 1492760034
-0.140625000000, -0.807617187500, -0.397216796875, -3.492187500000, 0.828125000000, -5.382812500000, 1492760034
-0.140625000000, -0.807617187500, -0.397216796875, -3.492187500000, 0.828125000000, -5.382812500000, 1492760034
-0.140625000000, -0.807617187500, -0.397216796875, -3.492187500000, 0.828125000000, -5.382812500000, 1492760034
-0.216064453125, -0.914550781250, -0.345947265625, -6.101562500000, -2.281250000000, -4.828125000000, 1492760034
-0.332275390625, -0.913330078125, -0.368164062500, -5.445312500000, -0.093750000000, -6.085937500000, 1492760034
-0.332275390625, -0.913330078125, -0.368164062500, -5.445312500000, -0.093750000000, -6.085937500000, 1492760034
-0.332275390625, -0.913330078125, -0.368164062500, -5.445312500000, -0.093750000000, -6.085937500000, 1492760034
-0.332275390625, -0.913330078125, -0.368164062500, -5.445312500000, -0.093750000000, -6.085937500000, 1492760034
-0.127441406250, -0.861083984375, -0.345458984375, -5.578125000000, 0.351562500000, -2.914062500000, 1492760034
-0.127441406250, -0.861083984375, -0.345458984375, -5.578125000000, 0.351562500000, -2.914062500000, 1492760034
-0.127441406250, -0.861083984375, -0.345458984375, -5.578125000000, 0.351562500000, -2.914062500000, 1492760034
-0.127441406250, -0.861083984375, -0.345458984375, -5.578125000000, 0.351562500000, -2.914062500000, 1492760034
-0.098388671875, -0.846191406250, -0.359375000000, -3.875000000000, 0.757812500000, -3.890625000000, 1492760034
-0.200683593750, -0.964111328125, -0.371826171875, -6.296875000000, -2.039062500000, -1.835937500000, 1492760034
-0.200683593750, -0.964111328125, -0.371826171875, -6.296875000000, -2.039062500000, -1.835937500000, 1492760034
-0.200683593750, -0.964111328125, -0.371826171875, -6.296875000000, -2.039062500000, -1.835937500000, 1492760034
-0.250000000000, -0.874755859375, -0.391845703125, -6.312500000000, -0.671875000000, -6.773437500000, 1492760034
-0.250000000000, -0.874755859375, -0.391845703125, -6.312500000000, -0.671875000000, -6.773437500000, 1492760034
-0.250000000000, -0.874755859375, -0.391845703125, -6.312500000000, -0.671875000000, -6.773437500000, 1492760034
-0.107910156250, -0.874511718750, -0.401367187500, -4.539062500000, 2.687500000000, -4.132812500000, 1492760034
-0.107910156250, -0.874511718750, -0.401367187500, -4.539062500000, 2.687500000000, -4.132812500000, 1492760034
-0.107910156250, -0.874511718750, -0.401367187500, -4.539062500000, 2.687500000000, -4.132812500000, 1492760034
-0.107910156250, -0.874511718750, -0.401367187500, -4.539062500000, 2.687500000000, -4.132812500000, 1492760034
-0.260498046875, -0.888427734375, -0.364990234375, -4.187500000000, -0.070312500000, -1.875000000000, 1492760034
-0.260498046875, -0.888427734375, -0.364990234375, -4.187500000000, -0.070312500000, -1.875000000000, 1492760034
-0.260498046875, -0.888427734375, -0.364990234375, -4.187500000000, -0.070312500000, -1.875000000000, 1492760034
-0.168701171875, -0.929687500000, -0.421142578125, -2.820312500000, 2.632812500000, -5.875000000000, 1492760034
-0.168701171875, -0.929687500000, -0.421142578125, -2.820312500000, 2.632812500000, -5.875000000000, 1492760034
-0.187011718750, -1.006835937500, -0.349121093750, 0.921875000000, 0.765625000000, -4.859375000000, 1492760034
-0.187011718750, -1.006835937500, -0.349121093750, 0.921875000000, 0.765625000000, -4.859375000000, 1492760034
-0.187011718750, -1.006835937500, -0.349121093750, 0.921875000000, 0.765625000000, -4.859375000000, 1492760034
-0.187011718750, -1.006835937500, -0.349121093750, 0.921875000000, 0.765625000000, -4.859375000000, 1492760034
-0.187011718750, -1.006835937500, -0.349121093750, 0.921875000000, 0.765625000000, -4.859375000000, 1492760034
-0.253906250000, -0.908447265625, -0.367675781250, -4.125000000000, -0.789062500000, -6.570312500000, 1492760034
-0.253906250000, -0.908447265625, -0.367675781250, -4.125000000000, -0.789062500000, -6.570312500000, 1492760034
-0.253906250000, -0.908447265625, -0.367675781250, -4.125000000000, -0.789062500000, -6.570312500000, 1492760034
-0.158447265625, -0.889160156250, -0.378417968750, -4.132812500000, -2.429687500000, 0.312500000000, 1492760034
-0.158447265625, -0.889160156250, -0.378417968750, -4.132812500000, -2.429687500000, 0.312500000000, 1492760034
-0.158447265625, -0.889160156250, -0.378417968750, -4.132812500000, -2.429687500000, 0.312500000000, 1492760034
-0.216552734375, -0.941406250000, -0.415283203125, -3.781250000000, 2.125000000000, -4.726562500000, 1492760034
-0.216552734375, -0.941406250000, -0.415283203125, -3.781250000000, 2.125000000000, -4.726562500000, 1492760034
-0.216552734375, -0.941406250000, -0.415283203125, -3.781250000000, 2.125000000000, -4.726562500000, 1492760034
-0.162841796875, -0.957031250000, -0.405761718750, -4.859375000000, 0.437500000000, -1.398437500000, 1492760034
-0.162841796875, -0.957031250000, -0.405761718750, -4.859375000000, 0.437500000000, -1.398437500000, 1492760034
-0.162841796875, -0.957031250000, -0.405761718750, -4.859375000000, 0.437500000000, -1.398437500000, 1492760034
-0.107177734375, -0.966064453125, -0.380615234375, -6.148437500000, -2.125000000000, -5.507812500000, 1492760034
-0.107177734375, -0.966064453125, -0.380615234375, -6.148437500000, -2.125000000000, -5.507812500000, 1492760034
-0.107177734375, -0.966064453125, -0.380615234375, -6.148437500000, -2.125000000000, -5.507812500000, 1492760034
-0.107177734375, -0.966064453125, -0.380615234375, -6.148437500000, -2.125000000000, -5.507812500000, 1492760034
-0.197998046875, -0.861572265625, -0.354248046875, -4.046875000000, -0.500000000000, -6.132812500000, 1492760034
-0.197998046875, -0.861572265625, -0.354248046875, -4.046875000000, -0.500000000000, -6.132812500000, 1492760034
-0.197998046875, -0.861572265625, -0.354248046875, -4.046875000000, -0.500000000000, -6.132812500000, 1492760034
-0.217285156250, -0.874023437500, -0.354736328125, -1.445312500000, 0.421875000000, -3.789062500000, 1492760034
-0.217285156250, -0.874023437500, -0.354736328125, -1.445312500000, 0.421875000000, -3.789062500000, 1492760034
-0.217285156250, -0.874023437500, -0.354736328125, -1.445312500000, 0.421875000000, -3.789062500000, 1492760034
-0.271972656250, -0.928466796875, -0.309814453125, -4.648437500000, 0.265625000000, -6.328125000000, 1492760034
-0.271972656250, -0.928466796875, -0.309814453125, -4.648437500000, 0.265625000000, -6.328125000000, 1492760035
-0.271972656250, -0.928466796875, -0.309814453125, -4.648437500000, 0.265625000000, -6.328125000000, 1492760035
-0.182861328125, -0.876708984375, -0.462402343750, -6.851562500000, -0.984375000000, -3.375000000000, 1492760035
-0.182861328125, -0.876708984375, -0.462402343750, -6.851562500000, -0.984375000000, -3.375000000000, 1492760035
-0.182861328125, -0.876708984375, -0.462402343750, -6.851562500000, -0.984375000000, -3.375000000000, 1492760035
-0.182861328125, -0.876708984375, -0.462402343750, -6.851562500000, -0.984375000000, -3.375000000000, 1492760035
-0.174072265625, -0.857421875000, -0.367675781250, -4.328125000000, 0.843750000000, -1.945312500000, 1492760035
-0.174072265625, -0.857421875000, -0.367675781250, -4.328125000000, 0.843750000000, -1.945312500000, 1492760035
-0.174072265625, -0.857421875000, -0.367675781250, -4.328125000000, 0.843750000000, -1.945312500000, 1492760035
-0.188964843750, -0.958984375000, -0.369628906250, -4.195312500000, -0.773437500000, -4.500000000000, 1492760035
-0.188964843750, -0.958984375000, -0.369628906250, -4.195312500000, -0.773437500000, -4.500000000000, 1492760035
-0.188964843750, -0.958984375000, -0.369628906250, -4.195312500000, -0.773437500000, -4.500000000000, 1492760035
-0.260253906250, -0.879882812500, -0.377197265625, -3.429687500000, -0.750000000000, -3.875000000000, 1492760035
-0.260253906250, -0.879882812500, -0.377197265625, -3.429687500000, -0.750000000000, -3.875000000000, 1492760035
-0.260253906250, -0.879882812500, -0.377197265625, -3.429687500000, -0.750000000000, -3.875000000000, 1492760035
-0.189697265625, -0.947021484375, -0.417480468750, -4.140625000000, -0.445312500000, -3.500000000000, 1492760035
-0.189697265625, -0.947021484375, -0.417480468750, -4.140625000000, -0.445312500000, -3.500000000000, 1492760035
-0.189697265625, -0.947021484375, -0.417480468750, -4.140625000000, -0.445312500000, -3.500000000000, 1492760035
-0.189697265625, -0.947021484375, -0.417480468750, -4.140625000000, -0.445312500000, -3.500000000000, 1492760035
-0.208007812500, -0.956298828125, -0.364990234375, -4.648437500000, 0.445312500000, -3.539062500000, 1492760035
-0.208007812500, -0.956298828125, -0.364990234375, -4.648437500000, 0.445312500000, -3.539062500000, 1492760035
-0.208007812500, -0.956298828125, -0.364990234375, -4.648437500000, 0.445312500000, -3.539062500000, 1492760035
-0.261474609375, -0.906982421875, -0.344726562500, -3.609375000000, -0.195312500000, -4.984375000000, 1492760035
-0.261474609375, -0.906982421875, -0.344726562500, -3.609375000000, -0.195312500000, -4.984375000000, 1492760035
-0.261474609375, -0.906982421875, -0.344726562500, -3.609375000000, -0.195312500000, -4.984375000000, 1492760035
-0.273925781250, -0.878173828125, -0.455322265625, -3.367187500000, -0.898437500000, -7.179687500000, 1492760035
-0.273925781250, -0.878173828125, -0.455322265625, -3.367187500000, -0.898437500000, -7.179687500000, 1492760035
-0.273925781250, -0.878173828125, -0.455322265625, -3.367187500000, -0.898437500000, -7.179687500000, 1492760035
-0.215576171875, -0.950195312500, -0.453125000000, -3.500000000000, -0.312500000000, -6.789062500000, 1492760035
-0.215576171875, -0.950195312500, -0.453125000000, -3.500000000000, -0.312500000000, -6.789062500000, 1492760035
-0.215576171875, -0.950195312500, -0.453125000000, -3.500000000000, -0.312500000000, -6.789062500000, 1492760035
-0.215576171875, -0.950195312500, -0.453125000000, -3.500000000000, -0.312500000000, -6.789062500000, 1492760035
-0.260498046875, -0.905517578125, -0.366210937500, -4.156250000000, -0.500000000000, -4.687500000000, 1492760035
-0.260498046875, -0.905517578125, -0.366210937500, -4.156250000000, -0.500000000000, -4.687500000000, 1492760035
-0.260498046875, -0.905517578125, -0.366210937500, -4.156250000000, -0.500000000000, -4.687500000000, 1492760035
-0.099853515625, -0.884765625000, -0.460449218750, -4.140625000000, 0.359375000000, -8.867187500000, 1492760035
-0.099853515625, -0.884765625000, -0.460449218750, -4.140625000000, 0.359375000000, -8.867187500000, 1492760035
-0.099853515625, -0.884765625000, -0.460449218750, -4.140625000000, 0.359375000000, -8.867187500000, 1492760035
-0.252929687500, -0.877197265625, -0.349121093750, -3.460937500000, -2.195312500000, -6.632812500000, 1492760035
-0.252929687500, -0.877197265625, -0.349121093750, -3.460937500000, -2.195312500000, -6.632812500000, 1492760035
-0.252929687500, -0.877197265625, -0.349121093750, -3.460937500000, -2.195312500000, -6.632812500000, 1492760035
-0.267089843750, -0.958007812500, -0.440429687500, -1.851562500000, 0.492187500000, -6.890625000000, 1492760035
-0.267089843750, -0.958007812500, -0.440429687500, -1.851562500000, 0.492187500000, -6.890625000000, 1492760035
-0.267089843750, -0.958007812500, -0.440429687500, -1.851562500000, 0.492187500000, -6.890625000000, 1492760035
-0.267089843750, -0.958007812500, -0.440429687500, -1.851562500000, 0.492187500000, -6.890625000000, 1492760035
-0.180664062500, -0.961425781250, -0.441162109375, -3.078125000000, 0.828125000000, -6.125000000000, 1492760035
-0.180664062500, -0.961425781250, -0.441162109375, -3.078125000000, 0.828125000000, -6.125000000000, 1492760035
-0.180664062500, -0.961425781250, -0.441162109375, -3.078125000000, 0.828125000000, -6.125000000000, 1492760035
-0.234863281250, -0.807861328125, -0.309814453125, -5.210937500000, 2.406250000000, -3.546875000000, 1492760035
-0.234863281250, -0.807861328125, -0.309814453125, -5.210937500000, 2.406250000000, -3.546875000000, 1492760035
-0.234863281250, -0.807861328125, -0.309814453125, -5.210937500000, 2.406250000000, -3.546875000000, 1492760035
-0.150878906250, -0.950439453125, -0.389404296875, -3.945312500000, -0.976562500000, -6.296875000000, 1492760035
-0.150878906250, -0.950439453125, -0.389404296875, -3.945312500000, -0.976562500000, -6.296875000000, 1492760035
-0.150878906250, -0.950439453125, -0.389404296875, -3.945312500000, -0.976562500000, -6.296875000000, 1492760035
-0.177246093750, -0.784667968750, -0.351318359375, -4.664062500000, -0.671875000000, -5.687500000000, 1492760035
-0.177246093750, -0.784667968750, -0.351318359375, -4.664062500000, -0.671875000000, -5.687500000000, 1492760035
-0.177246093750, -0.784667968750, -0.351318359375, -4.664062500000, -0.671875000000, -5.687500000000, 1492760035
-0.177246093750, -0.784667968750, -0.351318359375, -4.664062500000, -0.671875000000, -5.687500000000, 1492760035
-0.168701171875, -0.880859375000, -0.395263671875, -6.367187500000, -2.210937500000, -8.906250000000, 1492760035
-0.168701171875, -0.880859375000, -0.395263671875, -6.367187500000, -2.210937500000, -8.906250000000, 1492760035
-0.168701171875, -0.880859375000, -0.395263671875, -6.367187500000, -2.210937500000, -8.906250000000, 1492760035
-0.250244140625, -0.860595703125, -0.438964843750, -4.335937500000, -0.085937500000, -1.351562500000, 1492760035
-0.250244140625, -0.860595703125, -0.438964843750, -4.335937500000, -0.085937500000, -1.351562500000, 1492760035
-0.250244140625, -0.860595703125, -0.438964843750, -4.335937500000, -0.085937500000, -1.351562500000, 1492760035
-0.182128906250, -0.853759765625, -0.299804687500, -4.078125000000, -0.687500000000, -8.179687500000, 1492760035
-0.182128906250, -0.853759765625, -0.299804687500, -4.078125000000, -0.687500000000, -8.179687500000, 1492760035
-0.182128906250, -0.853759765625, -0.299804687500, -4.078125000000, -0.687500000000, -8.179687500000, 1492760035
