ACC_X,ACC_Y,ACC_Z,G_X,G_Y,G_Z,Unix Time
0.128173828125, -0.847167968750, 0.569824218750, -22.093750000000, 16.765625000000, 9.367187500000, 1492759466
0.128173828125, -0.847167968750, 0.569824218750, -22.093750000000, 16.765625000000, 9.367187500000, 1492759466
0.128173828125, -0.847167968750, 0.569824218750, -22.093750000000, 16.765625000000, 9.367187500000, 1492759466
0.142822265625, -0.829589843750, 0.586669921875, -8.039062500000, 11.968750000000, 14.648437500000, 1492759466
0.142822265625, -0.829589843750, 0.586669921875, -8.039062500000, 11.968750000000, 14.648437500000, 1492759466
0.142822265625, -0.829589843750, 0.586669921875, -8.039062500000, 11.968750000000, 14.648437500000, 1492759466
0.142822265625, -0.829589843750, 0.586669921875, -8.039062500000, 11.968750000000, 14.648437500000, 1492759466
0.092285156250, -0.842773437500, 0.586669921875, -14.109375000000, 11.601562500000, 12.664062500000, 1492759466
0.092285156250, -0.842773437500, 0.586669921875, -14.109375000000, 11.601562500000, 12.664062500000, 1492759466
0.092285156250, -0.842773437500, 0.586669921875, -14.109375000000, 11.601562500000, 12.664062500000, 1492759466
-0.010986328125, -0.805175781250, 0.589355468750, -27.101562500000, 15.828125000000, 5.320312500000, 1492759466
-0.010986328125, -0.805175781250, 0.589355468750, -27.101562500000, 15.828125000000, 5.320312500000, 1492759466
-0.010986328125, -0.805175781250, 0.589355468750, -27.101562500000, 15.828125000000, 5.320312500000, 1492759466
0.107421875000, -0.842041015625, 0.541503906250, -18.007812500000, 16.015625000000, -2.171875000000, 1492759466
0.107421875000, -0.842041015625, 0.541503906250, -18.007812500000, 16.015625000000, -2.171875000000, 1492759466
0.107421875000, -0.842041015625, 0.541503906250, -18.007812500000, 16.015625000000, -2.171875000000, 1492759466
0.109619140625, -0.778564453125, 0.597167968750, -4.546875000000, 6.117187500000, -1.945312500000, 1492759466
0.109619140625, -0.778564453125, 0.597167968750, -4.546875000000, 6.117187500000, -1.945312500000, 1492759466
0.091308593750, -0.826660156250, 0.695800781250, -20.234375000000, 9.351562500000, -1.617187500000, 1492759466
0.091308593750, -0.826660156250, 0.695800781250, -20.234375000000, 9.351562500000, -1.617187500000, 1492759466
0.051757812500, -0.829833984375, 0.484375000000, -11.367187500000, 5.976562500000, -8.851562500000, 1492759466
0.051757812500, -0.829833984375, 0.484375000000, -11.367187500000, 5.976562500000, -8.851562500000, 1492759466
0.051757812500, -0.829833984375, 0.484375000000, -11.367187500000, 5.976562500000, -8.851562500000, 1492759466
0.051757812500, -0.829833984375, 0.484375000000, -11.367187500000, 5.976562500000, -8.851562500000, 1492759466
0.113037109375, -0.804443359375, 0.627197265625, 3.460937500000, 1.390625000000, -3.960937500000, 1492759466
0.113037109375, -0.804443359375, 0.627197265625, 3.460937500000, 1.390625000000, -3.960937500000, 1492759466
0.113037109375, -0.804443359375, 0.627197265625, 3.460937500000, 1.390625000000, -3.960937500000, 1492759466
0.113037109375, -0.804443359375, 0.627197265625, 3.460937500000, 1.390625000000, -3.960937500000, 1492759466
0.113037109375, -0.804443359375, 0.627197265625, 3.460937500000, 1.390625000000, -3.960937500000, 1492759466
0.055419921875, -0.730957031250, 0.607177734375, -14.093750000000, 3.531250000000, -6.210937500000, 1492759466
0.055419921875, -0.730957031250, 0.607177734375, -14.093750000000, 3.531250000000, -6.210937500000, 1492759466
0.055419921875, -0.730957031250, 0.607177734375, -14.093750000000, 3.531250000000, -6.210937500000, 1492759466
0.055419921875, -0.730957031250, 0.607177734375, -14.093750000000, 3.531250000000, -6.210937500000, 1492759466
0.120361328125, -0.666748046875, 0.557617187500, -7.382812500000, 4.609375000000, -4.257812500000, 1492759466
0.120361328125, -0.666748046875, 0.557617187500, -7.382812500000, 4.609375000000, -4.257812500000, 1492759466
0.120361328125, -0.666748046875, 0.557617187500, -7.382812500000, 4.609375000000, -4.257812500000, 1492759466
0.108642578125, -0.823730468750, 0.495117187500, -6.398437500000, 0.742187500000, -1.835937500000, 1492759466
0.108642578125, -0.823730468750, 0.495117187500, -6.398437500000, 0.742187500000, -1.835937500000, 1492759466
0.108642578125, -0.823730468750, 0.495117187500, -6.398437500000, 0.742187500000, -1.835937500000, 1492759466
0.134765625000, -0.728515625000, 0.609130859375, -6.648437500000, -0.781250000000, -1.445312500000, 1492759466
0.139160156250, -0.818115234375, 0.587890625000, -1.929687500000, -3.273437500000, 0.367187500000, 1492759466
0.139160156250, -0.818115234375, 0.587890625000, -1.929687500000, -3.273437500000, 0.367187500000, 1492759466
0.139160156250, -0.818115234375, 0.587890625000, -1.929687500000, -3.273437500000, 0.367187500000, 1492759466
0.139160156250, -0.818115234375, 0.587890625000, -1.929687500000, -3.273437500000, 0.367187500000, 1492759466
0.139160156250, -0.818115234375, 0.587890625000, -1.929687500000, -3.273437500000, 0.367187500000, 1492759466
0.139160156250, -0.818115234375, 0.587890625000, -1.929687500000, -3.273437500000, 0.367187500000, 1492759466
0.097167968750, -0.670898437500, 0.549072265625, 4.343750000000, -5.203125000000, -1.156250000000, 1492759466
0.097167968750, -0.670898437500, 0.549072265625, 4.343750000000, -5.203125000000, -1.156250000000, 1492759466
0.097167968750, -0.670898437500, 0.549072265625, 4.343750000000, -5.203125000000, -1.156250000000, 1492759466
0.136962890625, -0.826904296875, 0.542480468750, 6.375000000000, -7.234375000000, -1.101562500000, 1492759466
0.136962890625, -0.826904296875, 0.542480468750, 6.375000000000, -7.234375000000, -1.101562500000, 1492759466
0.136962890625, -0.826904296875, 0.542480468750, 6.375000000000, -7.234375000000, -1.101562500000, 1492759466
0.061279296875, -0.729003906250, 0.546142578125, -0.625000000000, -7.031250000000, -1.343750000000, 1492759466
0.042724609375, -0.682373046875, 0.533203125000, -0.906250000000, -1.531250000000, -3.187500000000, 1492759466
0.042724609375, -0.682373046875, 0.533203125000, -0.906250000000, -1.531250000000, -3.187500000000, 1492759466
0.042724609375, -0.682373046875, 0.533203125000, -0.906250000000, -1.531250000000, -3.187500000000, 1492759466
0.042724609375, -0.682373046875, 0.533203125000, -0.906250000000, -1.531250000000, -3.187500000000, 1492759466
0.042724609375, -0.682373046875, 0.533203125000, -0.906250000000, -1.531250000000, -3.187500000000, 1492759466
0.042724609375, -0.682373046875, 0.533203125000, -0.906250000000, -1.531250000000, -3.187500000000, 1492759466
0.054443359375, -0.785644531250, 0.537353515625, 0.281250000000, -0.007812500000, -2.742187500000, 1492759466
0.054443359375, -0.785644531250, 0.537353515625, 0.281250000000, -0.007812500000, -2.742187500000, 1492759466
0.054443359375, -0.785644531250, 0.537353515625, 0.281250000000, -0.007812500000, -2.742187500000, 1492759466
0.127197265625, -0.749267578125, 0.552246093750, -0.984375000000, 1.968750000000, -2.570312500000, 1492759466
0.127197265625, -0.749267578125, 0.552246093750, -0.984375000000, 1.968750000000, -2.570312500000, 1492759466
0.127197265625, -0.749267578125, 0.552246093750, -0.984375000000, 1.968750000000, -2.570312500000, 1492759466
0.134033203125, -0.742431640625, 0.575195312500, -2.156250000000, 2.101562500000, -2.500000000000, 1492759467
0.134033203125, -0.742431640625, 0.575195312500, -2.156250000000, 2.101562500000, -2.500000000000, 1492759467
0.134033203125, -0.742431640625, 0.575195312500, -2.156250000000, 2.101562500000, -2.500000000000, 1492759467
0.125488281250, -0.789062500000, 0.538574218750, -3.500000000000, -0.742187500000, -1.851562500000, 1492759467
0.125488281250, -0.789062500000, 0.538574218750, -3.500000000000, -0.742187500000, -1.851562500000, 1492759467
0.125488281250, -0.789062500000, 0.538574218750, -3.500000000000, -0.742187500000, -1.851562500000, 1492759467
0.125488281250, -0.789062500000, 0.538574218750, -3.500000000000, -0.742187500000, -1.851562500000, 1492759467
0.060058593750, -0.673828125000, 0.537841796875, -3.265625000000, 0.851562500000, 0.953125000000, 1492759467
0.060058593750, -0.673828125000, 0.537841796875, -3.265625000000, 0.851562500000, 0.953125000000, 1492759467
0.060058593750, -0.673828125000, 0.537841796875, -3.265625000000, 0.851562500000, 0.953125000000, 1492759467
0.129394531250, -0.744873046875, 0.476562500000, -6.023437500000, 1.179687500000, -4.671875000000, 1492759467
0.129394531250, -0.744873046875, 0.476562500000, -6.023437500000, 1.179687500000, -4.671875000000, 1492759467
0.129394531250, -0.744873046875, 0.476562500000, -6.023437500000, 1.179687500000, -4.671875000000, 1492759467
0.137939453125, -0.838134765625, 0.538574218750, -6.046875000000, 1.125000000000, -4.953125000000, 1492759467
0.137939453125, -0.838134765625, 0.538574218750, -6.046875000000, 1.125000000000, -4.953125000000, 1492759467
0.137939453125, -0.838134765625, 0.538574218750, -6.046875000000, 1.125000000000, -4.953125000000, 1492759467
0.055908203125, -0.789794921875, 0.655517578125, -0.382812500000, 1.773437500000, -3.656250000000, 1492759467
0.055908203125, -0.789794921875, 0.655517578125, -0.382812500000, 1.773437500000, -3.656250000000, 1492759467
0.055908203125, -0.789794921875, 0.655517578125, 0.109375000000, 5.093750000000, -4.421875000000, 1492759467
0.059570312500, -0.791748046875, 0.556396484375, -6.312500000000, 1.851562500000, -8.156250000000, 1492759467
0.059570312500, -0.791748046875, 0.556396484375, -6.312500000000, 1.851562500000, -8.156250000000, 1492759467
0.059570312500, -0.791748046875, 0.556396484375, -6.312500000000, 1.851562500000, -8.156250000000, 1492759467
0.059570312500, -0.791748046875, 0.556396484375, -6.312500000000, 1.851562500000, -8.156250000000, 1492759467
0.100097656250, -0.843261718750, 0.498779296875, -2.343750000000, 0.992187500000, -6.148437500000, 1492759467
0.100097656250, -0.843261718750, 0.498779296875, -2.343750000000, 0.992187500000, -6.148437500000, 1492759467
0.100097656250, -0.843261718750, 0.498779296875, -2.343750000000, 0.992187500000, -6.148437500000, 1492759467
0.103515625000, -0.826171875000, 0.570556640625, -1.015625000000, -0.429687500000, -4.554687500000, 1492759467
0.103515625000, -0.826171875000, 0.570556640625, -1.015625000000, -0.429687500000, -4.554687500000, 1492759467
0.103515625000, -0.826171875000, 0.570556640625, -1.015625000000, -0.429687500000, -4.554687500000, 1492759467
0.114990234375, -0.786621093750, 0.635986328125, -6.265625000000, 2.859375000000, -4.867187500000, 1492759467
0.114990234375, -0.786621093750, 0.635986328125, -6.265625000000, 2.859375000000, -4.867187500000, 1492759467
0.114990234375, -0.786621093750, 0.635986328125, -6.265625000000, 2.859375000000, -4.867187500000, 1492759467
0.114990234375, -0.786621093750, 0.635986328125, -6.265625000000, 2.859375000000, -4.867187500000, 1492759467
0.134765625000, -0.791503906250, 0.587158203125, -1.648437500000, 1.179687500000, -4.023437500000, 1492759467
0.134765625000, -0.791503906250, 0.587158203125, -1.648437500000, 1.179687500000, -4.023437500000, 1492759467
0.134765625000, -0.791503906250, 0.587158203125, -1.648437500000, 1.179687500000, -4.023437500000, 1492759467
0.197021484375, -0.844482421875, 0.498291015625, -2.398437500000, -0.382812500000, -4.734375000000, 1492759467
0.197021484375, -0.844482421875, 0.498291015625, -2.398437500000, -0.382812500000, -4.734375000000, 1492759467
0.197021484375, -0.844482421875, 0.498291015625, -2.398437500000, -0.382812500000, -4.734375000000, 1492759467
0.045410156250, -0.740478515625, 0.560302734375, -1.789062500000, 1.304687500000, -1.828125000000, 1492759467
0.045410156250, -0.740478515625, 0.560302734375, -1.789062500000, 1.304687500000, -1.828125000000, 1492759467
0.045410156250, -0.740478515625, 0.560302734375, -1.789062500000, 1.304687500000, -1.828125000000, 1492759467
0.141357421875, -0.850585937500, 0.544677734375, -4.664062500000, 2.953125000000, -4.382812500000, 1492759467
0.141357421875, -0.850585937500, 0.544677734375, -4.664062500000, 2.953125000000, -4.382812500000, 1492759467
0.141357421875, -0.850585937500, 0.544677734375, -4.664062500000, 2.953125000000, -4.382812500000, 1492759467
0.141357421875, -0.850585937500, 0.544677734375, -4.664062500000, 2.953125000000, -4.382812500000, 1492759467
0.034912109375, -0.839843750000, 0.571044921875, -3.273437500000, -1.210937500000, -1.585937500000, 1492759467
0.034912109375, -0.839843750000, 0.571044921875, -3.273437500000, -1.210937500000, -1.585937500000, 1492759467
0.034912109375, -0.839843750000, 0.571044921875, -3.273437500000, -1.210937500000, -1.585937500000, 1492759467
0.049560546875, -0.744140625000, 0.562744140625, -6.562500000000, -1.289062500000, -2.406250000000, 1492759467
0.049560546875, -0.744140625000, 0.562744140625, -6.562500000000, -1.289062500000, -2.406250000000, 1492759467
0.049560546875, -0.744140625000, 0.562744140625, -6.562500000000, -1.289062500000, -2.406250000000, 1492759467
0.073974609375, -0.725585937500, 0.537841796875, -1.656250000000, -1.828125000000, -4.117187500000, 1492759467
0.073974609375, -0.725585937500, 0.537841796875, -1.656250000000, -1.828125000000, -4.117187500000, 1492759467
0.073974609375, -0.725585937500, 0.537841796875, -1.656250000000, -1.828125000000, -4.117187500000, 1492759467
0.045166015625, -0.799804687500, 0.553466796875, -4.648437500000, -2.218750000000, -4.023437500000, 1492759467
0.045166015625, -0.799804687500, 0.553466796875, -4.648437500000, -2.218750000000, -4.023437500000, 1492759467
0.045166015625, -0.799804687500, 0.553466796875, -4.648437500000, -2.218750000000, -4.023437500000, 1492759467
0.045166015625, -0.799804687500, 0.553466796875, -4.648437500000, -2.218750000000, -4.023437500000, 1492759467
0.040039062500, -0.792480468750, 0.577392578125, -3.078125000000, 2.421875000000, -1.484375000000, 1492759467
0.040039062500, -0.792480468750, 0.577392578125, -3.078125000000, 2.421875000000, -1.484375000000, 1492759467
0.040039062500, -0.792480468750, 0.577392578125, -3.078125000000, 2.421875000000, -1.484375000000, 1492759467
0.156250000000, -0.875000000000, 0.589599609375, -1.601562500000, -0.750000000000, 0.687500000000, 1492759467
0.156250000000, -0.875000000000, 0.589599609375, -1.601562500000, -0.750000000000, 0.687500000000, 1492759467
0.156250000000, -0.875000000000, 0.589599609375, -1.601562500000, -0.750000000000, 0.687500000000, 1492759467
0.097167968750, -0.832031250000, 0.633789062500, -4.007812500000, 2.796875000000, -4.109375000000, 1492759467
0.097167968750, -0.832031250000, 0.633789062500, -4.007812500000, 2.796875000000, -4.109375000000, 1492759467
0.133300781250, -0.806396484375, 0.568603515625, -5.460937500000, -0.953125000000, -1.070312500000, 1492759468
0.133300781250, -0.806396484375, 0.568603515625, -5.460937500000, -0.953125000000, -1.070312500000, 1492759468
0.133300781250, -0.806396484375, 0.568603515625, -5.460937500000, -0.953125000000, -1.070312500000, 1492759468
0.133300781250, -0.806396484375, 0.568603515625, -5.460937500000, -0.953125000000, -1.070312500000, 1492759468
0.065673828125, -0.892333984375, 0.570312500000, -1.437500000000, 0.992187500000, -2.625000000000, 1492759468
0.130126953125, -0.893554687500, 0.563964843750, -1.437500000000, 0.992187500000, -2.625000000000, 1492759468
0.130126953125, -0.893554687500, 0.563964843750, -1.437500000000, 0.992187500000, -2.625000000000, 1492759468
0.130126953125, -0.893554687500, 0.563964843750, -1.437500000000, 0.992187500000, -2.625000000000, 1492759468
0.214355468750, -0.828857421875, 0.631591796875, -6.523437500000, 0.523437500000, -2.359375000000, 1492759468
0.214355468750, -0.828857421875, 0.631591796875, -6.523437500000, 0.523437500000, -2.359375000000, 1492759468
0.214355468750, -0.828857421875, 0.631591796875, -6.523437500000, 0.523437500000, -2.359375000000, 1492759468
0.056396484375, -0.792968750000, 0.582763671875, -6.796875000000, 1.726562500000, -4.070312500000, 1492759468
0.056396484375, -0.792968750000, 0.582763671875, -6.796875000000, 1.726562500000, -4.070312500000, 1492759468
0.056396484375, -0.792968750000, 0.582763671875, -6.796875000000, 1.726562500000, -4.070312500000, 1492759468
0.144531250000, -0.786376953125, 0.551757812500, -4.656250000000, -0.757812500000, -1.710937500000, 1492759468
0.144531250000, -0.786376953125, 0.551757812500, -4.656250000000, -0.757812500000, -1.710937500000, 1492759468
0.144531250000, -0.786376953125, 0.551757812500, -4.656250000000, -0.757812500000, -1.710937500000, 1492759468
0.144531250000, -0.786376953125, 0.551757812500, -4.656250000000, -0.757812500000, -1.710937500000, 1492759468
0.153564453125, -0.882812500000, 0.568847656250, -5.195312500000, -0.843750000000, -4.015625000000, 1492759468
0.153564453125, -0.882812500000, 0.568847656250, -5.195312500000, -0.843750000000, -4.015625000000, 1492759468
0.153564453125, -0.882812500000, 0.568847656250, -5.195312500000, -0.843750000000, -4.015625000000, 1492759468
0.054199218750, -0.846923828125, 0.569824218750, -4.671875000000, 2.148437500000, -2.554687500000, 1492759468
0.054199218750, -0.846923828125, 0.569824218750, -4.671875000000, 2.148437500000, -2.554687500000, 1492759468
0.054199218750, -0.846923828125, 0.569824218750, -4.671875000000, 2.148437500000, -2.554687500000, 1492759468
0.077636718750, -0.794433593750, 0.568115234375, -6.421875000000, 2.765625000000, -2.734375000000, 1492759468
0.077636718750, -0.794433593750, 0.568115234375, -6.421875000000, 2.765625000000, -2.734375000000, 1492759468
0.077636718750, -0.794433593750, 0.568115234375, -6.421875000000, 2.765625000000, -2.734375000000, 1492759468
0.147705078125, -0.747070312500, 0.551025390625, -3.992187500000, 2.593750000000, -1.835937500000, 1492759468
0.147705078125, -0.747070312500, 0.551025390625, -3.992187500000, 2.593750000000, -1.835937500000, 1492759468
0.147705078125, -0.747070312500, 0.551025390625, -3.992187500000, 2.593750000000, -1.835937500000, 1492759468
0.147705078125, -0.747070312500, 0.551025390625, -3.992187500000, 2.593750000000, -1.835937500000, 1492759468
0.104003906250, -0.802978515625, 0.542480468750, -1.625000000000, 0.312500000000, -4.343750000000, 1492759468
0.104003906250, -0.802978515625, 0.542480468750, -1.625000000000, 0.312500000000, -4.343750000000, 1492759468
0.104003906250, -0.802978515625, 0.542480468750, -1.625000000000, 0.312500000000, -4.343750000000, 1492759468
0.093994140625, -0.905517578125, 0.542236328125, -6.484375000000, -0.851562500000, -6.585937500000, 1492759468
0.093994140625, -0.905517578125, 0.542236328125, -6.484375000000, -0.851562500000, -6.585937500000, 1492759468
0.093994140625, -0.905517578125, 0.542236328125, -6.484375000000, -0.851562500000, -6.585937500000, 1492759468
0.075683593750, -0.750488281250, 0.568603515625, -6.046875000000, -2.523437500000, -6.062500000000, 1492759468
0.075683593750, -0.750488281250, 0.568603515625, -6.046875000000, -2.523437500000, -6.062500000000, 1492759468
0.075683593750, -0.750488281250, 0.568603515625, -6.046875000000, -2.523437500000, -6.062500000000, 1492759468
0.149902343750, -0.884277343750, 0.578613281250, -4.179687500000, -2.804687500000, -4.796875000000, 1492759468
0.149902343750, -0.884277343750, 0.578613281250, -4.179687500000, -2.804687500000, -4.796875000000, 1492759468
0.149902343750, -0.884277343750, 0.578613281250, -4.179687500000, -2.804687500000, -4.796875000000, 1492759468
0.149902343750, -0.884277343750, 0.578613281250, -4.179687500000, -2.804687500000, -4.796875000000, 1492759468
0.095947265625, -0.839111328125, 0.495361328125, -6.156250000000, 0.250000000000, -4.500000000000, 1492759468
0.095947265625, -0.839111328125, 0.495361328125, -6.156250000000, 0.250000000000, -4.500000000000, 1492759468
0.095947265625, -0.839111328125, 0.495361328125, -6.156250000000, 0.250000000000, -4.500000000000, 1492759468
0.045166015625, -0.806640625000, 0.631347656250, -3.601562500000, -0.851562500000, -3.796875000000, 1492759468
0.045166015625, -0.806640625000, 0.631347656250, -3.601562500000, -0.851562500000, -3.796875000000, 1492759468
0.045166015625, -0.806640625000, 0.631347656250, -3.601562500000, -0.851562500000, -3.796875000000, 1492759468
0.086181640625, -0.900634765625, 0.581542968750, -1.351562500000, 0.898437500000, -4.359375000000, 1492759468
0.187988281250, -0.797363281250, 0.426757812500, -1.937500000000, -3.015625000000, -2.898437500000, 1492759468
0.187988281250, -0.797363281250, 0.426757812500, -1.937500000000, -3.015625000000, -2.898437500000, 1492759468
0.187988281250, -0.797363281250, 0.426757812500, -1.937500000000, -3.015625000000, -2.898437500000, 1492759468
0.187988281250, -0.797363281250, 0.426757812500, -1.937500000000, -3.015625000000, -2.898437500000, 1492759468
0.187988281250, -0.797363281250, 0.426757812500, -1.937500000000, -3.015625000000, -2.898437500000, 1492759468
0.187988281250, -0.797363281250, 0.426757812500, -1.937500000000, -3.015625000000, -2.898437500000, 1492759468
0.090820312500, -0.890869140625, 0.432617187500, 0.148437500000, -1.929687500000, -3.460937500000, 1492759468
0.090820312500, -0.890869140625, 0.432617187500, 0.148437500000, -1.929687500000, -3.460937500000, 1492759468
0.090820312500, -0.890869140625, 0.432617187500, 0.148437500000, -1.929687500000, -3.460937500000, 1492759468
0.169189453125, -0.828369140625, 0.565185546875, -1.523437500000, -2.382812500000, -3.187500000000, 1492759468
0.169189453125, -0.828369140625, 0.565185546875, -1.523437500000, -2.382812500000, -3.187500000000, 1492759468
0.169189453125, -0.828369140625, 0.565185546875, -1.523437500000, -2.382812500000, -3.187500000000, 1492759468
0.043701171875, -0.777343750000, 0.571289062500, -0.617187500000, 0.437500000000, -6.351562500000, 1492759469
0.055175781250, -0.878173828125, 0.529785156250, -2.156250000000, 0.750000000000, -1.148437500000, 1492759469
0.055175781250, -0.878173828125, 0.529785156250, -2.156250000000, 0.750000000000, -1.148437500000, 1492759469
0.055175781250, -0.878173828125, 0.529785156250, -2.156250000000, 0.750000000000, -1.148437500000, 1492759469
0.149902343750, -0.841064453125, 0.520507812500, -4.125000000000, -0.250000000000, -2.187500000000, 1492759469
0.149902343750, -0.841064453125, 0.520507812500, -4.125000000000, -0.250000000000, -2.187500000000, 1492759469
0.149902343750, -0.841064453125, 0.520507812500, -4.125000000000, -0.250000000000, -2.187500000000, 1492759469
0.149902343750, -0.841064453125, 0.520507812500, -4.125000000000, -0.250000000000, -2.187500000000, 1492759469
0.149902343750, -0.841064453125, 0.520507812500, -4.125000000000, -0.250000000000, -2.187500000000, 1492759469
0.149902343750, -0.841064453125, 0.520507812500, -4.125000000000, -0.250000000000, -2.187500000000, 1492759469
0.120117187500, -0.831054687500, 0.473144531250, -4.382812500000, 1.023437500000, -4.062500000000, 1492759469
0.120117187500, -0.831054687500, 0.473144531250, -4.382812500000, 1.023437500000, -4.062500000000, 1492759469
0.120117187500, -0.831054687500, 0.473144531250, -4.382812500000, 1.023437500000, -4.062500000000, 1492759469
0.099365234375, -0.806396484375, 0.471923828125, -4.031250000000, 4.406250000000, -1.929687500000, 1492759469
0.099365234375, -0.806396484375, 0.471923828125, -4.031250000000, 4.406250000000, -1.929687500000, 1492759469
0.099365234375, -0.806396484375, 0.471923828125, -4.031250000000, 4.406250000000, -1.929687500000, 1492759469
0.170898437500, -0.796630859375, 0.527587890625, 4.039062500000, 4.445312500000, -4.695312500000, 1492759469
0.170898437500, -0.796630859375, 0.527587890625, 4.039062500000, 4.445312500000, -4.695312500000, 1492759469
0.170898437500, -0.796630859375, 0.527587890625, 4.039062500000, 4.445312500000, -4.695312500000, 1492759469
0.170898437500, -0.796630859375, 0.527587890625, 4.039062500000, 4.445312500000, -4.695312500000, 1492759469
0.149414062500, -0.859619140625, 0.430175781250, -7.000000000000, 9.304687500000, -1.703125000000, 1492759469
0.149414062500, -0.859619140625, 0.430175781250, -7.000000000000, 9.304687500000, -1.703125000000, 1492759469
0.149414062500, -0.859619140625, 0.430175781250, -7.000000000000, 9.304687500000, -1.703125000000, 1492759469
0.253417968750, -0.958007812500, 0.452148437500, 8.250000000000, 13.218750000000, -1.515625000000, 1492759469
0.253417968750, -0.958007812500, 0.452148437500, 8.250000000000, 13.218750000000, -1.515625000000, 1492759469
0.253417968750, -0.958007812500, 0.452148437500, 8.250000000000, 13.218750000000, -1.515625000000, 1492759469
0.135009765625, -0.867919921875, 0.466308593750, 13.335937500000, 5.210937500000, -4.289062500000, 1492759469
0.204101562500, -0.875976562500, 0.368164062500, -10.804687500000, 20.992187500000, -2.359375000000, 1492759469
0.196533203125, -0.916992187500, 0.370605468750, -6.109375000000, 19.453125000000, -8.468750000000, 1492759469
0.196533203125, -0.916992187500, 0.370605468750, -6.109375000000, 19.453125000000, -8.468750000000, 1492759469
0.196533203125, -0.916992187500, 0.370605468750, -6.109375000000, 19.453125000000, -8.468750000000, 1492759469
0.196533203125, -0.916992187500, 0.370605468750, -6.109375000000, 19.453125000000, -8.468750000000, 1492759469
0.124755859375, -0.854736328125, 0.415771484375, -12.882812500000, 17.625000000000, -7.687500000000, 1492759469
0.124755859375, -0.854736328125, 0.415771484375, -12.882812500000, 17.625000000000, -7.687500000000, 1492759469
0.124755859375, -0.854736328125, 0.415771484375, -12.882812500000, 17.625000000000, -7.687500000000, 1492759469
0.124755859375, -0.854736328125, 0.415771484375, -12.882812500000, 17.625000000000, -7.687500000000, 1492759469
0.124755859375, -0.854736328125, 0.415771484375, -12.882812500000, 17.625000000000, -7.687500000000, 1492759469
0.124755859375, -0.854736328125, 0.415771484375, -12.882812500000, 17.625000000000, -7.687500000000, 1492759469
0.117431640625, -0.961914062500, 0.475097656250, -11.773437500000, 21.695312500000, -7.054687500000, 1492759469
0.126220703125, -0.795654296875, 0.450195312500, -11.773437500000, 21.695312500000, -7.054687500000, 1492759469
0.126220703125, -0.795654296875, 0.450195312500, -11.773437500000, 21.695312500000, -7.054687500000, 1492759469
0.126220703125, -0.795654296875, 0.450195312500, -11.773437500000, 21.695312500000, -7.054687500000, 1492759469
0.120849609375, -0.934570312500, 0.435791015625, -7.718750000000, 25.585937500000, -14.281250000000, 1492759469
0.120849609375, -0.934570312500, 0.435791015625, -7.718750000000, 25.585937500000, -14.281250000000, 1492759469
0.120849609375, -0.934570312500, 0.435791015625, -7.718750000000, 25.585937500000, -14.281250000000, 1492759469
0.120849609375, -0.934570312500, 0.435791015625, -7.718750000000, 25.585937500000, -14.281250000000, 1492759469
-0.000488281250, -0.736328125000, 0.386962890625, -16.945312500000, 35.335937500000, -11.414062500000, 1492759469
-0.000488281250, -0.736328125000, 0.386962890625, -16.945312500000, 35.335937500000, -11.414062500000, 1492759469
-0.000488281250, -0.736328125000, 0.386962890625, -16.945312500000, 35.335937500000, -11.414062500000, 1492759469
0.051025390625, -0.875732421875, 0.378662109375, -11.640625000000, 38.921875000000, -11.421875000000, 1492759469
0.051025390625, -0.875732421875, 0.378662109375, -11.640625000000, 38.921875000000, -11.421875000000, 1492759469
0.051025390625, -0.875732421875, 0.378662109375, -11.640625000000, 38.921875000000, -11.421875000000, 1492759469
0.103271484375, -0.885986328125, 0.392822265625, -14.195312500000, 42.703125000000, -10.757812500000, 1492759469
0.103271484375, -0.885986328125, 0.392822265625, -14.195312500000, 42.703125000000, -10.757812500000, 1492759469
0.103271484375, -0.885986328125, 0.392822265625, -14.195312500000, 42.703125000000, -10.757812500000, 1492759469
0.062500000000, -0.742187500000, 0.331054687500, -7.015625000000, 52.179687500000, -9.132812500000, 1492759469
0.062500000000, -0.742187500000, 0.331054687500, -7.015625000000, 52.179687500000, -9.132812500000, 1492759469
0.062500000000, -0.742187500000, 0.331054687500, -7.015625000000, 52.179687500000, -9.132812500000, 1492759469
0.062500000000, -0.742187500000, 0.331054687500, -7.015625000000, 52.179687500000, -9.132812500000, 1492759469
0.088378906250, -0.722656250000, 0.283447265625, -12.460937500000, 61.476562500000, -12.257812500000, 1492759469
0.088378906250, -0.722656250000, 0.283447265625, -12.460937500000, 61.476562500000, -12.257812500000, 1492759469
0.088378906250, -0.722656250000, 0.283447265625, -12.460937500000, 61.476562500000, -12.257812500000, 1492759469
0.195312500000, -0.756347656250, 0.232666015625, -1.351562500000, 60.390625000000, -9.593750000000, 1492759469
0.195312500000, -0.756347656250, 0.232666015625, -1.351562500000, 60.390625000000, -9.593750000000, 1492759469
0.195312500000, -0.756347656250, 0.232666015625, -1.351562500000, 60.390625000000, -9.593750000000, 1492759469
0.152587890625, -0.633300781250, 0.156494140625, 4.468750000000, 60.929687500000, -11.281250000000, 1492759469
0.152587890625, -0.633300781250, 0.156494140625, 4.468750000000, 60.929687500000, -11.281250000000, 1492759469
0.152587890625, -0.633300781250, 0.156494140625, 4.468750000000, 60.929687500000, -11.281250000000, 1492759469
0.088134765625, -0.394042968750, 0.214111328125, 24.750000000000, 47.585937500000, -19.992187500000, 1492759469
0.088134765625, -0.394042968750, 0.214111328125, 24.750000000000, 47.585937500000, -19.992187500000, 1492759469
0.088134765625, -0.394042968750, 0.214111328125, 24.750000000000, 47.585937500000, -19.992187500000, 1492759469
0.088134765625, -0.394042968750, 0.214111328125, 24.750000000000, 47.585937500000, -19.992187500000, 1492759470
0.034667968750, -0.049316406250, 0.139404296875, 45.789062500000, 24.992187500000, -33.460937500000, 1492759470
0.034667968750, -0.049316406250, 0.139404296875, 45.789062500000, 24.992187500000, -33.460937500000, 1492759470
0.034667968750, -0.049316406250, 0.139404296875, 45.789062500000, 24.992187500000, -33.460937500000, 1492759470
0.020019531250, -0.089843750000, 0.308593750000, 44.296875000000, -13.523437500000, -52.382812500000, 1492759470
0.020019531250, -0.089843750000, 0.308593750000, 44.296875000000, -13.523437500000, -52.382812500000, 1492759470
0.020019531250, -0.089843750000, 0.308593750000, 44.296875000000, -13.523437500000, -52.382812500000, 1492759470
-0.022705078125, 0.147216796875, 0.037841796875, 24.476562500000, 58.078125000000, -16.109375000000, 1492759470
-0.022705078125, 0.147216796875, 0.037841796875, 24.476562500000, 58.078125000000, -16.109375000000, 1492759470
-0.022705078125, 0.147216796875, 0.037841796875, 24.476562500000, 58.078125000000, -16.109375000000, 1492759470
0.072021484375, 0.057373046875, 0.071289062500, 25.421875000000, 111.578125000000, -15.203125000000, 1492759470
0.072021484375, 0.057373046875, 0.071289062500, 25.421875000000, 111.578125000000, -15.203125000000, 1492759470
0.072021484375, 0.057373046875, 0.071289062500, 25.421875000000, 111.578125000000, -15.203125000000, 1492759470
0.072021484375, 0.057373046875, 0.071289062500, -9.640625000000, 41.937500000000, -69.875000000000, 1492759470
-0.260986328125, -0.073974609375, -0.257324218750, -251.023437500000, -190.742187500000, 1.125000000000, 1492759470
-0.260986328125, -0.073974609375, -0.257324218750, -251.023437500000, -190.742187500000, 1.125000000000, 1492759470
-0.716064453125, -2.847656250000, -0.143066406250, 121.554687500000, 37.640625000000, -256.000000000000, 1492759470
-1.416992187500, -4.199218750000, 6.762207031250, 121.554687500000, 37.640625000000, -256.000000000000, 1492759470
-1.416992187500, -4.199218750000, 6.762207031250, 121.554687500000, 37.640625000000, -256.000000000000, 1492759470
-1.416992187500, -4.199218750000, 6.762207031250, 121.554687500000, 37.640625000000, -256.000000000000, 1492759470
-1.031982421875, -3.367431640625, 1.729248046875, -256.000000000000, -143.648437500000, -256.000000000000, 1492759470
-1.031982421875, -3.367431640625, 1.729248046875, -256.000000000000, -143.648437500000, -256.000000000000, 1492759470
-1.031982421875, -3.367431640625, 1.729248046875, -256.000000000000, -143.648437500000, -256.000000000000, 1492759470
-0.500488281250, -0.313232421875, -0.037597656250, -238.203125000000, -19.015625000000, -11.914062500000, 1492759470
-0.500488281250, -0.313232421875, -0.037597656250, -238.203125000000, -19.015625000000, -11.914062500000, 1492759470
-0.500488281250, -0.313232421875, -0.037597656250, -238.203125000000, -19.015625000000, -11.914062500000, 1492759470
-0.500488281250, -0.313232421875, -0.037597656250, -238.203125000000, -19.015625000000, -11.914062500000, 1492759470
-0.325927734375, 0.241455078125, 0.389160156250, 85.117187500000, -256.000000000000, -164.812500000000, 1492759470
-0.325927734375, 0.241455078125, 0.389160156250, 85.117187500000, -256.000000000000, -164.812500000000, 1492759470
-0.325927734375, 0.241455078125, 0.389160156250, 85.117187500000, -256.000000000000, -164.812500000000, 1492759470
-0.004394531250, 0.440185546875, 0.583740234375, -34.476562500000, 253.992187500000, 183.148437500000, 1492759470
-0.004394531250, 0.440185546875, 0.583740234375, -34.476562500000, 253.992187500000, 183.148437500000, 1492759470
-0.004394531250, 0.440185546875, 0.583740234375, -34.476562500000, 253.992187500000, 183.148437500000, 1492759470
-0.378173828125, 0.204101562500, 0.501953125000, -195.343750000000, -235.039062500000, 65.414062500000, 1492759470
-0.378173828125, 0.204101562500, 0.501953125000, -195.343750000000, -235.039062500000, 65.414062500000, 1492759470
-0.378173828125, 0.204101562500, 0.501953125000, -195.343750000000, -235.039062500000, 65.414062500000, 1492759470
-0.360107421875, -0.135742187500, 0.422851562500, 91.898437500000, -80.187500000000, 243.593750000000, 1492759470
-0.360107421875, -0.135742187500, 0.422851562500, 91.898437500000, -80.187500000000, 243.593750000000, 1492759470
-0.360107421875, -0.135742187500, 0.422851562500, 91.898437500000, -80.187500000000, 243.593750000000, 1492759470
-0.360107421875, -0.135742187500, 0.422851562500, 91.898437500000, -80.187500000000, 243.593750000000, 1492759470
-0.253173828125, -0.235107421875, 0.246337890625, 152.031250000000, -188.328125000000, 253.992187500000, 1492759470
-0.253173828125, -0.235107421875, 0.246337890625, 152.031250000000, -188.328125000000, 253.992187500000, 1492759470
-0.253173828125, -0.235107421875, 0.246337890625, 152.031250000000, -188.328125000000, 253.992187500000, 1492759470
-0.452148437500, -0.781250000000, 0.244384765625, 253.992187500000, -79.492187500000, 169.367187500000, 1492759470
-0.452148437500, -0.781250000000, 0.244384765625, 253.992187500000, -79.492187500000, 169.367187500000, 1492759470
-0.452148437500, -0.781250000000, 0.244384765625, 253.992187500000, -79.492187500000, 169.367187500000, 1492759470
-0.549316406250, -0.823974609375, 1.446533203125, 157.617187500000, 0.226562500000, 196.109375000000, 1492759470
-0.549316406250, -0.823974609375, 1.446533203125, 157.617187500000, 0.226562500000, 196.109375000000, 1492759470
-0.549316406250, -0.823974609375, 1.446533203125, 157.617187500000, 0.226562500000, 196.109375000000, 1492759470
-0.549316406250, -0.823974609375, 1.446533203125, 157.617187500000, 0.226562500000, 196.109375000000, 1492759470
-0.549316406250, -0.823974609375, 1.446533203125, 157.617187500000, 0.226562500000, 196.109375000000, 1492759470
-0.549316406250, -0.823974609375, 1.446533203125, 157.617187500000, 0.226562500000, 196.109375000000, 1492759470
0.077636718750, -0.739746093750, 0.229980468750, -95.937500000000, 83.492187500000, -83.398437500000, 1492759470
0.077636718750, -0.739746093750, 0.229980468750, -95.937500000000, 83.492187500000, -83.398437500000, 1492759470
0.077636718750, -0.739746093750, 0.229980468750, -95.937500000000, 83.492187500000, -83.398437500000, 1492759470
0.077636718750, -0.739746093750, 0.229980468750, -95.937500000000, 83.492187500000, -83.398437500000, 1492759470
0.166259765625, -0.638183593750, 0.224365234375, -51.343750000000, 96.054687500000, -166.046875000000, 1492759470
0.166259765625, -0.638183593750, 0.224365234375, -51.343750000000, 96.054687500000, -166.046875000000, 1492759470
0.166259765625, -0.638183593750, 0.224365234375, -51.343750000000, 96.054687500000, -166.046875000000, 1492759470
0.458251953125, -0.843505859375, 0.265380859375, 0.500000000000, -178.054687500000, 252.054687500000, 1492759470
0.458251953125, -0.843505859375, 0.265380859375, 0.500000000000, -178.054687500000, 252.054687500000, 1492759470
0.458251953125, -0.843505859375, 0.265380859375, 0.500000000000, -178.054687500000, 252.054687500000, 1492759470
0.444335937500, -0.702636718750, 0.249023437500, -58.492187500000, -229.921875000000, 26.929687500000, 1492759470
0.444335937500, -0.702636718750, 0.249023437500, -58.492187500000, -229.921875000000, 26.929687500000, 1492759470
0.444335937500, -0.702636718750, 0.249023437500, -58.492187500000, -229.921875000000, 26.929687500000, 1492759470
0.444335937500, -0.702636718750, 0.249023437500, -58.492187500000, -229.921875000000, 26.929687500000, 1492759470
0.419433593750, -0.867919921875, 0.163085937500, -57.828125000000, 73.242187500000, -7.859375000000, 1492759471
0.419433593750, -0.867919921875, 0.163085937500, -57.828125000000, 73.242187500000, -7.859375000000, 1492759471
0.419433593750, -0.867919921875, 0.163085937500, -57.828125000000, 73.242187500000, -7.859375000000, 1492759471
0.426269531250, -0.832031250000, 0.363525390625, 2.289062500000, 253.992187500000, -95.546875000000, 1492759471
0.426269531250, -0.832031250000, 0.363525390625, 2.289062500000, 253.992187500000, -95.546875000000, 1492759471
0.426269531250, -0.832031250000, 0.363525390625, 2.289062500000, 253.992187500000, -95.546875000000, 1492759471
0.093505859375, -0.829101562500, 0.360351562500, 57.539062500000, 200.429687500000, -86.531250000000, 1492759471
0.093505859375, -0.829101562500, 0.360351562500, 57.539062500000, 200.429687500000, -86.531250000000, 1492759471
0.093505859375, -0.829101562500, 0.360351562500, 57.539062500000, 200.429687500000, -86.531250000000, 1492759471
-0.080078125000, -0.956787109375, 0.429687500000, 117.265625000000, -84.695312500000, -6.859375000000, 1492759471
-0.080078125000, -0.956787109375, 0.429687500000, 117.265625000000, -84.695312500000, -6.859375000000, 1492759471
-0.080078125000, -0.956787109375, 0.429687500000, 117.265625000000, -84.695312500000, -6.859375000000, 1492759471
-0.080078125000, -0.956787109375, 0.429687500000, 117.265625000000, -84.695312500000, -6.859375000000, 1492759471
0.070312500000, -1.129394531250, 0.412597656250, 49.500000000000, -33.062500000000, 4.171875000000, 1492759471
0.070312500000, -1.129394531250, 0.412597656250, 49.500000000000, -33.062500000000, 4.171875000000, 1492759471
0.070312500000, -1.129394531250, 0.412597656250, 49.500000000000, -33.062500000000, 4.171875000000, 1492759471
0.313232421875, -1.096923828125, 0.250488281250, -14.710937500000, -51.093750000000, 35.343750000000, 1492759471
0.313232421875, -1.096923828125, 0.250488281250, -14.710937500000, -51.093750000000, 35.343750000000, 1492759471
0.313232421875, -1.096923828125, 0.250488281250, -14.710937500000, -51.093750000000, 35.343750000000, 1492759471
0.336914062500, -0.989013671875, 0.254150390625, -15.406250000000, -82.929687500000, 57.492187500000, 1492759471
0.336914062500, -0.989013671875, 0.254150390625, -15.406250000000, -82.929687500000, 57.492187500000, 1492759471
0.336914062500, -0.989013671875, 0.254150390625, -15.406250000000, -82.929687500000, 57.492187500000, 1492759471
0.337158203125, -0.833007812500, 0.207031250000, -5.187500000000, -12.382812500000, 19.218750000000, 1492759471
0.337158203125, -0.833007812500, 0.207031250000, -5.187500000000, -12.382812500000, 19.218750000000, 1492759471
0.337158203125, -0.833007812500, 0.207031250000, -5.187500000000, -12.382812500000, 19.218750000000, 1492759471
0.337158203125, -0.833007812500, 0.207031250000, -5.187500000000, -12.382812500000, 19.218750000000, 1492759471
0.380615234375, -0.904541015625, 0.172607421875, -9.679687500000, 30.265625000000, -10.687500000000, 1492759471
-0.034179687500, -0.872314453125, 0.331054687500, 18.398437500000, 42.921875000000, -24.570312500000, 1492759471
-0.034179687500, -0.872314453125, 0.331054687500, 18.398437500000, 42.921875000000, -24.570312500000, 1492759471
-0.034179687500, -0.872314453125, 0.331054687500, 18.398437500000, 42.921875000000, -24.570312500000, 1492759471
-0.034179687500, -0.872314453125, 0.331054687500, 18.398437500000, 42.921875000000, -24.570312500000, 1492759471
-0.034179687500, -0.872314453125, 0.331054687500, 18.398437500000, 42.921875000000, -24.570312500000, 1492759471
0.378173828125, -0.848632812500, 0.235107421875, 39.812500000000, -22.000000000000, 52.656250000000, 1492759471
0.378173828125, -0.848632812500, 0.235107421875, 39.812500000000, -22.000000000000, 52.656250000000, 1492759471
0.378173828125, -0.848632812500, 0.235107421875, 39.812500000000, -22.000000000000, 52.656250000000, 1492759471
0.518310546875, -1.206787109375, 0.313232421875, 9.148437500000, -27.382812500000, 58.320312500000, 1492759471
0.518310546875, -1.206787109375, 0.313232421875, 9.148437500000, -27.382812500000, 58.320312500000, 1492759471
0.518310546875, -1.206787109375, 0.313232421875, 9.148437500000, -27.382812500000, 58.320312500000, 1492759471
0.518310546875, -1.206787109375, 0.313232421875, 9.148437500000, -27.382812500000, 58.320312500000, 1492759471
0.411376953125, -0.651855468750, 0.050292968750, 19.046875000000, -15.242187500000, 39.859375000000, 1492759471
0.411376953125, -0.651855468750, 0.050292968750, 19.046875000000, -15.242187500000, 39.859375000000, 1492759471
0.411376953125, -0.651855468750, 0.050292968750, 19.046875000000, -15.242187500000, 39.859375000000, 1492759471
0.472900390625, -0.665527343750, -0.036865234375, -17.367187500000, -87.304687500000, 9.968750000000, 1492759471
0.472900390625, -0.665527343750, -0.036865234375, -17.367187500000, -87.304687500000, 9.968750000000, 1492759471
0.472900390625, -0.665527343750, -0.036865234375, -17.367187500000, -87.304687500000, 9.968750000000, 1492759471
0.666259765625, -0.946533203125, -0.080078125000, -51.125000000000, -8.140625000000, 0.625000000000, 1492759471
0.666259765625, -0.946533203125, -0.080078125000, -51.125000000000, -8.140625000000, 0.625000000000, 1492759471
0.666259765625, -0.946533203125, -0.080078125000, -51.125000000000, -8.140625000000, 0.625000000000, 1492759471
0.460449218750, -0.857666015625, 0.259765625000, -17.898437500000, 130.578125000000, -2.820312500000, 1492759471
0.460449218750, -0.857666015625, 0.259765625000, -17.898437500000, 130.578125000000, -2.820312500000, 1492759471
0.460449218750, -0.857666015625, 0.259765625000, -17.898437500000, 130.578125000000, -2.820312500000, 1492759471
0.460449218750, -0.857666015625, 0.259765625000, -17.898437500000, 130.578125000000, -2.820312500000, 1492759471
0.240234375000, -0.900146484375, 0.303955078125, -4.585937500000, 98.843750000000, -55.437500000000, 1492759471
0.240234375000, -0.900146484375, 0.303955078125, -4.585937500000, 98.843750000000, -55.437500000000, 1492759471
0.240234375000, -0.900146484375, 0.303955078125, -4.585937500000, 98.843750000000, -55.437500000000, 1492759471
0.245605468750, -0.861572265625, 0.358154296875, -19.289062500000, 74.468750000000, -64.343750000000, 1492759471
0.245605468750, -0.861572265625, 0.358154296875, -19.289062500000, 74.468750000000, -64.343750000000, 1492759471
0.245605468750, -0.861572265625, 0.358154296875, -19.289062500000, 74.468750000000, -64.343750000000, 1492759471
0.164306640625, -0.855957031250, 0.311035156250, -4.757812500000, 0.710937500000, 11.367187500000, 1492759471
0.164306640625, -0.855957031250, 0.311035156250, -4.757812500000, 0.710937500000, 11.367187500000, 1492759471
0.164306640625, -0.855957031250, 0.311035156250, -4.757812500000, 0.710937500000, 11.367187500000, 1492759471
0.295898437500, -0.823242187500, 0.261230468750, -8.507812500000, -45.460937500000, 33.390625000000, 1492759471
0.295898437500, -0.823242187500, 0.261230468750, -8.507812500000, -45.460937500000, 33.390625000000, 1492759471
0.295898437500, -0.823242187500, 0.261230468750, -8.507812500000, -45.460937500000, 33.390625000000, 1492759471
0.295898437500, -0.823242187500, 0.261230468750, -8.507812500000, -45.460937500000, 33.390625000000, 1492759471
0.350585937500, -0.902099609375, 0.169189453125, 4.937500000000, 9.335937500000, 20.335937500000, 1492759471
0.350585937500, -0.902099609375, 0.169189453125, 4.937500000000, 9.335937500000, 20.335937500000, 1492759471
0.350585937500, -0.902099609375, 0.169189453125, 4.937500000000, 9.335937500000, 20.335937500000, 1492759471
0.467041015625, -0.788818359375, 0.228759765625, 7.960937500000, 51.351562500000, -4.265625000000, 1492759472
0.467041015625, -0.788818359375, 0.228759765625, 7.960937500000, 51.351562500000, -4.265625000000, 1492759472
0.467041015625, -0.788818359375, 0.228759765625, 7.960937500000, 51.351562500000, -4.265625000000, 1492759472
0.444824218750, -0.786132812500, 0.330078125000, 7.234375000000, 33.539062500000, -6.609375000000, 1492759472
0.444824218750, -0.786132812500, 0.330078125000, 7.234375000000, 33.539062500000, -6.609375000000, 1492759472
0.444824218750, -0.786132812500, 0.330078125000, 7.234375000000, 33.539062500000, -6.609375000000, 1492759472
0.174072265625, -0.846679687500, 0.115234375000, 116.804687500000, 16.000000000000, -35.335937500000, 1492759472
0.174072265625, -0.846679687500, 0.115234375000, 116.804687500000, 16.000000000000, -35.335937500000, 1492759472
0.174072265625, -0.846679687500, 0.115234375000, 116.804687500000, 16.000000000000, -35.335937500000, 1492759472
0.272460937500, -0.890380859375, 0.125000000000, 30.609375000000, 81.515625000000, -18.429687500000, 1492759472
0.272460937500, -0.890380859375, 0.125000000000, 30.609375000000, 81.515625000000, -18.429687500000, 1492759472
0.272460937500, -0.890380859375, 0.125000000000, 30.609375000000, 81.515625000000, -18.429687500000, 1492759472
0.272460937500, -0.890380859375, 0.125000000000, 30.609375000000, 81.515625000000, -18.429687500000, 1492759472
0.333007812500, -1.018310546875, 0.233398437500, 13.210937500000, 56.710937500000, -10.125000000000, 1492759472
0.333007812500, -1.018310546875, 0.233398437500, 13.210937500000, 56.710937500000, -10.125000000000, 1492759472
0.333007812500, -1.018310546875, 0.233398437500, 13.210937500000, 56.710937500000, -10.125000000000, 1492759472
0.292236328125, -0.928466796875, 0.225585937500, -4.132812500000, -0.796875000000, -5.000000000000, 1492759472
0.292236328125, -0.928466796875, 0.225585937500, -4.132812500000, -0.796875000000, -5.000000000000, 1492759472
0.292236328125, -0.928466796875, 0.225585937500, -4.132812500000, -0.796875000000, -5.000000000000, 1492759472
0.308837890625, -0.911621093750, 0.166015625000, -9.593750000000, -14.609375000000, -2.226562500000, 1492759472
0.308837890625, -0.911621093750, 0.166015625000, -9.593750000000, -14.609375000000, -2.226562500000, 1492759472
0.308837890625, -0.911621093750, 0.166015625000, -9.593750000000, -14.609375000000, -2.226562500000, 1492759472
0.308837890625, -0.911621093750, 0.166015625000, -9.593750000000, -14.609375000000, -2.226562500000, 1492759472
0.297119140625, -0.810058593750, 0.278808593750, -8.156250000000, -8.804687500000, -12.898437500000, 1492759472
0.297119140625, -0.810058593750, 0.278808593750, -8.156250000000, -8.804687500000, -12.898437500000, 1492759472
0.297119140625, -0.810058593750, 0.278808593750, -8.156250000000, -8.804687500000, -12.898437500000, 1492759472
0.227783203125, -1.003173828125, 0.162597656250, -4.164062500000, -6.273437500000, -8.820312500000, 1492759472
0.227783203125, -1.003173828125, 0.162597656250, -4.164062500000, -6.273437500000, -8.820312500000, 1492759472
0.227783203125, -1.003173828125, 0.162597656250, -4.164062500000, -6.273437500000, -8.820312500000, 1492759472
0.403564453125, -0.926757812500, 0.251708984375, -3.500000000000, -0.312500000000, -3.445312500000, 1492759472
0.403564453125, -0.926757812500, 0.251708984375, -3.500000000000, -0.312500000000, -3.445312500000, 1492759472
0.403564453125, -0.926757812500, 0.251708984375, -3.500000000000, -0.312500000000, -3.445312500000, 1492759472
0.245361328125, -0.952636718750, 0.268798828125, -3.023437500000, 6.945312500000, -0.367187500000, 1492759472
0.245361328125, -0.952636718750, 0.268798828125, -3.023437500000, 6.945312500000, -0.367187500000, 1492759472
0.245361328125, -0.952636718750, 0.268798828125, -3.023437500000, 6.945312500000, -0.367187500000, 1492759472
0.245361328125, -0.952636718750, 0.268798828125, -3.023437500000, 6.945312500000, -0.367187500000, 1492759472
0.325927734375, -0.963378906250, 0.202636718750, -4.898437500000, -0.726562500000, -0.625000000000, 1492759472
0.325927734375, -0.963378906250, 0.202636718750, -4.898437500000, -0.726562500000, -0.625000000000, 1492759472
0.325927734375, -0.963378906250, 0.202636718750, -4.898437500000, -0.726562500000, -0.625000000000, 1492759472
0.284667968750, -0.803710937500, 0.274902343750, -6.453125000000, -1.320312500000, -4.156250000000, 1492759472
0.284667968750, -0.803710937500, 0.274902343750, -6.453125000000, -1.320312500000, -4.156250000000, 1492759472
0.284667968750, -0.803710937500, 0.274902343750, -6.453125000000, -1.320312500000, -4.156250000000, 1492759472
0.385986328125, -0.967529296875, 0.208251953125, -6.367187500000, 0.664062500000, -1.437500000000, 1492759472
0.385986328125, -0.967529296875, 0.208251953125, -6.367187500000, 0.664062500000, -1.437500000000, 1492759472
0.385986328125, -0.967529296875, 0.208251953125, -6.367187500000, 0.664062500000, -1.437500000000, 1492759472
0.382812500000, -0.860351562500, 0.185546875000, -6.570312500000, 6.773437500000, -1.343750000000, 1492759472
0.393798828125, -0.926757812500, 0.208496093750, -6.156250000000, 6.328125000000, -1.250000000000, 1492759472
0.393798828125, -0.926757812500, 0.208496093750, -6.156250000000, 6.328125000000, -1.250000000000, 1492759472
0.393798828125, -0.926757812500, 0.208496093750, -6.156250000000, 6.328125000000, -1.250000000000, 1492759472
0.243408203125, -0.927734375000, 0.164794921875, -4.914062500000, 6.890625000000, -6.335937500000, 1492759472
0.243408203125, -0.927734375000, 0.164794921875, -4.914062500000, 6.890625000000, -6.335937500000, 1492759472
0.243408203125, -0.927734375000, 0.164794921875, -4.914062500000, 6.890625000000, -6.335937500000, 1492759472
0.243408203125, -0.927734375000, 0.164794921875, -4.914062500000, 6.890625000000, -6.335937500000, 1492759472
0.295166015625, -1.009765625000, 0.194824218750, -3.203125000000, -0.046875000000, -8.242187500000, 1492759472
0.295166015625, -1.009765625000, 0.194824218750, -3.203125000000, -0.046875000000, -8.242187500000, 1492759472
0.295166015625, -1.009765625000, 0.194824218750, -3.203125000000, -0.046875000000, -8.242187500000, 1492759472
0.295166015625, -1.009765625000, 0.194824218750, -3.203125000000, -0.046875000000, -8.242187500000, 1492759472
0.295166015625, -1.009765625000, 0.194824218750, -3.203125000000, -0.046875000000, -8.242187500000, 1492759472
0.297119140625, -0.869628906250, 0.259033203125, -1.796875000000, -1.015625000000, 0.085937500000, 1492759472
0.297119140625, -0.869628906250, 0.259033203125, -1.796875000000, -1.015625000000, 0.085937500000, 1492759472
0.297119140625, -0.869628906250, 0.259033203125, -1.796875000000, -1.015625000000, 0.085937500000, 1492759472
0.297119140625, -0.869628906250, 0.259033203125, -1.796875000000, -1.015625000000, 0.085937500000, 1492759472
0.362060546875, -0.965332031250, 0.169433593750, -4.398437500000, -1.015625000000, 0.546875000000, 1492759472
0.362060546875, -0.965332031250, 0.169433593750, -4.398437500000, -1.015625000000, 0.546875000000, 1492759472
0.362060546875, -0.965332031250, 0.169433593750, -4.398437500000, -1.015625000000, 0.546875000000, 1492759472
0.342529296875, -0.851318359375, 0.251464843750, -4.453125000000, -0.460937500000, 0.054687500000, 1492759473
0.342529296875, -0.851318359375, 0.251464843750, -4.453125000000, -0.460937500000, 0.054687500000, 1492759473
0.342529296875, -0.851318359375, 0.251464843750, -4.453125000000, -0.460937500000, 0.054687500000, 1492759473
0.307617187500, -0.874511718750, 0.254882812500, -2.648437500000, 2.421875000000, -4.031250000000, 1492759473
0.307617187500, -0.874511718750, 0.254882812500, -2.648437500000, 2.421875000000, -4.031250000000, 1492759473
0.307617187500, -0.874511718750, 0.254882812500, -2.648437500000, 2.421875000000, -4.031250000000, 1492759473
0.250000000000, -0.916015625000, 0.252197265625, -4.664062500000, -3.828125000000, -4.671875000000, 1492759473
0.250000000000, -0.916015625000, 0.252197265625, -4.664062500000, -3.828125000000, -4.671875000000, 1492759473
0.250000000000, -0.916015625000, 0.252197265625, -4.664062500000, -3.828125000000, -4.671875000000, 1492759473
0.250000000000, -0.916015625000, 0.252197265625, -4.664062500000, -3.828125000000, -4.671875000000, 1492759473
0.297607421875, -0.967285156250, 0.271240234375, -3.554687500000, 0.687500000000, -4.453125000000, 1492759473
0.297607421875, -0.967285156250, 0.271240234375, -3.554687500000, 0.687500000000, -4.453125000000, 1492759473
0.350830078125, -1.007568359375, 0.277343750000, -4.554687500000, 3.882812500000, -5.539062500000, 1492759473
0.350830078125, -1.007568359375, 0.277343750000, -4.554687500000, 3.882812500000, -5.539062500000, 1492759473
0.350830078125, -1.007568359375, 0.277343750000, -4.554687500000, 3.882812500000, -5.539062500000, 1492759473
0.350830078125, -1.007568359375, 0.277343750000, -4.554687500000, 3.882812500000, -5.539062500000, 1492759473
0.335449218750, -0.811279296875, 0.255615234375, -4.500000000000, -2.726562500000, 0.960937500000, 1492759473
0.335449218750, -0.811279296875, 0.255615234375, -4.500000000000, -2.726562500000, 0.960937500000, 1492759473
0.335449218750, -0.811279296875, 0.255615234375, -4.500000000000, -2.726562500000, 0.960937500000, 1492759473
0.380371093750, -0.942626953125, 0.216064453125, -6.304687500000, 2.546875000000, 0.757812500000, 1492759473
0.380371093750, -0.942626953125, 0.216064453125, -6.304687500000, 2.546875000000, 0.757812500000, 1492759473
0.380371093750, -0.942626953125, 0.216064453125, -6.304687500000, 2.546875000000, 0.757812500000, 1492759473
0.380371093750, -0.942626953125, 0.216064453125, -6.304687500000, 2.546875000000, 0.757812500000, 1492759473
0.330322265625, -0.947021484375, 0.252929687500, -4.625000000000, 3.179687500000, -1.453125000000, 1492759473
0.330322265625, -0.947021484375, 0.252929687500, -4.625000000000, 3.179687500000, -1.453125000000, 1492759473
0.330322265625, -0.947021484375, 0.252929687500, -4.625000000000, 3.179687500000, -1.453125000000, 1492759473
0.243652343750, -1.007080078125, 0.156494140625, -3.820312500000, 0.898437500000, -2.429687500000, 1492759473
0.243652343750, -1.007080078125, 0.156494140625, -3.820312500000, 0.898437500000, -2.429687500000, 1492759473
0.243652343750, -1.007080078125, 0.156494140625, -3.820312500000, 0.898437500000, -2.429687500000, 1492759473
0.339355468750, -0.944824218750, 0.238769531250, -4.773437500000, -0.570312500000, -1.351562500000, 1492759473
0.339355468750, -0.944824218750, 0.238769531250, -4.773437500000, -0.570312500000, -1.351562500000, 1492759473
0.339355468750, -0.944824218750, 0.238769531250, -4.773437500000, -0.570312500000, -1.351562500000, 1492759473
0.395019531250, -0.909912109375, 0.250244140625, -4.539062500000, -2.281250000000, -3.015625000000, 1492759473
0.243896484375, -0.953125000000, 0.317871093750, -3.312500000000, 0.773437500000, -6.335937500000, 1492759473
0.243896484375, -0.953125000000, 0.317871093750, -3.312500000000, 0.773437500000, -6.335937500000, 1492759473
0.243896484375, -0.953125000000, 0.317871093750, -3.312500000000, 0.773437500000, -6.335937500000, 1492759473
0.314941406250, -0.951171875000, 0.262695312500, -6.101562500000, -2.414062500000, -3.203125000000, 1492759473
0.314941406250, -0.951171875000, 0.262695312500, -6.101562500000, -2.414062500000, -3.203125000000, 1492759473
0.314941406250, -0.951171875000, 0.262695312500, -6.101562500000, -2.414062500000, -3.203125000000, 1492759473
0.314941406250, -0.951171875000, 0.262695312500, -6.101562500000, -2.414062500000, -3.203125000000, 1492759473
0.314941406250, -0.951171875000, 0.262695312500, -6.101562500000, -2.414062500000, -3.203125000000, 1492759473
0.314941406250, -0.951171875000, 0.262695312500, -6.101562500000, -2.414062500000, -3.203125000000, 1492759473
0.389892578125, -0.917724609375, 0.263916015625, -3.562500000000, 2.593750000000, -4.421875000000, 1492759473
0.389892578125, -0.917724609375, 0.263916015625, -3.562500000000, 2.593750000000, -4.421875000000, 1492759473
0.389892578125, -0.917724609375, 0.263916015625, -3.562500000000, 2.593750000000, -4.421875000000, 1492759473
0.354492187500, -0.887207031250, 0.266113281250, -4.390625000000, -0.664062500000, -4.156250000000, 1492759473
0.354492187500, -0.887207031250, 0.266113281250, -4.390625000000, -0.664062500000, -4.156250000000, 1492759473
0.354492187500, -0.887207031250, 0.266113281250, -4.390625000000, -0.664062500000, -4.156250000000, 1492759473
0.354492187500, -0.887207031250, 0.266113281250, -4.390625000000, -0.664062500000, -4.156250000000, 1492759473
0.321533203125, -0.940185546875, 0.232177734375, -4.070312500000, -0.140625000000, -3.031250000000, 1492759473
0.321533203125, -0.940185546875, 0.232177734375, -4.070312500000, -0.140625000000, -3.031250000000, 1492759473
0.321533203125, -0.940185546875, 0.232177734375, -4.070312500000, -0.140625000000, -3.031250000000, 1492759473
0.399414062500, -0.843994140625, 0.261474609375, -3.734375000000, -0.804687500000, -1.453125000000, 1492759473
0.399414062500, -0.843994140625, 0.261474609375, -3.734375000000, -0.804687500000, -1.453125000000, 1492759473
0.399414062500, -0.843994140625, 0.261474609375, -3.734375000000, -0.804687500000, -1.453125000000, 1492759473
0.454101562500, -0.857421875000, 0.280029296875, -3.781250000000, -4.210937500000, -1.914062500000, 1492759473
0.454101562500, -0.857421875000, 0.280029296875, -3.781250000000, -4.210937500000, -1.914062500000, 1492759473
0.454101562500, -0.857421875000, 0.280029296875, -3.781250000000, -4.210937500000, -1.914062500000, 1492759473
0.273681640625, -0.957275390625, 0.161865234375, -3.789062500000, 4.312500000000, -6.078125000000, 1492759473
0.273681640625, -0.957275390625, 0.161865234375, -3.789062500000, 4.312500000000, -6.078125000000, 1492759473
0.273681640625, -0.957275390625, 0.161865234375, -3.789062500000, 4.312500000000, -6.078125000000, 1492759473
0.273681640625, -0.957275390625, 0.161865234375, -3.789062500000, 4.312500000000, -6.078125000000, 1492759473
0.283691406250, -0.951660156250, 0.252685546875, -6.078125000000, 1.812500000000, -4.835937500000, 1492759473
0.283691406250, -0.951660156250, 0.252685546875, -6.078125000000, 1.812500000000, -4.835937500000, 1492759473
0.283691406250, -0.951660156250, 0.252685546875, -6.078125000000, 1.812500000000, -4.835937500000, 1492759473
0.397949218750, -0.863281250000, 0.313964843750, -3.734375000000, 2.867187500000, -1.195312500000, 1492759473
0.397949218750, -0.863281250000, 0.313964843750, -3.734375000000, 2.867187500000, -1.195312500000, 1492759473
0.397949218750, -0.863281250000, 0.313964843750, -3.734375000000, 2.867187500000, -1.195312500000, 1492759473
0.369384765625, -0.957275390625, 0.266845703125, -3.257812500000, -0.132812500000, -4.351562500000, 1492759474
0.369384765625, -0.957275390625, 0.266845703125, -3.257812500000, -0.132812500000, -4.351562500000, 1492759474
0.369384765625, -0.957275390625, 0.266845703125, -3.257812500000, -0.132812500000, -4.351562500000, 1492759474
0.241943359375, -0.786621093750, 0.200927734375, -1.687500000000, 2.109375000000, -1.226562500000, 1492759474
0.241943359375, -0.786621093750, 0.200927734375, -1.687500000000, 2.109375000000, -1.226562500000, 1492759474
0.241943359375, -0.786621093750, 0.200927734375, -1.687500000000, 2.109375000000, -1.226562500000, 1492759474
0.241943359375, -0.786621093750, 0.200927734375, -1.687500000000, 2.109375000000, -1.226562500000, 1492759474
0.390136718750, -0.854492187500, 0.174316406250, -4.734375000000, -0.015625000000, -4.867187500000, 1492759474
0.390136718750, -0.854492187500, 0.174316406250, -4.734375000000, -0.015625000000, -4.867187500000, 1492759474
0.390136718750, -0.854492187500, 0.174316406250, -4.734375000000, -0.015625000000, -4.867187500000, 1492759474
0.341308593750, -0.878173828125, 0.272460937500, -4.210937500000, -0.968750000000, -2.390625000000, 1492759474
0.341308593750, -0.878173828125, 0.272460937500, -4.210937500000, -0.968750000000, -2.390625000000, 1492759474
0.341308593750, -0.878173828125, 0.272460937500, -4.210937500000, -0.968750000000, -2.390625000000, 1492759474
0.382568359375, -0.877929687500, 0.186035156250, -3.328125000000, 2.617187500000, -2.460937500000, 1492759474
0.382568359375, -0.877929687500, 0.186035156250, -3.328125000000, 2.617187500000, -2.460937500000, 1492759474
0.382568359375, -0.877929687500, 0.186035156250, -3.328125000000, 2.617187500000, -2.460937500000, 1492759474
0.245605468750, -0.935058593750, 0.260986328125, -4.007812500000, 0.015625000000, -2.625000000000, 1492759474
0.245605468750, -0.935058593750, 0.260986328125, -4.007812500000, 0.015625000000, -2.625000000000, 1492759474
0.245605468750, -0.935058593750, 0.260986328125, -4.007812500000, 0.015625000000, -2.625000000000, 1492759474
0.245605468750, -0.935058593750, 0.260986328125, -4.007812500000, 0.015625000000, -2.625000000000, 1492759474
0.310302734375, -0.957519531250, 0.197021484375, -3.273437500000, -0.453125000000, -1.992187500000, 1492759474
0.310302734375, -0.957519531250, 0.197021484375, -3.273437500000, -0.453125000000, -1.992187500000, 1492759474
0.310302734375, -0.957519531250, 0.197021484375, -3.273437500000, -0.453125000000, -1.992187500000, 1492759474
0.391113281250, -0.899169921875, 0.200927734375, -4.039062500000, 2.078125000000, 0.351562500000, 1492759474
0.391113281250, -0.899169921875, 0.200927734375, -4.039062500000, 2.078125000000, 0.351562500000, 1492759474
0.391113281250, -0.899169921875, 0.200927734375, -4.039062500000, 2.078125000000, 0.351562500000, 1492759474
0.305908203125, -0.897949218750, 0.156494140625, -6.625000000000, 0.234375000000, -4.984375000000, 1492759474
0.305908203125, -0.897949218750, 0.156494140625, -6.625000000000, 0.234375000000, -4.984375000000, 1492759474
0.305908203125, -0.897949218750, 0.156494140625, -6.625000000000, 0.234375000000, -4.984375000000, 1492759474
0.323974609375, -0.938232421875, 0.219482421875, -4.265625000000, 1.789062500000, -2.835937500000, 1492759474
0.323974609375, -0.938232421875, 0.219482421875, -4.265625000000, 1.789062500000, -2.835937500000, 1492759474
0.323974609375, -0.938232421875, 0.219482421875, -4.265625000000, 1.789062500000, -2.835937500000, 1492759474
0.323974609375, -0.938232421875, 0.219482421875, -4.265625000000, 1.789062500000, -2.835937500000, 1492759474
0.368896484375, -0.859375000000, 0.262207031250, -4.937500000000, 2.789062500000, -4.734375000000, 1492759474
0.368896484375, -0.859375000000, 0.262207031250, -4.937500000000, 2.789062500000, -4.734375000000, 1492759474
0.368896484375, -0.859375000000, 0.262207031250, -4.937500000000, 2.789062500000, -4.734375000000, 1492759474
0.390869140625, -0.958251953125, 0.207275390625, -6.179687500000, 2.390625000000, -4.539062500000, 1492759474
0.390869140625, -0.958251953125, 0.207275390625, -6.179687500000, 2.390625000000, -4.539062500000, 1492759474
0.390869140625, -0.958251953125, 0.207275390625, -6.179687500000, 2.390625000000, -4.539062500000, 1492759474
0.401367187500, -0.960693359375, 0.234619140625, -4.101562500000, -0.640625000000, -2.046875000000, 1492759474
0.401367187500, -0.960693359375, 0.234619140625, -4.101562500000, -0.640625000000, -2.046875000000, 1492759474
0.401367187500, -0.960693359375, 0.234619140625, -4.101562500000, -0.640625000000, -2.046875000000, 1492759474
0.350585937500, -0.912841796875, 0.173828125000, -3.867187500000, 2.695312500000, -4.148437500000, 1492759474
0.350585937500, -0.912841796875, 0.173828125000, -3.867187500000, 2.695312500000, -4.148437500000, 1492759474
0.350585937500, -0.912841796875, 0.173828125000, -3.867187500000, 2.695312500000, -4.148437500000, 1492759474
0.350585937500, -0.912841796875, 0.173828125000, -3.867187500000, 2.695312500000, -4.148437500000, 1492759474
0.393798828125, -0.913574218750, 0.202392578125, -3.609375000000, -0.984375000000, -1.703125000000, 1492759474
0.393798828125, -0.913574218750, 0.202392578125, -3.609375000000, -0.984375000000, -1.703125000000, 1492759474
0.393798828125, -0.913574218750, 0.202392578125, -3.609375000000, -0.984375000000, -1.703125000000, 1492759474
0.316894531250, -0.930175781250, 0.313476562500, -4.398437500000, -2.171875000000, -1.226562500000, 1492759474
0.316894531250, -0.930175781250, 0.313476562500, -4.398437500000, -2.171875000000, -1.226562500000, 1492759474
0.316894531250, -0.930175781250, 0.313476562500, -4.398437500000, -2.171875000000, -1.226562500000, 1492759474
0.300292968750, -0.857421875000, 0.181396484375, -4.718750000000, -2.406250000000, 0.117187500000, 1492759474
0.300292968750, -0.857421875000, 0.181396484375, -4.718750000000, -2.406250000000, 0.117187500000, 1492759474
0.300292968750, -0.857421875000, 0.181396484375, -4.718750000000, -2.406250000000, 0.117187500000, 1492759474
0.296875000000, -0.862060546875, 0.165771484375, -4.226562500000, 0.328125000000, -4.515625000000, 1492759474
0.296875000000, -0.862060546875, 0.165771484375, -4.226562500000, 0.328125000000, -4.515625000000, 1492759474
0.296875000000, -0.862060546875, 0.165771484375, -4.226562500000, 0.328125000000, -4.515625000000, 1492759474
0.296875000000, -0.862060546875, 0.165771484375, -4.226562500000, 0.328125000000, -4.515625000000, 1492759474
0.309082031250, -0.965576171875, 0.183105468750, -4.578125000000, -2.351562500000, -4.000000000000, 1492759474
0.309082031250, -0.965576171875, 0.183105468750, -4.578125000000, -2.351562500000, -4.000000000000, 1492759474
0.309082031250, -0.965576171875, 0.183105468750, -4.578125000000, -2.351562500000, -4.000000000000, 1492759474
0.285644531250, -0.861572265625, 0.195800781250, -4.679687500000, -1.929687500000, -6.726562500000, 1492759474
0.285644531250, -0.861572265625, 0.195800781250, -4.679687500000, -1.929687500000, -6.726562500000, 1492759474
0.285644531250, -0.861572265625, 0.195800781250, -4.679687500000, -1.929687500000, -6.726562500000, 1492759474
0.312011718750, -0.874511718750, 0.269531250000, -1.234375000000, -0.273437500000, -1.210937500000, 1492759475
0.312011718750, -0.874511718750, 0.269531250000, -1.234375000000, -0.273437500000, -1.210937500000, 1492759475
0.312011718750, -0.874511718750, 0.269531250000, -1.234375000000, -0.273437500000, -1.210937500000, 1492759475
0.406250000000, -0.950439453125, 0.242431640625, -3.445312500000, 4.437500000000, -1.335937500000, 1492759475
0.406250000000, -0.950439453125, 0.242431640625, -3.445312500000, 4.437500000000, -1.335937500000, 1492759475
0.406250000000, -0.950439453125, 0.242431640625, -3.445312500000, 4.437500000000, -1.335937500000, 1492759475
0.406250000000, -0.950439453125, 0.242431640625, -3.445312500000, 4.437500000000, -1.335937500000, 1492759475
0.249023437500, -0.942626953125, 0.206298828125, -4.609375000000, 2.375000000000, -3.328125000000, 1492759475
0.249023437500, -0.942626953125, 0.206298828125, -4.609375000000, 2.375000000000, -3.328125000000, 1492759475
0.249023437500, -0.942626953125, 0.206298828125, -4.609375000000, 2.375000000000, -3.328125000000, 1492759475
0.249023437500, -0.942626953125, 0.206298828125, -4.609375000000, 2.375000000000, -3.328125000000, 1492759475
0.394775390625, -0.927490234375, 0.266357421875, -1.992187500000, -0.421875000000, -3.625000000000, 1492759475
0.394775390625, -0.927490234375, 0.266357421875, -1.992187500000, -0.421875000000, -3.625000000000, 1492759475
0.394775390625, -0.927490234375, 0.266357421875, -1.992187500000, -0.421875000000, -3.625000000000, 1492759475
0.394775390625, -0.927490234375, 0.266357421875, -1.992187500000, -0.421875000000, -3.625000000000, 1492759475
0.394775390625, -0.927490234375, 0.266357421875, -1.992187500000, -0.421875000000, -3.625000000000, 1492759475
0.451171875000, -0.981445312500, 0.254150390625, -3.515625000000, 0.984375000000, -1.015625000000, 1492759475
0.451171875000, -0.981445312500, 0.254150390625, -3.515625000000, 0.984375000000, -1.015625000000, 1492759475
0.451171875000, -0.981445312500, 0.254150390625, -3.515625000000, 0.984375000000, -1.015625000000, 1492759475
0.451171875000, -0.981445312500, 0.254150390625, -3.515625000000, 0.984375000000, -1.015625000000, 1492759475
0.351806640625, -0.925781250000, 0.182128906250, -3.085937500000, 0.468750000000, -4.101562500000, 1492759475
0.351806640625, -0.925781250000, 0.182128906250, -3.085937500000, 0.468750000000, -4.101562500000, 1492759475
0.351806640625, -0.925781250000, 0.182128906250, -3.085937500000, 0.468750000000, -4.101562500000, 1492759475
0.327636718750, -0.880615234375, 0.164062500000, -3.593750000000, 0.132812500000, -1.492187500000, 1492759475
0.327636718750, -0.880615234375, 0.164062500000, -3.593750000000, 0.132812500000, -1.492187500000, 1492759475
0.327636718750, -0.880615234375, 0.164062500000, -3.593750000000, 0.132812500000, -1.492187500000, 1492759475
0.404785156250, -0.955566406250, 0.159423828125, -3.820312500000, 0.476562500000, -4.781250000000, 1492759475
0.404785156250, -0.955566406250, 0.159423828125, -3.820312500000, 0.476562500000, -4.781250000000, 1492759475
0.404785156250, -0.955566406250, 0.159423828125, -3.820312500000, 0.476562500000, -4.781250000000, 1492759475
0.404785156250, -0.955566406250, 0.159423828125, -3.820312500000, 0.476562500000, -4.781250000000, 1492759475
0.404785156250, -0.955566406250, 0.159423828125, -3.820312500000, 0.476562500000, -4.781250000000, 1492759475
0.404785156250, -0.955566406250, 0.159423828125, -3.820312500000, 0.476562500000, -4.781250000000, 1492759475
0.377441406250, -0.963623046875, 0.172607421875, -3.523437500000, -0.882812500000, -5.000000000000, 1492759475
0.377441406250, -0.963623046875, 0.172607421875, -3.523437500000, -0.882812500000, -5.000000000000, 1492759475
0.377441406250, -0.963623046875, 0.172607421875, -3.523437500000, -0.882812500000, -5.000000000000, 1492759475
0.377441406250, -0.963623046875, 0.172607421875, -3.523437500000, -0.882812500000, -5.000000000000, 1492759475
0.395507812500, -0.860351562500, 0.202148437500, -3.015625000000, -1.687500000000, -3.554687500000, 1492759475
0.395507812500, -0.860351562500, 0.202148437500, -3.015625000000, -1.687500000000, -3.554687500000, 1492759475
0.395507812500, -0.860351562500, 0.202148437500, -3.015625000000, -1.687500000000, -3.554687500000, 1492759475
0.235107421875, -0.905517578125, 0.270019531250, -4.687500000000, -0.281250000000, -4.226562500000, 1492759475
0.235107421875, -0.905517578125, 0.270019531250, -4.687500000000, -0.281250000000, -4.226562500000, 1492759475
0.235107421875, -0.905517578125, 0.270019531250, -4.687500000000, -0.281250000000, -4.226562500000, 1492759475
0.289062500000, -0.944580078125, 0.190429687500, -4.601562500000, 1.484375000000, -6.554687500000, 1492759475
0.289062500000, -0.944580078125, 0.190429687500, -4.601562500000, 1.484375000000, -6.554687500000, 1492759475
0.289062500000, -0.944580078125, 0.190429687500, -4.601562500000, 1.484375000000, -6.554687500000, 1492759475
0.284912109375, -0.943359375000, 0.178710937500, -4.984375000000, 2.257812500000, -5.078125000000, 1492759475
0.308837890625, -0.911865234375, 0.175048828125, -6.140625000000, -0.382812500000, -4.156250000000, 1492759475
0.308837890625, -0.911865234375, 0.175048828125, -6.140625000000, -0.382812500000, -4.156250000000, 1492759475
0.308837890625, -0.911865234375, 0.175048828125, -6.140625000000, -0.382812500000, -4.156250000000, 1492759475
0.385009765625, -0.862792968750, 0.167236328125, -4.593750000000, -2.195312500000, 0.171875000000, 1492759475
0.385009765625, -0.862792968750, 0.167236328125, -4.593750000000, -2.195312500000, 0.171875000000, 1492759475
0.385009765625, -0.862792968750, 0.167236328125, -4.593750000000, -2.195312500000, 0.171875000000, 1492759475
0.298095703125, -0.871582031250, 0.172363281250, -1.718750000000, -2.125000000000, -1.546875000000, 1492759475
0.298095703125, -0.871582031250, 0.172363281250, -1.718750000000, -2.125000000000, -1.546875000000, 1492759475
0.298095703125, -0.871582031250, 0.172363281250, -1.718750000000, -2.125000000000, -1.546875000000, 1492759475
0.285888671875, -0.911865234375, 0.239257812500, -3.367187500000, -2.265625000000, -3.101562500000, 1492759475
0.285888671875, -0.911865234375, 0.239257812500, -3.367187500000, -2.265625000000, -3.101562500000, 1492759475
0.285888671875, -0.911865234375, 0.239257812500, -3.367187500000, -2.265625000000, -3.101562500000, 1492759475
0.285888671875, -0.911865234375, 0.239257812500, -3.367187500000, -2.265625000000, -3.101562500000, 1492759475
0.333007812500, -0.882324218750, 0.123779296875, -3.117187500000, -0.414062500000, -4.304687500000, 1492759475
0.333007812500, -0.882324218750, 0.123779296875, -3.117187500000, -0.414062500000, -4.304687500000, 1492759475
0.333007812500, -0.882324218750, 0.123779296875, -3.117187500000, -0.414062500000, -4.304687500000, 1492759475
0.340820312500, -0.873779296875, 0.278320312500, -4.953125000000, 0.421875000000, -1.812500000000, 1492759475
0.340820312500, -0.873779296875, 0.278320312500, -4.953125000000, 0.421875000000, -1.812500000000, 1492759475
0.340820312500, -0.873779296875, 0.278320312500, -4.953125000000, 0.421875000000, -1.812500000000, 1492759475
0.462158203125, -1.001220703125, 0.169433593750, -6.390625000000, -0.445312500000, -4.351562500000, 1492759475
0.462158203125, -1.001220703125, 0.169433593750, -6.390625000000, -0.445312500000, -4.351562500000, 1492759475
0.462158203125, -1.001220703125, 0.169433593750, -6.390625000000, -0.445312500000, -4.351562500000, 1492759475
0.363769531250, -0.870849609375, 0.270263671875, -2.773437500000, 0.632812500000, -4.359375000000, 1492759476
0.363769531250, -0.870849609375, 0.270263671875, -2.773437500000, 0.632812500000, -4.359375000000, 1492759476
0.363769531250, -0.870849609375, 0.270263671875, -2.773437500000, 0.632812500000, -4.359375000000, 1492759476
0.363769531250, -0.870849609375, 0.270263671875, -2.773437500000, 0.632812500000, -4.359375000000, 1492759476
0.348632812500, -0.951416015625, 0.272949218750, -1.734375000000, 2.390625000000, -4.875000000000, 1492759476
0.348632812500, -0.951416015625, 0.272949218750, -1.734375000000, 2.390625000000, -4.875000000000, 1492759476
0.348632812500, -0.951416015625, 0.272949218750, -1.734375000000, 2.390625000000, -4.875000000000, 1492759476
0.324218750000, -0.965820312500, 0.164794921875, -2.906250000000, 0.507812500000, -2.632812500000, 1492759476
0.324218750000, -0.965820312500, 0.164794921875, -2.906250000000, 0.507812500000, -2.632812500000, 1492759476
0.324218750000, -0.965820312500, 0.164794921875, -2.906250000000, 0.507812500000, -2.632812500000, 1492759476
0.290039062500, -0.890869140625, 0.194335937500, -6.281250000000, -0.726562500000, 0.539062500000, 1492759476
0.290039062500, -0.890869140625, 0.194335937500, -6.281250000000, -0.726562500000, 0.539062500000, 1492759476
0.290039062500, -0.890869140625, 0.194335937500, -6.281250000000, -0.726562500000, 0.539062500000, 1492759476
0.329345703125, -0.945312500000, 0.232421875000, -4.031250000000, 4.320312500000, -4.421875000000, 1492759476
0.329345703125, -0.945312500000, 0.232421875000, -4.031250000000, 4.320312500000, -4.421875000000, 1492759476
0.329345703125, -0.945312500000, 0.232421875000, -4.031250000000, 4.320312500000, -4.421875000000, 1492759476
0.329345703125, -0.945312500000, 0.232421875000, -4.031250000000, 4.320312500000, -4.421875000000, 1492759476
0.341064453125, -0.951660156250, 0.185058593750, -4.007812500000, -1.000000000000, -1.945312500000, 1492759476
0.341064453125, -0.951660156250, 0.185058593750, -4.007812500000, -1.000000000000, -1.945312500000, 1492759476
0.341064453125, -0.951660156250, 0.185058593750, -4.007812500000, -1.000000000000, -1.945312500000, 1492759476
0.393066406250, -0.862304687500, 0.222412109375, -4.750000000000, 0.617187500000, -2.968750000000, 1492759476
0.393066406250, -0.862304687500, 0.222412109375, -4.750000000000, 0.617187500000, -2.968750000000, 1492759476
0.393066406250, -0.862304687500, 0.222412109375, -4.750000000000, 0.617187500000, -2.968750000000, 1492759476
0.312988281250, -1.009521484375, 0.248535156250, -5.000000000000, 2.546875000000, -3.281250000000, 1492759476
0.312988281250, -1.009521484375, 0.248535156250, -5.000000000000, 2.546875000000, -3.281250000000, 1492759476
0.312988281250, -1.009521484375, 0.248535156250, -5.000000000000, 2.546875000000, -3.281250000000, 1492759476
0.403808593750, -0.856689453125, 0.319824218750, -3.140625000000, -1.320312500000, -2.992187500000, 1492759476
0.403808593750, -0.856689453125, 0.319824218750, -3.140625000000, -1.320312500000, -2.992187500000, 1492759476
0.403808593750, -0.856689453125, 0.319824218750, -3.140625000000, -1.320312500000, -2.992187500000, 1492759476
0.403808593750, -0.856689453125, 0.319824218750, -3.140625000000, -1.320312500000, -2.992187500000, 1492759476
0.403076171875, -0.952392578125, 0.317871093750, -1.046875000000, -0.523437500000, -4.445312500000, 1492759476
0.403076171875, -0.952392578125, 0.317871093750, -1.046875000000, -0.523437500000, -4.445312500000, 1492759476
0.403076171875, -0.952392578125, 0.317871093750, -1.046875000000, -0.523437500000, -4.445312500000, 1492759476
0.315185546875, -0.852783203125, 0.223632812500, -3.101562500000, -0.171875000000, -1.242187500000, 1492759476
0.315185546875, -0.852783203125, 0.223632812500, -3.101562500000, -0.171875000000, -1.242187500000, 1492759476
0.315185546875, -0.852783203125, 0.223632812500, -3.101562500000, -0.171875000000, -1.242187500000, 1492759476
0.322021484375, -0.875976562500, 0.218261718750, -4.468750000000, -2.304687500000, -2.640625000000, 1492759476
0.322021484375, -0.875976562500, 0.218261718750, -4.468750000000, -2.304687500000, -2.640625000000, 1492759476
0.322021484375, -0.875976562500, 0.218261718750, -4.468750000000, -2.304687500000, -2.640625000000, 1492759476
0.303466796875, -0.944824218750, 0.224853515625, -4.218750000000, 0.968750000000, -2.468750000000, 1492759476
0.303466796875, -0.944824218750, 0.224853515625, -4.218750000000, 0.968750000000, -2.468750000000, 1492759476
0.303466796875, -0.944824218750, 0.224853515625, -4.218750000000, 0.968750000000, -2.468750000000, 1492759476
0.303466796875, -0.944824218750, 0.224853515625, -4.218750000000, 0.968750000000, -2.468750000000, 1492759476
0.291992187500, -0.858398437500, 0.251464843750, -1.828125000000, -0.773437500000, -6.328125000000, 1492759476
0.291992187500, -0.858398437500, 0.251464843750, -1.828125000000, -0.773437500000, -6.328125000000, 1492759476
0.291992187500, -0.858398437500, 0.251464843750, -1.828125000000, -0.773437500000, -6.328125000000, 1492759476
