ACC_X,ACC_Y,ACC_Z,G_X,G_Y,G_Z,Unix Time
0.021484375000, -1.005859375000, 0.013183593750, -4.789062500000, 4.093750000000, -1.218750000000, 1490845873
0.021484375000, -1.005859375000, 0.013183593750, -4.789062500000, 4.093750000000, -1.218750000000, 1490845873
0.021484375000, -1.005859375000, 0.013183593750, -4.789062500000, 4.093750000000, -1.218750000000, 1490845873
0.021484375000, -1.005859375000, 0.013183593750, -4.789062500000, 4.093750000000, -1.218750000000, 1490845873
0.021972656250, -0.972900390625, -0.008544921875, -5.039062500000, 6.546875000000, -6.562500000000, 1490845873
0.021972656250, -0.972900390625, -0.008544921875, -5.039062500000, 6.546875000000, -6.562500000000, 1490845874
0.021972656250, -0.972900390625, -0.008544921875, -5.039062500000, 6.546875000000, -6.562500000000, 1490845874
-0.018310546875, -1.025878906250, 0.005371093750, -3.296875000000, -2.617187500000, -4.507812500000, 1490845874
-0.018310546875, -1.025878906250, 0.005371093750, -3.296875000000, -2.617187500000, -4.507812500000, 1490845874
-0.018310546875, -1.025878906250, 0.005371093750, -3.296875000000, -2.617187500000, -4.507812500000, 1490845874
-0.007080078125, -0.974365234375, -0.027343750000, -8.625000000000, 7.937500000000, -10.468750000000, 1490845874
-0.007080078125, -0.974365234375, -0.027343750000, -8.625000000000, 7.937500000000, -10.468750000000, 1490845874
-0.007080078125, -0.974365234375, -0.027343750000, -8.625000000000, 7.937500000000, -10.468750000000, 1490845874
-0.006591796875, -1.018554687500, 0.027099609375, -3.054687500000, -0.093750000000, -3.250000000000, 1490845874
-0.006591796875, -1.018554687500, 0.027099609375, -3.054687500000, -0.093750000000, -3.250000000000, 1490845874
-0.006591796875, -1.018554687500, 0.027099609375, -3.054687500000, -0.093750000000, -3.250000000000, 1490845874
-0.006591796875, -1.018554687500, 0.027099609375, -3.054687500000, -0.093750000000, -3.250000000000, 1490845874
0.064941406250, -0.962158203125, -0.035156250000, -3.125000000000, 1.476562500000, -4.187500000000, 1490845874
0.064941406250, -0.962158203125, -0.035156250000, -3.125000000000, 1.476562500000, -4.187500000000, 1490845874
0.064941406250, -0.962158203125, -0.035156250000, -3.125000000000, 1.476562500000, -4.187500000000, 1490845874
-0.010253906250, -0.976562500000, 0.011962890625, -3.765625000000, 1.234375000000, -3.687500000000, 1490845874
0.067871093750, -1.001708984375, -0.004394531250, -6.960937500000, -2.390625000000, -2.890625000000, 1490845874
0.067871093750, -1.001708984375, -0.004394531250, -6.960937500000, -2.390625000000, -2.890625000000, 1490845874
-0.017822265625, -1.016357421875, 0.015869140625, -4.070312500000, 3.171875000000, -4.726562500000, 1490845874
-0.017822265625, -1.016357421875, 0.015869140625, -4.070312500000, 3.171875000000, -4.726562500000, 1490845874
-0.017822265625, -1.016357421875, 0.015869140625, -4.070312500000, 3.171875000000, -4.726562500000, 1490845874
-0.017822265625, -1.016357421875, 0.015869140625, -4.070312500000, 3.171875000000, -4.726562500000, 1490845874
-0.017822265625, -1.016357421875, 0.015869140625, -4.070312500000, 3.171875000000, -4.726562500000, 1490845874
-0.017822265625, -1.016357421875, 0.015869140625, -4.070312500000, 3.171875000000, -4.726562500000, 1490845874
-0.017822265625, -1.016357421875, 0.015869140625, -4.070312500000, 3.171875000000, -4.726562500000, 1490845874
-0.007568359375, -0.930908203125, -0.064697265625, -4.242187500000, -3.625000000000, -2.343750000000, 1490845874
-0.007568359375, -0.930908203125, -0.064697265625, -4.242187500000, -3.625000000000, -2.343750000000, 1490845874
-0.007568359375, -0.930908203125, -0.064697265625, -4.242187500000, -3.625000000000, -2.343750000000, 1490845874
-0.007568359375, -0.930908203125, -0.064697265625, -4.242187500000, -3.625000000000, -2.343750000000, 1490845874
-0.007568359375, -0.930908203125, -0.064697265625, -4.242187500000, -3.625000000000, -2.343750000000, 1490845874
-0.007568359375, -0.930908203125, -0.064697265625, -4.242187500000, -3.625000000000, -2.343750000000, 1490845874
0.007324218750, -1.025390625000, -0.083007812500, -6.328125000000, 4.796875000000, -2.265625000000, 1490845874
0.007324218750, -1.025390625000, -0.083007812500, -6.328125000000, 4.796875000000, -2.265625000000, 1490845874
0.007324218750, -1.025390625000, -0.083007812500, -6.328125000000, 4.796875000000, -2.265625000000, 1490845874
0.068603515625, -1.021484375000, -0.074951171875, -3.414062500000, -3.890625000000, -3.617187500000, 1490845874
0.068603515625, -1.021484375000, -0.074951171875, -3.414062500000, -3.890625000000, -3.617187500000, 1490845874
0.068603515625, -1.021484375000, -0.074951171875, -3.414062500000, -3.890625000000, -3.617187500000, 1490845874
0.068603515625, -1.021484375000, -0.074951171875, -3.414062500000, -3.890625000000, -3.617187500000, 1490845874
0.068115234375, -1.017089843750, -0.071533203125, -4.773437500000, -0.414062500000, -2.273437500000, 1490845874
0.068115234375, -1.017089843750, -0.071533203125, -4.773437500000, -0.414062500000, -2.273437500000, 1490845874
0.068115234375, -1.017089843750, -0.071533203125, -4.773437500000, -0.414062500000, -2.273437500000, 1490845874
0.012451171875, -0.997802734375, 0.014648437500, -2.757812500000, 1.859375000000, -2.492187500000, 1490845874
0.012451171875, -0.997802734375, 0.014648437500, -2.757812500000, 1.859375000000, -2.492187500000, 1490845874
0.012451171875, -0.997802734375, 0.014648437500, -2.757812500000, 1.859375000000, -2.492187500000, 1490845874
-0.029052734375, -1.031250000000, -0.075439453125, -4.914062500000, -3.031250000000, -2.554687500000, 1490845874
-0.029052734375, -1.031250000000, -0.075439453125, -4.914062500000, -3.031250000000, -2.554687500000, 1490845874
-0.029052734375, -1.031250000000, -0.075439453125, -4.914062500000, -3.031250000000, -2.554687500000, 1490845874
-0.083007812500, -0.975097656250, -0.037597656250, -3.359375000000, 3.046875000000, -4.281250000000, 1490845874
-0.083007812500, -0.975097656250, -0.037597656250, -3.359375000000, 3.046875000000, -4.281250000000, 1490845874
-0.083007812500, -0.975097656250, -0.037597656250, -3.359375000000, 3.046875000000, -4.281250000000, 1490845874
-0.083007812500, -0.975097656250, -0.037597656250, -3.359375000000, 3.046875000000, -4.281250000000, 1490845874
0.018066406250, -1.031250000000, 0.020507812500, -4.507812500000, -0.484375000000, -3.851562500000, 1490845874
0.018066406250, -1.031250000000, 0.020507812500, -4.507812500000, -0.484375000000, -3.851562500000, 1490845874
0.018066406250, -1.031250000000, 0.020507812500, -4.507812500000, -0.484375000000, -3.851562500000, 1490845874
-0.092773437500, -0.952148437500, -0.050292968750, -6.093750000000, -6.921875000000, -4.265625000000, 1490845874
-0.092773437500, -0.952148437500, -0.050292968750, -6.093750000000, -6.921875000000, -4.265625000000, 1490845874
-0.092773437500, -0.952148437500, -0.050292968750, -6.093750000000, -6.921875000000, -4.265625000000, 1490845874
-0.079101562500, -1.014892578125, -0.024902343750, -6.804687500000, -4.484375000000, -4.914062500000, 1490845874
-0.079101562500, -1.014892578125, -0.024902343750, -6.804687500000, -4.484375000000, -4.914062500000, 1490845874
-0.079101562500, -1.014892578125, -0.024902343750, -6.804687500000, -4.484375000000, -4.914062500000, 1490845874
-0.009521484375, -1.078857421875, -0.068359375000, -4.882812500000, -0.828125000000, -3.750000000000, 1490845874
-0.009521484375, -1.078857421875, -0.068359375000, -4.882812500000, -0.828125000000, -3.750000000000, 1490845874
-0.009521484375, -1.078857421875, -0.068359375000, -4.882812500000, -0.828125000000, -3.750000000000, 1490845874
-0.009521484375, -1.078857421875, -0.068359375000, -4.882812500000, -0.828125000000, -3.750000000000, 1490845874
0.069335937500, -0.962890625000, 0.025390625000, -4.335937500000, 2.164062500000, -1.109375000000, 1490845874
0.069335937500, -0.962890625000, 0.025390625000, -4.335937500000, 2.164062500000, -1.109375000000, 1490845874
0.007324218750, -1.021972656250, 0.018310546875, -4.789062500000, 3.062500000000, -3.703125000000, 1490845875
0.007324218750, -1.021972656250, 0.018310546875, -4.789062500000, 3.062500000000, -3.703125000000, 1490845875
0.007324218750, -1.021972656250, 0.018310546875, -4.789062500000, 3.062500000000, -3.703125000000, 1490845875
0.007324218750, -1.021972656250, 0.018310546875, -4.789062500000, 3.062500000000, -3.703125000000, 1490845875
0.012939453125, -0.989501953125, 0.072509765625, -1.679687500000, -4.101562500000, -2.718750000000, 1490845875
0.012939453125, -0.989501953125, 0.072509765625, -1.679687500000, -4.101562500000, -2.718750000000, 1490845875
0.012939453125, -0.989501953125, 0.072509765625, -1.679687500000, -4.101562500000, -2.718750000000, 1490845875
0.006591796875, -1.066894531250, 0.014648437500, -3.039062500000, 3.804687500000, -4.570312500000, 1490845875
0.006591796875, -1.066894531250, 0.014648437500, -3.039062500000, 3.804687500000, -4.570312500000, 1490845875
0.006591796875, -1.066894531250, 0.014648437500, -3.039062500000, 3.804687500000, -4.570312500000, 1490845875
0.006591796875, -1.066894531250, 0.014648437500, -3.039062500000, 3.804687500000, -4.570312500000, 1490845875
0.090087890625, -1.075927734375, 0.005859375000, -6.179687500000, -1.109375000000, -3.906250000000, 1490845875
0.090087890625, -1.075927734375, 0.005859375000, -6.179687500000, -1.109375000000, -3.906250000000, 1490845875
0.090087890625, -1.075927734375, 0.005859375000, -6.179687500000, -1.109375000000, -3.906250000000, 1490845875
-0.007568359375, -1.072753906250, 0.006103515625, -6.156250000000, 2.539062500000, -4.703125000000, 1490845875
-0.007568359375, -1.072753906250, 0.006103515625, -6.156250000000, 2.539062500000, -4.703125000000, 1490845875
-0.007568359375, -1.072753906250, 0.006103515625, -6.156250000000, 2.539062500000, -4.703125000000, 1490845875
0.054443359375, -0.981933593750, -0.029541015625, -4.812500000000, 2.468750000000, -4.468750000000, 1490845875
0.054443359375, -0.981933593750, -0.029541015625, -4.812500000000, 2.468750000000, -4.468750000000, 1490845875
0.054443359375, -0.981933593750, -0.029541015625, -4.812500000000, 2.468750000000, -4.468750000000, 1490845875
-0.078613281250, -0.999511718750, 0.000488281250, -5.187500000000, -0.757812500000, -6.007812500000, 1490845875
-0.078613281250, -0.999511718750, 0.000488281250, -5.187500000000, -0.757812500000, -6.007812500000, 1490845875
-0.078613281250, -0.999511718750, 0.000488281250, -5.187500000000, -0.757812500000, -6.007812500000, 1490845875
-0.078613281250, -0.999511718750, 0.000488281250, -5.187500000000, -0.757812500000, -6.007812500000, 1490845875
-0.018554687500, -1.003417968750, 0.021972656250, -3.320312500000, -0.242187500000, -4.375000000000, 1490845875
-0.018554687500, -1.003417968750, 0.021972656250, -3.320312500000, -0.242187500000, -4.375000000000, 1490845875
-0.018554687500, -1.003417968750, 0.021972656250, -3.320312500000, -0.242187500000, -4.375000000000, 1490845875
-0.018310546875, -1.000732421875, -0.016113281250, -4.421875000000, 2.937500000000, -6.023437500000, 1490845875
-0.018310546875, -1.000732421875, -0.016113281250, -4.421875000000, 2.937500000000, -6.023437500000, 1490845875
-0.018310546875, -1.000732421875, -0.016113281250, -4.421875000000, 2.937500000000, -6.023437500000, 1490845875
-0.004150390625, -0.990966796875, 0.005615234375, -4.250000000000, -2.718750000000, -4.828125000000, 1490845875
-0.004150390625, -0.990966796875, 0.005615234375, -4.250000000000, -2.718750000000, -4.828125000000, 1490845875
-0.004150390625, -0.990966796875, 0.005615234375, -4.250000000000, -2.718750000000, -4.828125000000, 1490845875
-0.065673828125, -1.002685546875, -0.062500000000, -6.125000000000, 4.367187500000, -3.085937500000, 1490845875
-0.065673828125, -1.002685546875, -0.062500000000, -6.125000000000, 4.367187500000, -3.085937500000, 1490845875
-0.065673828125, -1.002685546875, -0.062500000000, -6.125000000000, 4.367187500000, -3.085937500000, 1490845875
-0.065673828125, -1.002685546875, -0.062500000000, -6.125000000000, 4.367187500000, -3.085937500000, 1490845875
0.027343750000, -1.017822265625, 0.015869140625, -3.539062500000, -0.648437500000, -3.523437500000, 1490845875
0.027343750000, -1.017822265625, 0.015869140625, -3.539062500000, -0.648437500000, -3.523437500000, 1490845875
0.027343750000, -1.017822265625, 0.015869140625, -3.539062500000, -0.648437500000, -3.523437500000, 1490845875
0.022949218750, -1.009277343750, -0.001220703125, -6.718750000000, 0.757812500000, -3.125000000000, 1490845875
0.022949218750, -1.009277343750, -0.001220703125, -6.718750000000, 0.757812500000, -3.125000000000, 1490845875
0.022949218750, -1.009277343750, -0.001220703125, -6.718750000000, 0.757812500000, -3.125000000000, 1490845875
-0.077392578125, -0.928955078125, -0.082519531250, -3.484375000000, -0.398437500000, -8.976562500000, 1490845875
-0.077392578125, -0.928955078125, -0.082519531250, -3.484375000000, -0.398437500000, -8.976562500000, 1490845875
-0.077392578125, -0.928955078125, -0.082519531250, -3.484375000000, -0.398437500000, -8.976562500000, 1490845875
-0.028320312500, -0.911132812500, 0.027099609375, -4.625000000000, 7.085937500000, -5.304687500000, 1490845875
-0.028320312500, -0.911132812500, 0.027099609375, -4.625000000000, 7.085937500000, -5.304687500000, 1490845875
-0.028320312500, -0.911132812500, 0.027099609375, -4.625000000000, 7.085937500000, -5.304687500000, 1490845875
-0.028320312500, -0.911132812500, 0.027099609375, -4.625000000000, 7.085937500000, -5.304687500000, 1490845875
0.073242187500, -0.914306640625, -0.027832031250, -3.593750000000, -6.968750000000, -4.601562500000, 1490845875
0.073242187500, -0.914306640625, -0.027832031250, -3.593750000000, -6.968750000000, -4.601562500000, 1490845875
0.073242187500, -0.914306640625, -0.027832031250, -3.593750000000, -6.968750000000, -4.601562500000, 1490845875
-0.066162109375, -1.075683593750, 0.024658203125, -3.242187500000, 1.015625000000, -4.953125000000, 1490845875
-0.066162109375, -1.075683593750, 0.024658203125, -3.242187500000, 1.015625000000, -4.953125000000, 1490845875
-0.066162109375, -1.075683593750, 0.024658203125, -3.242187500000, 1.015625000000, -4.953125000000, 1490845875
-0.078369140625, -1.027832031250, 0.012207031250, -4.390625000000, -1.968750000000, -5.289062500000, 1490845875
-0.078369140625, -1.027832031250, 0.012207031250, -4.390625000000, -1.968750000000, -5.289062500000, 1490845875
-0.078369140625, -1.027832031250, 0.012207031250, -4.390625000000, -1.968750000000, -5.289062500000, 1490845875
0.053466796875, -0.858154296875, -0.079589843750, -4.906250000000, -1.367187500000, 0.437500000000, 1490845875
0.053466796875, -0.858154296875, -0.079589843750, -4.906250000000, -1.367187500000, 0.437500000000, 1490845875
0.053466796875, -0.858154296875, -0.079589843750, -4.906250000000, -1.367187500000, 0.437500000000, 1490845875
0.053466796875, -0.858154296875, -0.079589843750, -4.906250000000, -1.367187500000, 0.437500000000, 1490845875
0.031250000000, -0.934570312500, -0.013183593750, -3.710937500000, 4.140625000000, -1.882812500000, 1490845875
0.031250000000, -0.934570312500, -0.013183593750, -3.710937500000, 4.140625000000, -1.882812500000, 1490845875
0.031250000000, -0.934570312500, -0.013183593750, -3.710937500000, 4.140625000000, -1.882812500000, 1490845875
-0.129394531250, -0.980957031250, -0.030517578125, -2.656250000000, -6.445312500000, -1.718750000000, 1490845875
-0.129394531250, -0.980957031250, -0.030517578125, -2.656250000000, -6.445312500000, -1.718750000000, 1490845875
-0.129394531250, -0.980957031250, -0.030517578125, -2.656250000000, -6.445312500000, -1.718750000000, 1490845875
-0.066894531250, -0.915039062500, 0.027099609375, -4.867187500000, -0.265625000000, -6.007812500000, 1490845876
-0.066894531250, -0.915039062500, 0.027099609375, -4.867187500000, -0.265625000000, -6.007812500000, 1490845876
-0.066894531250, -0.915039062500, 0.027099609375, -4.867187500000, -0.265625000000, -6.007812500000, 1490845876
0.010009765625, -0.933837890625, -0.013183593750, -4.382812500000, 2.414062500000, -3.781250000000, 1490845876
0.010009765625, -0.933837890625, -0.013183593750, -4.382812500000, 2.414062500000, -3.781250000000, 1490845876
0.010009765625, -0.933837890625, -0.013183593750, -4.382812500000, 2.414062500000, -3.781250000000, 1490845876
-0.011474609375, -0.928710937500, 0.018798828125, -4.140625000000, -1.156250000000, 0.281250000000, 1490845876
-0.011474609375, -0.928710937500, 0.018798828125, -4.140625000000, -1.156250000000, 0.281250000000, 1490845876
-0.011474609375, -0.928710937500, 0.018798828125, -4.140625000000, -1.156250000000, 0.281250000000, 1490845876
-0.011474609375, -0.928710937500, 0.018798828125, -4.140625000000, -1.156250000000, 0.281250000000, 1490845876
0.078613281250, -0.960449218750, -0.066406250000, -3.445312500000, -0.992187500000, -4.695312500000, 1490845876
0.078613281250, -0.960449218750, -0.066406250000, -3.445312500000, -0.992187500000, -4.695312500000, 1490845876
0.078613281250, -0.960449218750, -0.066406250000, -3.445312500000, -0.992187500000, -4.695312500000, 1490845876
-0.083007812500, -0.983398437500, -0.084960937500, -1.562500000000, 2.375000000000, -8.226562500000, 1490845876
-0.063964843750, -0.919677734375, -0.088378906250, -3.390625000000, 0.429687500000, -3.679687500000, 1490845876
-0.063964843750, -0.919677734375, -0.088378906250, -3.390625000000, 0.429687500000, -3.679687500000, 1490845876
-0.063964843750, -0.919677734375, -0.088378906250, -3.390625000000, 0.429687500000, -3.679687500000, 1490845876
-0.063964843750, -0.919677734375, -0.088378906250, -3.390625000000, 0.429687500000, -3.679687500000, 1490845876
-0.063964843750, -0.919677734375, -0.088378906250, -3.390625000000, 0.429687500000, -3.679687500000, 1490845876
-0.063964843750, -0.919677734375, -0.088378906250, -3.390625000000, 0.429687500000, -3.679687500000, 1490845876
-0.086669921875, -0.986572265625, -0.025390625000, -3.507812500000, 0.539062500000, -1.117187500000, 1490845876
-0.086669921875, -0.986572265625, -0.025390625000, -3.507812500000, 0.539062500000, -1.117187500000, 1490845876
-0.086669921875, -0.986572265625, -0.025390625000, -3.507812500000, 0.539062500000, -1.117187500000, 1490845876
-0.008056640625, -0.959472656250, -0.035888671875, -4.890625000000, -1.617187500000, -4.578125000000, 1490845876
-0.008056640625, -0.959472656250, -0.035888671875, -4.890625000000, -1.617187500000, -4.578125000000, 1490845876
-0.008056640625, -0.959472656250, -0.035888671875, -4.890625000000, -1.617187500000, -4.578125000000, 1490845876
0.072753906250, -0.930175781250, 0.078857421875, -6.250000000000, 3.601562500000, -8.976562500000, 1490845876
0.072753906250, -0.930175781250, 0.078857421875, -6.250000000000, 3.601562500000, -8.976562500000, 1490845876
0.072753906250, -0.930175781250, 0.078857421875, -6.250000000000, 3.601562500000, -8.976562500000, 1490845876
0.030761718750, -1.007812500000, 0.020019531250, -4.859375000000, 1.210937500000, -1.273437500000, 1490845876
0.030761718750, -1.007812500000, 0.020019531250, -4.859375000000, 1.210937500000, -1.273437500000, 1490845876
0.030761718750, -1.007812500000, 0.020019531250, -4.859375000000, 1.210937500000, -1.273437500000, 1490845876
0.030761718750, -1.007812500000, 0.020019531250, -4.859375000000, 1.210937500000, -1.273437500000, 1490845876
-0.070556640625, -0.912109375000, -0.078369140625, -4.664062500000, -2.515625000000, -4.546875000000, 1490845876
-0.070556640625, -0.912109375000, -0.078369140625, -4.664062500000, -2.515625000000, -4.546875000000, 1490845876
-0.070556640625, -0.912109375000, -0.078369140625, -4.664062500000, -2.515625000000, -4.546875000000, 1490845876
-0.077148437500, -0.979736328125, -0.015869140625, -6.460937500000, -4.968750000000, -1.820312500000, 1490845876
-0.077148437500, -0.979736328125, -0.015869140625, -6.460937500000, -4.968750000000, -1.820312500000, 1490845876
-0.077148437500, -0.979736328125, -0.015869140625, -6.460937500000, -4.968750000000, -1.820312500000, 1490845876
-0.017333984375, -0.957275390625, 0.021240234375, -6.335937500000, -4.109375000000, -2.804687500000, 1490845876
-0.017333984375, -0.957275390625, 0.021240234375, -6.335937500000, -4.109375000000, -2.804687500000, 1490845876
-0.017333984375, -0.957275390625, 0.021240234375, -6.335937500000, -4.109375000000, -2.804687500000, 1490845876
0.070556640625, -1.022216796875, 0.079833984375, -8.335937500000, 2.375000000000, -8.875000000000, 1490845876
0.070556640625, -1.022216796875, 0.079833984375, -8.335937500000, 2.375000000000, -8.875000000000, 1490845876
0.070556640625, -1.022216796875, 0.079833984375, -8.335937500000, 2.375000000000, -8.875000000000, 1490845876
0.070556640625, -1.022216796875, 0.079833984375, -8.335937500000, 2.375000000000, -8.875000000000, 1490845876
-0.011962890625, -0.924316406250, 0.063476562500, -6.851562500000, 2.000000000000, -4.335937500000, 1490845876
-0.011962890625, -0.924316406250, 0.063476562500, -6.851562500000, 2.000000000000, -4.335937500000, 1490845876
-0.011962890625, -0.924316406250, 0.063476562500, -6.851562500000, 2.000000000000, -4.335937500000, 1490845876
0.071044921875, -0.987548828125, 0.024169921875, -6.015625000000, 6.304687500000, -3.445312500000, 1490845876
0.071044921875, -0.987548828125, 0.024169921875, -6.015625000000, 6.304687500000, -3.445312500000, 1490845876
0.071044921875, -0.987548828125, 0.024169921875, -6.015625000000, 6.304687500000, -3.445312500000, 1490845876
-0.006591796875, -1.087890625000, 0.020019531250, -5.148437500000, 0.140625000000, -4.625000000000, 1490845876
-0.006591796875, -1.087890625000, 0.020019531250, -5.148437500000, 0.140625000000, -4.625000000000, 1490845876
-0.006591796875, -1.087890625000, 0.020019531250, -5.148437500000, 0.140625000000, -4.625000000000, 1490845876
0.011474609375, -1.023681640625, -0.076171875000, -8.703125000000, 2.453125000000, -4.195312500000, 1490845876
0.011474609375, -1.023681640625, -0.076171875000, -8.703125000000, 2.453125000000, -4.195312500000, 1490845876
0.011474609375, -1.023681640625, -0.076171875000, -8.703125000000, 2.453125000000, -4.195312500000, 1490845876
0.011474609375, -1.023681640625, -0.076171875000, -8.703125000000, 2.453125000000, -4.195312500000, 1490845876
-0.015380859375, -1.022460937500, -0.084960937500, -7.382812500000, -2.242187500000, -6.890625000000, 1490845876
-0.015380859375, -1.022460937500, -0.084960937500, -7.382812500000, -2.242187500000, -6.890625000000, 1490845876
-0.015380859375, -1.022460937500, -0.084960937500, -7.382812500000, -2.242187500000, -6.890625000000, 1490845876
0.089843750000, -1.029296875000, 0.013427734375, -10.539062500000, -4.070312500000, -1.062500000000, 1490845876
0.089843750000, -1.029296875000, 0.013427734375, -10.539062500000, -4.070312500000, -1.062500000000, 1490845876
0.089843750000, -1.029296875000, 0.013427734375, -10.539062500000, -4.070312500000, -1.062500000000, 1490845876
-0.006347656250, -0.973632812500, -0.015380859375, -9.984375000000, 31.859375000000, -8.023437500000, 1490845877
-0.006347656250, -0.973632812500, -0.015380859375, -9.984375000000, 31.859375000000, -8.023437500000, 1490845877
-0.006347656250, -0.973632812500, -0.015380859375, -9.984375000000, 31.859375000000, -8.023437500000, 1490845877
0.075927734375, -0.969482421875, 0.094482421875, -4.929687500000, 17.843750000000, -8.437500000000, 1490845877
0.075927734375, -0.969482421875, 0.094482421875, -4.929687500000, 17.843750000000, -8.437500000000, 1490845877
0.075927734375, -0.969482421875, 0.094482421875, -4.929687500000, 17.843750000000, -8.437500000000, 1490845877
0.075927734375, -0.969482421875, 0.094482421875, -4.929687500000, 17.843750000000, -8.437500000000, 1490845877
-0.002685546875, -0.912353515625, 0.144042968750, -8.492187500000, 5.203125000000, -5.109375000000, 1490845877
-0.002685546875, -0.912353515625, 0.144042968750, -8.492187500000, 5.203125000000, -5.109375000000, 1490845877
-0.002685546875, -0.912353515625, 0.144042968750, -8.492187500000, 5.203125000000, -5.109375000000, 1490845877
0.018066406250, -0.936523437500, 0.134765625000, 3.687500000000, -4.851562500000, -1.929687500000, 1490845877
0.018066406250, -0.936523437500, 0.134765625000, 3.687500000000, -4.851562500000, -1.929687500000, 1490845877
0.018066406250, -0.936523437500, 0.134765625000, 3.687500000000, -4.851562500000, -1.929687500000, 1490845877
0.010498046875, -0.966552734375, 0.067382812500, 12.937500000000, -16.453125000000, -1.312500000000, 1490845877
0.010498046875, -0.966552734375, 0.067382812500, 12.937500000000, -16.453125000000, -1.312500000000, 1490845877
0.010498046875, -0.966552734375, 0.067382812500, 12.937500000000, -16.453125000000, -1.312500000000, 1490845877
-0.070556640625, -0.869384765625, 0.081054687500, 28.492187500000, -28.382812500000, -1.406250000000, 1490845877
-0.070556640625, -0.869384765625, 0.081054687500, 28.492187500000, -28.382812500000, -1.406250000000, 1490845877
-0.070556640625, -0.869384765625, 0.081054687500, 28.492187500000, -28.382812500000, -1.406250000000, 1490845877
-0.070556640625, -0.869384765625, 0.081054687500, 28.492187500000, -28.382812500000, -1.406250000000, 1490845877
0.028320312500, -0.862548828125, 0.023437500000, 38.617187500000, -6.726562500000, -5.609375000000, 1490845877
0.028320312500, -0.862548828125, 0.023437500000, 38.617187500000, -6.726562500000, -5.609375000000, 1490845877
0.028320312500, -0.862548828125, 0.023437500000, 38.617187500000, -6.726562500000, -5.609375000000, 1490845877
-0.025146484375, -0.924316406250, -0.021972656250, 52.046875000000, 6.976562500000, -10.234375000000, 1490845877
-0.025146484375, -0.924316406250, -0.021972656250, 52.046875000000, 6.976562500000, -10.234375000000, 1490845877
-0.025146484375, -0.924316406250, -0.021972656250, 52.046875000000, 6.976562500000, -10.234375000000, 1490845877
0.020019531250, -1.025390625000, 0.033203125000, 41.007812500000, -11.023437500000, -8.445312500000, 1490845877
0.020019531250, -1.025390625000, 0.033203125000, 41.007812500000, -11.023437500000, -8.445312500000, 1490845877
0.020019531250, -1.025390625000, 0.033203125000, 41.007812500000, -11.023437500000, -8.445312500000, 1490845877
-0.009765625000, -1.069580078125, -0.128662109375, 31.281250000000, -12.984375000000, -8.265625000000, 1490845877
-0.009765625000, -1.069580078125, -0.128662109375, 31.281250000000, -12.984375000000, -8.265625000000, 1490845877
-0.009765625000, -1.069580078125, -0.128662109375, 31.281250000000, -12.984375000000, -8.265625000000, 1490845877
-0.009765625000, -1.069580078125, -0.128662109375, 31.281250000000, -12.984375000000, -8.265625000000, 1490845877
-0.080566406250, -1.064453125000, -0.024902343750, 34.210937500000, -11.531250000000, -5.460937500000, 1490845877
-0.016845703125, -0.976806640625, -0.155761718750, 33.070312500000, -33.234375000000, -6.492187500000, 1490845877
-0.016845703125, -0.976806640625, -0.155761718750, 33.070312500000, -33.234375000000, -6.492187500000, 1490845877
-0.034179687500, -0.968261718750, -0.173095703125, 1.335937500000, -10.429687500000, -11.742187500000, 1490845877
-0.034179687500, -0.968261718750, -0.173095703125, 1.335937500000, -10.429687500000, -11.742187500000, 1490845877
-0.034179687500, -0.968261718750, -0.173095703125, 1.335937500000, -10.429687500000, -11.742187500000, 1490845877
-0.034179687500, -0.968261718750, -0.173095703125, 1.335937500000, -10.429687500000, -11.742187500000, 1490845877
-0.045410156250, -0.913085937500, -0.115722656250, -30.468750000000, 11.718750000000, -10.742187500000, 1490845877
-0.045410156250, -0.913085937500, -0.115722656250, -30.468750000000, 11.718750000000, -10.742187500000, 1490845877
-0.045410156250, -0.913085937500, -0.115722656250, -30.468750000000, 11.718750000000, -10.742187500000, 1490845877
-0.045410156250, -0.913085937500, -0.115722656250, -30.468750000000, 11.718750000000, -10.742187500000, 1490845877
-0.045410156250, -0.913085937500, -0.115722656250, -30.468750000000, 11.718750000000, -10.742187500000, 1490845877
-0.045410156250, -0.913085937500, -0.115722656250, -30.468750000000, 11.718750000000, -10.742187500000, 1490845877
0.005371093750, -1.378173828125, -0.267089843750, -93.476562500000, -5.406250000000, 3.562500000000, 1490845877
0.005371093750, -1.378173828125, -0.267089843750, -93.476562500000, -5.406250000000, 3.562500000000, 1490845877
0.005371093750, -1.378173828125, -0.267089843750, -93.476562500000, -5.406250000000, 3.562500000000, 1490845877
0.005371093750, -1.378173828125, -0.267089843750, -93.476562500000, -5.406250000000, 3.562500000000, 1490845877
-0.058593750000, -1.355712890625, -0.268554687500, -96.296875000000, -10.390625000000, 11.070312500000, 1490845877
-0.058593750000, -1.355712890625, -0.268554687500, -96.296875000000, -10.390625000000, 11.070312500000, 1490845877
-0.058593750000, -1.355712890625, -0.268554687500, -96.296875000000, -10.390625000000, 11.070312500000, 1490845877
-0.058593750000, -1.355712890625, -0.268554687500, -96.296875000000, -10.390625000000, 11.070312500000, 1490845877
-0.058593750000, -1.355712890625, -0.268554687500, -96.296875000000, -10.390625000000, 11.070312500000, 1490845877
-0.143554687500, -1.463623046875, -0.248046875000, -88.656250000000, 19.304687500000, 3.828125000000, 1490845877
-0.143554687500, -1.463623046875, -0.248046875000, -88.656250000000, 19.304687500000, 3.828125000000, 1490845877
-0.143554687500, -1.463623046875, -0.248046875000, -88.656250000000, 19.304687500000, 3.828125000000, 1490845877
-0.143554687500, -1.463623046875, -0.248046875000, -88.656250000000, 19.304687500000, 3.828125000000, 1490845877
-0.122558593750, -1.326904296875, -0.180664062500, -68.359375000000, 0.460937500000, 4.828125000000, 1490845877
-0.122558593750, -1.326904296875, -0.180664062500, -68.359375000000, 0.460937500000, 4.828125000000, 1490845877
-0.122558593750, -1.326904296875, -0.180664062500, -68.359375000000, 0.460937500000, 4.828125000000, 1490845877
-0.082519531250, -1.129394531250, -0.183349609375, -43.351562500000, -7.195312500000, 5.859375000000, 1490845877
-0.082519531250, -1.129394531250, -0.183349609375, -43.351562500000, -7.195312500000, 5.859375000000, 1490845877
-0.082519531250, -1.129394531250, -0.183349609375, -43.351562500000, -7.195312500000, 5.859375000000, 1490845877
0.042236328125, -0.950683593750, -0.192382812500, -23.117187500000, 22.539062500000, 6.546875000000, 1490845877
0.042236328125, -0.950683593750, -0.192382812500, -23.117187500000, 22.539062500000, 6.546875000000, 1490845877
0.042236328125, -0.950683593750, -0.192382812500, -23.117187500000, 22.539062500000, 6.546875000000, 1490845878
0.063720703125, -0.754638671875, -0.106445312500, 38.062500000000, -6.953125000000, -12.437500000000, 1490845878
-0.042480468750, -0.819824218750, -0.095703125000, 35.359375000000, -49.687500000000, 0.312500000000, 1490845878
-0.016601562500, -0.726074218750, -0.209472656250, 27.937500000000, -72.710937500000, 2.398437500000, 1490845878
-0.016601562500, -0.726074218750, -0.209472656250, 27.937500000000, -72.710937500000, 2.398437500000, 1490845878
-0.016601562500, -0.726074218750, -0.209472656250, 27.937500000000, -72.710937500000, 2.398437500000, 1490845878
-0.016601562500, -0.726074218750, -0.209472656250, 27.937500000000, -72.710937500000, 2.398437500000, 1490845878
-0.012451171875, -0.823242187500, -0.103759765625, 35.414062500000, -63.296875000000, 8.914062500000, 1490845878
-0.012451171875, -0.823242187500, -0.103759765625, 35.414062500000, -63.296875000000, 8.914062500000, 1490845878
-0.012451171875, -0.823242187500, -0.103759765625, 35.414062500000, -63.296875000000, 8.914062500000, 1490845878
-0.012451171875, -0.823242187500, -0.103759765625, 35.414062500000, -63.296875000000, 8.914062500000, 1490845878
0.056396484375, -0.768798828125, 0.086669921875, 125.429687500000, 53.039062500000, -7.734375000000, 1490845878
0.056396484375, -0.768798828125, 0.086669921875, 125.429687500000, 53.039062500000, -7.734375000000, 1490845878
0.056396484375, -0.768798828125, 0.086669921875, 125.429687500000, 53.039062500000, -7.734375000000, 1490845878
-0.107421875000, -0.876220703125, 0.352050781250, -229.500000000000, -152.585937500000, -19.695312500000, 1490845878
-0.107421875000, -0.876220703125, 0.352050781250, -229.500000000000, -152.585937500000, -19.695312500000, 1490845878
-0.107421875000, -0.876220703125, 0.352050781250, -229.500000000000, -152.585937500000, -19.695312500000, 1490845878
-0.107421875000, -0.876220703125, 0.352050781250, -229.500000000000, -152.585937500000, -19.695312500000, 1490845878
-0.079101562500, -1.079589843750, 0.020996093750, -77.781250000000, -200.007812500000, 20.382812500000, 1490845878
-0.079101562500, -1.079589843750, 0.020996093750, -77.781250000000, -200.007812500000, 20.382812500000, 1490845878
-0.079101562500, -1.079589843750, 0.020996093750, -77.781250000000, -200.007812500000, 20.382812500000, 1490845878
-0.067871093750, -0.722167968750, -0.217041015625, -12.515625000000, 111.718750000000, -33.289062500000, 1490845878
-0.067871093750, -0.722167968750, -0.217041015625, -12.515625000000, 111.718750000000, -33.289062500000, 1490845878
-0.067871093750, -0.722167968750, -0.217041015625, -12.515625000000, 111.718750000000, -33.289062500000, 1490845878
-0.067871093750, -0.722167968750, -0.217041015625, -12.515625000000, 111.718750000000, -33.289062500000, 1490845878
-0.067871093750, -0.722167968750, -0.217041015625, -12.515625000000, 111.718750000000, -33.289062500000, 1490845878
0.140380859375, -0.995849609375, 0.447265625000, 19.960937500000, 199.179687500000, -42.039062500000, 1490845878
0.140380859375, -0.995849609375, 0.447265625000, 19.960937500000, 199.179687500000, -42.039062500000, 1490845878
0.140380859375, -0.995849609375, 0.447265625000, 19.960937500000, 199.179687500000, -42.039062500000, 1490845878
0.140380859375, -0.995849609375, 0.447265625000, 19.960937500000, 199.179687500000, -42.039062500000, 1490845878
0.140380859375, -0.995849609375, 0.447265625000, 19.960937500000, 199.179687500000, -42.039062500000, 1490845878
-0.073974609375, -1.087402343750, 0.227050781250, -71.453125000000, -88.265625000000, 0.625000000000, 1490845878
-0.073974609375, -1.087402343750, 0.227050781250, -71.453125000000, -88.265625000000, 0.625000000000, 1490845878
-0.073974609375, -1.087402343750, 0.227050781250, -71.453125000000, -88.265625000000, 0.625000000000, 1490845878
-0.056884765625, -0.960205078125, 0.068603515625, -20.359375000000, -39.476562500000, 2.585937500000, 1490845878
-0.056884765625, -0.960205078125, 0.068603515625, -20.359375000000, -39.476562500000, 2.585937500000, 1490845878
-0.056884765625, -0.960205078125, 0.068603515625, -20.359375000000, -39.476562500000, 2.585937500000, 1490845878
-0.040527343750, -0.918212890625, 0.252929687500, -3.765625000000, 44.367187500000, -9.343750000000, 1490845878
-0.040527343750, -0.918212890625, 0.252929687500, -3.765625000000, 44.367187500000, -9.343750000000, 1490845878
-0.040527343750, -0.918212890625, 0.252929687500, -3.765625000000, 44.367187500000, -9.343750000000, 1490845878
-0.014404296875, -0.737792968750, 0.105712890625, 8.703125000000, -31.085937500000, 3.562500000000, 1490845878
-0.014404296875, -0.737792968750, 0.105712890625, 8.703125000000, -31.085937500000, 3.562500000000, 1490845878
-0.014404296875, -0.737792968750, 0.105712890625, 8.703125000000, -31.085937500000, 3.562500000000, 1490845878
-0.014404296875, -0.737792968750, 0.105712890625, 8.703125000000, -31.085937500000, 3.562500000000, 1490845878
-0.019287109375, -1.037597656250, 0.211425781250, 11.500000000000, 32.031250000000, -10.921875000000, 1490845878
-0.019287109375, -1.037597656250, 0.211425781250, 11.500000000000, 32.031250000000, -10.921875000000, 1490845878
-0.019287109375, -1.037597656250, 0.211425781250, 11.500000000000, 32.031250000000, -10.921875000000, 1490845878
-0.100097656250, -1.107666015625, 0.245849609375, 7.546875000000, 15.328125000000, -12.421875000000, 1490845878
-0.100097656250, -1.107666015625, 0.245849609375, 7.546875000000, 15.328125000000, -12.421875000000, 1490845878
-0.100097656250, -1.107666015625, 0.245849609375, 7.546875000000, 15.328125000000, -12.421875000000, 1490845878
-0.038330078125, -0.958251953125, 0.060302734375, -20.820312500000, -62.570312500000, -3.531250000000, 1490845878
-0.038330078125, -0.958251953125, 0.060302734375, -20.820312500000, -62.570312500000, -3.531250000000, 1490845878
-0.038330078125, -0.958251953125, 0.060302734375, -20.820312500000, -62.570312500000, -3.531250000000, 1490845878
-0.069335937500, -0.964843750000, 0.093750000000, 3.960937500000, -15.031250000000, -1.382812500000, 1490845878
-0.069335937500, -0.964843750000, 0.093750000000, 3.960937500000, -15.031250000000, -1.382812500000, 1490845878
-0.069335937500, -0.964843750000, 0.093750000000, 3.960937500000, -15.031250000000, -1.382812500000, 1490845878
-0.069335937500, -0.964843750000, 0.093750000000, 3.960937500000, -15.031250000000, -1.382812500000, 1490845878
0.003417968750, -1.013916015625, 0.151367187500, -2.398437500000, 43.523437500000, -11.390625000000, 1490845878
0.003417968750, -1.013916015625, 0.151367187500, -2.398437500000, 43.523437500000, -11.390625000000, 1490845878
0.003417968750, -1.013916015625, 0.151367187500, -2.398437500000, 43.523437500000, -11.390625000000, 1490845878
-0.106445312500, -0.929931640625, 0.197509765625, 1.578125000000, -18.078125000000, -1.757812500000, 1490845878
-0.106445312500, -0.929931640625, 0.197509765625, 1.578125000000, -18.078125000000, -1.757812500000, 1490845878
-0.106445312500, -0.929931640625, 0.197509765625, 1.578125000000, -18.078125000000, -1.757812500000, 1490845878
-0.144287109375, -0.979980468750, 0.197509765625, 3.359375000000, -4.320312500000, -5.085937500000, 1490845878
-0.144287109375, -0.979980468750, 0.197509765625, 3.359375000000, -4.320312500000, -5.085937500000, 1490845878
-0.144287109375, -0.979980468750, 0.197509765625, 3.359375000000, -4.320312500000, -5.085937500000, 1490845878
-0.072753906250, -1.001953125000, 0.198242187500, -7.046875000000, 4.843750000000, -6.335937500000, 1490845879
-0.072753906250, -1.001953125000, 0.198242187500, -7.046875000000, 4.843750000000, -6.335937500000, 1490845879
-0.072753906250, -1.001953125000, 0.198242187500, -7.046875000000, 4.843750000000, -6.335937500000, 1490845879
-0.072753906250, -1.001953125000, 0.198242187500, -7.046875000000, 4.843750000000, -6.335937500000, 1490845879
-0.076660156250, -0.858642578125, 0.143798828125, -4.531250000000, 0.390625000000, -1.671875000000, 1490845879
-0.076660156250, -0.858642578125, 0.143798828125, -4.531250000000, 0.390625000000, -1.671875000000, 1490845879
-0.076660156250, -0.858642578125, 0.143798828125, -4.531250000000, 0.390625000000, -1.671875000000, 1490845879
-0.068115234375, -1.009033203125, 0.132080078125, 4.968750000000, 14.015625000000, -6.359375000000, 1490845879
-0.068115234375, -1.009033203125, 0.132080078125, 4.968750000000, 14.015625000000, -6.359375000000, 1490845879
-0.068115234375, -1.009033203125, 0.132080078125, 4.968750000000, 14.015625000000, -6.359375000000, 1490845879
0.029541015625, -0.970458984375, 0.126220703125, 6.085937500000, 17.328125000000, -3.218750000000, 1490845879
-0.092285156250, -0.906738281250, 0.131835937500, -5.773437500000, 3.359375000000, -4.664062500000, 1490845879
-0.092285156250, -0.906738281250, 0.131835937500, -5.773437500000, 3.359375000000, -4.664062500000, 1490845879
-0.092285156250, -0.906738281250, 0.131835937500, -5.773437500000, 3.359375000000, -4.664062500000, 1490845879
-0.092285156250, -0.906738281250, 0.131835937500, -5.773437500000, 3.359375000000, -4.664062500000, 1490845879
-0.048583984375, -1.027099609375, 0.115722656250, -6.367187500000, -2.304687500000, -2.773437500000, 1490845879
-0.125244140625, -1.021728515625, 0.079101562500, -6.367187500000, -7.000000000000, -2.234375000000, 1490845879
-0.125244140625, -1.021728515625, 0.079101562500, -6.367187500000, -7.000000000000, -2.234375000000, 1490845879
-0.048828125000, -0.922363281250, 0.113281250000, -4.195312500000, -4.023437500000, -1.414062500000, 1490845879
-0.129882812500, -0.941406250000, 0.045410156250, -1.648437500000, 1.539062500000, -4.468750000000, 1490845879
-0.129882812500, -0.941406250000, 0.045410156250, -1.648437500000, 1.539062500000, -4.468750000000, 1490845879
-0.129882812500, -0.941406250000, 0.045410156250, -1.648437500000, 1.539062500000, -4.468750000000, 1490845879
-0.129882812500, -0.941406250000, 0.045410156250, -1.648437500000, 1.539062500000, -4.468750000000, 1490845879
-0.062255859375, -1.001220703125, 0.104248046875, -2.968750000000, 3.125000000000, -4.156250000000, 1490845879
-0.055175781250, -1.000244140625, 0.142089843750, -3.804687500000, -1.070312500000, -4.656250000000, 1490845879
-0.055175781250, -1.000244140625, 0.142089843750, -3.804687500000, -1.070312500000, -4.656250000000, 1490845879
-0.055175781250, -1.000244140625, 0.142089843750, -3.804687500000, -1.070312500000, -4.656250000000, 1490845879
-0.055175781250, -1.000244140625, 0.142089843750, -3.804687500000, -1.070312500000, -4.656250000000, 1490845879
-0.055175781250, -1.000244140625, 0.142089843750, -3.804687500000, -1.070312500000, -4.656250000000, 1490845879
-0.055175781250, -1.000244140625, 0.142089843750, -3.804687500000, -1.070312500000, -4.656250000000, 1490845879
0.005371093750, -1.004638671875, 0.107421875000, -4.101562500000, -3.117187500000, -0.414062500000, 1490845879
0.005371093750, -1.004638671875, 0.107421875000, -4.101562500000, -3.117187500000, -0.414062500000, 1490845879
0.005371093750, -1.004638671875, 0.107421875000, -4.101562500000, -3.117187500000, -0.414062500000, 1490845879
-0.047851562500, -1.013427734375, 0.088134765625, -2.226562500000, 2.085937500000, -3.796875000000, 1490845879
-0.047851562500, -1.013427734375, 0.088134765625, -2.226562500000, 2.085937500000, -3.796875000000, 1490845879
-0.047851562500, -1.013427734375, 0.088134765625, -2.226562500000, 2.085937500000, -3.796875000000, 1490845879
0.002929687500, -0.920166015625, 0.124755859375, -4.453125000000, -2.375000000000, -4.281250000000, 1490845879
0.002929687500, -0.920166015625, 0.124755859375, -4.453125000000, -2.375000000000, -4.281250000000, 1490845879
0.002929687500, -0.920166015625, 0.124755859375, -4.453125000000, -2.375000000000, -4.281250000000, 1490845879
0.006591796875, -0.977050781250, 0.190917968750, -4.367187500000, -2.289062500000, -6.406250000000, 1490845879
0.006591796875, -0.977050781250, 0.190917968750, -4.367187500000, -2.289062500000, -6.406250000000, 1490845879
0.006591796875, -0.977050781250, 0.190917968750, -4.367187500000, -2.289062500000, -6.406250000000, 1490845879
0.006591796875, -0.977050781250, 0.190917968750, -4.367187500000, -2.289062500000, -6.406250000000, 1490845879
0.003906250000, -1.016113281250, 0.059326171875, -4.468750000000, -3.617187500000, -3.140625000000, 1490845879
0.003906250000, -1.016113281250, 0.059326171875, -4.468750000000, -3.617187500000, -3.140625000000, 1490845879
0.003906250000, -1.016113281250, 0.059326171875, -4.468750000000, -3.617187500000, -3.140625000000, 1490845879
-0.059570312500, -1.065673828125, 0.134765625000, -4.984375000000, 2.421875000000, -6.851562500000, 1490845879
-0.059570312500, -1.065673828125, 0.134765625000, -4.984375000000, 2.421875000000, -6.851562500000, 1490845879
-0.059570312500, -1.065673828125, 0.134765625000, -4.984375000000, 2.421875000000, -6.851562500000, 1490845879
-0.042724609375, -0.981689453125, 0.170654296875, -2.351562500000, -4.640625000000, -1.500000000000, 1490845879
-0.042724609375, -0.981689453125, 0.170654296875, -2.351562500000, -4.640625000000, -1.500000000000, 1490845879
-0.042724609375, -0.981689453125, 0.170654296875, -2.351562500000, -4.640625000000, -1.500000000000, 1490845879
-0.025878906250, -0.906982421875, 0.057617187500, -1.289062500000, -0.304687500000, -3.351562500000, 1490845879
-0.155517578125, -1.029785156250, 0.032958984375, -3.625000000000, -8.484375000000, -4.476562500000, 1490845879
-0.053222656250, -0.975097656250, -0.000732421875, -3.609375000000, -8.218750000000, -2.000000000000, 1490845879
-0.053222656250, -0.975097656250, -0.000732421875, -3.609375000000, -8.218750000000, -2.000000000000, 1490845879
-0.053222656250, -0.975097656250, -0.000732421875, -3.609375000000, -8.218750000000, -2.000000000000, 1490845879
0.025634765625, -1.067626953125, 0.142333984375, -4.437500000000, 2.390625000000, -4.742187500000, 1490845879
0.025634765625, -1.067626953125, 0.142333984375, -4.437500000000, 2.390625000000, -4.742187500000, 1490845879
0.025634765625, -1.067626953125, 0.142333984375, -4.437500000000, 2.390625000000, -4.742187500000, 1490845879
0.028076171875, -0.926757812500, 0.062011718750, -4.593750000000, 4.515625000000, -4.867187500000, 1490845879
0.028076171875, -0.926757812500, 0.062011718750, -4.593750000000, 4.515625000000, -4.867187500000, 1490845879
0.028076171875, -0.926757812500, 0.062011718750, -4.593750000000, 4.515625000000, -4.867187500000, 1490845879
0.007324218750, -1.107910156250, 0.195800781250, -1.757812500000, -0.656250000000, -0.015625000000, 1490845879
0.007324218750, -1.107910156250, 0.195800781250, -1.757812500000, -0.656250000000, -0.015625000000, 1490845879
0.007324218750, -1.107910156250, 0.195800781250, -1.757812500000, -0.656250000000, -0.015625000000, 1490845879
0.007324218750, -1.107910156250, 0.195800781250, -1.757812500000, -0.656250000000, -0.015625000000, 1490845879
0.007324218750, -1.107910156250, 0.195800781250, -1.757812500000, -0.656250000000, -0.015625000000, 1490845879
0.007324218750, -1.107910156250, 0.195800781250, -1.757812500000, -0.656250000000, -0.015625000000, 1490845880
0.018554687500, -1.018798828125, 0.140136718750, -2.695312500000, 2.046875000000, -1.820312500000, 1490845880
0.018554687500, -1.018798828125, 0.140136718750, -2.695312500000, 2.046875000000, -1.820312500000, 1490845880
0.018554687500, -1.018798828125, 0.140136718750, -2.695312500000, 2.046875000000, -1.820312500000, 1490845880
-0.083251953125, -1.014404296875, 0.055908203125, -4.226562500000, -3.078125000000, -1.125000000000, 1490845880
-0.083251953125, -1.014404296875, 0.055908203125, -4.226562500000, -3.078125000000, -1.125000000000, 1490845880
-0.083251953125, -1.014404296875, 0.055908203125, -4.226562500000, -3.078125000000, -1.125000000000, 1490845880
-0.045654296875, -0.976806640625, 0.113769531250, -3.109375000000, -2.062500000000, -3.562500000000, 1490845880
-0.045654296875, -0.976806640625, 0.113769531250, -3.109375000000, -2.062500000000, -3.562500000000, 1490845880
-0.045654296875, -0.976806640625, 0.113769531250, -3.109375000000, -2.062500000000, -3.562500000000, 1490845880
0.014648437500, -0.925537109375, 0.042724609375, -6.007812500000, 2.101562500000, -3.343750000000, 1490845880
0.014648437500, -0.925537109375, 0.042724609375, -6.007812500000, 2.101562500000, -3.343750000000, 1490845880
0.014648437500, -0.925537109375, 0.042724609375, -6.007812500000, 2.101562500000, -3.343750000000, 1490845880
0.014648437500, -0.925537109375, 0.042724609375, -6.007812500000, 2.101562500000, -3.343750000000, 1490845880
-0.019042968750, -0.987304687500, 0.102539062500, -6.304687500000, 10.570312500000, -4.562500000000, 1490845880
-0.019042968750, -0.987304687500, 0.102539062500, -6.304687500000, 10.570312500000, -4.562500000000, 1490845880
-0.019042968750, -0.987304687500, 0.102539062500, -6.304687500000, 10.570312500000, -4.562500000000, 1490845880
-0.045898437500, -0.971191406250, 0.121582031250, -6.492187500000, 8.085937500000, -2.875000000000, 1490845880
-0.045898437500, -0.971191406250, 0.121582031250, -6.492187500000, 8.085937500000, -2.875000000000, 1490845880
-0.045898437500, -0.971191406250, 0.121582031250, -6.492187500000, 8.085937500000, -2.875000000000, 1490845880
0.034667968750, -0.924316406250, 0.147460937500, -6.906250000000, 11.484375000000, -3.234375000000, 1490845880
0.034667968750, -0.924316406250, 0.147460937500, -6.906250000000, 11.484375000000, -3.234375000000, 1490845880
0.034667968750, -0.924316406250, 0.147460937500, -6.906250000000, 11.484375000000, -3.234375000000, 1490845880
0.024169921875, -0.977783203125, 0.104980468750, -8.164062500000, 23.203125000000, -2.437500000000, 1490845880
0.024169921875, -0.977783203125, 0.104980468750, -8.164062500000, 23.203125000000, -2.437500000000, 1490845880
0.024169921875, -0.977783203125, 0.104980468750, -8.164062500000, 23.203125000000, -2.437500000000, 1490845880
0.024169921875, -0.977783203125, 0.104980468750, -8.164062500000, 23.203125000000, -2.437500000000, 1490845880
0.017089843750, -0.970214843750, 0.145263671875, -5.617187500000, 25.656250000000, -1.367187500000, 1490845880
0.017089843750, -0.970214843750, 0.145263671875, -5.617187500000, 25.656250000000, -1.367187500000, 1490845880
0.017089843750, -0.970214843750, 0.145263671875, -5.617187500000, 25.656250000000, -1.367187500000, 1490845880
-0.079345703125, -1.027099609375, 0.062011718750, -8.234375000000, 30.773437500000, -4.640625000000, 1490845880
-0.079345703125, -1.027099609375, 0.062011718750, -8.234375000000, 30.773437500000, -4.640625000000, 1490845880
-0.079345703125, -1.027099609375, 0.062011718750, -8.234375000000, 30.773437500000, -4.640625000000, 1490845880
-0.085449218750, -1.044677734375, 0.050292968750, -6.953125000000, 26.500000000000, 0.187500000000, 1490845880
-0.085449218750, -1.044677734375, 0.050292968750, -6.953125000000, 26.500000000000, 0.187500000000, 1490845880
-0.085449218750, -1.044677734375, 0.050292968750, -6.953125000000, 26.500000000000, 0.187500000000, 1490845880
0.000244140625, -1.029296875000, 0.102783203125, -1.367187500000, 31.515625000000, -4.710937500000, 1490845880
0.000244140625, -1.029296875000, 0.102783203125, -1.367187500000, 31.515625000000, -4.710937500000, 1490845880
0.000244140625, -1.029296875000, 0.102783203125, -1.367187500000, 31.515625000000, -4.710937500000, 1490845880
0.000244140625, -1.029296875000, 0.102783203125, -1.367187500000, 31.515625000000, -4.710937500000, 1490845880
-0.091796875000, -1.063476562500, 0.124023437500, -3.484375000000, 29.296875000000, -1.437500000000, 1490845880
-0.091796875000, -1.063476562500, 0.124023437500, -3.484375000000, 29.296875000000, -1.437500000000, 1490845880
-0.091796875000, -1.063476562500, 0.124023437500, -3.484375000000, 29.296875000000, -1.437500000000, 1490845880
-0.057617187500, -0.927246093750, 0.135742187500, -5.609375000000, 23.976562500000, -2.992187500000, 1490845880
-0.057617187500, -0.927246093750, 0.135742187500, -5.609375000000, 23.976562500000, -2.992187500000, 1490845880
-0.057617187500, -0.927246093750, 0.135742187500, -5.609375000000, 23.976562500000, -2.992187500000, 1490845880
-0.039794921875, -0.937255859375, 0.037109375000, -0.109375000000, 36.125000000000, 2.289062500000, 1490845880
-0.039794921875, -0.937255859375, 0.037109375000, -0.109375000000, 36.125000000000, 2.289062500000, 1490845880
-0.039794921875, -0.937255859375, 0.037109375000, -0.109375000000, 36.125000000000, 2.289062500000, 1490845880
-0.004150390625, -1.008789062500, 0.046630859375, -4.000000000000, 31.015625000000, 2.234375000000, 1490845880
-0.004150390625, -1.008789062500, 0.046630859375, -4.000000000000, 31.015625000000, 2.234375000000, 1490845880
-0.004150390625, -1.008789062500, 0.046630859375, -4.000000000000, 31.015625000000, 2.234375000000, 1490845880
-0.004150390625, -1.008789062500, 0.046630859375, -4.000000000000, 31.015625000000, 2.234375000000, 1490845880
-0.046875000000, -0.960693359375, 0.058837890625, -1.039062500000, 41.625000000000, 8.382812500000, 1490845880
-0.046875000000, -0.960693359375, 0.058837890625, -1.039062500000, 41.625000000000, 8.382812500000, 1490845880
-0.046875000000, -0.960693359375, 0.058837890625, -1.039062500000, 41.625000000000, 8.382812500000, 1490845880
-0.030761718750, -0.906005859375, 0.128417968750, -3.507812500000, 34.164062500000, 8.351562500000, 1490845880
-0.030761718750, -0.906005859375, 0.128417968750, -3.507812500000, 34.164062500000, 8.351562500000, 1490845880
-0.030761718750, -0.906005859375, 0.128417968750, -3.507812500000, 34.164062500000, 8.351562500000, 1490845880
-0.129638671875, -0.971191406250, 0.094970703125, -11.828125000000, 42.867187500000, -0.531250000000, 1490845880
-0.129638671875, -0.971191406250, 0.094970703125, -11.828125000000, 42.867187500000, -0.531250000000, 1490845880
-0.129638671875, -0.971191406250, 0.094970703125, -11.828125000000, 42.867187500000, -0.531250000000, 1490845880
-0.086181640625, -0.963867187500, 0.054443359375, -7.179687500000, 34.601562500000, 4.062500000000, 1490845880
-0.086181640625, -0.963867187500, 0.054443359375, -7.179687500000, 34.601562500000, 4.062500000000, 1490845880
-0.086181640625, -0.963867187500, 0.054443359375, -7.179687500000, 34.601562500000, 4.062500000000, 1490845880
-0.086181640625, -0.963867187500, 0.054443359375, -7.179687500000, 34.601562500000, 4.062500000000, 1490845880
