ACC_X,ACC_Y,ACC_Z,G_X,G_Y,G_Z,Unix Time
0.230224609375, -0.063720703125, 0.972900390625, -4.703125000000, 0.210937500000, -4.281250000000, 1490845645
0.230224609375, -0.063720703125, 0.972900390625, -4.703125000000, 0.210937500000, -4.281250000000, 1490845645
0.156982421875, -0.048339843750, 1.002929687500, -4.898437500000, 0.898437500000, -3.320312500000, 1490845645
0.156982421875, -0.048339843750, 1.002929687500, -4.898437500000, 0.898437500000, -3.320312500000, 1490845645
0.097900390625, 0.007812500000, 0.991943359375, -3.218750000000, 2.570312500000, -4.867187500000, 1490845645
0.097900390625, 0.007812500000, 0.991943359375, -3.218750000000, 2.570312500000, -4.867187500000, 1490845645
0.097900390625, 0.007812500000, 0.991943359375, -3.218750000000, 2.570312500000, -4.867187500000, 1490845645
0.202636718750, -0.072021484375, 1.019042968750, -1.203125000000, 2.906250000000, -3.429687500000, 1490845645
0.259521484375, -0.044189453125, 0.986083984375, -1.312500000000, 4.820312500000, -3.828125000000, 1490845645
0.259521484375, -0.044189453125, 0.986083984375, -1.312500000000, 4.820312500000, -3.828125000000, 1490845645
0.259521484375, -0.044189453125, 0.986083984375, -1.312500000000, 4.820312500000, -3.828125000000, 1490845645
0.259521484375, -0.044189453125, 0.986083984375, -1.312500000000, 4.820312500000, -3.828125000000, 1490845645
0.259521484375, -0.044189453125, 0.986083984375, -1.312500000000, 4.820312500000, -3.828125000000, 1490845645
0.201660156250, -0.072998046875, 0.993164062500, -3.203125000000, -2.687500000000, -5.390625000000, 1490845645
0.201660156250, -0.072998046875, 0.993164062500, -3.203125000000, -2.687500000000, -5.390625000000, 1490845645
0.201660156250, -0.072998046875, 0.993164062500, -3.203125000000, -2.687500000000, -5.390625000000, 1490845645
0.201660156250, -0.072998046875, 0.993164062500, -3.203125000000, -2.687500000000, -5.390625000000, 1490845645
0.175781250000, 0.008789062500, 1.014404296875, -3.007812500000, -0.148437500000, -5.179687500000, 1490845645
0.175781250000, 0.008789062500, 1.014404296875, -3.007812500000, -0.148437500000, -5.179687500000, 1490845645
0.175781250000, 0.008789062500, 1.014404296875, -3.007812500000, -0.148437500000, -5.179687500000, 1490845645
0.150146484375, 0.091064453125, 0.970214843750, -3.289062500000, 0.703125000000, -2.726562500000, 1490845645
0.150146484375, 0.091064453125, 0.970214843750, -3.289062500000, 0.703125000000, -2.726562500000, 1490845645
0.150146484375, 0.091064453125, 0.970214843750, -3.289062500000, 0.703125000000, -2.726562500000, 1490845645
0.150146484375, 0.091064453125, 0.970214843750, -3.289062500000, 0.703125000000, -2.726562500000, 1490845645
0.150146484375, 0.091064453125, 0.970214843750, -3.289062500000, 0.703125000000, -2.726562500000, 1490845645
0.157714843750, -0.093750000000, 0.989990234375, -3.554687500000, -0.750000000000, -5.546875000000, 1490845645
0.157714843750, -0.093750000000, 0.989990234375, -3.554687500000, -0.750000000000, -5.546875000000, 1490845645
0.157714843750, -0.093750000000, 0.989990234375, -3.554687500000, -0.750000000000, -5.546875000000, 1490845645
0.157714843750, -0.093750000000, 0.989990234375, -3.554687500000, -0.750000000000, -5.546875000000, 1490845645
0.157714843750, -0.093750000000, 0.989990234375, -3.554687500000, -0.750000000000, -5.546875000000, 1490845645
0.250732421875, 0.002685546875, 1.012207031250, -3.343750000000, 1.132812500000, -4.195312500000, 1490845645
0.250732421875, 0.002685546875, 1.012207031250, -3.343750000000, 1.132812500000, -4.195312500000, 1490845645
0.250732421875, 0.002685546875, 1.012207031250, -3.343750000000, 1.132812500000, -4.195312500000, 1490845645
0.108154296875, 0.023925781250, 1.020996093750, -6.093750000000, 2.429687500000, -2.257812500000, 1490845646
0.108154296875, 0.023925781250, 1.020996093750, -6.093750000000, 2.429687500000, -2.257812500000, 1490845646
0.108154296875, 0.023925781250, 1.020996093750, -6.093750000000, 2.429687500000, -2.257812500000, 1490845646
0.108154296875, 0.023925781250, 1.020996093750, -6.093750000000, 2.429687500000, -2.257812500000, 1490845646
0.108154296875, 0.023925781250, 1.020996093750, -6.093750000000, 2.429687500000, -2.257812500000, 1490845646
0.110351562500, 0.045654296875, 1.064941406250, -3.812500000000, 2.453125000000, -6.757812500000, 1490845646
0.110351562500, 0.045654296875, 1.064941406250, -3.812500000000, 2.453125000000, -6.757812500000, 1490845646
0.187255859375, -0.080566406250, 1.004150390625, -1.750000000000, -0.476562500000, -6.968750000000, 1490845646
0.187255859375, -0.080566406250, 1.004150390625, -1.750000000000, -0.476562500000, -6.968750000000, 1490845646
0.187255859375, -0.080566406250, 1.004150390625, -1.750000000000, -0.476562500000, -6.968750000000, 1490845646
0.187255859375, -0.080566406250, 1.004150390625, -1.750000000000, -0.476562500000, -6.968750000000, 1490845646
0.187255859375, -0.080566406250, 1.004150390625, -1.750000000000, -0.476562500000, -6.968750000000, 1490845646
0.177490234375, -0.024658203125, 0.998046875000, -3.820312500000, -0.906250000000, -6.742187500000, 1490845646
0.177490234375, -0.024658203125, 0.998046875000, -3.820312500000, -0.906250000000, -6.742187500000, 1490845646
0.177490234375, -0.024658203125, 0.998046875000, -3.820312500000, -0.906250000000, -6.742187500000, 1490845646
0.177490234375, -0.024658203125, 0.998046875000, -3.820312500000, -0.906250000000, -6.742187500000, 1490845646
0.163574218750, 0.064208984375, 1.028564453125, -2.914062500000, 3.632812500000, -4.148437500000, 1490845646
0.163574218750, 0.064208984375, 1.028564453125, -2.914062500000, 3.632812500000, -4.148437500000, 1490845646
0.163574218750, 0.064208984375, 1.028564453125, -2.914062500000, 3.632812500000, -4.148437500000, 1490845646
0.213378906250, -0.087158203125, 0.977539062500, -3.148437500000, -0.687500000000, -3.742187500000, 1490845646
0.213378906250, -0.087158203125, 0.977539062500, -3.148437500000, -0.687500000000, -3.742187500000, 1490845646
0.207031250000, 0.014892578125, 0.950195312500, -6.914062500000, -2.968750000000, -4.085937500000, 1490845646
0.207031250000, 0.014892578125, 0.950195312500, -6.914062500000, -2.968750000000, -4.085937500000, 1490845646
0.207031250000, 0.014892578125, 0.950195312500, -6.914062500000, -2.968750000000, -4.085937500000, 1490845646
0.207031250000, 0.014892578125, 0.950195312500, -6.914062500000, -2.968750000000, -4.085937500000, 1490845646
0.207031250000, 0.014892578125, 0.950195312500, -6.914062500000, -2.968750000000, -4.085937500000, 1490845646
0.221191406250, -0.091796875000, 1.010009765625, -1.625000000000, -2.484375000000, -1.195312500000, 1490845646
0.221191406250, -0.091796875000, 1.010009765625, -1.625000000000, -2.484375000000, -1.195312500000, 1490845646
0.221191406250, -0.091796875000, 1.010009765625, -1.625000000000, -2.484375000000, -1.195312500000, 1490845646
0.327392578125, 0.029541015625, 1.010253906250, -3.070312500000, 1.593750000000, -3.742187500000, 1490845646
0.327392578125, 0.029541015625, 1.010253906250, -3.070312500000, 1.593750000000, -3.742187500000, 1490845646
0.327392578125, 0.029541015625, 1.010253906250, -3.070312500000, 1.593750000000, -3.742187500000, 1490845646
0.103027343750, -0.018798828125, 1.015136718750, -4.843750000000, -0.054687500000, -4.242187500000, 1490845646
0.103027343750, -0.018798828125, 1.015136718750, -4.843750000000, -0.054687500000, -4.242187500000, 1490845646
0.103027343750, -0.018798828125, 1.015136718750, -4.843750000000, -0.054687500000, -4.242187500000, 1490845646
0.103027343750, -0.018798828125, 1.015136718750, -4.843750000000, -0.054687500000, -4.242187500000, 1490845646
0.201416015625, -0.147216796875, 1.018554687500, -4.726562500000, 2.500000000000, -3.218750000000, 1490845646
0.201416015625, -0.147216796875, 1.018554687500, -4.726562500000, 2.500000000000, -3.218750000000, 1490845646
0.201416015625, -0.147216796875, 1.018554687500, -4.726562500000, 2.500000000000, -3.218750000000, 1490845646
0.159423828125, -0.036865234375, 1.012207031250, -2.343750000000, 1.539062500000, -6.601562500000, 1490845646
0.159423828125, -0.036865234375, 1.012207031250, -2.343750000000, 1.539062500000, -6.601562500000, 1490845646
0.159423828125, -0.036865234375, 1.012207031250, -2.343750000000, 1.539062500000, -6.601562500000, 1490845646
0.248291015625, -0.088378906250, 1.067382812500, -1.335937500000, 0.343750000000, -2.039062500000, 1490845646
0.248291015625, -0.088378906250, 1.067382812500, -1.335937500000, 0.343750000000, -2.039062500000, 1490845646
0.248291015625, -0.088378906250, 1.067382812500, -1.335937500000, 0.343750000000, -2.039062500000, 1490845646
0.110595703125, -0.079833984375, 0.928710937500, -2.000000000000, 0.421875000000, -8.367187500000, 1490845646
0.110595703125, -0.079833984375, 0.928710937500, -2.000000000000, 0.421875000000, -8.367187500000, 1490845646
0.110595703125, -0.079833984375, 0.928710937500, -2.000000000000, 0.421875000000, -8.367187500000, 1490845646
0.110595703125, -0.079833984375, 0.928710937500, -2.000000000000, 0.421875000000, -8.367187500000, 1490845646
0.190917968750, 0.063720703125, 0.978271484375, -3.429687500000, 0.562500000000, -5.289062500000, 1490845646
0.190917968750, 0.063720703125, 0.978271484375, -3.429687500000, 0.562500000000, -5.289062500000, 1490845646
0.190917968750, 0.063720703125, 0.978271484375, -3.429687500000, 0.562500000000, -5.289062500000, 1490845646
0.198242187500, -0.156250000000, 0.909912109375, -4.640625000000, 2.375000000000, -2.492187500000, 1490845646
0.198242187500, -0.156250000000, 0.909912109375, -4.640625000000, 2.375000000000, -2.492187500000, 1490845646
0.198242187500, -0.156250000000, 0.909912109375, -4.640625000000, 2.375000000000, -2.492187500000, 1490845646
0.179687500000, 0.016357421875, 1.026123046875, -4.781250000000, 0.914062500000, -8.484375000000, 1490845646
0.179687500000, 0.016357421875, 1.026123046875, -4.781250000000, 0.914062500000, -8.484375000000, 1490845646
0.179687500000, 0.016357421875, 1.026123046875, -4.781250000000, 0.914062500000, -8.484375000000, 1490845646
0.173828125000, -0.037597656250, 0.916748046875, -3.898437500000, -0.859375000000, -7.867187500000, 1490845646
0.173828125000, -0.037597656250, 0.916748046875, -3.898437500000, -0.859375000000, -7.867187500000, 1490845646
0.173828125000, -0.037597656250, 0.916748046875, -3.898437500000, -0.859375000000, -7.867187500000, 1490845646
0.173828125000, -0.037597656250, 0.916748046875, -3.898437500000, -0.859375000000, -7.867187500000, 1490845646
0.167724609375, -0.051513671875, 0.990478515625, -3.250000000000, 0.375000000000, -6.437500000000, 1490845646
0.167724609375, -0.051513671875, 0.990478515625, -3.250000000000, 0.375000000000, -6.437500000000, 1490845646
0.169921875000, 0.029296875000, 1.003417968750, 0.218750000000, 2.484375000000, -6.765625000000, 1490845646
0.169921875000, 0.029296875000, 1.003417968750, 0.218750000000, 2.484375000000, -6.765625000000, 1490845646
0.169921875000, 0.029296875000, 1.003417968750, 0.218750000000, 2.484375000000, -6.765625000000, 1490845646
0.169921875000, 0.029296875000, 1.003417968750, 0.218750000000, 2.484375000000, -6.765625000000, 1490845646
0.189697265625, -0.085205078125, 1.006591796875, -6.796875000000, -1.148437500000, -4.523437500000, 1490845646
0.189697265625, -0.085205078125, 1.006591796875, -6.796875000000, -1.148437500000, -4.523437500000, 1490845647
0.189697265625, -0.085205078125, 1.006591796875, -6.796875000000, -1.148437500000, -4.523437500000, 1490845647
0.198730468750, -0.129394531250, 1.064453125000, -1.796875000000, 2.007812500000, -6.187500000000, 1490845647
0.198730468750, -0.129394531250, 1.064453125000, -1.796875000000, 2.007812500000, -6.187500000000, 1490845647
0.198730468750, -0.129394531250, 1.064453125000, -1.796875000000, 2.007812500000, -6.187500000000, 1490845647
0.198730468750, -0.129394531250, 1.064453125000, -1.796875000000, 2.007812500000, -6.187500000000, 1490845647
0.251220703125, -0.077148437500, 1.021484375000, -4.203125000000, -2.828125000000, -3.382812500000, 1490845647
0.251220703125, -0.077148437500, 1.021484375000, -4.203125000000, -2.828125000000, -3.382812500000, 1490845647
0.251220703125, -0.077148437500, 1.021484375000, -4.203125000000, -2.828125000000, -3.382812500000, 1490845647
0.195312500000, -0.068359375000, 1.022460937500, -4.046875000000, -0.109375000000, -1.820312500000, 1490845647
0.195312500000, -0.068359375000, 1.022460937500, -4.046875000000, -0.109375000000, -1.820312500000, 1490845647
0.195312500000, -0.068359375000, 1.022460937500, -4.046875000000, -0.109375000000, -1.820312500000, 1490845647
0.175048828125, 0.020263671875, 1.012939453125, -3.015625000000, -0.968750000000, -6.234375000000, 1490845647
0.175048828125, 0.020263671875, 1.012939453125, -3.015625000000, -0.968750000000, -6.234375000000, 1490845647
0.175048828125, 0.020263671875, 1.012939453125, -3.015625000000, -0.968750000000, -6.234375000000, 1490845647
0.208496093750, -0.032958984375, 0.993652343750, -1.039062500000, 2.117187500000, -8.085937500000, 1490845647
0.208496093750, -0.032958984375, 0.993652343750, -1.039062500000, 2.117187500000, -8.085937500000, 1490845647
0.208496093750, -0.032958984375, 0.993652343750, -1.039062500000, 2.117187500000, -8.085937500000, 1490845647
0.208496093750, -0.032958984375, 0.993652343750, -1.039062500000, 2.117187500000, -8.085937500000, 1490845647
0.215087890625, -0.135742187500, 0.925048828125, 0.179687500000, 3.421875000000, -4.031250000000, 1490845647
0.215087890625, -0.135742187500, 0.925048828125, 0.179687500000, 3.421875000000, -4.031250000000, 1490845647
0.215087890625, -0.135742187500, 0.925048828125, 0.179687500000, 3.421875000000, -4.031250000000, 1490845647
0.185791015625, -0.089111328125, 1.003906250000, 1.851562500000, 7.468750000000, -8.898437500000, 1490845647
0.185791015625, -0.089111328125, 1.003906250000, 1.851562500000, 7.468750000000, -8.898437500000, 1490845647
0.185791015625, -0.089111328125, 1.003906250000, 1.851562500000, 7.468750000000, -8.898437500000, 1490845647
0.168945312500, 0.027343750000, 0.991210937500, -2.218750000000, 3.109375000000, -6.765625000000, 1490845647
0.168945312500, 0.027343750000, 0.991210937500, -2.218750000000, 3.109375000000, -6.765625000000, 1490845647
0.168945312500, 0.027343750000, 0.991210937500, -2.218750000000, 3.109375000000, -6.765625000000, 1490845647
0.154052734375, -0.093505859375, 0.973876953125, -1.890625000000, 4.781250000000, -3.812500000000, 1490845647
0.154052734375, -0.093505859375, 0.973876953125, -1.890625000000, 4.781250000000, -3.812500000000, 1490845647
0.154052734375, -0.093505859375, 0.973876953125, -1.890625000000, 4.781250000000, -3.812500000000, 1490845647
0.154052734375, -0.093505859375, 0.973876953125, -1.890625000000, 4.781250000000, -3.812500000000, 1490845647
0.184570312500, 0.028564453125, 1.065185546875, -4.656250000000, 1.828125000000, -4.195312500000, 1490845647
0.184570312500, 0.028564453125, 1.065185546875, -4.656250000000, 1.828125000000, -4.195312500000, 1490845647
0.184570312500, 0.028564453125, 1.065185546875, -4.656250000000, 1.828125000000, -4.195312500000, 1490845647
0.135009765625, -0.080566406250, 1.022460937500, -1.500000000000, 1.375000000000, -1.804687500000, 1490845647
0.135009765625, -0.080566406250, 1.022460937500, -1.500000000000, 1.375000000000, -1.804687500000, 1490845647
0.135009765625, -0.080566406250, 1.022460937500, -1.500000000000, 1.375000000000, -1.804687500000, 1490845647
0.182128906250, -0.032958984375, 0.982421875000, -1.992187500000, 1.773437500000, -6.265625000000, 1490845647
0.182128906250, -0.032958984375, 0.982421875000, -1.992187500000, 1.773437500000, -6.265625000000, 1490845647
0.182128906250, -0.032958984375, 0.982421875000, -1.992187500000, 1.773437500000, -6.265625000000, 1490845647
0.252197265625, -0.034423828125, 1.088134765625, -3.101562500000, 6.109375000000, -1.234375000000, 1490845647
0.252197265625, -0.034423828125, 1.088134765625, -3.101562500000, 6.109375000000, -1.234375000000, 1490845647
0.252197265625, -0.034423828125, 1.088134765625, -3.101562500000, 6.109375000000, -1.234375000000, 1490845647
0.252197265625, -0.034423828125, 1.088134765625, -3.101562500000, 6.109375000000, -1.234375000000, 1490845647
0.214111328125, 0.081542968750, 0.970458984375, -3.546875000000, -1.640625000000, -4.257812500000, 1490845647
0.214111328125, 0.081542968750, 0.970458984375, -3.546875000000, -1.640625000000, -4.257812500000, 1490845647
0.214111328125, 0.081542968750, 0.970458984375, -3.546875000000, -1.640625000000, -4.257812500000, 1490845647
0.209228515625, -0.084960937500, 0.956054687500, -8.070312500000, -2.195312500000, -1.898437500000, 1490845647
0.209228515625, -0.084960937500, 0.956054687500, -8.070312500000, -2.195312500000, -1.898437500000, 1490845647
0.209228515625, -0.084960937500, 0.956054687500, -8.070312500000, -2.195312500000, -1.898437500000, 1490845647
0.175292968750, 0.083496093750, 1.032470703125, -3.164062500000, 0.242187500000, -1.507812500000, 1490845647
0.175292968750, 0.083496093750, 1.032470703125, -3.164062500000, 0.242187500000, -1.507812500000, 1490845647
0.175292968750, 0.083496093750, 1.032470703125, -3.164062500000, 0.242187500000, -1.507812500000, 1490845647
0.162109375000, -0.126220703125, 1.006103515625, -1.703125000000, -2.343750000000, -5.117187500000, 1490845647
0.162109375000, -0.126220703125, 1.006103515625, -1.703125000000, -2.343750000000, -5.117187500000, 1490845647
0.162109375000, -0.126220703125, 1.006103515625, -1.703125000000, -2.343750000000, -5.117187500000, 1490845647
0.162109375000, -0.126220703125, 1.006103515625, -1.703125000000, -2.343750000000, -5.117187500000, 1490845647
0.115966796875, -0.046630859375, 1.028564453125, 1.015625000000, 0.156250000000, 2.867187500000, 1490845647
0.115966796875, -0.046630859375, 1.028564453125, 1.015625000000, 0.156250000000, 2.867187500000, 1490845647
0.105712890625, 0.017089843750, 0.938476562500, 8.257812500000, -4.242187500000, -5.000000000000, 1490845647
0.105712890625, 0.017089843750, 0.938476562500, 8.257812500000, -4.242187500000, -5.000000000000, 1490845647
0.105712890625, 0.017089843750, 0.938476562500, 8.257812500000, -4.242187500000, -5.000000000000, 1490845647
0.105712890625, 0.017089843750, 0.938476562500, 8.257812500000, -4.242187500000, -5.000000000000, 1490845647
0.201416015625, -0.042480468750, 0.968750000000, 9.468750000000, -3.265625000000, -1.742187500000, 1490845647
0.201416015625, -0.042480468750, 0.968750000000, 9.468750000000, -3.265625000000, -1.742187500000, 1490845647
0.201416015625, -0.042480468750, 0.968750000000, 9.468750000000, -3.265625000000, -1.742187500000, 1490845648
0.190673828125, -0.118652343750, 0.951904296875, 1.257812500000, 2.906250000000, -8.031250000000, 1490845648
0.190673828125, -0.118652343750, 0.951904296875, 1.257812500000, 2.906250000000, -8.031250000000, 1490845648
0.190673828125, -0.118652343750, 0.951904296875, 1.257812500000, 2.906250000000, -8.031250000000, 1490845648
0.190673828125, -0.118652343750, 0.951904296875, 1.257812500000, 2.906250000000, -8.031250000000, 1490845648
0.158935546875, -0.101562500000, 1.030029296875, 11.757812500000, 14.000000000000, -12.523437500000, 1490845648
0.158935546875, -0.101562500000, 1.030029296875, 11.757812500000, 14.000000000000, -12.523437500000, 1490845648
0.194580078125, -0.062988281250, 1.004638671875, 5.960937500000, 15.328125000000, -14.554687500000, 1490845648
0.194580078125, -0.062988281250, 1.004638671875, 5.960937500000, 15.328125000000, -14.554687500000, 1490845648
0.194580078125, -0.062988281250, 1.004638671875, 5.960937500000, 15.328125000000, -14.554687500000, 1490845648
0.194580078125, -0.062988281250, 1.004638671875, 5.960937500000, 15.328125000000, -14.554687500000, 1490845648
0.215332031250, 0.008544921875, 0.989501953125, 23.453125000000, 23.882812500000, -9.820312500000, 1490845648
0.215332031250, 0.008544921875, 0.989501953125, 23.453125000000, 23.882812500000, -9.820312500000, 1490845648
0.188964843750, -0.068603515625, 0.982177734375, 19.382812500000, 21.054687500000, -5.593750000000, 1490845648
0.098388671875, -0.154052734375, 1.007324218750, 21.093750000000, 40.765625000000, -15.281250000000, 1490845648
0.098388671875, -0.154052734375, 1.007324218750, 21.093750000000, 40.765625000000, -15.281250000000, 1490845648
0.098388671875, -0.154052734375, 1.007324218750, 21.093750000000, 40.765625000000, -15.281250000000, 1490845648
0.124511718750, -0.144531250000, 1.002685546875, 21.335937500000, 21.078125000000, -17.539062500000, 1490845648
0.124511718750, -0.144531250000, 1.002685546875, 21.335937500000, 21.078125000000, -17.539062500000, 1490845648
0.124511718750, -0.144531250000, 1.002685546875, 21.335937500000, 21.078125000000, -17.539062500000, 1490845648
0.124511718750, -0.144531250000, 1.002685546875, 21.335937500000, 21.078125000000, -17.539062500000, 1490845648
0.121826171875, -0.108154296875, 0.929199218750, 32.679687500000, 27.984375000000, -22.218750000000, 1490845648
0.121826171875, -0.108154296875, 0.929199218750, 32.679687500000, 27.984375000000, -22.218750000000, 1490845648
0.121826171875, -0.108154296875, 0.929199218750, 32.679687500000, 27.984375000000, -22.218750000000, 1490845648
0.117675781250, -0.243408203125, 1.090820312500, 31.734375000000, 42.015625000000, -25.921875000000, 1490845648
0.117675781250, -0.243408203125, 1.090820312500, 31.734375000000, 42.015625000000, -25.921875000000, 1490845648
0.117675781250, -0.243408203125, 1.090820312500, 31.734375000000, 42.015625000000, -25.921875000000, 1490845648
0.028564453125, -0.269042968750, 1.070312500000, 27.437500000000, 76.359375000000, -34.546875000000, 1490845648
0.028564453125, -0.269042968750, 1.070312500000, 27.437500000000, 76.359375000000, -34.546875000000, 1490845648
0.028564453125, -0.269042968750, 1.070312500000, 27.437500000000, 76.359375000000, -34.546875000000, 1490845648
0.028564453125, -0.269042968750, 1.070312500000, 27.437500000000, 76.359375000000, -34.546875000000, 1490845648
0.012207031250, -0.232910156250, 0.977783203125, 26.039062500000, 92.882812500000, -25.515625000000, 1490845648
0.012207031250, -0.232910156250, 0.977783203125, 26.039062500000, 92.882812500000, -25.515625000000, 1490845648
0.012207031250, -0.232910156250, 0.977783203125, 26.039062500000, 92.882812500000, -25.515625000000, 1490845648
-0.128662109375, -0.342773437500, 0.910156250000, 32.046875000000, 105.250000000000, -27.976562500000, 1490845648
-0.128662109375, -0.342773437500, 0.910156250000, 32.046875000000, 105.250000000000, -27.976562500000, 1490845648
-0.128662109375, -0.342773437500, 0.910156250000, 32.046875000000, 105.250000000000, -27.976562500000, 1490845648
-0.238769531250, -0.446289062500, 1.000244140625, 34.320312500000, 122.296875000000, -22.890625000000, 1490845648
-0.238769531250, -0.446289062500, 1.000244140625, 34.320312500000, 122.296875000000, -22.890625000000, 1490845648
-0.238769531250, -0.446289062500, 1.000244140625, 34.320312500000, 122.296875000000, -22.890625000000, 1490845648
-0.368408203125, -0.356201171875, 0.827148437500, 32.976562500000, 124.968750000000, -20.867187500000, 1490845648
-0.368408203125, -0.356201171875, 0.827148437500, 32.976562500000, 124.968750000000, -20.867187500000, 1490845648
-0.368408203125, -0.356201171875, 0.827148437500, 32.976562500000, 124.968750000000, -20.867187500000, 1490845648
-0.368408203125, -0.356201171875, 0.827148437500, 32.976562500000, 124.968750000000, -20.867187500000, 1490845648
-0.524169921875, -0.361816406250, 0.763671875000, 23.609375000000, 78.539062500000, -0.359375000000, 1490845648
-0.524169921875, -0.361816406250, 0.763671875000, 23.609375000000, 78.539062500000, -0.359375000000, 1490845648
-0.524169921875, -0.361816406250, 0.763671875000, 23.609375000000, 78.539062500000, -0.359375000000, 1490845648
-0.581787109375, -0.379150390625, 0.657226562500, 26.187500000000, 63.625000000000, -2.570312500000, 1490845648
-0.581787109375, -0.379150390625, 0.657226562500, 26.187500000000, 63.625000000000, -2.570312500000, 1490845648
-0.581787109375, -0.379150390625, 0.657226562500, 26.187500000000, 63.625000000000, -2.570312500000, 1490845648
-0.427001953125, -0.383056640625, 0.676513671875, 15.312500000000, 75.625000000000, -3.000000000000, 1490845648
-0.427001953125, -0.383056640625, 0.676513671875, 15.312500000000, 75.625000000000, -3.000000000000, 1490845648
-0.427001953125, -0.383056640625, 0.676513671875, 15.312500000000, 75.625000000000, -3.000000000000, 1490845648
-0.613769531250, -0.452636718750, 0.688476562500, 24.718750000000, 82.789062500000, 7.929687500000, 1490845648
-0.613769531250, -0.452636718750, 0.688476562500, 24.718750000000, 82.789062500000, 7.929687500000, 1490845648
-0.613769531250, -0.452636718750, 0.688476562500, 24.718750000000, 82.789062500000, 7.929687500000, 1490845648
-0.613769531250, -0.452636718750, 0.688476562500, 24.718750000000, 82.789062500000, 7.929687500000, 1490845648
-0.658935546875, -0.592041015625, 0.587890625000, 26.609375000000, 47.492187500000, 12.546875000000, 1490845648
-0.658935546875, -0.592041015625, 0.587890625000, 26.609375000000, 47.492187500000, 12.546875000000, 1490845648
-0.658935546875, -0.592041015625, 0.587890625000, 26.609375000000, 47.492187500000, 12.546875000000, 1490845648
-0.750000000000, -0.501708984375, 0.560058593750, 28.312500000000, 20.898437500000, 22.250000000000, 1490845648
-0.750000000000, -0.501708984375, 0.560058593750, 28.312500000000, 20.898437500000, 22.250000000000, 1490845648
-0.750000000000, -0.501708984375, 0.560058593750, 28.312500000000, 20.898437500000, 22.250000000000, 1490845648
-0.675537109375, -0.468994140625, 0.535400390625, 30.507812500000, 10.343750000000, 26.906250000000, 1490845648
-0.675537109375, -0.468994140625, 0.535400390625, 30.507812500000, 10.343750000000, 26.906250000000, 1490845648
-0.675537109375, -0.468994140625, 0.535400390625, 30.507812500000, 10.343750000000, 26.906250000000, 1490845648
-0.682861328125, -0.619873046875, 0.633789062500, 29.281250000000, -19.210937500000, 27.273437500000, 1490845649
-0.682861328125, -0.619873046875, 0.633789062500, 29.281250000000, -19.210937500000, 27.273437500000, 1490845649
-0.682861328125, -0.619873046875, 0.633789062500, 29.281250000000, -19.210937500000, 27.273437500000, 1490845649
-0.682861328125, -0.619873046875, 0.633789062500, 29.281250000000, -19.210937500000, 27.273437500000, 1490845649
-0.694824218750, -0.689453125000, 0.583251953125, 55.460937500000, -58.820312500000, 50.335937500000, 1490845649
-0.694824218750, -0.689453125000, 0.583251953125, 55.460937500000, -58.820312500000, 50.335937500000, 1490845649
-0.694824218750, -0.689453125000, 0.583251953125, 55.460937500000, -58.820312500000, 50.335937500000, 1490845649
-0.748779296875, -0.663085937500, 0.625732421875, 48.460937500000, -44.773437500000, 41.859375000000, 1490845649
-0.748779296875, -0.663085937500, 0.625732421875, 48.460937500000, -44.773437500000, 41.859375000000, 1490845649
-0.748779296875, -0.663085937500, 0.625732421875, 48.460937500000, -44.773437500000, 41.859375000000, 1490845649
-0.648193359375, -0.469238281250, 0.494140625000, 44.625000000000, -53.562500000000, 34.843750000000, 1490845649
-0.648193359375, -0.469238281250, 0.494140625000, 44.625000000000, -53.562500000000, 34.843750000000, 1490845649
-0.648193359375, -0.469238281250, 0.494140625000, 44.625000000000, -53.562500000000, 34.843750000000, 1490845649
-0.467041015625, -0.469482421875, 0.384765625000, 32.031250000000, -60.234375000000, 27.687500000000, 1490845649
-0.467041015625, -0.469482421875, 0.384765625000, 32.031250000000, -60.234375000000, 27.687500000000, 1490845649
-0.467041015625, -0.469482421875, 0.384765625000, 32.031250000000, -60.234375000000, 27.687500000000, 1490845649
-0.467041015625, -0.469482421875, 0.384765625000, 32.031250000000, -60.234375000000, 27.687500000000, 1490845649
-0.288085937500, -0.711914062500, 0.586181640625, 34.960937500000, -14.750000000000, 13.906250000000, 1490845649
-0.288085937500, -0.711914062500, 0.586181640625, 34.960937500000, -14.750000000000, 13.906250000000, 1490845649
-0.288085937500, -0.711914062500, 0.586181640625, 34.960937500000, -14.750000000000, 13.906250000000, 1490845649
-0.440673828125, -0.613525390625, 0.293457031250, 13.773437500000, -48.179687500000, 28.562500000000, 1490845649
-0.440673828125, -0.613525390625, 0.293457031250, 13.773437500000, -48.179687500000, 28.562500000000, 1490845649
-0.440673828125, -0.613525390625, 0.293457031250, 13.773437500000, -48.179687500000, 28.562500000000, 1490845649
-0.354003906250, -0.734375000000, 0.493652343750, 21.812500000000, -16.843750000000, 18.195312500000, 1490845649
-0.354003906250, -0.734375000000, 0.493652343750, 21.812500000000, -16.843750000000, 18.195312500000, 1490845649
-0.354003906250, -0.734375000000, 0.493652343750, 21.812500000000, -16.843750000000, 18.195312500000, 1490845649
-0.590576171875, -0.905761718750, 0.550781250000, 16.125000000000, -73.828125000000, 15.898437500000, 1490845649
-0.590576171875, -0.905761718750, 0.550781250000, 16.125000000000, -73.828125000000, 15.898437500000, 1490845649
-0.590576171875, -0.905761718750, 0.550781250000, 16.125000000000, -73.828125000000, 15.898437500000, 1490845649
-0.322021484375, -0.843017578125, 0.576660156250, -3.125000000000, -109.953125000000, 17.601562500000, 1490845649
-0.322021484375, -0.843017578125, 0.576660156250, -3.125000000000, -109.953125000000, 17.601562500000, 1490845649
-0.322021484375, -0.843017578125, 0.576660156250, -3.125000000000, -109.953125000000, 17.601562500000, 1490845649
-0.121582031250, -0.779541015625, 0.586181640625, -2.273437500000, -91.859375000000, 9.007812500000, 1490845649
-0.121582031250, -0.779541015625, 0.586181640625, -2.273437500000, -91.859375000000, 9.007812500000, 1490845649
-0.121582031250, -0.779541015625, 0.586181640625, -2.273437500000, -91.859375000000, 9.007812500000, 1490845649
-0.121582031250, -0.779541015625, 0.586181640625, -2.273437500000, -91.859375000000, 9.007812500000, 1490845649
-0.077148437500, -0.787353515625, 0.545898437500, 15.273437500000, -86.992187500000, 14.984375000000, 1490845649
-0.077148437500, -0.787353515625, 0.545898437500, 15.273437500000, -86.992187500000, 14.984375000000, 1490845649
-0.077148437500, -0.787353515625, 0.545898437500, 15.273437500000, -86.992187500000, 14.984375000000, 1490845649
-0.089843750000, -0.662597656250, 0.421386718750, 29.320312500000, -10.273437500000, 11.015625000000, 1490845649
-0.089843750000, -0.662597656250, 0.421386718750, 29.320312500000, -10.273437500000, 11.015625000000, 1490845649
-0.089843750000, -0.662597656250, 0.421386718750, 29.320312500000, -10.273437500000, 11.015625000000, 1490845649
-0.129394531250, -0.814208984375, 0.587402343750, 47.414062500000, 10.789062500000, 1.437500000000, 1490845649
-0.129394531250, -0.814208984375, 0.587402343750, 47.414062500000, 10.789062500000, 1.437500000000, 1490845649
-0.129394531250, -0.814208984375, 0.587402343750, 47.414062500000, 10.789062500000, 1.437500000000, 1490845649
-0.129394531250, -0.814208984375, 0.587402343750, 47.414062500000, 10.789062500000, 1.437500000000, 1490845649
-0.078369140625, -0.735595703125, 0.426757812500, 40.640625000000, 3.039062500000, 9.742187500000, 1490845649
-0.078369140625, -0.735595703125, 0.426757812500, 40.640625000000, 3.039062500000, 9.742187500000, 1490845649
-0.078369140625, -0.735595703125, 0.426757812500, 40.640625000000, 3.039062500000, 9.742187500000, 1490845649
0.011718750000, -0.905273437500, 0.503173828125, 58.679687500000, 14.054687500000, 12.453125000000, 1490845649
0.011718750000, -0.905273437500, 0.503173828125, 58.679687500000, 14.054687500000, 12.453125000000, 1490845649
0.011718750000, -0.905273437500, 0.503173828125, 58.679687500000, 14.054687500000, 12.453125000000, 1490845649
-0.060791015625, -0.911621093750, 0.374023437500, 47.007812500000, 7.945312500000, 32.812500000000, 1490845649
-0.060791015625, -0.911621093750, 0.374023437500, 47.007812500000, 7.945312500000, 32.812500000000, 1490845649
-0.060791015625, -0.911621093750, 0.374023437500, 47.007812500000, 7.945312500000, 32.812500000000, 1490845649
-0.060791015625, -0.911621093750, 0.374023437500, 47.007812500000, 7.945312500000, 32.812500000000, 1490845649
-0.134521484375, -0.970214843750, 0.295898437500, 50.546875000000, -9.085937500000, 33.156250000000, 1490845649
-0.082031250000, -1.011718750000, 0.226562500000, 48.968750000000, -5.531250000000, 37.640625000000, 1490845649
-0.082031250000, -1.011718750000, 0.226562500000, 48.968750000000, -5.531250000000, 37.640625000000, 1490845649
-0.082031250000, -1.011718750000, 0.226562500000, 48.968750000000, -5.531250000000, 37.640625000000, 1490845649
-0.151611328125, -0.873779296875, 0.336669921875, 44.148437500000, -0.148437500000, 36.328125000000, 1490845649
-0.151611328125, -0.873779296875, 0.336669921875, 44.148437500000, -0.148437500000, 36.328125000000, 1490845649
-0.151611328125, -0.873779296875, 0.336669921875, 44.148437500000, -0.148437500000, 36.328125000000, 1490845649
-0.151611328125, -0.873779296875, 0.336669921875, 44.148437500000, -0.148437500000, 36.328125000000, 1490845649
-0.151611328125, -0.873779296875, 0.336669921875, 44.148437500000, -0.148437500000, 36.328125000000, 1490845649
0.081298828125, -0.821289062500, 0.262451171875, 49.789062500000, -6.812500000000, 34.085937500000, 1490845649
0.081298828125, -0.821289062500, 0.262451171875, 49.789062500000, -6.812500000000, 34.085937500000, 1490845649
0.081298828125, -0.821289062500, 0.262451171875, 49.789062500000, -6.812500000000, 34.085937500000, 1490845650
0.081298828125, -0.821289062500, 0.262451171875, 49.789062500000, -6.812500000000, 34.085937500000, 1490845650
-0.065429687500, -0.856445312500, 0.264404296875, 47.828125000000, -11.375000000000, 34.367187500000, 1490845650
-0.065429687500, -0.856445312500, 0.264404296875, 47.828125000000, -11.375000000000, 34.367187500000, 1490845650
-0.065429687500, -0.856445312500, 0.264404296875, 47.828125000000, -11.375000000000, 34.367187500000, 1490845650
-0.084716796875, -0.796630859375, 0.212890625000, 48.085937500000, -9.046875000000, 24.343750000000, 1490845650
-0.084716796875, -0.796630859375, 0.212890625000, 48.085937500000, -9.046875000000, 24.343750000000, 1490845650
0.090087890625, -1.006591796875, 0.153808593750, 24.132812500000, -5.281250000000, 26.609375000000, 1490845650
0.090087890625, -1.006591796875, 0.153808593750, 24.132812500000, -5.281250000000, 26.609375000000, 1490845650
0.090087890625, -1.006591796875, 0.153808593750, 24.132812500000, -5.281250000000, 26.609375000000, 1490845650
0.090087890625, -1.006591796875, 0.153808593750, 24.132812500000, -5.281250000000, 26.609375000000, 1490845650
0.178222656250, -1.079101562500, 0.034423828125, 16.562500000000, -19.296875000000, 17.468750000000, 1490845650
0.178222656250, -1.079101562500, 0.034423828125, 16.562500000000, -19.296875000000, 17.468750000000, 1490845650
0.178222656250, -1.079101562500, 0.034423828125, 16.562500000000, -19.296875000000, 17.468750000000, 1490845650
0.178222656250, -1.079101562500, 0.034423828125, 16.562500000000, -19.296875000000, 17.468750000000, 1490845650
0.107910156250, -0.887695312500, -0.072509765625, 30.867187500000, -5.890625000000, 18.101562500000, 1490845650
0.107910156250, -0.887695312500, -0.072509765625, 30.867187500000, -5.890625000000, 18.101562500000, 1490845650
0.107910156250, -0.887695312500, -0.072509765625, 30.867187500000, -5.890625000000, 18.101562500000, 1490845650
0.185791015625, -0.939453125000, -0.132324218750, 28.718750000000, 2.976562500000, 18.609375000000, 1490845650
0.185791015625, -0.939453125000, -0.132324218750, 28.718750000000, 2.976562500000, 18.609375000000, 1490845650
0.185791015625, -0.939453125000, -0.132324218750, 28.718750000000, 2.976562500000, 18.609375000000, 1490845650
0.276367187500, -0.941650390625, -0.139404296875, 35.750000000000, -8.382812500000, 22.398437500000, 1490845650
0.276367187500, -0.941650390625, -0.139404296875, 35.750000000000, -8.382812500000, 22.398437500000, 1490845650
0.251464843750, -0.974609375000, -0.159912109375, 21.867187500000, -32.000000000000, 14.710937500000, 1490845650
0.251464843750, -0.974609375000, -0.159912109375, 21.867187500000, -32.000000000000, 14.710937500000, 1490845650
0.251464843750, -0.974609375000, -0.159912109375, 21.867187500000, -32.000000000000, 14.710937500000, 1490845650
0.251464843750, -0.974609375000, -0.159912109375, 21.867187500000, -32.000000000000, 14.710937500000, 1490845650
0.251464843750, -0.974609375000, -0.159912109375, 21.867187500000, -32.000000000000, 14.710937500000, 1490845650
0.266845703125, -0.927246093750, -0.112304687500, 37.507812500000, -56.632812500000, 10.914062500000, 1490845650
0.266845703125, -0.927246093750, -0.112304687500, 37.507812500000, -56.632812500000, 10.914062500000, 1490845650
0.266845703125, -0.927246093750, -0.112304687500, 37.507812500000, -56.632812500000, 10.914062500000, 1490845650
0.330078125000, -0.972167968750, -0.191650390625, 18.328125000000, -46.460937500000, 3.187500000000, 1490845650
0.330078125000, -0.972167968750, -0.191650390625, 18.328125000000, -46.460937500000, 3.187500000000, 1490845650
0.330078125000, -0.972167968750, -0.191650390625, 18.328125000000, -46.460937500000, 3.187500000000, 1490845650
0.265136718750, -1.082031250000, -0.154541015625, 19.429687500000, -58.171875000000, 0.179687500000, 1490845650
0.265136718750, -1.082031250000, -0.154541015625, 19.429687500000, -58.171875000000, 0.179687500000, 1490845650
0.172363281250, -1.026367187500, -0.183593750000, -11.375000000000, -46.812500000000, -15.617187500000, 1490845650
0.172363281250, -1.026367187500, -0.183593750000, -11.375000000000, -46.812500000000, -15.617187500000, 1490845650
0.172363281250, -1.026367187500, -0.183593750000, -11.375000000000, -46.812500000000, -15.617187500000, 1490845650
0.172363281250, -1.026367187500, -0.183593750000, -11.375000000000, -46.812500000000, -15.617187500000, 1490845650
0.172363281250, -1.026367187500, -0.183593750000, -11.375000000000, -46.812500000000, -15.617187500000, 1490845650
0.235839843750, -1.018310546875, -0.176757812500, -14.828125000000, -32.140625000000, -20.867187500000, 1490845650
0.235839843750, -1.018310546875, -0.176757812500, -14.828125000000, -32.140625000000, -20.867187500000, 1490845650
0.235839843750, -1.018310546875, -0.176757812500, -14.828125000000, -32.140625000000, -20.867187500000, 1490845650
0.185546875000, -1.026855468750, -0.202636718750, -31.968750000000, -28.414062500000, -14.273437500000, 1490845650
0.185546875000, -1.026855468750, -0.202636718750, -31.968750000000, -28.414062500000, -14.273437500000, 1490845650
0.185546875000, -1.026855468750, -0.202636718750, -31.968750000000, -28.414062500000, -14.273437500000, 1490845650
0.118896484375, -0.945800781250, -0.155517578125, -40.539062500000, -39.914062500000, -12.742187500000, 1490845650
0.118896484375, -0.945800781250, -0.155517578125, -40.539062500000, -39.914062500000, -12.742187500000, 1490845650
0.195556640625, -0.954345703125, -0.111816406250, -70.242187500000, -9.460937500000, -10.984375000000, 1490845650
0.195556640625, -0.954345703125, -0.111816406250, -70.242187500000, -9.460937500000, -10.984375000000, 1490845650
0.195556640625, -0.954345703125, -0.111816406250, -70.242187500000, -9.460937500000, -10.984375000000, 1490845650
0.136962890625, -1.003173828125, -0.104736328125, -41.593750000000, -11.210937500000, -16.914062500000, 1490845650
0.136962890625, -1.003173828125, -0.104736328125, -41.593750000000, -11.210937500000, -16.914062500000, 1490845650
0.136962890625, -1.003173828125, -0.104736328125, -41.593750000000, -11.210937500000, -16.914062500000, 1490845650
0.136962890625, -1.003173828125, -0.104736328125, -41.593750000000, -11.210937500000, -16.914062500000, 1490845650
0.050292968750, -0.964355468750, -0.157958984375, -62.054687500000, -37.093750000000, -7.640625000000, 1490845650
0.095458984375, -0.918945312500, -0.109130859375, -62.054687500000, -37.093750000000, -7.640625000000, 1490845650
0.095458984375, -0.918945312500, -0.109130859375, -62.054687500000, -37.093750000000, -7.640625000000, 1490845650
0.095458984375, -0.918945312500, -0.109130859375, -62.054687500000, -37.093750000000, -7.640625000000, 1490845650
0.187988281250, -1.012939453125, -0.192382812500, -31.828125000000, -23.554687500000, -7.992187500000, 1490845650
0.187988281250, -1.012939453125, -0.192382812500, -31.828125000000, -23.554687500000, -7.992187500000, 1490845650
0.187988281250, -1.012939453125, -0.192382812500, -31.828125000000, -23.554687500000, -7.992187500000, 1490845650
0.246826171875, -1.062988281250, -0.108642578125, -12.367187500000, 77.218750000000, -4.132812500000, 1490845650
0.246826171875, -1.062988281250, -0.108642578125, -12.367187500000, 77.218750000000, -4.132812500000, 1490845650
0.246826171875, -1.062988281250, -0.108642578125, -12.367187500000, 77.218750000000, -4.132812500000, 1490845650
0.246826171875, -1.062988281250, -0.108642578125, -12.367187500000, 77.218750000000, -4.132812500000, 1490845650
0.328857421875, -0.959472656250, -0.161376953125, 44.632812500000, 63.468750000000, 6.546875000000, 1490845650
0.328857421875, -0.959472656250, -0.161376953125, 44.632812500000, 63.468750000000, 6.546875000000, 1490845650
0.328857421875, -0.959472656250, -0.161376953125, 44.632812500000, 63.468750000000, 6.546875000000, 1490845651
0.204345703125, -0.929199218750, -0.211669921875, 54.492187500000, -7.000000000000, 9.195312500000, 1490845651
0.204345703125, -0.929199218750, -0.211669921875, 54.492187500000, -7.000000000000, 9.195312500000, 1490845651
0.204345703125, -0.929199218750, -0.211669921875, 54.492187500000, -7.000000000000, 9.195312500000, 1490845651
0.001708984375, -1.067382812500, -0.112548828125, 63.671875000000, -103.710937500000, -4.414062500000, 1490845651
0.001708984375, -1.067382812500, -0.112548828125, 63.671875000000, -103.710937500000, -4.414062500000, 1490845651
0.001708984375, -1.067382812500, -0.112548828125, 63.671875000000, -103.710937500000, -4.414062500000, 1490845651
0.128173828125, -1.068603515625, 0.320556640625, 137.148437500000, 128.671875000000, -70.804687500000, 1490845651
0.128173828125, -1.068603515625, 0.320556640625, 137.148437500000, 128.671875000000, -70.804687500000, 1490845651
0.128173828125, -1.068603515625, 0.320556640625, 137.148437500000, 128.671875000000, -70.804687500000, 1490845651
0.128173828125, -1.068603515625, 0.320556640625, 137.148437500000, 128.671875000000, -70.804687500000, 1490845651
0.137939453125, -0.926269531250, 0.096679687500, -107.742187500000, -30.203125000000, 3.773437500000, 1490845651
0.137939453125, -0.926269531250, 0.096679687500, -107.742187500000, -30.203125000000, 3.773437500000, 1490845651
0.137939453125, -0.926269531250, 0.096679687500, -107.742187500000, -30.203125000000, 3.773437500000, 1490845651
-0.030517578125, -0.984375000000, -0.102050781250, -116.671875000000, 42.007812500000, -16.820312500000, 1490845651
-0.030517578125, -0.984375000000, -0.102050781250, -116.671875000000, 42.007812500000, -16.820312500000, 1490845651
-0.030517578125, -0.984375000000, -0.102050781250, -116.671875000000, 42.007812500000, -16.820312500000, 1490845651
0.048095703125, -0.973632812500, -0.135742187500, -25.710937500000, -24.460937500000, -15.046875000000, 1490845651
0.048095703125, -0.973632812500, -0.135742187500, -25.710937500000, -24.460937500000, -15.046875000000, 1490845651
0.048095703125, -0.973632812500, -0.135742187500, -25.710937500000, -24.460937500000, -15.046875000000, 1490845651
0.267822265625, -0.951416015625, -0.154785156250, -41.437500000000, 8.812500000000, -8.820312500000, 1490845651
0.267822265625, -0.951416015625, -0.154785156250, -41.437500000000, 8.812500000000, -8.820312500000, 1490845651
0.267822265625, -0.951416015625, -0.154785156250, -41.437500000000, 8.812500000000, -8.820312500000, 1490845651
0.059082031250, -1.000488281250, -0.117919921875, 22.000000000000, 28.289062500000, -10.968750000000, 1490845651
0.059082031250, -1.000488281250, -0.117919921875, 22.000000000000, 28.289062500000, -10.968750000000, 1490845651
0.059082031250, -1.000488281250, -0.117919921875, 22.000000000000, 28.289062500000, -10.968750000000, 1490845651
0.059082031250, -1.000488281250, -0.117919921875, 22.000000000000, 28.289062500000, -10.968750000000, 1490845651
-0.000976562500, -0.927978515625, -0.131591796875, 5.156250000000, -20.117187500000, -8.460937500000, 1490845651
-0.000976562500, -0.927978515625, -0.131591796875, 5.156250000000, -20.117187500000, -8.460937500000, 1490845651
-0.000976562500, -0.927978515625, -0.131591796875, 5.156250000000, -20.117187500000, -8.460937500000, 1490845651
-0.021484375000, -1.021484375000, 0.024902343750, 45.234375000000, 5.578125000000, -13.492187500000, 1490845651
-0.021484375000, -1.021484375000, 0.024902343750, 45.234375000000, 5.578125000000, -13.492187500000, 1490845651
-0.021484375000, -1.021484375000, 0.024902343750, 45.234375000000, 5.578125000000, -13.492187500000, 1490845651
0.015869140625, -0.912353515625, -0.074951171875, 42.859375000000, 69.195312500000, -31.890625000000, 1490845651
0.015869140625, -0.912353515625, -0.074951171875, 42.859375000000, 69.195312500000, -31.890625000000, 1490845651
0.151855468750, -1.068847656250, -0.010009765625, 16.187500000000, 23.976562500000, -14.218750000000, 1490845651
0.151855468750, -1.068847656250, -0.010009765625, 16.187500000000, 23.976562500000, -14.218750000000, 1490845651
0.151855468750, -1.068847656250, -0.010009765625, 16.187500000000, 23.976562500000, -14.218750000000, 1490845651
0.151855468750, -1.068847656250, -0.010009765625, 16.187500000000, 23.976562500000, -14.218750000000, 1490845651
0.109863281250, -1.018554687500, -0.091796875000, -24.835937500000, -54.875000000000, 7.312500000000, 1490845651
0.087158203125, -0.926513671875, -0.079589843750, -24.101562500000, -67.789062500000, 14.984375000000, 1490845651
0.063720703125, -1.084472656250, -0.148925781250, -24.437500000000, -66.320312500000, 13.890625000000, 1490845651
0.063720703125, -1.084472656250, -0.148925781250, -24.437500000000, -66.320312500000, 13.890625000000, 1490845651
0.063720703125, -1.084472656250, -0.148925781250, -24.437500000000, -66.320312500000, 13.890625000000, 1490845651
0.109619140625, -1.005126953125, -0.035888671875, -22.757812500000, -13.296875000000, 1.546875000000, 1490845651
0.109619140625, -1.005126953125, -0.035888671875, -22.757812500000, -13.296875000000, 1.546875000000, 1490845651
0.109619140625, -1.005126953125, -0.035888671875, -22.757812500000, -13.296875000000, 1.546875000000, 1490845651
0.109619140625, -1.005126953125, -0.035888671875, -22.757812500000, -13.296875000000, 1.546875000000, 1490845651
0.067382812500, -0.928466796875, -0.104980468750, -9.335937500000, -0.054687500000, -6.164062500000, 1490845651
0.067382812500, -0.928466796875, -0.104980468750, -9.335937500000, -0.054687500000, -6.164062500000, 1490845651
0.067382812500, -0.928466796875, -0.104980468750, -9.335937500000, -0.054687500000, -6.164062500000, 1490845651
0.067382812500, -0.928466796875, -0.104980468750, -9.335937500000, -0.054687500000, -6.164062500000, 1490845651
0.067382812500, -0.928466796875, -0.104980468750, -9.335937500000, -0.054687500000, -6.164062500000, 1490845651
0.093750000000, -0.985839843750, -0.138671875000, 4.898437500000, 6.976562500000, -5.421875000000, 1490845651
0.093750000000, -0.985839843750, -0.138671875000, 4.898437500000, 6.976562500000, -5.421875000000, 1490845651
0.093750000000, -0.985839843750, -0.138671875000, 4.898437500000, 6.976562500000, -5.421875000000, 1490845651
0.088134765625, -0.918945312500, -0.108642578125, 10.023437500000, 19.492187500000, -12.851562500000, 1490845651
0.088134765625, -0.918945312500, -0.108642578125, 10.023437500000, 19.492187500000, -12.851562500000, 1490845651
0.088134765625, -0.918945312500, -0.108642578125, 10.023437500000, 19.492187500000, -12.851562500000, 1490845651
-0.015869140625, -1.070556640625, -0.092773437500, 8.546875000000, 35.109375000000, -7.195312500000, 1490845651
-0.015869140625, -1.070556640625, -0.092773437500, 8.546875000000, 35.109375000000, -7.195312500000, 1490845651
-0.015869140625, -1.070556640625, -0.092773437500, 8.546875000000, 35.109375000000, -7.195312500000, 1490845651
-0.015869140625, -1.070556640625, -0.092773437500, 8.546875000000, 35.109375000000, -7.195312500000, 1490845651
0.041503906250, -1.006347656250, -0.087402343750, 4.476562500000, 15.203125000000, -1.546875000000, 1490845651
0.041503906250, -1.006347656250, -0.087402343750, 4.476562500000, 15.203125000000, -1.546875000000, 1490845651
0.041503906250, -1.006347656250, -0.087402343750, 4.476562500000, 15.203125000000, -1.546875000000, 1490845651
0.130859375000, -0.971923828125, -0.103271484375, -10.703125000000, -23.460937500000, -0.320312500000, 1490845652
0.130859375000, -0.971923828125, -0.103271484375, -10.703125000000, -23.460937500000, -0.320312500000, 1490845652
0.130859375000, -0.971923828125, -0.103271484375, -10.703125000000, -23.460937500000, -0.320312500000, 1490845652
0.091796875000, -0.937744140625, -0.125488281250, -12.523437500000, -28.250000000000, 5.937500000000, 1490845652
0.091796875000, -0.937744140625, -0.125488281250, -12.523437500000, -28.250000000000, 5.937500000000, 1490845652
0.091796875000, -0.937744140625, -0.125488281250, -12.523437500000, -28.250000000000, 5.937500000000, 1490845652
0.042968750000, -0.936523437500, -0.150878906250, -1.523437500000, 3.203125000000, -4.593750000000, 1490845652
0.042968750000, -0.936523437500, -0.150878906250, -1.523437500000, 3.203125000000, -4.593750000000, 1490845652
0.042968750000, -0.936523437500, -0.150878906250, -1.523437500000, 3.203125000000, -4.593750000000, 1490845652
-0.014648437500, -1.022460937500, -0.154052734375, 0.242187500000, 13.460937500000, -7.335937500000, 1490845652
-0.014648437500, -1.022460937500, -0.154052734375, 0.242187500000, 13.460937500000, -7.335937500000, 1490845652
-0.014648437500, -1.022460937500, -0.154052734375, 0.242187500000, 13.460937500000, -7.335937500000, 1490845652
-0.014648437500, -1.022460937500, -0.154052734375, 0.242187500000, 13.460937500000, -7.335937500000, 1490845652
-0.014648437500, -1.022460937500, -0.154052734375, 0.242187500000, 13.460937500000, -7.335937500000, 1490845652
0.037353515625, -1.027099609375, -0.043945312500, 1.367187500000, 14.750000000000, -7.984375000000, 1490845652
0.037353515625, -1.027099609375, -0.043945312500, 1.367187500000, 14.750000000000, -7.984375000000, 1490845652
0.037353515625, -1.027099609375, -0.043945312500, 1.367187500000, 14.750000000000, -7.984375000000, 1490845652
0.037353515625, -1.027099609375, -0.043945312500, 1.367187500000, 14.750000000000, -7.984375000000, 1490845652
0.044189453125, -0.921386718750, -0.126708984375, -1.390625000000, -4.585937500000, -1.585937500000, 1490845652
0.044189453125, -0.921386718750, -0.126708984375, -1.390625000000, -4.585937500000, -1.585937500000, 1490845652
0.044189453125, -0.921386718750, -0.126708984375, -1.390625000000, -4.585937500000, -1.585937500000, 1490845652
0.044189453125, -0.921386718750, -0.126708984375, -1.390625000000, -4.585937500000, -1.585937500000, 1490845652
0.044189453125, -0.921386718750, -0.126708984375, -1.390625000000, -4.585937500000, -1.585937500000, 1490845652
0.050537109375, -1.021728515625, -0.053710937500, -5.835937500000, -9.820312500000, -0.937500000000, 1490845652
0.050537109375, -1.021728515625, -0.053710937500, -5.835937500000, -9.820312500000, -0.937500000000, 1490845652
0.050537109375, -1.021728515625, -0.053710937500, -5.835937500000, -9.820312500000, -0.937500000000, 1490845652
0.129638671875, -1.004638671875, -0.085693359375, -8.867187500000, -18.164062500000, 2.703125000000, 1490845652
0.129638671875, -1.004638671875, -0.085693359375, -8.867187500000, -18.164062500000, 2.703125000000, 1490845652
0.129638671875, -1.004638671875, -0.085693359375, -8.867187500000, -18.164062500000, 2.703125000000, 1490845652
0.028564453125, -0.931884765625, -0.137451171875, -3.015625000000, -0.578125000000, -1.742187500000, 1490845652
0.028564453125, -0.931884765625, -0.137451171875, -3.015625000000, -0.578125000000, -1.742187500000, 1490845652
0.028564453125, -0.931884765625, -0.137451171875, -3.015625000000, -0.578125000000, -1.742187500000, 1490845652
0.040039062500, -0.976562500000, -0.071044921875, -2.289062500000, 2.625000000000, -3.593750000000, 1490845652
0.040039062500, -0.976562500000, -0.071044921875, -2.289062500000, 2.625000000000, -3.593750000000, 1490845652
0.040039062500, -0.976562500000, -0.071044921875, -2.289062500000, 2.625000000000, -3.593750000000, 1490845652
0.040039062500, -0.976562500000, -0.071044921875, -2.289062500000, 2.625000000000, -3.593750000000, 1490845652
0.138671875000, -1.015136718750, -0.103271484375, -2.125000000000, 4.914062500000, -6.414062500000, 1490845652
0.138671875000, -1.015136718750, -0.103271484375, -2.125000000000, 4.914062500000, -6.414062500000, 1490845652
0.046386718750, -0.937500000000, -0.095214843750, -4.179687500000, 0.328125000000, -8.695312500000, 1490845652
0.046386718750, -0.937500000000, -0.095214843750, -4.179687500000, 0.328125000000, -8.695312500000, 1490845652
0.046386718750, -0.937500000000, -0.095214843750, -4.179687500000, 0.328125000000, -8.695312500000, 1490845652
0.046386718750, -0.937500000000, -0.095214843750, -4.179687500000, 0.328125000000, -8.695312500000, 1490845652
0.052001953125, -1.070068359375, -0.073730468750, -6.218750000000, -4.265625000000, -4.406250000000, 1490845652
0.052001953125, -1.070068359375, -0.073730468750, -6.218750000000, -4.265625000000, -4.406250000000, 1490845652
0.052001953125, -1.070068359375, -0.073730468750, -6.218750000000, -4.265625000000, -4.406250000000, 1490845652
0.071533203125, -0.959960937500, -0.047363281250, -5.117187500000, -8.343750000000, -4.187500000000, 1490845652
0.071533203125, -0.959960937500, -0.047363281250, -5.117187500000, -8.343750000000, -4.187500000000, 1490845652
0.139892578125, -0.975341796875, -0.094726562500, -4.953125000000, -0.500000000000, -8.476562500000, 1490845652
0.039794921875, -0.970947265625, -0.126953125000, -4.953125000000, -0.500000000000, -8.476562500000, 1490845652
0.039794921875, -0.970947265625, -0.126953125000, -4.953125000000, -0.500000000000, -8.476562500000, 1490845652
0.039794921875, -0.970947265625, -0.126953125000, -4.953125000000, -0.500000000000, -8.476562500000, 1490845652
0.039794921875, -0.970947265625, -0.126953125000, -4.953125000000, -0.500000000000, -8.476562500000, 1490845652
0.086181640625, -0.972656250000, -0.142578125000, -4.796875000000, -0.023437500000, -6.039062500000, 1490845652
0.086181640625, -0.972656250000, -0.142578125000, -4.796875000000, -0.023437500000, -6.039062500000, 1490845652
0.086181640625, -0.972656250000, -0.142578125000, -4.796875000000, -0.023437500000, -6.039062500000, 1490845652
0.087158203125, -1.031005859375, -0.131347656250, -4.429687500000, 2.226562500000, -8.617187500000, 1490845652
0.087158203125, -1.031005859375, -0.131347656250, -4.429687500000, 2.226562500000, -8.617187500000, 1490845652
0.087158203125, -1.031005859375, -0.131347656250, -4.429687500000, 2.226562500000, -8.617187500000, 1490845652
0.139648437500, -0.973876953125, -0.033447265625, -3.304687500000, -6.062500000000, -3.046875000000, 1490845652
0.139648437500, -0.973876953125, -0.033447265625, -3.304687500000, -6.062500000000, -3.046875000000, 1490845652
0.139648437500, -0.973876953125, -0.033447265625, -3.304687500000, -6.062500000000, -3.046875000000, 1490845652
0.139648437500, -0.973876953125, -0.033447265625, -3.304687500000, -6.062500000000, -3.046875000000, 1490845652
0.074218750000, -1.002685546875, -0.031494140625, -5.453125000000, -1.085937500000, -4.789062500000, 1490845652
0.074218750000, -1.002685546875, -0.031494140625, -5.453125000000, -1.085937500000, -4.789062500000, 1490845652
0.074218750000, -1.002685546875, -0.031494140625, -5.453125000000, -1.085937500000, -4.789062500000, 1490845652
0.079101562500, -0.909667968750, -0.057617187500, -1.406250000000, 2.867187500000, -6.828125000000, 1490845652
0.079101562500, -0.909667968750, -0.057617187500, -1.406250000000, 2.867187500000, -6.828125000000, 1490845652
0.079101562500, -0.909667968750, -0.057617187500, -1.406250000000, 2.867187500000, -6.828125000000, 1490845653
0.048339843750, -1.007324218750, -0.127929687500, -4.226562500000, -5.773437500000, 0.406250000000, 1490845653
0.048339843750, -1.007324218750, -0.127929687500, -4.226562500000, -5.773437500000, 0.406250000000, 1490845653
0.048339843750, -1.007324218750, -0.127929687500, -4.226562500000, -5.773437500000, 0.406250000000, 1490845653
0.091064453125, -1.001464843750, -0.155029296875, -3.937500000000, -2.640625000000, -3.335937500000, 1490845653
0.108398437500, -0.927246093750, -0.143798828125, -4.812500000000, -1.953125000000, -5.351562500000, 1490845653
0.108398437500, -0.927246093750, -0.143798828125, -4.812500000000, -1.953125000000, -5.351562500000, 1490845653
0.108398437500, -0.927246093750, -0.143798828125, -4.812500000000, -1.953125000000, -5.351562500000, 1490845653
-0.014648437500, -1.078369140625, -0.139160156250, -4.429687500000, -1.625000000000, -6.593750000000, 1490845653
-0.014648437500, -1.078369140625, -0.139160156250, -4.429687500000, -1.625000000000, -6.593750000000, 1490845653
-0.014648437500, -1.078369140625, -0.139160156250, -4.429687500000, -1.625000000000, -6.593750000000, 1490845653
-0.014648437500, -1.078369140625, -0.139160156250, -4.429687500000, -1.625000000000, -6.593750000000, 1490845653
