ACC_X,ACC_Y,ACC_Z,G_X,G_Y,G_Z,Unix Time
-0.052001953125, 0.488769531250, -0.321044921875, 29.312500000000, -21.585937500000, -10.507812500000, 1490847463
-0.052001953125, 0.488769531250, -0.321044921875, 29.312500000000, -21.585937500000, -10.507812500000, 1490847463
0.084228515625, 0.702148437500, -0.502929687500, -15.398437500000, 4.804687500000, 2.609375000000, 1490847463
0.084228515625, 0.702148437500, -0.502929687500, -15.398437500000, 4.804687500000, 2.609375000000, 1490847463
0.084228515625, 0.702148437500, -0.502929687500, -15.398437500000, 4.804687500000, 2.609375000000, 1490847463
0.301025390625, 1.084716796875, -0.646728515625, -46.414062500000, 10.671875000000, -27.750000000000, 1490847463
0.301025390625, 1.084716796875, -0.646728515625, -46.414062500000, 10.671875000000, -27.750000000000, 1490847463
0.301025390625, 1.084716796875, -0.646728515625, -46.414062500000, 10.671875000000, -27.750000000000, 1490847463
0.301025390625, 1.084716796875, -0.646728515625, -46.414062500000, 10.671875000000, -27.750000000000, 1490847463
0.584228515625, 1.306640625000, -0.453857421875, -64.562500000000, -56.406250000000, -68.242187500000, 1490847463
0.584228515625, 1.306640625000, -0.453857421875, -64.562500000000, -56.406250000000, -68.242187500000, 1490847463
-0.138183593750, 1.358886718750, -0.464355468750, 108.390625000000, -138.625000000000, -27.320312500000, 1490847463
-0.138183593750, 1.358886718750, -0.464355468750, 108.390625000000, -138.625000000000, -27.320312500000, 1490847463
-0.138183593750, 1.358886718750, -0.464355468750, 108.390625000000, -138.625000000000, -27.320312500000, 1490847463
-0.302490234375, 1.255859375000, -0.475830078125, 120.414062500000, -76.835937500000, -18.031250000000, 1490847463
-0.090332031250, 1.011718750000, -0.856445312500, 101.710937500000, 76.570312500000, 36.093750000000, 1490847463
-0.090332031250, 1.011718750000, -0.856445312500, 101.710937500000, 76.570312500000, 36.093750000000, 1490847463
-0.090332031250, 1.011718750000, -0.856445312500, 101.710937500000, 76.570312500000, 36.093750000000, 1490847463
0.045898437500, 0.653564453125, -0.463134765625, -19.867187500000, -9.359375000000, -2.726562500000, 1490847463
0.045898437500, 0.653564453125, -0.463134765625, -19.867187500000, -9.359375000000, -2.726562500000, 1490847463
0.045898437500, 0.653564453125, -0.463134765625, -19.867187500000, -9.359375000000, -2.726562500000, 1490847463
0.045898437500, 0.653564453125, -0.463134765625, -19.867187500000, -9.359375000000, -2.726562500000, 1490847463
0.099609375000, 0.475585937500, -0.227539062500, -7.328125000000, 29.109375000000, 15.156250000000, 1490847463
0.099609375000, 0.475585937500, -0.227539062500, -7.328125000000, 29.109375000000, 15.156250000000, 1490847463
0.099609375000, 0.475585937500, -0.227539062500, -7.328125000000, 29.109375000000, 15.156250000000, 1490847463
0.165771484375, 0.563232421875, -0.215576171875, -41.054687500000, 19.109375000000, 16.742187500000, 1490847463
0.165771484375, 0.563232421875, -0.215576171875, -41.054687500000, 19.109375000000, 16.742187500000, 1490847463
0.165771484375, 0.563232421875, -0.215576171875, -41.054687500000, 19.109375000000, 16.742187500000, 1490847463
0.233154296875, 0.696777343750, -0.331787109375, -77.664062500000, -36.203125000000, -14.851562500000, 1490847463
0.233154296875, 0.696777343750, -0.331787109375, -77.664062500000, -36.203125000000, -14.851562500000, 1490847463
0.233154296875, 0.696777343750, -0.331787109375, -77.664062500000, -36.203125000000, -14.851562500000, 1490847463
-0.151123046875, 1.332031250000, -0.197998046875, -27.156250000000, 49.031250000000, 0.484375000000, 1490847463
-0.151123046875, 1.332031250000, -0.197998046875, -27.156250000000, 49.031250000000, 0.484375000000, 1490847463
-0.151123046875, 1.332031250000, -0.197998046875, -27.156250000000, 49.031250000000, 0.484375000000, 1490847463
-0.151123046875, 1.332031250000, -0.197998046875, -27.156250000000, 49.031250000000, 0.484375000000, 1490847463
0.013427734375, 1.534912109375, -0.532226562500, 45.781250000000, 84.468750000000, 50.812500000000, 1490847463
0.013427734375, 1.534912109375, -0.532226562500, 45.781250000000, 84.468750000000, 50.812500000000, 1490847463
0.013427734375, 1.534912109375, -0.532226562500, 45.781250000000, 84.468750000000, 50.812500000000, 1490847463
0.056640625000, 1.094726562500, -1.075439453125, 114.960937500000, 159.546875000000, 58.617187500000, 1490847464
0.056640625000, 1.094726562500, -1.075439453125, 114.960937500000, 159.546875000000, 58.617187500000, 1490847464
0.056640625000, 1.094726562500, -1.075439453125, 114.960937500000, 159.546875000000, 58.617187500000, 1490847464
0.426513671875, 0.942382812500, -0.694335937500, -93.757812500000, 74.203125000000, -4.156250000000, 1490847464
0.426513671875, 0.942382812500, -0.694335937500, -93.757812500000, 74.203125000000, -4.156250000000, 1490847464
0.426513671875, 0.942382812500, -0.694335937500, -93.757812500000, 74.203125000000, -4.156250000000, 1490847464
0.319335937500, 0.763183593750, -0.175781250000, -44.937500000000, 46.875000000000, -3.500000000000, 1490847464
0.319335937500, 0.763183593750, -0.175781250000, -44.937500000000, 46.875000000000, -3.500000000000, 1490847464
0.319335937500, 0.763183593750, -0.175781250000, -44.937500000000, 46.875000000000, -3.500000000000, 1490847464
0.075439453125, 0.484375000000, -0.196533203125, 23.734375000000, -24.867187500000, -16.664062500000, 1490847464
0.075439453125, 0.484375000000, -0.196533203125, 23.734375000000, -24.867187500000, -16.664062500000, 1490847464
0.075439453125, 0.484375000000, -0.196533203125, 23.734375000000, -24.867187500000, -16.664062500000, 1490847464
0.075439453125, 0.484375000000, -0.196533203125, 23.734375000000, -24.867187500000, -16.664062500000, 1490847464
-0.092041015625, 0.487304687500, -0.256347656250, 23.343750000000, -66.250000000000, -7.882812500000, 1490847464
-0.092041015625, 0.487304687500, -0.256347656250, 23.343750000000, -66.250000000000, -7.882812500000, 1490847464
-0.092041015625, 0.487304687500, -0.256347656250, 23.343750000000, -66.250000000000, -7.882812500000, 1490847464
-0.084716796875, 0.609619140625, -0.316650390625, 10.710937500000, -51.937500000000, -27.828125000000, 1490847464
-0.084716796875, 0.609619140625, -0.316650390625, 10.710937500000, -51.937500000000, -27.828125000000, 1490847464
-0.084716796875, 0.609619140625, -0.316650390625, 10.710937500000, -51.937500000000, -27.828125000000, 1490847464
0.201171875000, 1.108642578125, -0.595947265625, -21.101562500000, 70.593750000000, 15.101562500000, 1490847464
0.201171875000, 1.108642578125, -0.595947265625, -21.101562500000, 70.593750000000, 15.101562500000, 1490847464
0.201171875000, 1.108642578125, -0.595947265625, -21.101562500000, 70.593750000000, 15.101562500000, 1490847464
0.201171875000, 1.108642578125, -0.595947265625, -21.101562500000, 70.593750000000, 15.101562500000, 1490847464
0.665039062500, 1.288085937500, -0.618896484375, -67.265625000000, -31.046875000000, -59.781250000000, 1490847464
0.665039062500, 1.288085937500, -0.618896484375, -67.265625000000, -31.046875000000, -59.781250000000, 1490847464
0.665039062500, 1.288085937500, -0.618896484375, -67.265625000000, -31.046875000000, -59.781250000000, 1490847464
0.047119140625, 1.281982421875, -0.291015625000, 68.695312500000, -175.382812500000, -74.960937500000, 1490847464
0.047119140625, 1.281982421875, -0.291015625000, 68.695312500000, -175.382812500000, -74.960937500000, 1490847464
0.047119140625, 1.281982421875, -0.291015625000, 68.695312500000, -175.382812500000, -74.960937500000, 1490847464
-0.118164062500, 0.917480468750, -0.475585937500, 45.781250000000, 23.117187500000, 0.343750000000, 1490847464
-0.118164062500, 0.917480468750, -0.475585937500, 45.781250000000, 23.117187500000, 0.343750000000, 1490847464
-0.118164062500, 0.917480468750, -0.475585937500, 45.781250000000, 23.117187500000, 0.343750000000, 1490847464
0.031494140625, 0.727294921875, -0.586914062500, 44.484375000000, -1.007812500000, 2.640625000000, 1490847464
0.031494140625, 0.727294921875, -0.586914062500, 44.484375000000, -1.007812500000, 2.640625000000, 1490847464
0.031494140625, 0.727294921875, -0.586914062500, 44.484375000000, -1.007812500000, 2.640625000000, 1490847464
0.031494140625, 0.727294921875, -0.586914062500, 44.484375000000, -1.007812500000, 2.640625000000, 1490847464
0.038574218750, 0.494140625000, -0.357421875000, -21.820312500000, 42.804687500000, 7.195312500000, 1490847464
0.038574218750, 0.494140625000, -0.357421875000, -21.820312500000, 42.804687500000, 7.195312500000, 1490847464
0.038574218750, 0.494140625000, -0.357421875000, -21.820312500000, 42.804687500000, 7.195312500000, 1490847464
0.210937500000, 0.424072265625, -0.240234375000, -34.945312500000, 24.882812500000, 6.039062500000, 1490847464
0.210937500000, 0.424072265625, -0.240234375000, -34.945312500000, 24.882812500000, 6.039062500000, 1490847464
0.210937500000, 0.424072265625, -0.240234375000, -34.945312500000, 24.882812500000, 6.039062500000, 1490847464
0.164062500000, 0.644287109375, -0.269042968750, -54.757812500000, -17.820312500000, 8.265625000000, 1490847464
0.164062500000, 0.644287109375, -0.269042968750, -54.757812500000, -17.820312500000, 8.265625000000, 1490847464
0.164062500000, 0.644287109375, -0.269042968750, -54.757812500000, -17.820312500000, 8.265625000000, 1490847464
-0.153076171875, 1.244140625000, -0.340332031250, -58.179687500000, -23.015625000000, -16.578125000000, 1490847464
-0.153076171875, 1.244140625000, -0.340332031250, -58.179687500000, -23.015625000000, -16.578125000000, 1490847464
-0.153076171875, 1.244140625000, -0.340332031250, -58.179687500000, -23.015625000000, -16.578125000000, 1490847464
-0.153076171875, 1.244140625000, -0.340332031250, -58.179687500000, -23.015625000000, -16.578125000000, 1490847464
0.059570312500, 1.502197265625, -0.431640625000, 20.601562500000, 46.718750000000, 26.085937500000, 1490847464
0.059570312500, 1.502197265625, -0.431640625000, 20.601562500000, 46.718750000000, 26.085937500000, 1490847464
0.059570312500, 1.502197265625, -0.431640625000, 20.601562500000, 46.718750000000, 26.085937500000, 1490847464
-0.019775390625, 1.239746093750, -0.521484375000, 72.054687500000, -18.140625000000, 25.382812500000, 1490847464
-0.019775390625, 1.239746093750, -0.521484375000, 72.054687500000, -18.140625000000, 25.382812500000, 1490847464
-0.019775390625, 1.239746093750, -0.521484375000, 72.054687500000, -18.140625000000, 25.382812500000, 1490847464
0.699462890625, 0.976562500000, -1.071044921875, -44.125000000000, 132.703125000000, 58.335937500000, 1490847464
0.699462890625, 0.976562500000, -1.071044921875, -44.125000000000, 132.703125000000, 58.335937500000, 1490847464
0.699462890625, 0.976562500000, -1.071044921875, -44.125000000000, 132.703125000000, 58.335937500000, 1490847464
0.247314453125, 0.888916015625, -0.167968750000, -48.789062500000, 58.156250000000, -10.328125000000, 1490847464
0.247314453125, 0.888916015625, -0.167968750000, -48.789062500000, 58.156250000000, -10.328125000000, 1490847464
0.150390625000, 0.599365234375, -0.161865234375, 30.226562500000, -16.375000000000, -14.992187500000, 1490847464
0.150390625000, 0.599365234375, -0.161865234375, 30.226562500000, -16.375000000000, -14.992187500000, 1490847464
0.150390625000, 0.599365234375, -0.161865234375, 30.226562500000, -16.375000000000, -14.992187500000, 1490847464
0.150390625000, 0.599365234375, -0.161865234375, 30.226562500000, -16.375000000000, -14.992187500000, 1490847464
-0.013671875000, 0.484619140625, -0.202880859375, 42.078125000000, -69.578125000000, -23.421875000000, 1490847464
-0.013671875000, 0.484619140625, -0.202880859375, 42.078125000000, -69.578125000000, -23.421875000000, 1490847464
-0.013671875000, 0.484619140625, -0.202880859375, 42.078125000000, -69.578125000000, -23.421875000000, 1490847465
-0.013671875000, 0.484619140625, -0.202880859375, 42.078125000000, -69.578125000000, -23.421875000000, 1490847465
-0.138183593750, 0.520263671875, -0.243164062500, 11.031250000000, -44.023437500000, -36.437500000000, 1490847465
-0.138183593750, 0.520263671875, -0.243164062500, 11.031250000000, -44.023437500000, -36.437500000000, 1490847465
-0.138183593750, 0.520263671875, -0.243164062500, 11.031250000000, -44.023437500000, -36.437500000000, 1490847465
0.162109375000, 1.089599609375, -0.412841796875, -74.890625000000, 36.531250000000, 5.882812500000, 1490847465
0.162109375000, 1.089599609375, -0.412841796875, -74.890625000000, 36.531250000000, 5.882812500000, 1490847465
0.162109375000, 1.089599609375, -0.412841796875, -74.890625000000, 36.531250000000, 5.882812500000, 1490847465
0.310546875000, 1.192871093750, -0.477294921875, -69.546875000000, 49.609375000000, -10.367187500000, 1490847465
0.370117187500, 1.172363281250, -0.499023437500, -31.117187500000, 28.171875000000, -37.757812500000, 1490847465
0.370117187500, 1.172363281250, -0.499023437500, -31.117187500000, 28.171875000000, -37.757812500000, 1490847465
0.370117187500, 1.172363281250, -0.499023437500, -31.117187500000, 28.171875000000, -37.757812500000, 1490847465
0.343261718750, 1.372802734375, -0.397949218750, 40.625000000000, -131.507812500000, -73.750000000000, 1490847465
0.343261718750, 1.372802734375, -0.397949218750, 40.625000000000, -131.507812500000, -73.750000000000, 1490847465
0.343261718750, 1.372802734375, -0.397949218750, 40.625000000000, -131.507812500000, -73.750000000000, 1490847465
-0.209228515625, 1.272705078125, -0.647705078125, 114.218750000000, -41.757812500000, -7.164062500000, 1490847465
-0.209228515625, 1.272705078125, -0.647705078125, 114.218750000000, -41.757812500000, -7.164062500000, 1490847465
-0.209228515625, 1.272705078125, -0.647705078125, 114.218750000000, -41.757812500000, -7.164062500000, 1490847465
0.207031250000, 0.742675781250, -0.594970703125, 18.773437500000, -65.250000000000, 3.648437500000, 1490847465
0.207031250000, 0.742675781250, -0.594970703125, 18.773437500000, -65.250000000000, 3.648437500000, 1490847465
0.207031250000, 0.742675781250, -0.594970703125, 18.773437500000, -65.250000000000, 3.648437500000, 1490847465
0.207031250000, 0.742675781250, -0.594970703125, 18.773437500000, -65.250000000000, 3.648437500000, 1490847465
0.010009765625, 0.677246093750, -0.311523437500, 8.203125000000, 4.093750000000, 5.781250000000, 1490847465
0.010009765625, 0.677246093750, -0.311523437500, 8.203125000000, 4.093750000000, 5.781250000000, 1490847465
0.010009765625, 0.677246093750, -0.311523437500, 8.203125000000, 4.093750000000, 5.781250000000, 1490847465
0.210449218750, 0.463378906250, -0.382324218750, -11.757812500000, 55.296875000000, 22.414062500000, 1490847465
0.210449218750, 0.463378906250, -0.382324218750, -11.757812500000, 55.296875000000, 22.414062500000, 1490847465
0.210449218750, 0.463378906250, -0.382324218750, -11.757812500000, 55.296875000000, 22.414062500000, 1490847465
0.209716796875, 0.536376953125, -0.223632812500, -41.812500000000, 25.843750000000, 14.296875000000, 1490847465
0.209716796875, 0.536376953125, -0.223632812500, -41.812500000000, 25.843750000000, 14.296875000000, 1490847465
0.209716796875, 0.536376953125, -0.223632812500, -41.812500000000, 25.843750000000, 14.296875000000, 1490847465
0.003417968750, 1.193603515625, -0.401611328125, -114.335937500000, -47.171875000000, -22.453125000000, 1490847465
0.003417968750, 1.193603515625, -0.401611328125, -114.335937500000, -47.171875000000, -22.453125000000, 1490847465
0.003417968750, 1.193603515625, -0.401611328125, -114.335937500000, -47.171875000000, -22.453125000000, 1490847465
0.003417968750, 1.193603515625, -0.401611328125, -114.335937500000, -47.171875000000, -22.453125000000, 1490847465
-0.000488281250, 1.061035156250, -0.260498046875, 8.101562500000, 14.718750000000, -3.398437500000, 1490847465
-0.000488281250, 1.061035156250, -0.260498046875, 8.101562500000, 14.718750000000, -3.398437500000, 1490847465
-0.000488281250, 1.061035156250, -0.260498046875, 8.101562500000, 14.718750000000, -3.398437500000, 1490847465
-0.195800781250, 1.417480468750, -0.459716796875, 35.453125000000, 90.390625000000, 61.781250000000, 1490847465
-0.195800781250, 1.417480468750, -0.459716796875, 35.453125000000, 90.390625000000, 61.781250000000, 1490847465
-0.195800781250, 1.417480468750, -0.459716796875, 35.453125000000, 90.390625000000, 61.781250000000, 1490847465
0.322021484375, 1.084228515625, -1.270019531250, 73.367187500000, 253.992187500000, 94.148437500000, 1490847465
0.322021484375, 1.084228515625, -1.270019531250, 73.367187500000, 253.992187500000, 94.148437500000, 1490847465
0.322021484375, 1.084228515625, -1.270019531250, 73.367187500000, 253.992187500000, 94.148437500000, 1490847465
0.404296875000, 0.874023437500, -0.531982421875, -112.843750000000, 50.648437500000, -25.039062500000, 1490847465
0.404296875000, 0.874023437500, -0.531982421875, -112.843750000000, 50.648437500000, -25.039062500000, 1490847465
0.404296875000, 0.874023437500, -0.531982421875, -112.843750000000, 50.648437500000, -25.039062500000, 1490847465
0.173095703125, 0.763916015625, -0.102783203125, -32.453125000000, 4.554687500000, -7.804687500000, 1490847465
0.173095703125, 0.763916015625, -0.102783203125, -32.453125000000, 4.554687500000, -7.804687500000, 1490847465
0.173095703125, 0.763916015625, -0.102783203125, -32.453125000000, 4.554687500000, -7.804687500000, 1490847465
0.173095703125, 0.763916015625, -0.102783203125, -32.453125000000, 4.554687500000, -7.804687500000, 1490847465
0.070556640625, 0.604736328125, -0.223632812500, 39.687500000000, -32.210937500000, 1.640625000000, 1490847465
0.070556640625, 0.604736328125, -0.223632812500, 39.687500000000, -32.210937500000, 1.640625000000, 1490847465
0.070556640625, 0.604736328125, -0.223632812500, 39.687500000000, -32.210937500000, 1.640625000000, 1490847465
0.058349609375, 0.717529296875, -0.237304687500, 17.859375000000, -81.757812500000, -33.695312500000, 1490847465
0.058349609375, 0.717529296875, -0.237304687500, 17.859375000000, -81.757812500000, -33.695312500000, 1490847465
0.058349609375, 0.717529296875, -0.237304687500, 17.859375000000, -81.757812500000, -33.695312500000, 1490847465
0.190673828125, 0.541992187500, -0.648681640625, 33.093750000000, 14.320312500000, -5.250000000000, 1490847465
0.190673828125, 0.541992187500, -0.648681640625, 33.093750000000, 14.320312500000, -5.250000000000, 1490847465
0.190673828125, 0.541992187500, -0.648681640625, 33.093750000000, 14.320312500000, -5.250000000000, 1490847465
0.190673828125, 0.541992187500, -0.648681640625, 33.093750000000, 14.320312500000, -5.250000000000, 1490847465
0.275390625000, 0.805908203125, -0.570312500000, -81.835937500000, -35.640625000000, -52.218750000000, 1490847465
0.275390625000, 0.805908203125, -0.570312500000, -81.835937500000, -35.640625000000, -52.218750000000, 1490847465
0.275390625000, 0.805908203125, -0.570312500000, -81.835937500000, -35.640625000000, -52.218750000000, 1490847465
0.239746093750, 1.198730468750, -0.399169921875, -42.968750000000, -97.554687500000, -77.906250000000, 1490847465
0.239746093750, 1.198730468750, -0.399169921875, -42.968750000000, -97.554687500000, -77.906250000000, 1490847465
0.239746093750, 1.198730468750, -0.399169921875, -42.968750000000, -97.554687500000, -77.906250000000, 1490847465
-0.076416015625, 1.404541015625, -0.475585937500, 61.179687500000, -67.195312500000, -40.796875000000, 1490847466
-0.076416015625, 1.404541015625, -0.475585937500, 61.179687500000, -67.195312500000, -40.796875000000, 1490847466
-0.076416015625, 1.404541015625, -0.475585937500, 61.179687500000, -67.195312500000, -40.796875000000, 1490847466
0.217529296875, 0.993896484375, -1.006347656250, 75.601562500000, -87.632812500000, -19.273437500000, 1490847466
0.217529296875, 0.993896484375, -1.006347656250, 75.601562500000, -87.632812500000, -19.273437500000, 1490847466
0.217529296875, 0.993896484375, -1.006347656250, 75.601562500000, -87.632812500000, -19.273437500000, 1490847466
0.217529296875, 0.993896484375, -1.006347656250, 75.601562500000, -87.632812500000, -19.273437500000, 1490847466
0.061767578125, 1.020751953125, -0.626464843750, -21.851562500000, -36.125000000000, -9.617187500000, 1490847466
0.061767578125, 1.020751953125, -0.626464843750, -21.851562500000, -36.125000000000, -9.617187500000, 1490847466
0.061767578125, 1.020751953125, -0.626464843750, -21.851562500000, -36.125000000000, -9.617187500000, 1490847466
0.075927734375, 0.628417968750, -0.344726562500, -21.484375000000, 18.937500000000, -1.335937500000, 1490847466
0.075927734375, 0.628417968750, -0.344726562500, -21.484375000000, 18.937500000000, -1.335937500000, 1490847466
0.075927734375, 0.628417968750, -0.344726562500, -21.484375000000, 18.937500000000, -1.335937500000, 1490847466
-0.133300781250, 0.301025390625, -0.174072265625, -23.296875000000, -21.117187500000, -6.117187500000, 1490847466
-0.133300781250, 0.301025390625, -0.174072265625, -23.296875000000, -21.117187500000, -6.117187500000, 1490847466
-0.133300781250, 0.301025390625, -0.174072265625, -23.296875000000, -21.117187500000, -6.117187500000, 1490847466
-0.441650390625, 0.866699218750, -0.448974609375, -112.773437500000, 95.656250000000, 72.140625000000, 1490847466
-0.441650390625, 0.866699218750, -0.448974609375, -112.773437500000, 95.656250000000, 72.140625000000, 1490847466
-0.441650390625, 0.866699218750, -0.448974609375, -112.773437500000, 95.656250000000, 72.140625000000, 1490847466
-0.441650390625, 0.866699218750, -0.448974609375, -112.773437500000, 95.656250000000, 72.140625000000, 1490847466
0.071777343750, 1.394042968750, -0.397216796875, -56.375000000000, 28.890625000000, 17.406250000000, 1490847466
0.071777343750, 1.394042968750, -0.397216796875, -56.375000000000, 28.890625000000, 17.406250000000, 1490847466
0.071777343750, 1.394042968750, -0.397216796875, -56.375000000000, 28.890625000000, 17.406250000000, 1490847466
0.497070312500, 1.770507812500, -0.367919921875, 5.031250000000, 47.164062500000, 21.445312500000, 1490847466
0.497070312500, 1.770507812500, -0.367919921875, 5.031250000000, 47.164062500000, 21.445312500000, 1490847466
0.497070312500, 1.770507812500, -0.367919921875, 5.031250000000, 47.164062500000, 21.445312500000, 1490847466
0.321289062500, 1.195556640625, -0.758300781250, 253.992187500000, 166.015625000000, 90.671875000000, 1490847466
0.321289062500, 1.195556640625, -0.758300781250, 253.992187500000, 166.015625000000, 90.671875000000, 1490847466
0.321289062500, 1.195556640625, -0.758300781250, 253.992187500000, 166.015625000000, 90.671875000000, 1490847466
0.354980468750, 0.822021484375, -0.573242187500, -130.500000000000, 3.554687500000, -63.203125000000, 1490847466
0.354980468750, 0.822021484375, -0.573242187500, -130.500000000000, 3.554687500000, -63.203125000000, 1490847466
0.354980468750, 0.822021484375, -0.573242187500, -130.500000000000, 3.554687500000, -63.203125000000, 1490847466
0.354980468750, 0.822021484375, -0.573242187500, -130.500000000000, 3.554687500000, -63.203125000000, 1490847466
0.155273437500, 0.681884765625, -0.125000000000, -63.914062500000, -70.343750000000, -68.000000000000, 1490847466
0.155273437500, 0.681884765625, -0.125000000000, -63.914062500000, -70.343750000000, -68.000000000000, 1490847466
0.155273437500, 0.681884765625, -0.125000000000, -63.914062500000, -70.343750000000, -68.000000000000, 1490847466
0.133300781250, 0.509277343750, -0.191650390625, -4.148437500000, -16.851562500000, -15.734375000000, 1490847466
0.133300781250, 0.509277343750, -0.191650390625, -4.148437500000, -16.851562500000, -15.734375000000, 1490847466
0.133300781250, 0.509277343750, -0.191650390625, -4.148437500000, -16.851562500000, -15.734375000000, 1490847466
-0.102783203125, 0.451416015625, -0.083007812500, 5.585937500000, -39.898437500000, -29.656250000000, 1490847466
-0.102783203125, 0.451416015625, -0.083007812500, 5.585937500000, -39.898437500000, -29.656250000000, 1490847466
-0.102783203125, 0.451416015625, -0.083007812500, 5.585937500000, -39.898437500000, -29.656250000000, 1490847466
0.151367187500, 1.218017578125, -0.321533203125, -53.320312500000, -63.093750000000, -37.054687500000, 1490847466
0.151367187500, 1.218017578125, -0.321533203125, -53.320312500000, -63.093750000000, -37.054687500000, 1490847466
0.151367187500, 1.218017578125, -0.321533203125, -53.320312500000, -63.093750000000, -37.054687500000, 1490847466
0.151367187500, 1.218017578125, -0.321533203125, -53.320312500000, -63.093750000000, -37.054687500000, 1490847466
0.572509765625, 1.492919921875, -0.877197265625, 132.289062500000, 158.851562500000, 34.039062500000, 1490847466
0.572509765625, 1.492919921875, -0.877197265625, 132.289062500000, 158.851562500000, 34.039062500000, 1490847466
0.572509765625, 1.492919921875, -0.877197265625, 132.289062500000, 158.851562500000, 34.039062500000, 1490847466
0.197265625000, 1.288818359375, -0.968505859375, 112.195312500000, -197.187500000000, -72.234375000000, 1490847466
0.197265625000, 1.288818359375, -0.968505859375, 112.195312500000, -197.187500000000, -72.234375000000, 1490847466
0.197265625000, 1.288818359375, -0.968505859375, 112.195312500000, -197.187500000000, -72.234375000000, 1490847466
0.040771484375, 1.147949218750, -0.634765625000, -26.085937500000, -20.601562500000, -3.140625000000, 1490847466
0.040771484375, 1.147949218750, -0.634765625000, -26.085937500000, -20.601562500000, -3.140625000000, 1490847466
0.040771484375, 1.147949218750, -0.634765625000, -26.085937500000, -20.601562500000, -3.140625000000, 1490847466
0.064208984375, 0.777832031250, -0.466796875000, 33.375000000000, 13.664062500000, 1.000000000000, 1490847466
0.064208984375, 0.777832031250, -0.466796875000, 33.375000000000, 13.664062500000, 1.000000000000, 1490847466
0.064208984375, 0.777832031250, -0.466796875000, 33.375000000000, 13.664062500000, 1.000000000000, 1490847466
0.064208984375, 0.777832031250, -0.466796875000, 33.375000000000, 13.664062500000, 1.000000000000, 1490847466
0.191162109375, 0.453857421875, -0.393310546875, -5.609375000000, -10.609375000000, 6.843750000000, 1490847466
0.191162109375, 0.453857421875, -0.393310546875, -5.609375000000, -10.609375000000, 6.843750000000, 1490847466
0.191162109375, 0.453857421875, -0.393310546875, -5.609375000000, -10.609375000000, 6.843750000000, 1490847466
-0.024902343750, 0.252929687500, -0.236816406250, -25.453125000000, 18.375000000000, -2.664062500000, 1490847466
-0.024902343750, 0.252929687500, -0.236816406250, -25.453125000000, 18.375000000000, -2.664062500000, 1490847466
-0.024902343750, 0.252929687500, -0.236816406250, -25.453125000000, 18.375000000000, -2.664062500000, 1490847466
0.017822265625, 0.649902343750, -0.380126953125, -91.390625000000, 36.085937500000, 20.468750000000, 1490847466
0.017822265625, 0.649902343750, -0.380126953125, -91.390625000000, 36.085937500000, 20.468750000000, 1490847466
0.017822265625, 0.649902343750, -0.380126953125, -91.390625000000, 36.085937500000, 20.468750000000, 1490847466
0.089843750000, 1.159423828125, -0.324951171875, 1.671875000000, -30.875000000000, -23.781250000000, 1490847467
0.089843750000, 1.159423828125, -0.324951171875, 1.671875000000, -30.875000000000, -23.781250000000, 1490847467
0.089843750000, 1.159423828125, -0.324951171875, 1.671875000000, -30.875000000000, -23.781250000000, 1490847467
0.089843750000, 1.159423828125, -0.324951171875, 1.671875000000, -30.875000000000, -23.781250000000, 1490847467
0.257812500000, 1.601074218750, -0.580322265625, 81.765625000000, 114.703125000000, 56.078125000000, 1490847467
0.257812500000, 1.601074218750, -0.580322265625, 81.765625000000, 114.703125000000, 56.078125000000, 1490847467
0.257812500000, 1.601074218750, -0.580322265625, 81.765625000000, 114.703125000000, 56.078125000000, 1490847467
0.322265625000, 1.155761718750, -1.517578125000, 126.664062500000, 253.992187500000, 92.992187500000, 1490847467
0.739746093750, 0.904052734375, -1.573730468750, 3.484375000000, 103.335937500000, 64.734375000000, 1490847467
0.739746093750, 0.904052734375, -1.573730468750, 3.484375000000, 103.335937500000, 64.734375000000, 1490847467
0.329101562500, 0.881591796875, -0.327880859375, -124.843750000000, 20.718750000000, -32.484375000000, 1490847467
0.329101562500, 0.881591796875, -0.327880859375, -124.843750000000, 20.718750000000, -32.484375000000, 1490847467
0.329101562500, 0.881591796875, -0.327880859375, -124.843750000000, 20.718750000000, -32.484375000000, 1490847467
0.175048828125, 0.690185546875, -0.156738281250, -22.023437500000, 7.898437500000, -26.867187500000, 1490847467
0.175048828125, 0.690185546875, -0.156738281250, -22.023437500000, 7.898437500000, -26.867187500000, 1490847467
0.175048828125, 0.690185546875, -0.156738281250, -22.023437500000, 7.898437500000, -26.867187500000, 1490847467
0.175048828125, 0.690185546875, -0.156738281250, -22.023437500000, 7.898437500000, -26.867187500000, 1490847467
0.061035156250, 0.519042968750, -0.201416015625, 2.546875000000, -64.671875000000, -33.390625000000, 1490847467
0.061035156250, 0.519042968750, -0.201416015625, 2.546875000000, -64.671875000000, -33.390625000000, 1490847467
0.061035156250, 0.519042968750, -0.201416015625, 2.546875000000, -64.671875000000, -33.390625000000, 1490847467
-0.155517578125, 0.427490234375, -0.094970703125, 48.539062500000, -103.687500000000, -26.906250000000, 1490847467
-0.155517578125, 0.427490234375, -0.094970703125, 48.539062500000, -103.687500000000, -26.906250000000, 1490847467
-0.155517578125, 0.427490234375, -0.094970703125, 48.539062500000, -103.687500000000, -26.906250000000, 1490847467
-0.001464843750, 0.766113281250, -0.390625000000, 31.789062500000, -2.492187500000, 10.500000000000, 1490847467
-0.001464843750, 0.766113281250, -0.390625000000, 31.789062500000, -2.492187500000, 10.500000000000, 1490847467
-0.001464843750, 0.766113281250, -0.390625000000, 31.789062500000, -2.492187500000, 10.500000000000, 1490847467
0.550292968750, 1.139892578125, -1.170410156250, 6.906250000000, -31.218750000000, -30.742187500000, 1490847467
0.550292968750, 1.139892578125, -1.170410156250, 6.906250000000, -31.218750000000, -30.742187500000, 1490847467
0.550292968750, 1.139892578125, -1.170410156250, 6.906250000000, -31.218750000000, -30.742187500000, 1490847467
0.550292968750, 1.139892578125, -1.170410156250, 6.906250000000, -31.218750000000, -30.742187500000, 1490847467
0.331054687500, 1.468261718750, -0.423095703125, -48.734375000000, -130.515625000000, -65.015625000000, 1490847467
0.331054687500, 1.468261718750, -0.423095703125, -48.734375000000, -130.515625000000, -65.015625000000, 1490847467
0.331054687500, 1.468261718750, -0.423095703125, -48.734375000000, -130.515625000000, -65.015625000000, 1490847467
0.064453125000, 1.165039062500, -0.361328125000, 81.476562500000, -24.945312500000, -19.421875000000, 1490847467
0.064453125000, 1.165039062500, -0.361328125000, 81.476562500000, -24.945312500000, -19.421875000000, 1490847467
0.064453125000, 1.165039062500, -0.361328125000, 81.476562500000, -24.945312500000, -19.421875000000, 1490847467
0.195800781250, 0.964843750000, -0.950439453125, 83.179687500000, 17.812500000000, 11.570312500000, 1490847467
0.195800781250, 0.964843750000, -0.950439453125, 83.179687500000, 17.812500000000, 11.570312500000, 1490847467
0.195800781250, 0.964843750000, -0.950439453125, 83.179687500000, 17.812500000000, 11.570312500000, 1490847467
-0.015625000000, 0.507324218750, -0.291259765625, -45.109375000000, -31.843750000000, -16.570312500000, 1490847467
-0.015625000000, 0.507324218750, -0.291259765625, -45.109375000000, -31.843750000000, -16.570312500000, 1490847467
-0.015625000000, 0.507324218750, -0.291259765625, -45.109375000000, -31.843750000000, -16.570312500000, 1490847467
-0.015625000000, 0.507324218750, -0.291259765625, -45.109375000000, -31.843750000000, -16.570312500000, 1490847467
-0.024414062500, 0.406738281250, -0.228271484375, -33.070312500000, 22.257812500000, 0.468750000000, 1490847467
-0.024414062500, 0.406738281250, -0.228271484375, -33.070312500000, 22.257812500000, 0.468750000000, 1490847467
-0.024414062500, 0.406738281250, -0.228271484375, -33.070312500000, 22.257812500000, 0.468750000000, 1490847467
0.014892578125, 0.519531250000, -0.316406250000, -54.445312500000, 40.835937500000, 30.070312500000, 1490847467
0.014892578125, 0.519531250000, -0.316406250000, -54.445312500000, 40.835937500000, 30.070312500000, 1490847467
0.014892578125, 0.519531250000, -0.316406250000, -54.445312500000, 40.835937500000, 30.070312500000, 1490847467
0.010009765625, 1.068603515625, -0.313232421875, -50.726562500000, -18.015625000000, 5.843750000000, 1490847467
0.010009765625, 1.068603515625, -0.313232421875, -50.726562500000, -18.015625000000, 5.843750000000, 1490847467
0.010009765625, 1.068603515625, -0.313232421875, -50.726562500000, -18.015625000000, 5.843750000000, 1490847467
0.123291015625, 1.487548828125, -0.706054687500, 84.367187500000, 8.429687500000, 19.203125000000, 1490847467
0.123291015625, 1.487548828125, -0.706054687500, 84.367187500000, 8.429687500000, 19.203125000000, 1490847467
0.123291015625, 1.487548828125, -0.706054687500, 84.367187500000, 8.429687500000, 19.203125000000, 1490847467
0.123291015625, 1.487548828125, -0.706054687500, 84.367187500000, 8.429687500000, 19.203125000000, 1490847467
0.596679687500, 0.969238281250, -1.341308593750, 1.093750000000, 138.664062500000, 57.062500000000, 1490847467
0.596679687500, 0.969238281250, -1.341308593750, 1.093750000000, 138.664062500000, 57.062500000000, 1490847467
0.596679687500, 0.969238281250, -1.341308593750, 1.093750000000, 138.664062500000, 57.062500000000, 1490847467
0.255859375000, 0.934814453125, -0.582763671875, -76.484375000000, 60.679687500000, -7.000000000000, 1490847467
0.255859375000, 0.934814453125, -0.582763671875, -76.484375000000, 60.679687500000, -7.000000000000, 1490847467
0.255859375000, 0.934814453125, -0.582763671875, -76.484375000000, 60.679687500000, -7.000000000000, 1490847467
0.378906250000, 0.744628906250, -0.266113281250, -27.132812500000, 42.875000000000, -11.007812500000, 1490847467
0.378906250000, 0.744628906250, -0.266113281250, -27.132812500000, 42.875000000000, -11.007812500000, 1490847467
0.378906250000, 0.744628906250, -0.266113281250, -27.132812500000, 42.875000000000, -11.007812500000, 1490847467
0.047119140625, 0.535888671875, -0.233642578125, 33.859375000000, -44.718750000000, -22.101562500000, 1490847468
0.047119140625, 0.535888671875, -0.233642578125, 33.859375000000, -44.718750000000, -22.101562500000, 1490847468
0.047119140625, 0.535888671875, -0.233642578125, 33.859375000000, -44.718750000000, -22.101562500000, 1490847468
0.047119140625, 0.535888671875, -0.233642578125, 33.859375000000, -44.718750000000, -22.101562500000, 1490847468
0.086914062500, 0.440917968750, -0.268554687500, 7.703125000000, -15.343750000000, -20.070312500000, 1490847468
0.086914062500, 0.440917968750, -0.268554687500, 7.703125000000, -15.343750000000, -20.070312500000, 1490847468
0.086914062500, 0.440917968750, -0.268554687500, 7.703125000000, -15.343750000000, -20.070312500000, 1490847468
0.271728515625, 0.687744140625, -0.312255859375, -64.570312500000, -37.320312500000, -29.664062500000, 1490847468
0.271728515625, 0.687744140625, -0.312255859375, -64.570312500000, -37.320312500000, -29.664062500000, 1490847468
0.271728515625, 0.687744140625, -0.312255859375, -64.570312500000, -37.320312500000, -29.664062500000, 1490847468
0.319580078125, 1.329833984375, -0.240478515625, -39.968750000000, -37.609375000000, -37.625000000000, 1490847468
0.319580078125, 1.329833984375, -0.240478515625, -39.968750000000, -37.609375000000, -37.625000000000, 1490847468
0.319580078125, 1.329833984375, -0.240478515625, -39.968750000000, -37.609375000000, -37.625000000000, 1490847468
0.326416015625, 1.518066406250, -0.645751953125, 90.695312500000, -106.796875000000, -31.742187500000, 1490847468
0.326416015625, 1.518066406250, -0.645751953125, 90.695312500000, -106.796875000000, -31.742187500000, 1490847468
0.326416015625, 1.518066406250, -0.645751953125, 90.695312500000, -106.796875000000, -31.742187500000, 1490847468
0.326416015625, 1.518066406250, -0.645751953125, 90.695312500000, -106.796875000000, -31.742187500000, 1490847468
0.133544921875, 1.086914062500, -1.318847656250, 73.492187500000, 62.898437500000, 18.179687500000, 1490847468
0.133544921875, 1.086914062500, -1.318847656250, 73.492187500000, 62.898437500000, 18.179687500000, 1490847468
0.133544921875, 1.086914062500, -1.318847656250, 73.492187500000, 62.898437500000, 18.179687500000, 1490847468
0.160400390625, 0.848876953125, -0.446777343750, -59.539062500000, -112.460937500000, -43.828125000000, 1490847468
0.160400390625, 0.848876953125, -0.446777343750, -59.539062500000, -112.460937500000, -43.828125000000, 1490847468
0.160400390625, 0.848876953125, -0.446777343750, -59.539062500000, -112.460937500000, -43.828125000000, 1490847468
-0.140380859375, 0.550537109375, -0.279296875000, 21.234375000000, -9.539062500000, 1.968750000000, 1490847468
-0.140380859375, 0.550537109375, -0.279296875000, 21.234375000000, -9.539062500000, 1.968750000000, 1490847468
-0.140380859375, 0.550537109375, -0.279296875000, 21.234375000000, -9.539062500000, 1.968750000000, 1490847468
0.023437500000, 0.423339843750, -0.244628906250, -22.179687500000, 36.554687500000, 27.515625000000, 1490847468
0.023437500000, 0.423339843750, -0.244628906250, -22.179687500000, 36.554687500000, 27.515625000000, 1490847468
0.023437500000, 0.423339843750, -0.244628906250, -22.179687500000, 36.554687500000, 27.515625000000, 1490847468
0.023437500000, 0.423339843750, -0.244628906250, -22.179687500000, 36.554687500000, 27.515625000000, 1490847468
0.186035156250, 0.510253906250, -0.231445312500, -31.656250000000, 59.921875000000, 39.492187500000, 1490847468
0.186035156250, 0.510253906250, -0.231445312500, -31.656250000000, 59.921875000000, 39.492187500000, 1490847468
0.186035156250, 0.510253906250, -0.231445312500, -31.656250000000, 59.921875000000, 39.492187500000, 1490847468
1.570068359375, 1.746582031250, -1.340332031250, 137.945312500000, -256.000000000000, -31.593750000000, 1490847468
1.570068359375, 1.746582031250, -1.340332031250, 137.945312500000, -256.000000000000, -31.593750000000, 1490847468
1.570068359375, 1.746582031250, -1.340332031250, 137.945312500000, -256.000000000000, -31.593750000000, 1490847468
-0.661132812500, 1.186523437500, -2.775634765625, -178.484375000000, 14.390625000000, 30.343750000000, 1490847468
0.251953125000, 1.295654296875, -0.314941406250, -44.335937500000, 51.007812500000, 16.054687500000, 1490847468
0.251953125000, 1.295654296875, -0.314941406250, -44.335937500000, 51.007812500000, 16.054687500000, 1490847468
0.251953125000, 1.295654296875, -0.314941406250, -44.335937500000, 51.007812500000, 16.054687500000, 1490847468
0.251708984375, 1.216308593750, -0.339843750000, 10.562500000000, 99.960937500000, 34.523437500000, 1490847468
0.204345703125, 1.107666015625, -0.360595703125, 54.773437500000, 117.656250000000, 35.015625000000, 1490847468
0.204345703125, 1.107666015625, -0.360595703125, 54.773437500000, 117.656250000000, 35.015625000000, 1490847468
0.204345703125, 1.107666015625, -0.360595703125, 54.773437500000, 117.656250000000, 35.015625000000, 1490847468
0.204345703125, 1.107666015625, -0.360595703125, 54.773437500000, 117.656250000000, 35.015625000000, 1490847468
0.284912109375, 0.802001953125, -0.681640625000, 45.171875000000, 52.257812500000, 29.070312500000, 1490847468
0.284912109375, 0.802001953125, -0.681640625000, 45.171875000000, 52.257812500000, 29.070312500000, 1490847468
0.284912109375, 0.802001953125, -0.681640625000, 45.171875000000, 52.257812500000, 29.070312500000, 1490847468
0.284912109375, 0.802001953125, -0.681640625000, 45.171875000000, 52.257812500000, 29.070312500000, 1490847468
0.109863281250, 0.630615234375, -0.462890625000, -30.585937500000, -47.210937500000, -29.203125000000, 1490847468
0.109863281250, 0.630615234375, -0.462890625000, -30.585937500000, -47.210937500000, -29.203125000000, 1490847468
0.109863281250, 0.630615234375, -0.462890625000, -30.585937500000, -47.210937500000, -29.203125000000, 1490847468
0.197265625000, 0.474365234375, -0.162353515625, -27.484375000000, -2.156250000000, -20.039062500000, 1490847468
0.197265625000, 0.474365234375, -0.162353515625, -27.484375000000, -2.156250000000, -20.039062500000, 1490847468
0.197265625000, 0.474365234375, -0.162353515625, -27.484375000000, -2.156250000000, -20.039062500000, 1490847468
0.197265625000, 0.474365234375, -0.162353515625, -27.484375000000, -2.156250000000, -20.039062500000, 1490847468
0.168457031250, 0.458007812500, -0.101318359375, -30.031250000000, -25.976562500000, -25.054687500000, 1490847468
0.168457031250, 0.458007812500, -0.101318359375, -30.031250000000, -25.976562500000, -25.054687500000, 1490847468
0.298828125000, 1.250732421875, -0.284423828125, -107.921875000000, -54.492187500000, -64.679687500000, 1490847468
0.298828125000, 1.250732421875, -0.284423828125, -107.921875000000, -54.492187500000, -64.679687500000, 1490847468
0.298828125000, 1.250732421875, -0.284423828125, -107.921875000000, -54.492187500000, -64.679687500000, 1490847468
0.298828125000, 1.250732421875, -0.284423828125, -107.921875000000, -54.492187500000, -64.679687500000, 1490847468
0.177978515625, 1.277832031250, -0.389648437500, 76.171875000000, -29.726562500000, -29.578125000000, 1490847468
0.177978515625, 1.277832031250, -0.389648437500, 76.171875000000, -29.726562500000, -29.578125000000, 1490847468
0.177978515625, 1.277832031250, -0.389648437500, 76.171875000000, -29.726562500000, -29.578125000000, 1490847468
0.075683593750, 1.099365234375, -0.821533203125, 174.523437500000, -39.984375000000, -23.531250000000, 1490847468
0.075683593750, 1.099365234375, -0.821533203125, 174.523437500000, -39.984375000000, -23.531250000000, 1490847468
0.075683593750, 1.099365234375, -0.821533203125, 174.523437500000, -39.984375000000, -23.531250000000, 1490847468
0.075683593750, 1.099365234375, -0.821533203125, 174.523437500000, -39.984375000000, -23.531250000000, 1490847469
0.178466796875, 0.946044921875, -0.728515625000, -94.078125000000, -62.406250000000, -25.812500000000, 1490847469
0.178466796875, 0.946044921875, -0.728515625000, -94.078125000000, -62.406250000000, -25.812500000000, 1490847469
0.178466796875, 0.946044921875, -0.728515625000, -94.078125000000, -62.406250000000, -25.812500000000, 1490847469
0.031250000000, 0.721923828125, -0.178710937500, -17.765625000000, -81.085937500000, -22.664062500000, 1490847469
0.031250000000, 0.721923828125, -0.178710937500, -17.765625000000, -81.085937500000, -22.664062500000, 1490847469
0.031250000000, 0.721923828125, -0.178710937500, -17.765625000000, -81.085937500000, -22.664062500000, 1490847469
-0.046875000000, 0.512695312500, -0.272705078125, 3.757812500000, 66.476562500000, 28.750000000000, 1490847469
-0.046875000000, 0.512695312500, -0.272705078125, 3.757812500000, 66.476562500000, 28.750000000000, 1490847469
-0.046875000000, 0.512695312500, -0.272705078125, 3.757812500000, 66.476562500000, 28.750000000000, 1490847469
-0.071289062500, 0.400390625000, -0.264648437500, -36.414062500000, 30.562500000000, 38.351562500000, 1490847469
-0.071289062500, 0.400390625000, -0.264648437500, -36.414062500000, 30.562500000000, 38.351562500000, 1490847469
-0.071289062500, 0.400390625000, -0.264648437500, -36.414062500000, 30.562500000000, 38.351562500000, 1490847469
-0.071289062500, 0.400390625000, -0.264648437500, -36.414062500000, 30.562500000000, 38.351562500000, 1490847469
-1.179687500000, 1.308593750000, 1.121093750000, 0.726562500000, 132.984375000000, 79.023437500000, 1490847469
-1.179687500000, 1.308593750000, 1.121093750000, 0.726562500000, 132.984375000000, 79.023437500000, 1490847469
-1.179687500000, 1.308593750000, 1.121093750000, 0.726562500000, 132.984375000000, 79.023437500000, 1490847469
0.406982421875, 1.211425781250, -0.501708984375, -107.046875000000, 45.500000000000, 7.273437500000, 1490847469
0.406982421875, 1.211425781250, -0.501708984375, -107.046875000000, 45.500000000000, 7.273437500000, 1490847469
0.148437500000, 1.696777343750, -0.860351562500, 3.960937500000, 127.390625000000, 69.726562500000, 1490847469
0.148437500000, 1.696777343750, -0.860351562500, 3.960937500000, 127.390625000000, 69.726562500000, 1490847469
0.148437500000, 1.696777343750, -0.860351562500, 3.960937500000, 127.390625000000, 69.726562500000, 1490847469
0.148437500000, 1.696777343750, -0.860351562500, 3.960937500000, 127.390625000000, 69.726562500000, 1490847469
0.444824218750, 0.930175781250, -0.687988281250, 3.273437500000, 82.492187500000, 26.898437500000, 1490847469
0.444824218750, 0.930175781250, -0.687988281250, 3.273437500000, 82.492187500000, 26.898437500000, 1490847469
0.444824218750, 0.930175781250, -0.687988281250, 3.273437500000, 82.492187500000, 26.898437500000, 1490847469
0.444824218750, 0.930175781250, -0.687988281250, 3.273437500000, 82.492187500000, 26.898437500000, 1490847469
0.382812500000, 0.754150390625, -0.409667968750, -20.078125000000, -40.140625000000, -31.867187500000, 1490847469
0.382812500000, 0.754150390625, -0.409667968750, -20.078125000000, -40.140625000000, -31.867187500000, 1490847469
0.382812500000, 0.754150390625, -0.409667968750, -20.078125000000, -40.140625000000, -31.867187500000, 1490847469
0.144042968750, 0.629638671875, -0.112548828125, 12.250000000000, -43.718750000000, -38.937500000000, 1490847469
0.144042968750, 0.629638671875, -0.112548828125, 12.250000000000, -43.718750000000, -38.937500000000, 1490847469
0.144042968750, 0.629638671875, -0.112548828125, 12.250000000000, -43.718750000000, -38.937500000000, 1490847469
0.149658203125, 0.318115234375, -0.185058593750, 21.125000000000, -42.046875000000, -27.062500000000, 1490847469
0.149658203125, 0.318115234375, -0.185058593750, 21.125000000000, -42.046875000000, -27.062500000000, 1490847469
0.149658203125, 0.318115234375, -0.185058593750, 21.125000000000, -42.046875000000, -27.062500000000, 1490847469
-0.000732421875, 0.375000000000, -0.255859375000, -44.429687500000, -34.859375000000, -31.179687500000, 1490847469
-0.000732421875, 0.375000000000, -0.255859375000, -44.429687500000, -34.859375000000, -31.179687500000, 1490847469
-0.000732421875, 0.375000000000, -0.255859375000, -44.429687500000, -34.859375000000, -31.179687500000, 1490847469
-0.000732421875, 0.375000000000, -0.255859375000, -44.429687500000, -34.859375000000, -31.179687500000, 1490847469
0.190673828125, 1.363037109375, -0.114501953125, -164.109375000000, -50.554687500000, -47.718750000000, 1490847469
0.190673828125, 1.363037109375, -0.114501953125, -164.109375000000, -50.554687500000, -47.718750000000, 1490847469
0.190673828125, 1.363037109375, -0.114501953125, -164.109375000000, -50.554687500000, -47.718750000000, 1490847469
0.226562500000, 1.357666015625, -0.247802734375, 97.640625000000, 9.890625000000, -15.132812500000, 1490847469
0.226562500000, 1.357666015625, -0.247802734375, 97.640625000000, 9.890625000000, -15.132812500000, 1490847469
0.226562500000, 1.357666015625, -0.247802734375, 97.640625000000, 9.890625000000, -15.132812500000, 1490847469
0.342285156250, 1.777587890625, -0.713134765625, 146.882812500000, -129.703125000000, -15.312500000000, 1490847469
0.342285156250, 1.777587890625, -0.713134765625, 146.882812500000, -129.703125000000, -15.312500000000, 1490847469
0.279541015625, 1.025878906250, -0.342041015625, -92.265625000000, -134.882812500000, -58.945312500000, 1490847469
0.279541015625, 1.025878906250, -0.342041015625, -92.265625000000, -134.882812500000, -58.945312500000, 1490847469
0.279541015625, 1.025878906250, -0.342041015625, -92.265625000000, -134.882812500000, -58.945312500000, 1490847469
0.279541015625, 1.025878906250, -0.342041015625, -92.265625000000, -134.882812500000, -58.945312500000, 1490847469
0.279541015625, 1.025878906250, -0.342041015625, -92.265625000000, -134.882812500000, -58.945312500000, 1490847469
-0.129394531250, 0.752685546875, -0.250732421875, 42.187500000000, -38.828125000000, 3.335937500000, 1490847469
-0.129394531250, 0.752685546875, -0.250732421875, 42.187500000000, -38.828125000000, 3.335937500000, 1490847469
-0.129394531250, 0.752685546875, -0.250732421875, 42.187500000000, -38.828125000000, 3.335937500000, 1490847469
0.082275390625, 0.516845703125, -0.317138671875, 59.085937500000, 77.906250000000, 65.578125000000, 1490847469
0.082275390625, 0.516845703125, -0.317138671875, 59.085937500000, 77.906250000000, 65.578125000000, 1490847469
0.082275390625, 0.516845703125, -0.317138671875, 59.085937500000, 77.906250000000, 65.578125000000, 1490847469
0.198486328125, 0.379638671875, -0.302490234375, 30.273437500000, 31.835937500000, 41.757812500000, 1490847469
0.198486328125, 0.379638671875, -0.302490234375, 30.273437500000, 31.835937500000, 41.757812500000, 1490847469
0.446777343750, 0.196289062500, 0.333007812500, 253.992187500000, 196.835937500000, 132.625000000000, 1490847469
0.446777343750, 0.196289062500, 0.333007812500, 253.992187500000, 196.835937500000, 132.625000000000, 1490847469
0.446777343750, 0.196289062500, 0.333007812500, 253.992187500000, 196.835937500000, 132.625000000000, 1490847469
0.446777343750, 0.196289062500, 0.333007812500, 253.992187500000, 196.835937500000, 132.625000000000, 1490847469
-0.101318359375, 2.399902343750, -2.849609375000, 47.320312500000, -256.000000000000, -20.718750000000, 1490847470
-0.021728515625, 1.566406250000, -0.373046875000, 47.320312500000, -256.000000000000, -20.718750000000, 1490847470
-0.021728515625, 1.566406250000, -0.373046875000, 47.320312500000, -256.000000000000, -20.718750000000, 1490847470
-0.139160156250, 1.603759765625, -0.345458984375, -27.773437500000, 191.476562500000, 62.117187500000, 1490847470
-0.139160156250, 1.603759765625, -0.345458984375, 25.312500000000, 148.671875000000, 71.492187500000, 1490847470
0.023925781250, 1.274414062500, -0.653808593750, 66.476562500000, 72.695312500000, 23.335937500000, 1490847470
0.023925781250, 1.274414062500, -0.653808593750, 66.476562500000, 72.695312500000, 23.335937500000, 1490847470
0.023925781250, 1.274414062500, -0.653808593750, 66.476562500000, 72.695312500000, 23.335937500000, 1490847470
0.023925781250, 1.274414062500, -0.653808593750, 66.476562500000, 72.695312500000, 23.335937500000, 1490847470
0.023925781250, 1.274414062500, -0.653808593750, 66.476562500000, 72.695312500000, 23.335937500000, 1490847470
0.503173828125, 0.943847656250, -0.542724609375, -52.179687500000, 17.296875000000, -17.539062500000, 1490847470
0.503173828125, 0.943847656250, -0.542724609375, -52.179687500000, 17.296875000000, -17.539062500000, 1490847470
0.503173828125, 0.943847656250, -0.542724609375, -52.179687500000, 17.296875000000, -17.539062500000, 1490847470
0.503173828125, 0.943847656250, -0.542724609375, -52.179687500000, 17.296875000000, -17.539062500000, 1490847470
0.183349609375, 0.608642578125, -0.161865234375, -26.453125000000, -38.117187500000, -55.531250000000, 1490847470
0.183349609375, 0.608642578125, -0.161865234375, -26.453125000000, -38.117187500000, -55.531250000000, 1490847470
0.183349609375, 0.608642578125, -0.161865234375, -26.453125000000, -38.117187500000, -55.531250000000, 1490847470
0.155761718750, 0.486572265625, -0.109619140625, 17.250000000000, -43.195312500000, -26.335937500000, 1490847470
0.155761718750, 0.486572265625, -0.109619140625, 17.250000000000, -43.195312500000, -26.335937500000, 1490847470
0.155761718750, 0.486572265625, -0.109619140625, 17.250000000000, -43.195312500000, -26.335937500000, 1490847470
-0.023193359375, 0.388671875000, -0.099609375000, -5.195312500000, -57.812500000000, -41.234375000000, 1490847470
-0.023193359375, 0.388671875000, -0.099609375000, -5.195312500000, -57.812500000000, -41.234375000000, 1490847470
-0.023193359375, 0.388671875000, -0.099609375000, -5.195312500000, -57.812500000000, -41.234375000000, 1490847470
0.043457031250, 1.041503906250, -0.452148437500, -89.625000000000, -28.179687500000, -9.687500000000, 1490847470
0.043457031250, 1.041503906250, -0.452148437500, -89.625000000000, -28.179687500000, -9.687500000000, 1490847470
0.043457031250, 1.041503906250, -0.452148437500, -89.625000000000, -28.179687500000, -9.687500000000, 1490847470
0.331542968750, 1.323242187500, -0.276123046875, -25.843750000000, -2.054687500000, -13.015625000000, 1490847470
0.331542968750, 1.323242187500, -0.276123046875, -25.843750000000, -2.054687500000, -13.015625000000, 1490847470
0.331542968750, 1.323242187500, -0.276123046875, -25.843750000000, -2.054687500000, -13.015625000000, 1490847470
0.331542968750, 1.323242187500, -0.276123046875, -25.843750000000, -2.054687500000, -13.015625000000, 1490847470
0.748535156250, 1.661621093750, -0.730224609375, 65.015625000000, 31.742187500000, 1.515625000000, 1490847470
0.748535156250, 1.661621093750, -0.730224609375, 65.015625000000, 31.742187500000, 1.515625000000, 1490847470
0.748535156250, 1.661621093750, -0.730224609375, 65.015625000000, 31.742187500000, 1.515625000000, 1490847470
0.080810546875, 1.129150390625, -1.046875000000, 106.906250000000, -15.726562500000, -10.484375000000, 1490847470
0.080810546875, 1.129150390625, -1.046875000000, 106.906250000000, -15.726562500000, -10.484375000000, 1490847470
0.080810546875, 1.129150390625, -1.046875000000, 106.906250000000, -15.726562500000, -10.484375000000, 1490847470
0.139648437500, 0.899902343750, -0.336669921875, -24.601562500000, -162.757812500000, -34.273437500000, 1490847470
0.139648437500, 0.899902343750, -0.336669921875, -24.601562500000, -162.757812500000, -34.273437500000, 1490847470
0.139648437500, 0.899902343750, -0.336669921875, -24.601562500000, -162.757812500000, -34.273437500000, 1490847470
0.126464843750, 0.692871093750, -0.294433593750, 51.046875000000, 77.750000000000, 26.585937500000, 1490847470
0.126464843750, 0.692871093750, -0.294433593750, 51.046875000000, 77.750000000000, 26.585937500000, 1490847470
0.126464843750, 0.692871093750, -0.294433593750, 51.046875000000, 77.750000000000, 26.585937500000, 1490847470
0.126464843750, 0.692871093750, -0.294433593750, 51.046875000000, 77.750000000000, 26.585937500000, 1490847470
0.063476562500, 0.425537109375, -0.283935546875, -28.789062500000, 44.554687500000, 9.953125000000, 1490847470
0.063476562500, 0.425537109375, -0.283935546875, -28.789062500000, 44.554687500000, 9.953125000000, 1490847470
0.063476562500, 0.425537109375, -0.283935546875, -28.789062500000, 44.554687500000, 9.953125000000, 1490847470
0.063476562500, 0.425537109375, -0.283935546875, -28.789062500000, 44.554687500000, 9.953125000000, 1490847470
0.063476562500, 0.425537109375, -0.283935546875, -28.789062500000, 44.554687500000, 9.953125000000, 1490847470
0.103271484375, 0.653564453125, -0.260253906250, -55.382812500000, 59.460937500000, 15.601562500000, 1490847470
0.031982421875, 1.036132812500, -0.257080078125, -87.914062500000, -33.929687500000, -15.312500000000, 1490847470
0.031982421875, 1.036132812500, -0.257080078125, -87.914062500000, -33.929687500000, -15.312500000000, 1490847470
0.031982421875, 1.036132812500, -0.257080078125, -87.914062500000, -33.929687500000, -15.312500000000, 1490847470
0.031982421875, 1.036132812500, -0.257080078125, -87.914062500000, -33.929687500000, -15.312500000000, 1490847470
0.114501953125, 1.204345703125, -0.317626953125, 18.765625000000, -18.632812500000, 7.078125000000, 1490847470
0.114501953125, 1.204345703125, -0.317626953125, 18.765625000000, -18.632812500000, 7.078125000000, 1490847470
0.114501953125, 1.204345703125, -0.317626953125, 18.765625000000, -18.632812500000, 7.078125000000, 1490847470
0.129150390625, 1.217285156250, -0.423095703125, 87.562500000000, 71.828125000000, 34.273437500000, 1490847470
0.129150390625, 1.217285156250, -0.423095703125, 87.562500000000, 71.828125000000, 34.273437500000, 1490847470
0.129150390625, 1.217285156250, -0.423095703125, 87.562500000000, 71.828125000000, 34.273437500000, 1490847470
0.462402343750, 0.994873046875, -0.971923828125, -5.781250000000, 113.929687500000, 37.500000000000, 1490847470
0.462402343750, 0.994873046875, -0.971923828125, -5.781250000000, 113.929687500000, 37.500000000000, 1490847470
0.462402343750, 0.994873046875, -0.971923828125, -5.781250000000, 113.929687500000, 37.500000000000, 1490847470
0.115966796875, 0.886230468750, -0.297363281250, -40.429687500000, 8.867187500000, -7.296875000000, 1490847470
0.115966796875, 0.886230468750, -0.297363281250, -40.429687500000, 8.867187500000, -7.296875000000, 1490847470
0.115966796875, 0.886230468750, -0.297363281250, -40.429687500000, 8.867187500000, -7.296875000000, 1490847470
0.115966796875, 0.886230468750, -0.297363281250, -40.429687500000, 8.867187500000, -7.296875000000, 1490847470
0.197509765625, 0.666748046875, -0.223388671875, 19.914062500000, 8.398437500000, 4.789062500000, 1490847470
0.197509765625, 0.666748046875, -0.223388671875, 19.914062500000, 8.398437500000, 4.789062500000, 1490847470
0.197509765625, 0.666748046875, -0.223388671875, 19.914062500000, 8.398437500000, 4.789062500000, 1490847471
0.132080078125, 0.693115234375, -0.377929687500, 3.273437500000, -18.726562500000, 4.257812500000, 1490847471
0.132080078125, 0.693115234375, -0.377929687500, 3.273437500000, -18.726562500000, 4.257812500000, 1490847471
0.132080078125, 0.693115234375, -0.377929687500, 3.273437500000, -18.726562500000, 4.257812500000, 1490847471
0.210449218750, 0.551513671875, -0.262451171875, -44.414062500000, -4.015625000000, -24.367187500000, 1490847471
0.210449218750, 0.551513671875, -0.262451171875, -44.414062500000, -4.015625000000, -24.367187500000, 1490847471
0.210449218750, 0.551513671875, -0.262451171875, -44.414062500000, -4.015625000000, -24.367187500000, 1490847471
0.334472656250, 0.789062500000, -0.259521484375, -60.359375000000, -51.390625000000, -43.820312500000, 1490847471
0.334472656250, 0.789062500000, -0.259521484375, -60.359375000000, -51.390625000000, -43.820312500000, 1490847471
0.334472656250, 0.789062500000, -0.259521484375, -60.359375000000, -51.390625000000, -43.820312500000, 1490847471
0.334472656250, 0.789062500000, -0.259521484375, -60.359375000000, -51.390625000000, -43.820312500000, 1490847471
0.122070312500, 1.173583984375, -0.385742187500, 5.382812500000, -88.171875000000, -43.898437500000, 1490847471
0.122070312500, 1.173583984375, -0.385742187500, 5.382812500000, -88.171875000000, -43.898437500000, 1490847471
0.122070312500, 1.173583984375, -0.385742187500, 5.382812500000, -88.171875000000, -43.898437500000, 1490847471
0.082763671875, 1.495117187500, -0.845703125000, 87.507812500000, 14.296875000000, 5.320312500000, 1490847471
0.082763671875, 1.495117187500, -0.845703125000, 87.507812500000, 14.296875000000, 5.320312500000, 1490847471
0.082763671875, 1.495117187500, -0.845703125000, 87.507812500000, 14.296875000000, 5.320312500000, 1490847471
0.228271484375, 1.096679687500, -0.855224609375, 57.351562500000, 26.664062500000, 5.281250000000, 1490847471
0.228271484375, 1.096679687500, -0.855224609375, 57.351562500000, 26.664062500000, 5.281250000000, 1490847471
0.031494140625, 0.851074218750, -0.352294921875, 1.257812500000, -60.171875000000, -24.726562500000, 1490847471
0.031494140625, 0.851074218750, -0.352294921875, 1.257812500000, -60.171875000000, -24.726562500000, 1490847471
0.031494140625, 0.851074218750, -0.352294921875, 1.257812500000, -60.171875000000, -24.726562500000, 1490847471
0.136962890625, 0.549316406250, -0.270263671875, 6.875000000000, 13.585937500000, 6.500000000000, 1490847471
0.136962890625, 0.549316406250, -0.270263671875, 6.875000000000, 13.585937500000, 6.500000000000, 1490847471
0.136962890625, 0.549316406250, -0.270263671875, 6.875000000000, 13.585937500000, 6.500000000000, 1490847471
0.136962890625, 0.549316406250, -0.270263671875, 6.875000000000, 13.585937500000, 6.500000000000, 1490847471
0.078857421875, 0.467041015625, -0.174804687500, -2.820312500000, 1.343750000000, 6.937500000000, 1490847471
0.078857421875, 0.467041015625, -0.174804687500, -2.820312500000, 1.343750000000, 6.937500000000, 1490847471
0.078857421875, 0.467041015625, -0.174804687500, -2.820312500000, 1.343750000000, 6.937500000000, 1490847471
0.078857421875, 0.467041015625, -0.174804687500, -2.820312500000, 1.343750000000, 6.937500000000, 1490847471
-0.073974609375, 0.457031250000, -0.263183593750, -29.375000000000, 54.437500000000, 30.984375000000, 1490847471
-0.073974609375, 0.457031250000, -0.263183593750, -29.375000000000, 54.437500000000, 30.984375000000, 1490847471
0.089355468750, 1.246093750000, -0.327880859375, -60.296875000000, -44.320312500000, -14.445312500000, 1490847471
0.089355468750, 1.246093750000, -0.327880859375, -60.296875000000, -44.320312500000, -14.445312500000, 1490847471
0.089355468750, 1.246093750000, -0.327880859375, -60.296875000000, -44.320312500000, -14.445312500000, 1490847471
0.089355468750, 1.246093750000, -0.327880859375, -60.296875000000, -44.320312500000, -14.445312500000, 1490847471
0.089355468750, 1.246093750000, -0.327880859375, -60.296875000000, -44.320312500000, -14.445312500000, 1490847471
0.192138671875, 1.509033203125, -0.349365234375, 35.585937500000, 55.515625000000, 24.851562500000, 1490847471
0.192138671875, 1.509033203125, -0.349365234375, 35.585937500000, 55.515625000000, 24.851562500000, 1490847471
0.192138671875, 1.509033203125, -0.349365234375, 35.585937500000, 55.515625000000, 24.851562500000, 1490847471
0.182373046875, 1.279296875000, -0.806884765625, 73.203125000000, 191.437500000000, 63.890625000000, 1490847471
0.182373046875, 1.279296875000, -0.806884765625, 73.203125000000, 191.437500000000, 63.890625000000, 1490847471
0.182373046875, 1.279296875000, -0.806884765625, 73.203125000000, 191.437500000000, 63.890625000000, 1490847471
0.583007812500, 0.998779296875, -0.845214843750, -5.359375000000, 101.273437500000, 34.640625000000, 1490847471
0.583007812500, 0.998779296875, -0.845214843750, -5.359375000000, 101.273437500000, 34.640625000000, 1490847471
0.169921875000, 0.739013671875, -0.285888671875, -12.132812500000, 7.648437500000, -23.351562500000, 1490847471
0.169921875000, 0.739013671875, -0.285888671875, -12.132812500000, 7.648437500000, -23.351562500000, 1490847471
0.169921875000, 0.739013671875, -0.285888671875, -12.132812500000, 7.648437500000, -23.351562500000, 1490847471
0.169921875000, 0.739013671875, -0.285888671875, -12.132812500000, 7.648437500000, -23.351562500000, 1490847471
0.169921875000, 0.739013671875, -0.285888671875, -12.132812500000, 7.648437500000, -23.351562500000, 1490847471
0.190673828125, 0.629638671875, -0.180908203125, 17.945312500000, -22.078125000000, -12.812500000000, 1490847471
0.190673828125, 0.629638671875, -0.180908203125, 17.945312500000, -22.078125000000, -12.812500000000, 1490847471
0.190673828125, 0.629638671875, -0.180908203125, 17.945312500000, -22.078125000000, -12.812500000000, 1490847471
0.151123046875, 0.524658203125, -0.252929687500, -5.375000000000, -40.273437500000, -32.140625000000, 1490847471
0.151123046875, 0.524658203125, -0.252929687500, -5.375000000000, -40.273437500000, -32.140625000000, 1490847471
0.151123046875, 0.524658203125, -0.252929687500, -5.375000000000, -40.273437500000, -32.140625000000, 1490847471
0.052734375000, 0.666259765625, -0.320068359375, -48.031250000000, -54.070312500000, -39.656250000000, 1490847471
0.052734375000, 0.666259765625, -0.320068359375, -48.031250000000, -54.070312500000, -39.656250000000, 1490847471
0.052734375000, 0.666259765625, -0.320068359375, -48.031250000000, -54.070312500000, -39.656250000000, 1490847471
0.313232421875, 1.067871093750, -0.249023437500, -2.500000000000, 2.632812500000, -16.726562500000, 1490847471
0.313232421875, 1.067871093750, -0.249023437500, -2.500000000000, 2.632812500000, -16.726562500000, 1490847471
0.313232421875, 1.067871093750, -0.249023437500, -2.500000000000, 2.632812500000, -16.726562500000, 1490847471
0.313232421875, 1.067871093750, -0.249023437500, -2.500000000000, 2.632812500000, -16.726562500000, 1490847471
0.362548828125, 1.636962890625, -0.612304687500, 53.343750000000, -58.750000000000, -23.867187500000, 1490847471
0.362548828125, 1.636962890625, -0.612304687500, 53.343750000000, -58.750000000000, -23.867187500000, 1490847471
0.362548828125, 1.636962890625, -0.612304687500, 53.343750000000, -58.750000000000, -23.867187500000, 1490847471
-0.056152343750, 1.222167968750, -0.959228515625, 89.445312500000, 6.539062500000, 3.343750000000, 1490847472
-0.056152343750, 1.222167968750, -0.959228515625, 89.445312500000, 6.539062500000, 3.343750000000, 1490847472
-0.056152343750, 1.222167968750, -0.959228515625, 89.445312500000, 6.539062500000, 3.343750000000, 1490847472
0.321533203125, 0.972412109375, -0.687500000000, -10.023437500000, -20.617187500000, 10.257812500000, 1490847472
0.321533203125, 0.972412109375, -0.687500000000, -10.023437500000, -20.617187500000, 10.257812500000, 1490847472
0.049804687500, 0.696533203125, -0.230224609375, 20.273437500000, 33.101562500000, 14.445312500000, 1490847472
0.049804687500, 0.696533203125, -0.230224609375, 20.273437500000, 33.101562500000, 14.445312500000, 1490847472
0.049804687500, 0.696533203125, -0.230224609375, 20.273437500000, 33.101562500000, 14.445312500000, 1490847472
0.049804687500, 0.696533203125, -0.230224609375, 20.273437500000, 33.101562500000, 14.445312500000, 1490847472
0.049804687500, 0.696533203125, -0.230224609375, 20.273437500000, 33.101562500000, 14.445312500000, 1490847472
0.150634765625, 0.440185546875, -0.320068359375, 12.437500000000, -25.882812500000, -14.578125000000, 1490847472
0.150634765625, 0.440185546875, -0.320068359375, 12.437500000000, -25.882812500000, -14.578125000000, 1490847472
0.150634765625, 0.440185546875, -0.320068359375, 12.437500000000, -25.882812500000, -14.578125000000, 1490847472
-0.039062500000, 0.327392578125, -0.209228515625, -37.257812500000, 29.156250000000, 5.882812500000, 1490847472
-0.039062500000, 0.327392578125, -0.209228515625, -37.257812500000, 29.156250000000, 5.882812500000, 1490847472
-0.039062500000, 0.327392578125, -0.209228515625, -37.257812500000, 29.156250000000, 5.882812500000, 1490847472
-0.096435546875, 0.884277343750, -0.297119140625, -84.437500000000, 55.843750000000, 52.390625000000, 1490847472
-0.096435546875, 0.884277343750, -0.297119140625, -84.437500000000, 55.843750000000, 52.390625000000, 1490847472
-0.096435546875, 0.884277343750, -0.297119140625, -84.437500000000, 55.843750000000, 52.390625000000, 1490847472
0.156494140625, 1.463378906250, -0.231933593750, -30.703125000000, 5.039062500000, -48.257812500000, 1490847472
0.156494140625, 1.463378906250, -0.231933593750, -30.703125000000, 5.039062500000, -48.257812500000, 1490847472
0.156494140625, 1.463378906250, -0.231933593750, -30.703125000000, 5.039062500000, -48.257812500000, 1490847472
0.156494140625, 1.463378906250, -0.231933593750, -30.703125000000, 5.039062500000, -48.257812500000, 1490847472
0.458251953125, 1.434082031250, -0.387207031250, 93.289062500000, 45.476562500000, 20.289062500000, 1490847472
0.458251953125, 1.434082031250, -0.387207031250, 93.289062500000, 45.476562500000, 20.289062500000, 1490847472
0.458251953125, 1.434082031250, -0.387207031250, 93.289062500000, 45.476562500000, 20.289062500000, 1490847472
0.072509765625, 1.131347656250, -1.568359375000, 93.375000000000, 253.992187500000, 86.882812500000, 1490847472
0.072509765625, 1.131347656250, -1.568359375000, 93.375000000000, 253.992187500000, 86.882812500000, 1490847472
0.072509765625, 1.131347656250, -1.568359375000, 93.375000000000, 253.992187500000, 86.882812500000, 1490847472
0.440185546875, 0.621582031250, -0.305664062500, -127.656250000000, -43.664062500000, -64.312500000000, 1490847472
0.440185546875, 0.621582031250, -0.305664062500, -127.656250000000, -43.664062500000, -64.312500000000, 1490847472
0.440185546875, 0.621582031250, -0.305664062500, -127.656250000000, -43.664062500000, -64.312500000000, 1490847472
0.112060546875, 0.770263671875, -0.106689453125, 20.156250000000, -17.968750000000, -12.726562500000, 1490847472
0.112060546875, 0.770263671875, -0.106689453125, 20.156250000000, -17.968750000000, -12.726562500000, 1490847472
0.112060546875, 0.770263671875, -0.106689453125, 20.156250000000, -17.968750000000, -12.726562500000, 1490847472
0.112060546875, 0.770263671875, -0.106689453125, 20.156250000000, -17.968750000000, -12.726562500000, 1490847472
-0.011962890625, 0.477050781250, -0.115478515625, 31.234375000000, 24.562500000000, -3.546875000000, 1490847472
-0.011962890625, 0.477050781250, -0.115478515625, 31.234375000000, 24.562500000000, -3.546875000000, 1490847472
-0.011962890625, 0.477050781250, -0.115478515625, 31.234375000000, 24.562500000000, -3.546875000000, 1490847472
-0.188476562500, 0.569335937500, -0.231933593750, 64.031250000000, -14.882812500000, -3.273437500000, 1490847472
-0.188476562500, 0.569335937500, -0.231933593750, 64.031250000000, -14.882812500000, -3.273437500000, 1490847472
-0.188476562500, 0.569335937500, -0.231933593750, 64.031250000000, -14.882812500000, -3.273437500000, 1490847472
0.246826171875, 1.037109375000, -0.770263671875, -94.859375000000, 112.570312500000, 12.539062500000, 1490847472
0.246826171875, 1.037109375000, -0.770263671875, -94.859375000000, 112.570312500000, 12.539062500000, 1490847472
0.246826171875, 1.037109375000, -0.770263671875, -94.859375000000, 112.570312500000, 12.539062500000, 1490847472
0.462402343750, 1.183349609375, -0.408447265625, -24.468750000000, -129.367187500000, -71.359375000000, 1490847472
0.462402343750, 1.183349609375, -0.408447265625, -24.468750000000, -129.367187500000, -71.359375000000, 1490847472
0.462402343750, 1.183349609375, -0.408447265625, -24.468750000000, -129.367187500000, -71.359375000000, 1490847472
0.462402343750, 1.183349609375, -0.408447265625, -24.468750000000, -129.367187500000, -71.359375000000, 1490847472
0.229492187500, 1.375244140625, -0.159423828125, 61.601562500000, -152.062500000000, -43.617187500000, 1490847472
0.229492187500, 1.375244140625, -0.159423828125, 61.601562500000, -152.062500000000, -43.617187500000, 1490847472
0.229492187500, 1.375244140625, -0.159423828125, 61.601562500000, -152.062500000000, -43.617187500000, 1490847472
-0.118408203125, 1.146972656250, -0.538574218750, 131.906250000000, -23.671875000000, 26.078125000000, 1490847472
-0.118408203125, 1.146972656250, -0.538574218750, 131.906250000000, -23.671875000000, 26.078125000000, 1490847472
-0.118408203125, 1.146972656250, -0.538574218750, 131.906250000000, -23.671875000000, 26.078125000000, 1490847472
0.636474609375, 0.877685546875, -0.857177734375, -2.804687500000, -14.703125000000, 17.859375000000, 1490847472
0.636474609375, 0.877685546875, -0.857177734375, -2.804687500000, -14.703125000000, 17.859375000000, 1490847472
0.636474609375, 0.877685546875, -0.857177734375, -2.804687500000, -14.703125000000, 17.859375000000, 1490847472
0.245849609375, 0.882080078125, -0.599121093750, -46.328125000000, -61.242187500000, -21.195312500000, 1490847472
0.136230468750, 0.433105468750, -0.144042968750, -33.945312500000, 26.078125000000, -4.984375000000, 1490847472
0.136230468750, 0.433105468750, -0.144042968750, -33.945312500000, 26.078125000000, -4.984375000000, 1490847472
0.136230468750, 0.433105468750, -0.144042968750, -33.945312500000, 26.078125000000, -4.984375000000, 1490847472
0.136230468750, 0.433105468750, -0.144042968750, -33.945312500000, 26.078125000000, -4.984375000000, 1490847472
0.136230468750, 0.433105468750, -0.144042968750, -33.945312500000, 26.078125000000, -4.984375000000, 1490847472
0.136230468750, 0.433105468750, -0.144042968750, -33.945312500000, 26.078125000000, -4.984375000000, 1490847472
0.104003906250, 0.409912109375, -0.218505859375, -21.250000000000, 13.554687500000, 23.039062500000, 1490847472
0.104003906250, 0.409912109375, -0.218505859375, -21.250000000000, 13.554687500000, 23.039062500000, 1490847473
-0.231445312500, 1.188720703125, -0.392822265625, -100.054687500000, 38.601562500000, 28.812500000000, 1490847473
-0.231445312500, 1.188720703125, -0.392822265625, -100.054687500000, 38.601562500000, 28.812500000000, 1490847473
-0.231445312500, 1.188720703125, -0.392822265625, -100.054687500000, 38.601562500000, 28.812500000000, 1490847473
-0.231445312500, 1.188720703125, -0.392822265625, -100.054687500000, 38.601562500000, 28.812500000000, 1490847473
0.278076171875, 1.335205078125, -0.311767578125, 12.507812500000, 10.781250000000, 11.601562500000, 1490847473
0.278076171875, 1.335205078125, -0.311767578125, 12.507812500000, 10.781250000000, 11.601562500000, 1490847473
0.278076171875, 1.335205078125, -0.311767578125, 12.507812500000, 10.781250000000, 11.601562500000, 1490847473
0.278076171875, 1.335205078125, -0.311767578125, 12.507812500000, 10.781250000000, 11.601562500000, 1490847473
0.194580078125, 1.215820312500, -0.575195312500, 201.007812500000, 5.351562500000, 15.046875000000, 1490847473
0.194580078125, 1.215820312500, -0.575195312500, 201.007812500000, 5.351562500000, 15.046875000000, 1490847473
0.194580078125, 1.215820312500, -0.575195312500, 201.007812500000, 5.351562500000, 15.046875000000, 1490847473
0.600341796875, 0.772949218750, -0.893798828125, -121.687500000000, 48.921875000000, 5.273437500000, 1490847473
0.600341796875, 0.772949218750, -0.893798828125, -121.687500000000, 48.921875000000, 5.273437500000, 1490847473
0.600341796875, 0.772949218750, -0.893798828125, -121.687500000000, 48.921875000000, 5.273437500000, 1490847473
0.396972656250, 0.894775390625, -0.496337890625, -140.539062500000, -3.320312500000, -36.007812500000, 1490847473
0.132568359375, 0.626464843750, -0.115722656250, 2.648437500000, 59.156250000000, -0.164062500000, 1490847473
0.132568359375, 0.626464843750, -0.115722656250, 2.648437500000, 59.156250000000, -0.164062500000, 1490847473
0.132568359375, 0.626464843750, -0.115722656250, 2.648437500000, 59.156250000000, -0.164062500000, 1490847473
0.132568359375, 0.626464843750, -0.115722656250, 2.648437500000, 59.156250000000, -0.164062500000, 1490847473
0.132568359375, 0.626464843750, -0.115722656250, 2.648437500000, 59.156250000000, -0.164062500000, 1490847473
0.187744140625, 0.524169921875, -0.178955078125, 2.843750000000, -52.312500000000, -38.601562500000, 1490847473
0.187744140625, 0.524169921875, -0.178955078125, 2.843750000000, -52.312500000000, -38.601562500000, 1490847473
0.187744140625, 0.524169921875, -0.178955078125, 2.843750000000, -52.312500000000, -38.601562500000, 1490847473
0.187744140625, 0.524169921875, -0.178955078125, 2.843750000000, -52.312500000000, -38.601562500000, 1490847473
0.102050781250, 0.662597656250, -0.233642578125, 32.906250000000, -104.789062500000, -58.726562500000, 1490847473
0.102050781250, 0.662597656250, -0.233642578125, 32.906250000000, -104.789062500000, -58.726562500000, 1490847473
0.102050781250, 0.662597656250, -0.233642578125, 32.906250000000, -104.789062500000, -58.726562500000, 1490847473
0.059570312500, 0.966064453125, -0.320800781250, -40.531250000000, -26.914062500000, -2.890625000000, 1490847473
0.059570312500, 0.966064453125, -0.320800781250, -40.531250000000, -26.914062500000, -2.890625000000, 1490847473
0.482421875000, 1.409179687500, -0.553222656250, 27.210937500000, -54.062500000000, -34.054687500000, 1490847473
0.482421875000, 1.409179687500, -0.553222656250, 27.210937500000, -54.062500000000, -34.054687500000, 1490847473
0.482421875000, 1.409179687500, -0.553222656250, 27.210937500000, -54.062500000000, -34.054687500000, 1490847473
0.482421875000, 1.409179687500, -0.553222656250, 27.210937500000, -54.062500000000, -34.054687500000, 1490847473
0.482421875000, 1.409179687500, -0.553222656250, 27.210937500000, -54.062500000000, -34.054687500000, 1490847473
0.068603515625, 1.172363281250, -0.753906250000, 101.843750000000, -63.812500000000, -15.906250000000, 1490847473
0.068603515625, 1.172363281250, -0.753906250000, 101.843750000000, -63.812500000000, -15.906250000000, 1490847473
0.068603515625, 1.172363281250, -0.753906250000, 101.843750000000, -63.812500000000, -15.906250000000, 1490847473
0.396240234375, 0.872558593750, -0.702148437500, 2.570312500000, -37.578125000000, -4.265625000000, 1490847473
0.396240234375, 0.872558593750, -0.702148437500, 2.570312500000, -37.578125000000, -4.265625000000, 1490847473
0.396240234375, 0.872558593750, -0.702148437500, 2.570312500000, -37.578125000000, -4.265625000000, 1490847473
-0.024169921875, 0.832519531250, -0.342285156250, -5.429687500000, -104.453125000000, -27.132812500000, 1490847473
-0.024169921875, 0.832519531250, -0.342285156250, -5.429687500000, -104.453125000000, -27.132812500000, 1490847473
-0.024169921875, 0.832519531250, -0.342285156250, -5.429687500000, -104.453125000000, -27.132812500000, 1490847473
0.042724609375, 0.650878906250, -0.274902343750, 18.460937500000, 9.320312500000, 6.523437500000, 1490847473
0.042724609375, 0.650878906250, -0.274902343750, 18.460937500000, 9.320312500000, 6.523437500000, 1490847473
0.042724609375, 0.650878906250, -0.274902343750, 18.460937500000, 9.320312500000, 6.523437500000, 1490847473
0.042724609375, 0.650878906250, -0.274902343750, 18.460937500000, 9.320312500000, 6.523437500000, 1490847473
-0.002929687500, 0.478027343750, -0.222167968750, -17.515625000000, 34.781250000000, 12.851562500000, 1490847473
-0.002929687500, 0.478027343750, -0.222167968750, -17.515625000000, 34.781250000000, 12.851562500000, 1490847473
-0.002929687500, 0.478027343750, -0.222167968750, -17.515625000000, 34.781250000000, 12.851562500000, 1490847473
0.140380859375, 0.630126953125, -0.289550781250, -79.367187500000, 42.554687500000, 15.531250000000, 1490847473
0.140380859375, 0.630126953125, -0.289550781250, -79.367187500000, 42.554687500000, 15.531250000000, 1490847473
0.140380859375, 0.630126953125, -0.289550781250, -79.367187500000, 42.554687500000, 15.531250000000, 1490847473
-0.009765625000, 1.141113281250, -0.186767578125, -63.250000000000, -23.257812500000, -4.445312500000, 1490847473
-0.009765625000, 1.141113281250, -0.186767578125, -63.250000000000, -23.257812500000, -4.445312500000, 1490847473
-0.009765625000, 1.141113281250, -0.186767578125, -63.250000000000, -23.257812500000, -4.445312500000, 1490847473
0.193359375000, 1.616210937500, -0.488037109375, 63.132812500000, 0.742187500000, 31.554687500000, 1490847473
0.193359375000, 1.616210937500, -0.488037109375, 63.132812500000, 0.742187500000, 31.554687500000, 1490847473
0.193359375000, 1.616210937500, -0.488037109375, 63.132812500000, 0.742187500000, 31.554687500000, 1490847473
0.193359375000, 1.616210937500, -0.488037109375, 63.132812500000, 0.742187500000, 31.554687500000, 1490847473
0.375244140625, 1.156738281250, -1.131835937500, 12.921875000000, 210.859375000000, 68.203125000000, 1490847473
0.375244140625, 1.156738281250, -1.131835937500, 12.921875000000, 210.859375000000, 68.203125000000, 1490847473
0.375244140625, 1.156738281250, -1.131835937500, 12.921875000000, 210.859375000000, 68.203125000000, 1490847473
0.651611328125, 1.205566406250, -0.958740234375, -48.375000000000, 121.929687500000, 35.343750000000, 1490847473
0.472167968750, 1.062988281250, -0.606933593750, -74.890625000000, 67.757812500000, 8.109375000000, 1490847473
0.120117187500, 0.623291015625, -0.232666015625, 46.421875000000, -17.468750000000, -1.171875000000, 1490847474
0.120117187500, 0.623291015625, -0.232666015625, 46.421875000000, -17.468750000000, -1.171875000000, 1490847474
0.120117187500, 0.623291015625, -0.232666015625, 46.421875000000, -17.468750000000, -1.171875000000, 1490847474
0.036376953125, 0.514892578125, -0.318603515625, 43.484375000000, -25.132812500000, 3.671875000000, 1490847474
0.110107421875, 0.413085937500, -0.405273437500, 25.039062500000, -32.585937500000, -2.367187500000, 1490847474
0.110107421875, 0.413085937500, -0.405273437500, 25.039062500000, -32.585937500000, -2.367187500000, 1490847474
0.110107421875, 0.413085937500, -0.405273437500, 25.039062500000, -32.585937500000, -2.367187500000, 1490847474
0.110107421875, 0.413085937500, -0.405273437500, 25.039062500000, -32.585937500000, -2.367187500000, 1490847474
0.110107421875, 0.413085937500, -0.405273437500, 25.039062500000, -32.585937500000, -2.367187500000, 1490847474
0.110107421875, 0.413085937500, -0.405273437500, 25.039062500000, -32.585937500000, -2.367187500000, 1490847474
0.262939453125, 0.537353515625, -0.340576171875, -60.296875000000, -36.398437500000, -37.554687500000, 1490847474
0.262939453125, 0.537353515625, -0.340576171875, -60.296875000000, -36.398437500000, -37.554687500000, 1490847474
0.262939453125, 0.537353515625, -0.340576171875, -60.296875000000, -36.398437500000, -37.554687500000, 1490847474
0.262939453125, 0.537353515625, -0.340576171875, -60.296875000000, -36.398437500000, -37.554687500000, 1490847474
0.250000000000, 1.160644531250, -0.327636718750, -119.296875000000, 40.828125000000, -15.367187500000, 1490847474
0.250000000000, 1.160644531250, -0.327636718750, -119.296875000000, 40.828125000000, -15.367187500000, 1490847474
0.250000000000, 1.160644531250, -0.327636718750, -119.296875000000, 40.828125000000, -15.367187500000, 1490847474
0.301025390625, 1.642578125000, -0.395996093750, 24.101562500000, -98.109375000000, -38.257812500000, 1490847474
0.301025390625, 1.642578125000, -0.395996093750, 24.101562500000, -98.109375000000, -38.257812500000, 1490847474
0.301025390625, 1.642578125000, -0.395996093750, 24.101562500000, -98.109375000000, -38.257812500000, 1490847474
0.093505859375, 1.274169921875, -0.459228515625, 133.734375000000, -115.640625000000, -11.242187500000, 1490847474
0.093505859375, 1.274169921875, -0.459228515625, 133.734375000000, -115.640625000000, -11.242187500000, 1490847474
0.422363281250, 0.868652343750, -1.126220703125, 59.929687500000, 35.625000000000, 16.632812500000, 1490847474
0.422363281250, 0.868652343750, -1.126220703125, 59.929687500000, 35.625000000000, 16.632812500000, 1490847474
0.422363281250, 0.868652343750, -1.126220703125, 59.929687500000, 35.625000000000, 16.632812500000, 1490847474
0.422363281250, 0.868652343750, -1.126220703125, 59.929687500000, 35.625000000000, 16.632812500000, 1490847474
0.205566406250, 0.788330078125, -0.496582031250, -45.804687500000, -151.414062500000, -58.609375000000, 1490847474
0.039550781250, 0.791503906250, -0.437744140625, -45.804687500000, -151.414062500000, -58.609375000000, 1490847474
0.039550781250, 0.791503906250, -0.437744140625, -45.804687500000, -151.414062500000, -58.609375000000, 1490847474
0.039550781250, 0.791503906250, -0.437744140625, -45.804687500000, -151.414062500000, -58.609375000000, 1490847474
0.037109375000, 0.482910156250, -0.201416015625, -10.304687500000, 41.976562500000, 20.210937500000, 1490847474
0.037109375000, 0.482910156250, -0.201416015625, -10.304687500000, 41.976562500000, 20.210937500000, 1490847474
0.037109375000, 0.482910156250, -0.201416015625, -10.304687500000, 41.976562500000, 20.210937500000, 1490847474
0.037109375000, 0.482910156250, -0.201416015625, -10.304687500000, 41.976562500000, 20.210937500000, 1490847474
0.053222656250, 0.564208984375, -0.168212890625, -38.640625000000, 52.617187500000, 29.515625000000, 1490847474
0.053222656250, 0.564208984375, -0.168212890625, -38.640625000000, 52.617187500000, 29.515625000000, 1490847474
0.053222656250, 0.564208984375, -0.168212890625, -38.640625000000, 52.617187500000, 29.515625000000, 1490847474
0.155273437500, 0.867919921875, -0.333496093750, -66.234375000000, 24.101562500000, 20.054687500000, 1490847474
0.155273437500, 0.867919921875, -0.333496093750, -66.234375000000, 24.101562500000, 20.054687500000, 1490847474
0.155273437500, 0.867919921875, -0.333496093750, -66.234375000000, 24.101562500000, 20.054687500000, 1490847474
0.084472656250, 1.089355468750, -0.277099609375, -38.312500000000, -23.085937500000, -3.812500000000, 1490847474
0.084472656250, 1.089355468750, -0.277099609375, -38.312500000000, -23.085937500000, -3.812500000000, 1490847474
0.084472656250, 1.089355468750, -0.277099609375, -38.312500000000, -23.085937500000, -3.812500000000, 1490847474
0.198730468750, 1.351318359375, -0.516845703125, 68.093750000000, 5.101562500000, 18.164062500000, 1490847474
0.198730468750, 1.351318359375, -0.516845703125, 68.093750000000, 5.101562500000, 18.164062500000, 1490847474
0.198730468750, 1.351318359375, -0.516845703125, 68.093750000000, 5.101562500000, 18.164062500000, 1490847474
0.198730468750, 1.351318359375, -0.516845703125, 68.093750000000, 5.101562500000, 18.164062500000, 1490847474
0.187744140625, 1.281982421875, -0.641601562500, 79.304687500000, -9.414062500000, 16.375000000000, 1490847474
0.388427734375, 0.911621093750, -0.406250000000, -60.718750000000, 23.742187500000, -18.593750000000, 1490847474
0.388427734375, 0.911621093750, -0.406250000000, -60.718750000000, 23.742187500000, -18.593750000000, 1490847474
0.388427734375, 0.911621093750, -0.406250000000, -60.718750000000, 23.742187500000, -18.593750000000, 1490847474
0.388427734375, 0.911621093750, -0.406250000000, -60.718750000000, 23.742187500000, -18.593750000000, 1490847474
0.388427734375, 0.911621093750, -0.406250000000, -60.718750000000, 23.742187500000, -18.593750000000, 1490847474
0.234619140625, 0.660156250000, -0.313964843750, -2.515625000000, 9.914062500000, -15.390625000000, 1490847474
0.234619140625, 0.660156250000, -0.313964843750, -2.515625000000, 9.914062500000, -15.390625000000, 1490847474
0.234619140625, 0.660156250000, -0.313964843750, -2.515625000000, 9.914062500000, -15.390625000000, 1490847474
0.164550781250, 0.659912109375, -0.251708984375, 8.578125000000, 8.757812500000, -12.687500000000, 1490847474
0.149658203125, 0.425537109375, -0.187255859375, 14.945312500000, -19.867187500000, -19.109375000000, 1490847474
0.071044921875, 0.507324218750, -0.184814453125, 14.945312500000, -19.867187500000, -19.109375000000, 1490847474
0.071044921875, 0.507324218750, -0.184814453125, 14.945312500000, -19.867187500000, -19.109375000000, 1490847474
0.071044921875, 0.507324218750, -0.184814453125, 14.945312500000, -19.867187500000, -19.109375000000, 1490847474
0.071044921875, 0.507324218750, -0.184814453125, 14.945312500000, -19.867187500000, -19.109375000000, 1490847474
0.071044921875, 0.507324218750, -0.184814453125, 14.945312500000, -19.867187500000, -19.109375000000, 1490847474
0.052734375000, 0.758300781250, -0.386474609375, -39.898437500000, -37.421875000000, -18.882812500000, 1490847474
0.052734375000, 0.758300781250, -0.386474609375, -39.898437500000, -37.421875000000, -18.882812500000, 1490847474
0.052734375000, 0.758300781250, -0.386474609375, -39.898437500000, -37.421875000000, -18.882812500000, 1490847474
0.288085937500, 1.276611328125, -0.305175781250, -62.914062500000, -9.148437500000, -17.460937500000, 1490847474
0.288085937500, 1.276611328125, -0.305175781250, -62.914062500000, -9.148437500000, -17.460937500000, 1490847474
0.288085937500, 1.276611328125, -0.305175781250, -62.914062500000, -9.148437500000, -17.460937500000, 1490847474
0.511230468750, 1.528808593750, -0.398681640625, 12.703125000000, -89.054687500000, -45.773437500000, 1490847475
0.511230468750, 1.528808593750, -0.398681640625, 12.703125000000, -89.054687500000, -45.773437500000, 1490847475
0.511230468750, 1.528808593750, -0.398681640625, 12.703125000000, -89.054687500000, -45.773437500000, 1490847475
0.511230468750, 1.528808593750, -0.398681640625, 12.703125000000, -89.054687500000, -45.773437500000, 1490847475
-0.043701171875, 1.234619140625, -0.552978515625, 109.609375000000, -35.078125000000, 8.039062500000, 1490847475
-0.043701171875, 1.234619140625, -0.552978515625, 109.609375000000, -35.078125000000, 8.039062500000, 1490847475
-0.043701171875, 1.234619140625, -0.552978515625, 109.609375000000, -35.078125000000, 8.039062500000, 1490847475
0.386718750000, 0.858398437500, -0.593750000000, 33.875000000000, -22.093750000000, 17.585937500000, 1490847475
0.386718750000, 0.858398437500, -0.593750000000, 33.875000000000, -22.093750000000, 17.585937500000, 1490847475
0.386718750000, 0.858398437500, -0.593750000000, 33.875000000000, -22.093750000000, 17.585937500000, 1490847475
0.030273437500, 0.751708984375, -0.373046875000, -1.601562500000, -58.671875000000, -32.257812500000, 1490847475
0.030273437500, 0.751708984375, -0.373046875000, -1.601562500000, -58.671875000000, -32.257812500000, 1490847475
0.030273437500, 0.751708984375, -0.373046875000, -1.601562500000, -58.671875000000, -32.257812500000, 1490847475
-0.007080078125, 0.463134765625, -0.238281250000, -14.375000000000, -16.648437500000, -14.210937500000, 1490847475
-0.007080078125, 0.463134765625, -0.238281250000, -14.375000000000, -16.648437500000, -14.210937500000, 1490847475
-0.007080078125, 0.463134765625, -0.238281250000, -14.375000000000, -16.648437500000, -14.210937500000, 1490847475
-0.007080078125, 0.463134765625, -0.238281250000, -14.375000000000, -16.648437500000, -14.210937500000, 1490847475
0.004150390625, 0.487304687500, -0.121093750000, -36.625000000000, 10.890625000000, 5.078125000000, 1490847475
0.004150390625, 0.487304687500, -0.121093750000, -36.625000000000, 10.890625000000, 5.078125000000, 1490847475
0.004150390625, 0.487304687500, -0.121093750000, -36.625000000000, 10.890625000000, 5.078125000000, 1490847475
-0.014648437500, 0.678222656250, -0.281738281250, -68.945312500000, 30.929687500000, 24.609375000000, 1490847475
-0.014648437500, 0.678222656250, -0.281738281250, -68.945312500000, 30.929687500000, 24.609375000000, 1490847475
-0.014648437500, 0.678222656250, -0.281738281250, -68.945312500000, 30.929687500000, 24.609375000000, 1490847475
0.097167968750, 1.236328125000, -0.276367187500, -32.820312500000, 23.875000000000, 1.015625000000, 1490847475
0.097167968750, 1.236328125000, -0.276367187500, -32.820312500000, 23.875000000000, 1.015625000000, 1490847475
0.097167968750, 1.236328125000, -0.276367187500, -32.820312500000, 23.875000000000, 1.015625000000, 1490847475
0.237304687500, 1.538818359375, -0.574218750000, 65.570312500000, -29.695312500000, -0.437500000000, 1490847475
0.237304687500, 1.538818359375, -0.574218750000, 65.570312500000, -29.695312500000, -0.437500000000, 1490847475
0.237304687500, 1.538818359375, -0.574218750000, 65.570312500000, -29.695312500000, -0.437500000000, 1490847475
0.237304687500, 1.538818359375, -0.574218750000, 65.570312500000, -29.695312500000, -0.437500000000, 1490847475
0.283447265625, 1.103027343750, -1.100097656250, -0.515625000000, 178.210937500000, 51.664062500000, 1490847475
0.283447265625, 1.103027343750, -1.100097656250, -0.515625000000, 178.210937500000, 51.664062500000, 1490847475
0.283447265625, 1.103027343750, -1.100097656250, -0.515625000000, 178.210937500000, 51.664062500000, 1490847475
0.032226562500, 0.848388671875, -0.389892578125, -68.921875000000, 15.859375000000, -10.726562500000, 1490847475
0.032226562500, 0.848388671875, -0.389892578125, -68.921875000000, 15.859375000000, -10.726562500000, 1490847475
0.032226562500, 0.848388671875, -0.389892578125, -68.921875000000, 15.859375000000, -10.726562500000, 1490847475
0.329345703125, 0.832519531250, -0.206298828125, -14.562500000000, 39.218750000000, -3.906250000000, 1490847475
0.329345703125, 0.832519531250, -0.206298828125, -14.562500000000, 39.218750000000, -3.906250000000, 1490847475
0.329345703125, 0.832519531250, -0.206298828125, -14.562500000000, 39.218750000000, -3.906250000000, 1490847475
0.208740234375, 0.632812500000, -0.192138671875, 28.625000000000, 21.203125000000, -2.492187500000, 1490847475
0.208740234375, 0.632812500000, -0.192138671875, 28.625000000000, 21.203125000000, -2.492187500000, 1490847475
0.208740234375, 0.632812500000, -0.192138671875, 28.625000000000, 21.203125000000, -2.492187500000, 1490847475
0.208740234375, 0.632812500000, -0.192138671875, 28.625000000000, 21.203125000000, -2.492187500000, 1490847475
0.102783203125, 0.450439453125, -0.277099609375, 4.406250000000, -63.578125000000, -34.125000000000, 1490847475
0.102783203125, 0.450439453125, -0.277099609375, 4.406250000000, -63.578125000000, -34.125000000000, 1490847475
0.102783203125, 0.450439453125, -0.277099609375, 4.406250000000, -63.578125000000, -34.125000000000, 1490847475
0.198730468750, 0.942138671875, -0.395996093750, -59.460937500000, -87.437500000000, -53.656250000000, 1490847475
0.198730468750, 0.942138671875, -0.395996093750, -59.460937500000, -87.437500000000, -53.656250000000, 1490847475
0.198730468750, 0.942138671875, -0.395996093750, -59.460937500000, -87.437500000000, -53.656250000000, 1490847475
0.113037109375, 1.120361328125, -0.273437500000, -16.140625000000, -3.515625000000, 0.703125000000, 1490847475
0.113037109375, 1.120361328125, -0.273437500000, -16.140625000000, -3.515625000000, 0.703125000000, 1490847475
0.113037109375, 1.120361328125, -0.273437500000, -16.140625000000, -3.515625000000, 0.703125000000, 1490847475
0.438232421875, 1.420654296875, -0.520751953125, 64.203125000000, -63.960937500000, -39.203125000000, 1490847475
0.438232421875, 1.420654296875, -0.520751953125, 64.203125000000, -63.960937500000, -39.203125000000, 1490847475
0.438232421875, 1.420654296875, -0.520751953125, 64.203125000000, -63.960937500000, -39.203125000000, 1490847475
0.438232421875, 1.420654296875, -0.520751953125, 64.203125000000, -63.960937500000, -39.203125000000, 1490847475
-0.085205078125, 1.191162109375, -0.829833984375, 71.804687500000, 16.234375000000, 11.875000000000, 1490847475
-0.085205078125, 1.191162109375, -0.829833984375, 71.804687500000, 16.234375000000, 11.875000000000, 1490847475
-0.085205078125, 1.191162109375, -0.829833984375, 71.804687500000, 16.234375000000, 11.875000000000, 1490847475
0.230468750000, 0.927001953125, -0.418945312500, -9.148437500000, -111.210937500000, -16.492187500000, 1490847475
0.230468750000, 0.927001953125, -0.418945312500, -9.148437500000, -111.210937500000, -16.492187500000, 1490847475
0.230468750000, 0.927001953125, -0.418945312500, -9.148437500000, -111.210937500000, -16.492187500000, 1490847475
-0.102294921875, 0.762207031250, -0.316894531250, 16.640625000000, -21.226562500000, -13.414062500000, 1490847475
-0.102294921875, 0.762207031250, -0.316894531250, 16.640625000000, -21.226562500000, -13.414062500000, 1490847475
-0.102294921875, 0.762207031250, -0.316894531250, 16.640625000000, -21.226562500000, -13.414062500000, 1490847475
0.203125000000, 0.510986328125, -0.330078125000, -3.515625000000, 1.937500000000, 0.023437500000, 1490847475
0.203125000000, 0.510986328125, -0.330078125000, -3.515625000000, 1.937500000000, 0.023437500000, 1490847476
0.203125000000, 0.510986328125, -0.330078125000, -3.515625000000, 1.937500000000, 0.023437500000, 1490847476
0.203125000000, 0.510986328125, -0.330078125000, -3.515625000000, 1.937500000000, 0.023437500000, 1490847476
0.151367187500, 0.575927734375, -0.236083984375, -38.906250000000, 44.710937500000, 12.585937500000, 1490847476
0.151367187500, 0.575927734375, -0.236083984375, -38.906250000000, 44.710937500000, 12.585937500000, 1490847476
0.151367187500, 0.575927734375, -0.236083984375, -38.906250000000, 44.710937500000, 12.585937500000, 1490847476
0.033691406250, 1.013916015625, -0.316650390625, -75.625000000000, 17.046875000000, 13.882812500000, 1490847476
0.033691406250, 1.013916015625, -0.316650390625, -75.625000000000, 17.046875000000, 13.882812500000, 1490847476
0.033691406250, 1.013916015625, -0.316650390625, -75.625000000000, 17.046875000000, 13.882812500000, 1490847476
0.210937500000, 1.253417968750, -0.323730468750, -17.976562500000, -3.000000000000, -8.406250000000, 1490847476
0.210937500000, 1.253417968750, -0.323730468750, -17.976562500000, -3.000000000000, -8.406250000000, 1490847476
0.210937500000, 1.253417968750, -0.323730468750, -17.976562500000, -3.000000000000, -8.406250000000, 1490847476
0.093261718750, 1.247558593750, -0.593017578125, 60.304687500000, 31.500000000000, 20.789062500000, 1490847476
0.093261718750, 1.247558593750, -0.593017578125, 60.304687500000, 31.500000000000, 20.789062500000, 1490847476
0.093261718750, 1.247558593750, -0.593017578125, 60.304687500000, 31.500000000000, 20.789062500000, 1490847476
0.093261718750, 1.247558593750, -0.593017578125, 60.304687500000, 31.500000000000, 20.789062500000, 1490847476
0.410156250000, 0.995361328125, -1.001953125000, -31.117187500000, 135.656250000000, 51.570312500000, 1490847476
0.410156250000, 0.995361328125, -1.001953125000, -31.117187500000, 135.656250000000, 51.570312500000, 1490847476
0.410156250000, 0.995361328125, -1.001953125000, -31.117187500000, 135.656250000000, 51.570312500000, 1490847476
0.339599609375, 0.680908203125, -0.416748046875, -58.046875000000, 15.515625000000, -13.148437500000, 1490847476
0.339599609375, 0.680908203125, -0.416748046875, -58.046875000000, 15.515625000000, -13.148437500000, 1490847476
0.339599609375, 0.680908203125, -0.416748046875, -58.046875000000, 15.515625000000, -13.148437500000, 1490847476
0.145751953125, 0.692138671875, -0.097167968750, -15.406250000000, 27.679687500000, -5.000000000000, 1490847476
0.145751953125, 0.692138671875, -0.097167968750, -15.406250000000, 27.679687500000, -5.000000000000, 1490847476
0.145751953125, 0.692138671875, -0.097167968750, -15.406250000000, 27.679687500000, -5.000000000000, 1490847476
0.098388671875, 0.537109375000, -0.208251953125, 3.906250000000, -23.812500000000, 0.390625000000, 1490847476
0.098388671875, 0.537109375000, -0.208251953125, 3.906250000000, -23.812500000000, 0.390625000000, 1490847476
0.098388671875, 0.537109375000, -0.208251953125, 3.906250000000, -23.812500000000, 0.390625000000, 1490847476
0.098388671875, 0.537109375000, -0.208251953125, 3.906250000000, -23.812500000000, 0.390625000000, 1490847476
0.156250000000, 0.527099609375, -0.171630859375, 5.257812500000, -39.054687500000, -24.070312500000, 1490847476
0.156250000000, 0.527099609375, -0.171630859375, 5.257812500000, -39.054687500000, -24.070312500000, 1490847476
0.156250000000, 0.527099609375, -0.171630859375, 5.257812500000, -39.054687500000, -24.070312500000, 1490847476
0.127441406250, 0.645507812500, -0.231201171875, 5.382812500000, -7.148437500000, -10.820312500000, 1490847476
0.335449218750, 1.188476562500, -0.476806640625, -6.304687500000, -38.484375000000, -42.890625000000, 1490847476
0.335449218750, 1.188476562500, -0.476806640625, -6.304687500000, -38.484375000000, -42.890625000000, 1490847476
0.335449218750, 1.188476562500, -0.476806640625, -6.304687500000, -38.484375000000, -42.890625000000, 1490847476
0.335449218750, 1.188476562500, -0.476806640625, -6.304687500000, -38.484375000000, -42.890625000000, 1490847476
0.335449218750, 1.188476562500, -0.476806640625, -6.304687500000, -38.484375000000, -42.890625000000, 1490847476
0.247558593750, 1.373535156250, -0.288818359375, 64.000000000000, -128.585937500000, -59.156250000000, 1490847476
0.247558593750, 1.373535156250, -0.288818359375, 64.000000000000, -128.585937500000, -59.156250000000, 1490847476
0.247558593750, 1.373535156250, -0.288818359375, 64.000000000000, -128.585937500000, -59.156250000000, 1490847476
0.078369140625, 1.382568359375, -0.400634765625, 95.843750000000, -24.359375000000, -6.875000000000, 1490847476
0.055664062500, 1.256835937500, -0.660888671875, 71.867187500000, 44.085937500000, 4.406250000000, 1490847476
0.055664062500, 1.256835937500, -0.660888671875, 71.867187500000, 44.085937500000, 4.406250000000, 1490847476
0.055664062500, 1.256835937500, -0.660888671875, 71.867187500000, 44.085937500000, 4.406250000000, 1490847476
0.120117187500, 0.899658203125, -0.602539062500, 30.796875000000, -100.515625000000, -6.429687500000, 1490847476
0.120117187500, 0.899658203125, -0.602539062500, 30.796875000000, -100.515625000000, -6.429687500000, 1490847476
0.120117187500, 0.899658203125, -0.602539062500, 30.796875000000, -100.515625000000, -6.429687500000, 1490847476
0.069580078125, 0.690429687500, -0.378173828125, -1.562500000000, -14.351562500000, -2.687500000000, 1490847476
0.069580078125, 0.690429687500, -0.378173828125, -1.562500000000, -14.351562500000, -2.687500000000, 1490847476
0.069580078125, 0.690429687500, -0.378173828125, -1.562500000000, -14.351562500000, -2.687500000000, 1490847476
-0.019042968750, 0.399902343750, -0.192138671875, -19.023437500000, 4.945312500000, 5.773437500000, 1490847476
-0.019042968750, 0.399902343750, -0.192138671875, -19.023437500000, 4.945312500000, 5.773437500000, 1490847476
-0.019042968750, 0.399902343750, -0.192138671875, -19.023437500000, 4.945312500000, 5.773437500000, 1490847476
-0.019042968750, 0.399902343750, -0.192138671875, -19.023437500000, 4.945312500000, 5.773437500000, 1490847476
-0.015869140625, 0.436035156250, -0.180175781250, -60.289062500000, 35.859375000000, 23.945312500000, 1490847476
-0.015869140625, 0.436035156250, -0.180175781250, -60.289062500000, 35.859375000000, 23.945312500000, 1490847476
-0.015869140625, 0.436035156250, -0.180175781250, -60.289062500000, 35.859375000000, 23.945312500000, 1490847476
-0.011230468750, 1.159667968750, -0.333251953125, -133.218750000000, -20.195312500000, -2.546875000000, 1490847476
-0.011230468750, 1.159667968750, -0.333251953125, -133.218750000000, -20.195312500000, -2.546875000000, 1490847476
-0.011230468750, 1.159667968750, -0.333251953125, -133.218750000000, -20.195312500000, -2.546875000000, 1490847476
0.150634765625, 1.202636718750, -0.255371093750, 19.359375000000, 23.867187500000, 5.757812500000, 1490847476
0.150634765625, 1.202636718750, -0.255371093750, 19.359375000000, 23.867187500000, 5.757812500000, 1490847476
0.150634765625, 1.202636718750, -0.255371093750, 19.359375000000, 23.867187500000, 5.757812500000, 1490847476
0.041503906250, 1.242187500000, -0.365478515625, 107.671875000000, 26.328125000000, 27.726562500000, 1490847476
0.041503906250, 1.242187500000, -0.365478515625, 107.671875000000, 26.328125000000, 27.726562500000, 1490847476
0.041503906250, 1.242187500000, -0.365478515625, 107.671875000000, 26.328125000000, 27.726562500000, 1490847476
0.041503906250, 1.242187500000, -0.365478515625, 107.671875000000, 26.328125000000, 27.726562500000, 1490847476
0.550048828125, 0.943359375000, -1.558105468750, 3.140625000000, 158.476562500000, 72.414062500000, 1490847477
0.550048828125, 0.943359375000, -1.558105468750, 3.140625000000, 158.476562500000, 72.414062500000, 1490847477
0.550048828125, 0.943359375000, -1.558105468750, 3.140625000000, 158.476562500000, 72.414062500000, 1490847477
0.406250000000, 0.903808593750, -0.342773437500, -97.906250000000, 15.898437500000, -31.984375000000, 1490847477
0.406250000000, 0.903808593750, -0.342773437500, -97.906250000000, 15.898437500000, -31.984375000000, 1490847477
0.406250000000, 0.903808593750, -0.342773437500, -97.906250000000, 15.898437500000, -31.984375000000, 1490847477
0.061279296875, 0.646972656250, -0.054931640625, -23.906250000000, 47.226562500000, 4.648437500000, 1490847477
0.061279296875, 0.646972656250, -0.054931640625, -23.906250000000, 47.226562500000, 4.648437500000, 1490847477
0.061279296875, 0.646972656250, -0.054931640625, -23.906250000000, 47.226562500000, 4.648437500000, 1490847477
0.123046875000, 0.491943359375, -0.162109375000, 14.093750000000, -38.421875000000, -13.718750000000, 1490847477
0.123046875000, 0.491943359375, -0.162109375000, 14.093750000000, -38.421875000000, -13.718750000000, 1490847477
0.123046875000, 0.491943359375, -0.162109375000, 14.093750000000, -38.421875000000, -13.718750000000, 1490847477
0.123046875000, 0.491943359375, -0.162109375000, 14.093750000000, -38.421875000000, -13.718750000000, 1490847477
0.138427734375, 0.706787109375, -0.165527343750, 10.890625000000, -94.296875000000, -25.320312500000, 1490847477
0.138427734375, 0.706787109375, -0.165527343750, 10.890625000000, -94.296875000000, -25.320312500000, 1490847477
0.138427734375, 0.706787109375, -0.165527343750, 10.890625000000, -94.296875000000, -25.320312500000, 1490847477
0.103271484375, 1.131103515625, -0.396484375000, -4.687500000000, 9.234375000000, 3.289062500000, 1490847477
0.103271484375, 1.131103515625, -0.396484375000, -4.687500000000, 9.234375000000, 3.289062500000, 1490847477
0.103271484375, 1.131103515625, -0.396484375000, -4.687500000000, 9.234375000000, 3.289062500000, 1490847477
0.634033203125, 1.053955078125, -0.840087890625, -20.453125000000, 43.570312500000, -5.875000000000, 1490847477
0.634033203125, 1.053955078125, -0.840087890625, -20.453125000000, 43.570312500000, -5.875000000000, 1490847477
0.634033203125, 1.053955078125, -0.840087890625, -20.453125000000, 43.570312500000, -5.875000000000, 1490847477
0.117431640625, 1.261230468750, -0.317626953125, 14.539062500000, -137.085937500000, -56.812500000000, 1490847477
0.117431640625, 1.261230468750, -0.317626953125, 14.539062500000, -137.085937500000, -56.812500000000, 1490847477
0.117431640625, 1.261230468750, -0.317626953125, 14.539062500000, -137.085937500000, -56.812500000000, 1490847477
0.117431640625, 1.261230468750, -0.317626953125, 14.539062500000, -137.085937500000, -56.812500000000, 1490847477
0.188232421875, 1.105957031250, -0.442871093750, 75.140625000000, -38.984375000000, -17.117187500000, 1490847477
0.188232421875, 1.105957031250, -0.442871093750, 75.140625000000, -38.984375000000, -17.117187500000, 1490847477
0.188232421875, 1.105957031250, -0.442871093750, 75.140625000000, -38.984375000000, -17.117187500000, 1490847477
0.200439453125, 0.895263671875, -0.692382812500, 107.585937500000, -41.179687500000, 5.539062500000, 1490847477
0.200439453125, 0.895263671875, -0.692382812500, 107.585937500000, -41.179687500000, 5.539062500000, 1490847477
0.200439453125, 0.895263671875, -0.692382812500, 107.585937500000, -41.179687500000, 5.539062500000, 1490847477
0.104492187500, 0.658447265625, -0.652343750000, 21.000000000000, -4.335937500000, -2.367187500000, 1490847477
0.104492187500, 0.658447265625, -0.652343750000, 21.000000000000, -4.335937500000, -2.367187500000, 1490847477
0.104492187500, 0.658447265625, -0.652343750000, 21.000000000000, -4.335937500000, -2.367187500000, 1490847477
-0.117675781250, 0.622802734375, -0.168945312500, -70.023437500000, -13.835937500000, -8.656250000000, 1490847477
-0.117675781250, 0.622802734375, -0.168945312500, -70.023437500000, -13.835937500000, -8.656250000000, 1490847477
-0.117675781250, 0.622802734375, -0.168945312500, -70.023437500000, -13.835937500000, -8.656250000000, 1490847477
-0.117675781250, 0.622802734375, -0.168945312500, -70.023437500000, -13.835937500000, -8.656250000000, 1490847477
0.024658203125, 0.552490234375, -0.261230468750, -56.625000000000, 70.421875000000, 45.789062500000, 1490847477
0.024658203125, 0.552490234375, -0.261230468750, -56.625000000000, 70.421875000000, 45.789062500000, 1490847477
0.024658203125, 0.552490234375, -0.261230468750, -56.625000000000, 70.421875000000, 45.789062500000, 1490847477
-0.077392578125, 0.959960937500, -0.334716796875, -73.773437500000, 50.406250000000, 41.171875000000, 1490847477
-0.077392578125, 0.959960937500, -0.334716796875, -73.773437500000, 50.406250000000, 41.171875000000, 1490847477
-0.077392578125, 0.959960937500, -0.334716796875, -73.773437500000, 50.406250000000, 41.171875000000, 1490847477
0.124511718750, 1.161376953125, -0.330322265625, -20.023437500000, -0.296875000000, 3.671875000000, 1490847477
0.124511718750, 1.161376953125, -0.330322265625, -20.023437500000, -0.296875000000, 3.671875000000, 1490847477
0.124511718750, 1.161376953125, -0.330322265625, -20.023437500000, -0.296875000000, 3.671875000000, 1490847477
0.218261718750, 1.239013671875, -0.530029296875, 109.218750000000, -33.101562500000, 20.398437500000, 1490847477
0.218261718750, 1.239013671875, -0.530029296875, 109.218750000000, -33.101562500000, 20.398437500000, 1490847477
0.218261718750, 1.239013671875, -0.530029296875, 109.218750000000, -33.101562500000, 20.398437500000, 1490847477
0.218261718750, 1.239013671875, -0.530029296875, 109.218750000000, -33.101562500000, 20.398437500000, 1490847477
0.760253906250, 0.839843750000, -1.032226562500, -61.218750000000, 76.765625000000, 28.375000000000, 1490847477
0.760253906250, 0.839843750000, -1.032226562500, -61.218750000000, 76.765625000000, 28.375000000000, 1490847477
0.760253906250, 0.839843750000, -1.032226562500, -61.218750000000, 76.765625000000, 28.375000000000, 1490847477
0.118896484375, 0.986816406250, -0.314697265625, -70.710937500000, 8.820312500000, -32.453125000000, 1490847477
0.118896484375, 0.986816406250, -0.314697265625, -70.710937500000, 8.820312500000, -32.453125000000, 1490847477
0.118896484375, 0.986816406250, -0.314697265625, -70.710937500000, 8.820312500000, -32.453125000000, 1490847477
-0.041992187500, 0.608642578125, -0.176757812500, 7.406250000000, 38.507812500000, 16.148437500000, 1490847477
-0.041992187500, 0.608642578125, -0.176757812500, 7.406250000000, 38.507812500000, 16.148437500000, 1490847477
-0.041992187500, 0.608642578125, -0.176757812500, 7.406250000000, 38.507812500000, 16.148437500000, 1490847477
0.126708984375, 0.422607421875, -0.272949218750, 5.226562500000, -32.195312500000, -16.156250000000, 1490847477
0.126708984375, 0.422607421875, -0.272949218750, 5.226562500000, -32.195312500000, -16.156250000000, 1490847477
0.126708984375, 0.422607421875, -0.272949218750, 5.226562500000, -32.195312500000, -16.156250000000, 1490847477
0.126708984375, 0.422607421875, -0.272949218750, 5.226562500000, -32.195312500000, -16.156250000000, 1490847477
-0.009765625000, 0.372314453125, -0.219238281250, 28.179687500000, -47.953125000000, -30.796875000000, 1490847478
-0.009765625000, 0.372314453125, -0.219238281250, 28.179687500000, -47.953125000000, -30.796875000000, 1490847478
-0.009765625000, 0.372314453125, -0.219238281250, 28.179687500000, -47.953125000000, -30.796875000000, 1490847478
0.171386718750, 1.063720703125, -0.395507812500, -79.992187500000, 39.750000000000, 5.687500000000, 1490847478
0.171386718750, 1.063720703125, -0.395507812500, -79.992187500000, 39.750000000000, 5.687500000000, 1490847478
0.171386718750, 1.063720703125, -0.395507812500, -79.992187500000, 39.750000000000, 5.687500000000, 1490847478
0.467041015625, 1.271728515625, -0.642089843750, -19.843750000000, -0.359375000000, -36.226562500000, 1490847478
0.467041015625, 1.271728515625, -0.642089843750, -19.843750000000, -0.359375000000, -36.226562500000, 1490847478
0.467041015625, 1.271728515625, -0.642089843750, -19.843750000000, -0.359375000000, -36.226562500000, 1490847478
-0.050781250000, 1.172607421875, -0.422607421875, 80.078125000000, -139.812500000000, -25.726562500000, 1490847478
-0.050781250000, 1.172607421875, -0.422607421875, 80.078125000000, -139.812500000000, -25.726562500000, 1490847478
-0.050781250000, 1.172607421875, -0.422607421875, 80.078125000000, -139.812500000000, -25.726562500000, 1490847478
-0.050781250000, 1.172607421875, -0.422607421875, 80.078125000000, -139.812500000000, -25.726562500000, 1490847478
-0.023681640625, 1.032714843750, -0.639160156250, 69.335937500000, 35.304687500000, 22.859375000000, 1490847478
-0.023681640625, 1.032714843750, -0.639160156250, 69.335937500000, 35.304687500000, 22.859375000000, 1490847478
-0.023681640625, 1.032714843750, -0.639160156250, 69.335937500000, 35.304687500000, 22.859375000000, 1490847478
0.272460937500, 0.945556640625, -0.675537109375, 80.085937500000, 11.546875000000, 25.960937500000, 1490847478
0.132568359375, 0.559082031250, -0.405517578125, -17.476562500000, -49.000000000000, -15.101562500000, 1490847478
0.132568359375, 0.559082031250, -0.405517578125, -17.476562500000, -49.000000000000, -15.101562500000, 1490847478
0.132568359375, 0.559082031250, -0.405517578125, -17.476562500000, -49.000000000000, -15.101562500000, 1490847478
0.132568359375, 0.559082031250, -0.405517578125, -17.476562500000, -49.000000000000, -15.101562500000, 1490847478
-0.063720703125, 0.521240234375, -0.264404296875, -37.664062500000, 1.585937500000, -4.406250000000, 1490847478
-0.136474609375, 0.476318359375, -0.256835937500, -37.664062500000, 1.585937500000, -4.406250000000, 1490847478
-0.136474609375, 0.476318359375, -0.256835937500, -37.664062500000, 1.585937500000, -4.406250000000, 1490847478
-0.136474609375, 0.476318359375, -0.256835937500, -37.664062500000, 1.585937500000, -4.406250000000, 1490847478
-0.136474609375, 0.476318359375, -0.256835937500, -37.664062500000, 1.585937500000, -4.406250000000, 1490847478
0.011230468750, 0.713134765625, -0.329833984375, -51.609375000000, 33.664062500000, 24.531250000000, 1490847478
0.011230468750, 0.713134765625, -0.329833984375, -51.609375000000, 33.664062500000, 24.531250000000, 1490847478
0.011230468750, 0.713134765625, -0.329833984375, -51.609375000000, 33.664062500000, 24.531250000000, 1490847478
-0.066894531250, 1.107177734375, -0.330078125000, -68.250000000000, 6.750000000000, 26.976562500000, 1490847478
-0.066894531250, 1.107177734375, -0.330078125000, -68.250000000000, 6.750000000000, 26.976562500000, 1490847478
-0.066894531250, 1.107177734375, -0.330078125000, -68.250000000000, 6.750000000000, 26.976562500000, 1490847478
0.215820312500, 1.303955078125, -0.440673828125, -7.226562500000, 11.390625000000, -2.812500000000, 1490847478
0.215820312500, 1.303955078125, -0.440673828125, -7.226562500000, 11.390625000000, -2.812500000000, 1490847478
0.215820312500, 1.303955078125, -0.440673828125, -7.226562500000, 11.390625000000, -2.812500000000, 1490847478
0.058105468750, 1.207519531250, -0.991943359375, 115.453125000000, 175.906250000000, 41.625000000000, 1490847478
0.058105468750, 1.207519531250, -0.991943359375, 115.453125000000, 175.906250000000, 41.625000000000, 1490847478
0.058105468750, 1.207519531250, -0.991943359375, 115.453125000000, 175.906250000000, 41.625000000000, 1490847478
0.058105468750, 1.207519531250, -0.991943359375, 115.453125000000, 175.906250000000, 41.625000000000, 1490847478
0.313232421875, 0.899169921875, -0.572509765625, -84.640625000000, 25.007812500000, -11.812500000000, 1490847478
0.313232421875, 0.899169921875, -0.572509765625, -84.640625000000, 25.007812500000, -11.812500000000, 1490847478
0.313232421875, 0.899169921875, -0.572509765625, -84.640625000000, 25.007812500000, -11.812500000000, 1490847478
0.065429687500, 0.785400390625, -0.256591796875, -17.171875000000, -1.757812500000, 2.046875000000, 1490847478
0.065429687500, 0.785400390625, -0.256591796875, -17.171875000000, -1.757812500000, 2.046875000000, 1490847478
0.065429687500, 0.785400390625, -0.256591796875, -17.171875000000, -1.757812500000, 2.046875000000, 1490847478
0.085693359375, 0.582519531250, -0.272460937500, 18.148437500000, 55.140625000000, 25.539062500000, 1490847478
0.085693359375, 0.582519531250, -0.272460937500, 18.148437500000, 55.140625000000, 25.539062500000, 1490847478
0.085693359375, 0.582519531250, -0.272460937500, 18.148437500000, 55.140625000000, 25.539062500000, 1490847478
0.327636718750, 0.654052734375, -0.244628906250, -10.554687500000, -38.875000000000, -29.664062500000, 1490847478
0.327636718750, 0.654052734375, -0.244628906250, -10.554687500000, -38.875000000000, -29.664062500000, 1490847478
0.327636718750, 0.654052734375, -0.244628906250, -10.554687500000, -38.875000000000, -29.664062500000, 1490847478
0.327636718750, 0.654052734375, -0.244628906250, -10.554687500000, -38.875000000000, -29.664062500000, 1490847478
0.131591796875, 0.641601562500, -0.354248046875, -7.148437500000, -6.593750000000, -36.601562500000, 1490847478
0.131591796875, 0.641601562500, -0.354248046875, -7.148437500000, -6.593750000000, -36.601562500000, 1490847478
0.131591796875, 0.641601562500, -0.354248046875, -7.148437500000, -6.593750000000, -36.601562500000, 1490847478
0.165771484375, 1.116455078125, -0.281982421875, -58.359375000000, -21.125000000000, -39.750000000000, 1490847478
0.165771484375, 1.116455078125, -0.281982421875, -58.359375000000, -21.125000000000, -39.750000000000, 1490847478
0.165771484375, 1.116455078125, -0.281982421875, -58.359375000000, -21.125000000000, -39.750000000000, 1490847478
0.340332031250, 1.230957031250, -0.566406250000, -1.890625000000, -40.804687500000, -48.187500000000, 1490847478
0.340332031250, 1.230957031250, -0.566406250000, -1.890625000000, -40.804687500000, -48.187500000000, 1490847478
0.340332031250, 1.230957031250, -0.566406250000, -1.890625000000, -40.804687500000, -48.187500000000, 1490847478
0.048828125000, 1.306884765625, -0.466796875000, 67.554687500000, -60.492187500000, -33.828125000000, 1490847478
0.048828125000, 1.306884765625, -0.466796875000, 67.554687500000, -60.492187500000, -33.828125000000, 1490847478
0.048828125000, 1.306884765625, -0.466796875000, 67.554687500000, -60.492187500000, -33.828125000000, 1490847478
0.045166015625, 1.128662109375, -0.576171875000, 64.101562500000, -44.156250000000, -3.359375000000, 1490847478
0.045166015625, 1.128662109375, -0.576171875000, 64.101562500000, -44.156250000000, -3.359375000000, 1490847478
0.045166015625, 1.128662109375, -0.576171875000, 64.101562500000, -44.156250000000, -3.359375000000, 1490847479
0.045166015625, 1.128662109375, -0.576171875000, 65.851562500000, -67.570312500000, -0.250000000000, 1490847479
0.191894531250, 0.709716796875, -0.499755859375, 42.335937500000, -24.273437500000, -7.078125000000, 1490847479
0.191894531250, 0.709716796875, -0.499755859375, 42.335937500000, -24.273437500000, -7.078125000000, 1490847479
0.058593750000, 0.757568359375, -0.416748046875, -4.507812500000, -20.742187500000, 1.335937500000, 1490847479
0.063964843750, 0.703857421875, -0.399902343750, -4.507812500000, -20.742187500000, 1.335937500000, 1490847479
0.063964843750, 0.703857421875, -0.399902343750, -4.507812500000, -20.742187500000, 1.335937500000, 1490847479
0.063964843750, 0.703857421875, -0.399902343750, -4.507812500000, -20.742187500000, 1.335937500000, 1490847479
-0.015625000000, 0.553466796875, -0.292236328125, -37.679687500000, 7.359375000000, -5.765625000000, 1490847479
-0.015625000000, 0.553466796875, -0.292236328125, -37.679687500000, 7.359375000000, -5.765625000000, 1490847479
-0.015625000000, 0.553466796875, -0.292236328125, -37.679687500000, 7.359375000000, -5.765625000000, 1490847479
-0.015625000000, 0.553466796875, -0.292236328125, -37.679687500000, 7.359375000000, -5.765625000000, 1490847479
0.056884765625, 0.477539062500, -0.235595703125, -52.062500000000, 54.679687500000, 20.531250000000, 1490847479
0.056884765625, 0.477539062500, -0.235595703125, -52.062500000000, 54.679687500000, 20.531250000000, 1490847479
0.056884765625, 0.477539062500, -0.235595703125, -52.062500000000, 54.679687500000, 20.531250000000, 1490847479
-0.089599609375, 0.960205078125, -0.230224609375, -85.617187500000, -5.765625000000, 21.507812500000, 1490847479
-0.089599609375, 0.960205078125, -0.230224609375, -85.617187500000, -5.765625000000, 21.507812500000, 1490847479
-0.089599609375, 0.960205078125, -0.230224609375, -85.617187500000, -5.765625000000, 21.507812500000, 1490847479
0.124755859375, 1.135009765625, -0.247070312500, 8.000000000000, 5.078125000000, 9.054687500000, 1490847479
0.124755859375, 1.135009765625, -0.247070312500, 8.000000000000, 5.078125000000, 9.054687500000, 1490847479
0.124755859375, 1.135009765625, -0.247070312500, 8.000000000000, 5.078125000000, 9.054687500000, 1490847479
0.133300781250, 1.220458984375, -0.853027343750, 101.296875000000, 102.953125000000, 56.492187500000, 1490847479
0.133300781250, 1.220458984375, -0.853027343750, 101.296875000000, 102.953125000000, 56.492187500000, 1490847479
0.133300781250, 1.220458984375, -0.853027343750, 101.296875000000, 102.953125000000, 56.492187500000, 1490847479
0.133300781250, 1.220458984375, -0.853027343750, 101.296875000000, 102.953125000000, 56.492187500000, 1490847479
0.482421875000, 0.982421875000, -0.660400390625, -71.898437500000, 66.960937500000, 0.984375000000, 1490847479
0.482421875000, 0.982421875000, -0.660400390625, -71.898437500000, 66.960937500000, 0.984375000000, 1490847479
0.482421875000, 0.982421875000, -0.660400390625, -71.898437500000, 66.960937500000, 0.984375000000, 1490847479
0.378906250000, 0.861572265625, -0.231933593750, -33.585937500000, 41.656250000000, -14.375000000000, 1490847479
