ACC_X,ACC_Y,ACC_Z,G_X,G_Y,G_Z,Unix Time
0.093017578125, -0.078613281250, -0.078613281250, -7.617187500000, -240.765625000000, 33.476562500000, 1490846191
0.093017578125, -0.078613281250, -0.078613281250, -7.617187500000, -240.765625000000, 33.476562500000, 1490846191
0.093017578125, -0.078613281250, -0.078613281250, -7.617187500000, -240.765625000000, 33.476562500000, 1490846191
-0.008789062500, -0.123535156250, -0.012207031250, -65.445312500000, -217.039062500000, 68.765625000000, 1490846191
-0.008789062500, -0.123535156250, -0.012207031250, -65.445312500000, -217.039062500000, 68.765625000000, 1490846191
-0.008789062500, -0.123535156250, -0.012207031250, -65.445312500000, -217.039062500000, 68.765625000000, 1490846191
-0.014160156250, -1.813476562500, -0.178222656250, -256.000000000000, 77.257812500000, 88.335937500000, 1490846191
-0.014160156250, -1.813476562500, -0.178222656250, -256.000000000000, 77.257812500000, 88.335937500000, 1490846191
-0.014160156250, -1.813476562500, -0.178222656250, -256.000000000000, 77.257812500000, 88.335937500000, 1490846191
-0.045166015625, -1.838623046875, -0.054931640625, 253.992187500000, 130.218750000000, -14.710937500000, 1490846191
-0.045166015625, -1.838623046875, -0.054931640625, 253.992187500000, 130.218750000000, -14.710937500000, 1490846191
-0.045166015625, -1.838623046875, -0.054931640625, 253.992187500000, 130.218750000000, -14.710937500000, 1490846191
-0.045166015625, -1.838623046875, -0.054931640625, 253.992187500000, 130.218750000000, -14.710937500000, 1490846191
0.327392578125, -2.339355468750, 2.178710937500, 44.609375000000, -256.000000000000, 86.125000000000, 1490846191
0.327392578125, -2.339355468750, 2.178710937500, 44.609375000000, -256.000000000000, 86.125000000000, 1490846191
0.327392578125, -2.339355468750, 2.178710937500, 44.609375000000, -256.000000000000, 86.125000000000, 1490846191
0.243164062500, -1.375000000000, 0.187500000000, -174.109375000000, 201.125000000000, 51.445312500000, 1490846191
0.243164062500, -1.375000000000, 0.187500000000, -174.109375000000, 201.125000000000, 51.445312500000, 1490846191
0.243164062500, -1.375000000000, 0.187500000000, -174.109375000000, 201.125000000000, 51.445312500000, 1490846191
0.000976562500, -0.702880859375, 0.081054687500, -13.656250000000, 164.953125000000, -31.312500000000, 1490846191
0.000976562500, -0.702880859375, 0.081054687500, -13.656250000000, 164.953125000000, -31.312500000000, 1490846191
0.000976562500, -0.702880859375, 0.081054687500, -13.656250000000, 164.953125000000, -31.312500000000, 1490846191
-0.014160156250, -0.140625000000, -0.015380859375, -51.570312500000, -60.468750000000, -22.234375000000, 1490846191
-0.062500000000, -0.002685546875, -0.003417968750, -51.570312500000, -60.468750000000, -22.234375000000, 1490846191
-0.062500000000, -0.002685546875, -0.003417968750, -51.570312500000, -60.468750000000, -22.234375000000, 1490846191
-0.062500000000, -0.002685546875, -0.003417968750, -51.570312500000, -60.468750000000, -22.234375000000, 1490846191
0.068115234375, -0.000976562500, 0.065917968750, -59.000000000000, -67.000000000000, -35.875000000000, 1490846191
0.068115234375, -0.000976562500, 0.065917968750, -59.000000000000, -67.000000000000, -35.875000000000, 1490846191
0.068115234375, -0.000976562500, 0.065917968750, -59.000000000000, -67.000000000000, -35.875000000000, 1490846191
0.068115234375, -0.000976562500, 0.065917968750, -59.000000000000, -67.000000000000, -35.875000000000, 1490846191
0.068115234375, -0.000976562500, 0.065917968750, -59.000000000000, -67.000000000000, -35.875000000000, 1490846191
0.068115234375, -0.000976562500, 0.065917968750, -59.000000000000, -67.000000000000, -35.875000000000, 1490846191
0.125732421875, -0.296386718750, -0.084228515625, -120.492187500000, 6.023437500000, 30.414062500000, 1490846191
0.125732421875, -0.296386718750, -0.084228515625, -120.492187500000, 6.023437500000, 30.414062500000, 1490846191
0.125732421875, -0.296386718750, -0.084228515625, -120.492187500000, 6.023437500000, 30.414062500000, 1490846191
0.448242187500, -1.631835937500, -0.252685546875, -185.968750000000, 250.937500000000, 5.804687500000, 1490846191
0.448242187500, -1.631835937500, -0.252685546875, -185.968750000000, 250.937500000000, 5.804687500000, 1490846191
0.448242187500, -1.631835937500, -0.252685546875, -185.968750000000, 250.937500000000, 5.804687500000, 1490846191
0.448242187500, -1.631835937500, -0.252685546875, -185.968750000000, 250.937500000000, 5.804687500000, 1490846191
0.508789062500, -1.962890625000, 0.023193359375, 245.976562500000, -256.000000000000, -68.671875000000, 1490846191
0.508789062500, -1.962890625000, 0.023193359375, 245.976562500000, -256.000000000000, -68.671875000000, 1490846191
0.508789062500, -1.962890625000, 0.023193359375, 245.976562500000, -256.000000000000, -68.671875000000, 1490846191
0.337646484375, -2.141357421875, -0.141845703125, 249.570312500000, -256.320312500000, -2.250000000000, 1490846191
0.337646484375, -2.141357421875, -0.141845703125, 249.570312500000, -256.320312500000, -2.250000000000, 1490846191
0.337646484375, -2.141357421875, -0.141845703125, 249.570312500000, -256.320312500000, -2.250000000000, 1490846191
1.187988281250, -0.872802734375, 0.736328125000, -211.929687500000, 64.906250000000, 19.960937500000, 1490846191
1.187988281250, -0.872802734375, 0.736328125000, -211.929687500000, 64.906250000000, 19.960937500000, 1490846191
1.187988281250, -0.872802734375, 0.736328125000, -211.929687500000, 64.906250000000, 19.960937500000, 1490846191
0.050537109375, -0.552246093750, -0.187988281250, 32.031250000000, 253.992187500000, -22.992187500000, 1490846192
0.050537109375, -0.552246093750, -0.187988281250, 32.031250000000, 253.992187500000, -22.992187500000, 1490846192
0.050537109375, -0.552246093750, -0.187988281250, 32.031250000000, 253.992187500000, -22.992187500000, 1490846192
0.050537109375, -0.552246093750, -0.187988281250, 32.031250000000, 253.992187500000, -22.992187500000, 1490846192
-0.077392578125, -0.166259765625, 0.026855468750, 30.898437500000, -64.523437500000, -84.710937500000, 1490846192
-0.077392578125, -0.166259765625, 0.026855468750, 30.898437500000, -64.523437500000, -84.710937500000, 1490846192
-0.077392578125, -0.166259765625, 0.026855468750, 30.898437500000, -64.523437500000, -84.710937500000, 1490846192
-0.006835937500, 0.008544921875, 0.027832031250, -26.109375000000, -256.000000000000, 18.382812500000, 1490846192
-0.006835937500, 0.008544921875, 0.027832031250, -26.109375000000, -256.000000000000, 18.382812500000, 1490846192
-0.006835937500, 0.008544921875, 0.027832031250, -26.109375000000, -256.000000000000, 18.382812500000, 1490846192
-0.067382812500, -0.058593750000, 0.018554687500, -29.664062500000, -256.000000000000, 63.523437500000, 1490846192
-0.067382812500, -0.058593750000, 0.018554687500, -29.664062500000, -256.000000000000, 63.523437500000, 1490846192
-0.067382812500, -0.058593750000, 0.018554687500, -29.664062500000, -256.000000000000, 63.523437500000, 1490846192
-0.169189453125, -2.068603515625, -0.126464843750, -256.000000000000, -256.000000000000, -30.945312500000, 1490846192
-0.169189453125, -2.068603515625, -0.126464843750, -256.000000000000, -256.000000000000, -30.945312500000, 1490846192
-0.169189453125, -2.068603515625, -0.126464843750, -256.000000000000, -256.000000000000, -30.945312500000, 1490846192
-0.169189453125, -2.068603515625, -0.126464843750, -256.000000000000, -256.000000000000, -30.945312500000, 1490846192
-0.102050781250, -2.070800781250, 0.024658203125, 208.671875000000, 247.109375000000, -91.617187500000, 1490846192
-0.102050781250, -2.070800781250, 0.024658203125, 208.671875000000, 247.109375000000, -91.617187500000, 1490846192
-0.102050781250, -2.070800781250, 0.024658203125, 208.671875000000, 247.109375000000, -91.617187500000, 1490846192
1.354492187500, -2.096679687500, 1.061523437500, 19.125000000000, -256.000000000000, -7.945312500000, 1490846192
1.354492187500, -2.096679687500, 1.061523437500, 19.125000000000, -256.000000000000, -7.945312500000, 1490846192
1.354492187500, -2.096679687500, 1.061523437500, 19.125000000000, -256.000000000000, -7.945312500000, 1490846192
0.889404296875, -2.226562500000, 2.883544921875, -2.171875000000, -256.000000000000, -32.398437500000, 1490846192
0.217529296875, -0.659667968750, -0.001220703125, -18.460937500000, 51.578125000000, -25.734375000000, 1490846192
0.217529296875, -0.659667968750, -0.001220703125, -18.460937500000, 51.578125000000, -25.734375000000, 1490846192
0.217529296875, -0.659667968750, -0.001220703125, -18.460937500000, 51.578125000000, -25.734375000000, 1490846192
0.217529296875, -0.659667968750, -0.001220703125, -18.460937500000, 51.578125000000, -25.734375000000, 1490846192
-0.015136718750, -0.214599609375, 0.025146484375, 1.773437500000, -126.976562500000, -51.328125000000, 1490846192
-0.015136718750, -0.214599609375, 0.025146484375, 1.773437500000, -126.976562500000, -51.328125000000, 1490846192
-0.015136718750, -0.214599609375, 0.025146484375, 1.773437500000, -126.976562500000, -51.328125000000, 1490846192
-0.015136718750, -0.214599609375, 0.025146484375, 1.773437500000, -126.976562500000, -51.328125000000, 1490846192
-0.015136718750, -0.214599609375, 0.025146484375, -16.617187500000, -117.289062500000, -54.117187500000, 1490846192
0.008056640625, -0.024658203125, -0.017089843750, -5.992187500000, -76.734375000000, -52.500000000000, 1490846192
0.008056640625, -0.024658203125, -0.017089843750, -5.992187500000, -76.734375000000, -52.500000000000, 1490846192
0.008056640625, -0.024658203125, -0.017089843750, -5.992187500000, -76.734375000000, -52.500000000000, 1490846192
0.036865234375, 0.083251953125, -0.076660156250, -82.734375000000, -103.382812500000, -23.750000000000, 1490846192
0.036865234375, 0.083251953125, -0.076660156250, -82.734375000000, -103.382812500000, -23.750000000000, 1490846192
0.036865234375, 0.083251953125, -0.076660156250, -82.734375000000, -103.382812500000, -23.750000000000, 1490846192
0.089355468750, -1.168945312500, -0.208496093750, -256.000000000000, 47.500000000000, 95.718750000000, 1490846192
0.089355468750, -1.168945312500, -0.208496093750, -256.000000000000, 47.500000000000, 95.718750000000, 1490846192
0.089355468750, -1.168945312500, -0.208496093750, -256.000000000000, 47.500000000000, 95.718750000000, 1490846192
0.089355468750, -1.168945312500, -0.208496093750, -256.000000000000, 47.500000000000, 95.718750000000, 1490846192
0.179931640625, -1.602783203125, -0.030517578125, -101.390625000000, 95.179687500000, -62.882812500000, 1490846192
0.179931640625, -1.602783203125, -0.030517578125, -101.390625000000, 95.179687500000, -62.882812500000, 1490846192
0.179931640625, -1.602783203125, -0.030517578125, -101.390625000000, 95.179687500000, -62.882812500000, 1490846192
0.807128906250, -3.433837890625, -0.171630859375, 253.992187500000, -169.468750000000, -127.976562500000, 1490846192
0.807128906250, -3.433837890625, -0.171630859375, 253.992187500000, -169.468750000000, -127.976562500000, 1490846192
0.807128906250, -3.433837890625, -0.171630859375, 253.992187500000, -169.468750000000, -127.976562500000, 1490846192
2.608154296875, -2.256591796875, 5.844238281250, 253.992187500000, 253.992187500000, -256.000000000000, 1490846192
2.608154296875, -2.256591796875, 5.844238281250, 253.992187500000, 253.992187500000, -256.000000000000, 1490846192
2.608154296875, -2.256591796875, 5.844238281250, 253.992187500000, 253.992187500000, -256.000000000000, 1490846192
-0.138183593750, -0.043701171875, 0.010498046875, -190.351562500000, -81.117187500000, -91.890625000000, 1490846192
-0.138183593750, -0.043701171875, 0.010498046875, -190.351562500000, -81.117187500000, -91.890625000000, 1490846192
-0.138183593750, -0.043701171875, 0.010498046875, -190.351562500000, -81.117187500000, -91.890625000000, 1490846192
-0.138183593750, -0.043701171875, 0.010498046875, -190.351562500000, -81.117187500000, -91.890625000000, 1490846192
-0.056884765625, -0.015136718750, 0.015136718750, -114.242187500000, -114.726562500000, -38.500000000000, 1490846192
0.137695312500, -0.257324218750, -0.146972656250, -181.578125000000, -256.000000000000, 121.273437500000, 1490846192
0.137695312500, -0.257324218750, -0.146972656250, -181.578125000000, -256.000000000000, 121.273437500000, 1490846192
0.137695312500, -0.257324218750, -0.146972656250, -181.578125000000, -256.000000000000, 121.273437500000, 1490846192
0.137695312500, -0.257324218750, -0.146972656250, -181.578125000000, -256.000000000000, 121.273437500000, 1490846192
0.137695312500, -0.257324218750, -0.146972656250, -181.578125000000, -256.000000000000, 121.273437500000, 1490846192
0.019531250000, -0.601318359375, -0.128173828125, -256.000000000000, -256.000000000000, 87.773437500000, 1490846192
0.019531250000, -0.601318359375, -0.128173828125, -256.000000000000, -256.000000000000, 87.773437500000, 1490846192
0.019531250000, -0.601318359375, -0.128173828125, -256.000000000000, -256.000000000000, 87.773437500000, 1490846192
-0.398437500000, -1.711425781250, 0.059814453125, 209.171875000000, 195.523437500000, -61.828125000000, 1490846192
-0.398437500000, -1.711425781250, 0.059814453125, 209.171875000000, 195.523437500000, -61.828125000000, 1490846193
-0.398437500000, -1.711425781250, 0.059814453125, 209.171875000000, 195.523437500000, -61.828125000000, 1490846193
-0.398437500000, -1.711425781250, 0.059814453125, 209.171875000000, 195.523437500000, -61.828125000000, 1490846193
-0.372314453125, -2.095214843750, -0.255615234375, 37.695312500000, 240.210937500000, -145.570312500000, 1490846193
-0.372314453125, -2.095214843750, -0.255615234375, 37.695312500000, 240.210937500000, -145.570312500000, 1490846193
-0.372314453125, -2.095214843750, -0.255615234375, 37.695312500000, 240.210937500000, -145.570312500000, 1490846193
2.130371093750, -1.148681640625, 1.853271484375, -256.000000000000, 212.453125000000, 97.750000000000, 1490846193
0.390625000000, -0.764404296875, 0.187500000000, -256.000000000000, 212.453125000000, 97.750000000000, 1490846193
0.390625000000, -0.764404296875, 0.187500000000, -256.000000000000, 212.453125000000, 97.750000000000, 1490846193
0.390625000000, -0.764404296875, 0.187500000000, -256.000000000000, 212.453125000000, 97.750000000000, 1490846193
0.165283203125, -0.302978515625, -0.194335937500, -86.156250000000, 106.015625000000, 21.101562500000, 1490846193
0.045654296875, -0.174316406250, -0.089111328125, -116.000000000000, 43.031250000000, 14.648437500000, 1490846193
0.045654296875, -0.174316406250, -0.089111328125, -116.000000000000, 43.031250000000, 14.648437500000, 1490846193
0.045654296875, -0.174316406250, -0.089111328125, -116.000000000000, 43.031250000000, 14.648437500000, 1490846193
0.045654296875, -0.174316406250, -0.089111328125, -116.000000000000, 43.031250000000, 14.648437500000, 1490846193
0.045654296875, -0.174316406250, -0.089111328125, -116.000000000000, 43.031250000000, 14.648437500000, 1490846193
-0.006835937500, -0.147460937500, 0.028564453125, -89.476562500000, 37.703125000000, 13.546875000000, 1490846193
-0.006835937500, -0.147460937500, 0.028564453125, -89.476562500000, 37.703125000000, 13.546875000000, 1490846193
-0.006835937500, -0.147460937500, 0.028564453125, -89.476562500000, 37.703125000000, 13.546875000000, 1490846193
-0.014648437500, -0.184814453125, -0.071289062500, -131.859375000000, 33.492187500000, 13.703125000000, 1490846193
-0.014648437500, -0.184814453125, -0.071289062500, -131.859375000000, 33.492187500000, 13.703125000000, 1490846193
-0.014648437500, -0.184814453125, -0.071289062500, -131.859375000000, 33.492187500000, 13.703125000000, 1490846193
-0.062988281250, -1.301513671875, -0.362792968750, -256.000000000000, 19.148437500000, 86.710937500000, 1490846193
-0.062988281250, -1.301513671875, -0.362792968750, -256.000000000000, 19.148437500000, 86.710937500000, 1490846193
-0.062988281250, -1.301513671875, -0.362792968750, -256.000000000000, 19.148437500000, 86.710937500000, 1490846193
-0.018554687500, -1.197753906250, 0.015136718750, 142.179687500000, 60.085937500000, 7.250000000000, 1490846193
-0.018554687500, -1.197753906250, 0.015136718750, 142.179687500000, 60.085937500000, 7.250000000000, 1490846193
-0.018554687500, -1.197753906250, 0.015136718750, 142.179687500000, 60.085937500000, 7.250000000000, 1490846193
-0.018554687500, -1.197753906250, 0.015136718750, 142.179687500000, 60.085937500000, 7.250000000000, 1490846193
0.262207031250, -2.532958984375, -0.425781250000, 253.992187500000, 53.382812500000, -121.125000000000, 1490846193
0.262207031250, -2.532958984375, -0.425781250000, 253.992187500000, 53.382812500000, -121.125000000000, 1490846193
0.262207031250, -2.532958984375, -0.425781250000, 253.992187500000, 53.382812500000, -121.125000000000, 1490846193
0.205322265625, -2.194335937500, -0.284423828125, 144.679687500000, -36.914062500000, 2.664062500000, 1490846193
0.205322265625, -2.194335937500, -0.284423828125, 144.679687500000, -36.914062500000, 2.664062500000, 1490846193
0.205322265625, -2.194335937500, -0.284423828125, 144.679687500000, -36.914062500000, 2.664062500000, 1490846193
-0.029785156250, -0.903808593750, 0.790771484375, -256.000000000000, 77.265625000000, 3.953125000000, 1490846193
-0.029785156250, -0.903808593750, 0.790771484375, -256.000000000000, 77.265625000000, 3.953125000000, 1490846193
-0.029785156250, -0.903808593750, 0.790771484375, -256.000000000000, 77.265625000000, 3.953125000000, 1490846193
0.066894531250, 0.021972656250, 0.014404296875, -99.929687500000, 29.023437500000, -18.929687500000, 1490846193
0.066894531250, 0.021972656250, 0.014404296875, -99.929687500000, 29.023437500000, -18.929687500000, 1490846193
0.066894531250, 0.021972656250, 0.014404296875, -99.929687500000, 29.023437500000, -18.929687500000, 1490846193
0.066894531250, 0.021972656250, 0.014404296875, -99.929687500000, 29.023437500000, -18.929687500000, 1490846193
0.024902343750, -0.209472656250, -0.137207031250, -115.320312500000, -141.546875000000, 11.992187500000, 1490846193
0.024902343750, -0.209472656250, -0.137207031250, -115.320312500000, -141.546875000000, 11.992187500000, 1490846193
0.024902343750, -0.209472656250, -0.137207031250, -115.320312500000, -141.546875000000, 11.992187500000, 1490846193
0.023437500000, -0.307128906250, -0.071777343750, -232.898437500000, -131.226562500000, 44.289062500000, 1490846193
0.023437500000, -0.307128906250, -0.071777343750, -232.898437500000, -131.226562500000, 44.289062500000, 1490846193
0.023437500000, -0.307128906250, -0.071777343750, -232.898437500000, -131.226562500000, 44.289062500000, 1490846193
-0.331542968750, -2.356689453125, -0.297119140625, -256.000000000000, -154.882812500000, -67.359375000000, 1490846193
-0.331542968750, -2.356689453125, -0.297119140625, -256.000000000000, -154.882812500000, -67.359375000000, 1490846193
-0.331542968750, -2.356689453125, -0.297119140625, -256.000000000000, -154.882812500000, -67.359375000000, 1490846193
-0.080322265625, -0.286132812500, 0.890136718750, -70.406250000000, -256.000000000000, -69.710937500000, 1490846193
-0.080322265625, -0.286132812500, 0.890136718750, -70.406250000000, -256.000000000000, -69.710937500000, 1490846193
-0.080322265625, -0.286132812500, 0.890136718750, -70.406250000000, -256.000000000000, -69.710937500000, 1490846193
-0.080322265625, -0.286132812500, 0.890136718750, -70.406250000000, -256.000000000000, -69.710937500000, 1490846193
-0.388671875000, -2.874755859375, 0.141113281250, 253.992187500000, 253.992187500000, -256.000000000000, 1490846193
-0.388671875000, -2.874755859375, 0.141113281250, 253.992187500000, 253.992187500000, -256.000000000000, 1490846193
-0.388671875000, -2.874755859375, 0.141113281250, 253.992187500000, 253.992187500000, -256.000000000000, 1490846193
0.573242187500, -1.311523437500, 2.128173828125, 165.367187500000, -256.000000000000, -35.156250000000, 1490846193
0.573242187500, -1.311523437500, 2.128173828125, 165.367187500000, -256.000000000000, -35.156250000000, 1490846193
0.573242187500, -1.311523437500, 2.128173828125, 165.367187500000, -256.000000000000, -35.156250000000, 1490846193
0.199707031250, -0.587158203125, 0.007080078125, -185.796875000000, 4.750000000000, 239.976562500000, 1490846193
0.199707031250, -0.587158203125, 0.007080078125, -185.796875000000, 4.750000000000, 239.976562500000, 1490846193
0.199707031250, -0.587158203125, 0.007080078125, -185.796875000000, 4.750000000000, 239.976562500000, 1490846193
0.017822265625, -0.121826171875, 0.031250000000, -182.085937500000, 43.523437500000, -4.835937500000, 1490846193
0.017822265625, -0.121826171875, 0.031250000000, -182.085937500000, 43.523437500000, -4.835937500000, 1490846193
0.017822265625, -0.121826171875, 0.031250000000, -182.085937500000, 43.523437500000, -4.835937500000, 1490846193
0.017822265625, -0.121826171875, 0.031250000000, -182.085937500000, 43.523437500000, -4.835937500000, 1490846193
0.153564453125, -0.093750000000, 0.070800781250, -15.882812500000, 22.453125000000, 58.773437500000, 1490846194
0.153564453125, -0.093750000000, 0.070800781250, -15.882812500000, 22.453125000000, 58.773437500000, 1490846194
0.153564453125, -0.093750000000, 0.070800781250, -15.882812500000, 22.453125000000, 58.773437500000, 1490846194
-0.001220703125, -0.149414062500, -0.045410156250, -49.523437500000, -32.414062500000, 17.773437500000, 1490846194
-0.001220703125, -0.149414062500, -0.045410156250, -49.523437500000, -32.414062500000, 17.773437500000, 1490846194
-0.001220703125, -0.149414062500, -0.045410156250, -49.523437500000, -32.414062500000, 17.773437500000, 1490846194
0.050781250000, -1.268798828125, -0.270996093750, -256.000000000000, 75.164062500000, 80.984375000000, 1490846194
0.050781250000, -1.268798828125, -0.270996093750, -256.000000000000, 75.164062500000, 80.984375000000, 1490846194
0.050781250000, -1.268798828125, -0.270996093750, -256.000000000000, 75.164062500000, 80.984375000000, 1490846194
0.139404296875, -1.297363281250, 0.148437500000, 148.546875000000, 83.679687500000, 9.085937500000, 1490846194
0.139404296875, -1.297363281250, 0.148437500000, 148.546875000000, 83.679687500000, 9.085937500000, 1490846194
0.139404296875, -1.297363281250, 0.148437500000, 148.546875000000, 83.679687500000, 9.085937500000, 1490846194
0.139404296875, -1.297363281250, 0.148437500000, 148.546875000000, 83.679687500000, 9.085937500000, 1490846194
0.021240234375, -2.489990234375, -0.514648437500, 253.992187500000, -94.078125000000, -99.257812500000, 1490846194
0.021240234375, -2.489990234375, -0.514648437500, 253.992187500000, -94.078125000000, -99.257812500000, 1490846194
0.021240234375, -2.489990234375, -0.514648437500, 253.992187500000, -94.078125000000, -99.257812500000, 1490846194
2.693115234375, -2.274414062500, 5.488281250000, 253.992187500000, -256.000000000000, -142.671875000000, 1490846194
2.693115234375, -2.274414062500, 5.488281250000, 253.992187500000, -256.000000000000, -142.671875000000, 1490846194
2.693115234375, -2.274414062500, 5.488281250000, 253.992187500000, -256.000000000000, -142.671875000000, 1490846194
0.917724609375, -1.589843750000, 1.281250000000, -236.335937500000, 27.171875000000, 64.351562500000, 1490846194
-0.041992187500, -0.331542968750, -0.071289062500, -59.921875000000, -99.523437500000, 8.359375000000, 1490846194
-0.054443359375, -0.175048828125, -0.026367187500, -59.921875000000, -99.523437500000, 8.359375000000, 1490846194
-0.054443359375, -0.175048828125, -0.026367187500, -59.921875000000, -99.523437500000, 8.359375000000, 1490846194
-0.054443359375, -0.175048828125, -0.026367187500, -59.921875000000, -99.523437500000, 8.359375000000, 1490846194
-0.042236328125, -0.093261718750, -0.075195312500, -36.812500000000, -198.734375000000, 60.250000000000, 1490846194
0.084472656250, -0.050781250000, -0.019775390625, -46.328125000000, -241.765625000000, 58.210937500000, 1490846194
0.084472656250, -0.050781250000, -0.019775390625, -46.328125000000, -241.765625000000, 58.210937500000, 1490846194
0.084472656250, -0.050781250000, -0.019775390625, -46.328125000000, -241.765625000000, 58.210937500000, 1490846194
0.084472656250, -0.050781250000, -0.019775390625, -46.328125000000, -241.765625000000, 58.210937500000, 1490846194
-0.011230468750, -0.166748046875, -0.068359375000, -130.789062500000, -191.398437500000, 68.609375000000, 1490846194
-0.011230468750, -0.166748046875, -0.068359375000, -130.789062500000, -191.398437500000, 68.609375000000, 1490846194
-0.011230468750, -0.166748046875, -0.068359375000, -130.789062500000, -191.398437500000, 68.609375000000, 1490846194
-0.067871093750, -1.441162109375, -0.182617187500, -256.000000000000, -0.015625000000, 93.312500000000, 1490846194
-0.067871093750, -1.441162109375, -0.182617187500, -256.000000000000, -0.015625000000, 93.312500000000, 1490846194
-0.067871093750, -1.441162109375, -0.182617187500, -256.000000000000, -0.015625000000, 93.312500000000, 1490846194
-0.082031250000, -0.643066406250, -0.029296875000, 232.968750000000, 253.992187500000, -23.585937500000, 1490846194
-0.082031250000, -0.643066406250, -0.029296875000, 232.968750000000, 253.992187500000, -23.585937500000, 1490846194
-0.082031250000, -0.643066406250, -0.029296875000, 232.968750000000, 253.992187500000, -23.585937500000, 1490846194
-0.082031250000, -0.643066406250, -0.029296875000, 232.968750000000, 253.992187500000, -23.585937500000, 1490846194
1.238037109375, -2.223144531250, 1.395507812500, 253.992187500000, -256.000000000000, 206.023437500000, 1490846194
1.238037109375, -2.223144531250, 1.395507812500, 253.992187500000, -256.000000000000, 206.023437500000, 1490846194
1.238037109375, -2.223144531250, 1.395507812500, 253.992187500000, -256.000000000000, 206.023437500000, 1490846194
1.238037109375, -2.223144531250, 1.395507812500, 253.992187500000, -256.000000000000, 206.023437500000, 1490846194
1.238037109375, -2.223144531250, 1.395507812500, 253.992187500000, -256.000000000000, 206.023437500000, 1490846194
2.588134765625, -2.342041015625, 5.315429687500, 234.054687500000, -256.000000000000, 156.046875000000, 1490846194
0.735107421875, -0.779541015625, 0.396728515625, -256.000000000000, 253.992187500000, 9.179687500000, 1490846194
0.735107421875, -0.779541015625, 0.396728515625, -256.000000000000, 253.992187500000, 9.179687500000, 1490846194
0.735107421875, -0.779541015625, 0.396728515625, -256.000000000000, 253.992187500000, 9.179687500000, 1490846194
0.194335937500, -0.508300781250, -0.099853515625, -98.812500000000, 133.171875000000, -10.468750000000, 1490846194
0.194335937500, -0.508300781250, -0.099853515625, -98.812500000000, 133.171875000000, -10.468750000000, 1490846194
0.194335937500, -0.508300781250, -0.099853515625, -98.812500000000, 133.171875000000, -10.468750000000, 1490846194
0.194335937500, -0.508300781250, -0.099853515625, -98.812500000000, 133.171875000000, -10.468750000000, 1490846194
0.263183593750, -0.751220703125, -0.101806640625, -17.757812500000, 77.867187500000, 22.117187500000, 1490846194
0.263183593750, -0.751220703125, -0.101806640625, -17.757812500000, 77.867187500000, 22.117187500000, 1490846194
0.263183593750, -0.751220703125, -0.101806640625, -17.757812500000, 77.867187500000, 22.117187500000, 1490846194
0.184570312500, -1.145507812500, -0.243652343750, -76.937500000000, 62.468750000000, 52.414062500000, 1490846194
0.184570312500, -1.145507812500, -0.243652343750, -76.937500000000, 62.468750000000, 52.414062500000, 1490846194
0.184570312500, -1.145507812500, -0.243652343750, -76.937500000000, 62.468750000000, 52.414062500000, 1490846194
0.262207031250, -1.312255859375, -0.105224609375, 75.101562500000, -86.601562500000, 49.937500000000, 1490846194
0.262207031250, -1.312255859375, -0.105224609375, 75.101562500000, -86.601562500000, 49.937500000000, 1490846194
0.262207031250, -1.312255859375, -0.105224609375, 75.101562500000, -86.601562500000, 49.937500000000, 1490846194
0.017578125000, -1.052978515625, -0.059326171875, 154.429687500000, -33.101562500000, -21.710937500000, 1490846194
0.017578125000, -1.052978515625, -0.059326171875, 154.429687500000, -33.101562500000, -21.710937500000, 1490846194
0.017578125000, -1.052978515625, -0.059326171875, 154.429687500000, -33.101562500000, -21.710937500000, 1490846194
0.017578125000, -1.052978515625, -0.059326171875, 154.429687500000, -33.101562500000, -21.710937500000, 1490846194
0.393798828125, -0.774658203125, 0.637695312500, -105.843750000000, -79.953125000000, 4.312500000000, 1490846194
0.393798828125, -0.774658203125, 0.637695312500, -105.843750000000, -79.953125000000, 4.312500000000, 1490846195
0.393798828125, -0.774658203125, 0.637695312500, -105.843750000000, -79.953125000000, 4.312500000000, 1490846195
0.259765625000, -0.627685546875, -0.148437500000, -114.554687500000, 253.992187500000, -17.281250000000, 1490846195
0.259765625000, -0.627685546875, -0.148437500000, -114.554687500000, 253.992187500000, -17.281250000000, 1490846195
0.342529296875, -1.149658203125, -0.207031250000, -70.679687500000, 253.992187500000, 23.820312500000, 1490846195
0.342529296875, -1.149658203125, -0.207031250000, -70.679687500000, 253.992187500000, 23.820312500000, 1490846195
0.342529296875, -1.149658203125, -0.207031250000, -70.679687500000, 253.992187500000, 23.820312500000, 1490846195
0.342529296875, -1.149658203125, -0.207031250000, -70.679687500000, 253.992187500000, 23.820312500000, 1490846195
0.421875000000, -1.119628906250, -0.182617187500, 61.445312500000, -30.343750000000, 42.218750000000, 1490846195
0.421875000000, -1.119628906250, -0.182617187500, 61.445312500000, -30.343750000000, 42.218750000000, 1490846195
0.421875000000, -1.119628906250, -0.182617187500, 61.445312500000, -30.343750000000, 42.218750000000, 1490846195
0.421875000000, -1.119628906250, -0.182617187500, 61.445312500000, -30.343750000000, 42.218750000000, 1490846195
0.276855468750, -0.963378906250, -0.121093750000, 39.828125000000, -78.023437500000, 28.773437500000, 1490846195
0.276855468750, -0.963378906250, -0.121093750000, 39.828125000000, -78.023437500000, 28.773437500000, 1490846195
0.276855468750, -0.963378906250, -0.121093750000, 39.828125000000, -78.023437500000, 28.773437500000, 1490846195
0.130859375000, -1.277343750000, 0.820800781250, 253.992187500000, -53.890625000000, -34.835937500000, 1490846195
0.130859375000, -1.277343750000, 0.820800781250, 253.992187500000, -53.890625000000, -34.835937500000, 1490846195
0.130859375000, -1.277343750000, 0.820800781250, 253.992187500000, -53.890625000000, -34.835937500000, 1490846195
0.437500000000, -0.624755859375, 0.574951171875, -101.617187500000, -5.187500000000, -14.742187500000, 1490846195
0.437500000000, -0.624755859375, 0.574951171875, -101.617187500000, -5.187500000000, -14.742187500000, 1490846195
0.437500000000, -0.624755859375, 0.574951171875, -101.617187500000, -5.187500000000, -14.742187500000, 1490846195
0.093505859375, -0.871337890625, -0.077880859375, -80.976562500000, 251.515625000000, -34.601562500000, 1490846195
0.093505859375, -0.871337890625, -0.077880859375, -80.976562500000, 251.515625000000, -34.601562500000, 1490846195
0.093505859375, -0.871337890625, -0.077880859375, -80.976562500000, 251.515625000000, -34.601562500000, 1490846195
0.093505859375, -0.871337890625, -0.077880859375, -80.976562500000, 251.515625000000, -34.601562500000, 1490846195
0.177001953125, -0.939697265625, -0.202636718750, 10.351562500000, -49.562500000000, -12.140625000000, 1490846195
0.177001953125, -0.939697265625, -0.202636718750, 10.351562500000, -49.562500000000, -12.140625000000, 1490846195
0.177001953125, -0.939697265625, -0.202636718750, 10.351562500000, -49.562500000000, -12.140625000000, 1490846195
0.347900390625, -1.065917968750, 0.331054687500, 76.070312500000, -93.695312500000, -27.937500000000, 1490846195
0.347900390625, -1.065917968750, 0.331054687500, 76.070312500000, -93.695312500000, -27.937500000000, 1490846195
0.347900390625, -1.065917968750, 0.331054687500, 76.070312500000, -93.695312500000, -27.937500000000, 1490846195
0.304443359375, -1.165771484375, 0.151855468750, -66.289062500000, 41.023437500000, -27.710937500000, 1490846195
0.304443359375, -1.165771484375, 0.151855468750, -66.289062500000, 41.023437500000, -27.710937500000, 1490846195
0.304443359375, -1.165771484375, 0.151855468750, -66.289062500000, 41.023437500000, -27.710937500000, 1490846195
0.304443359375, -1.165771484375, 0.151855468750, -66.289062500000, 41.023437500000, -27.710937500000, 1490846195
0.239746093750, -1.179443359375, -0.049072265625, -23.890625000000, 51.890625000000, -35.507812500000, 1490846195
0.239746093750, -1.179443359375, -0.049072265625, -23.890625000000, 51.890625000000, -35.507812500000, 1490846195
0.239746093750, -1.179443359375, -0.049072265625, -23.890625000000, 51.890625000000, -35.507812500000, 1490846195
0.204589843750, -1.091064453125, -0.195556640625, 8.257812500000, -16.468750000000, -18.343750000000, 1490846195
0.204589843750, -1.091064453125, -0.195556640625, 8.257812500000, -16.468750000000, -18.343750000000, 1490846195
0.204589843750, -1.091064453125, -0.195556640625, 8.257812500000, -16.468750000000, -18.343750000000, 1490846195
0.080322265625, -0.770263671875, -0.026367187500, -36.960937500000, 22.632812500000, 7.429687500000, 1490846195
0.080322265625, -0.770263671875, -0.026367187500, -36.960937500000, 22.632812500000, 7.429687500000, 1490846195
0.080322265625, -0.770263671875, -0.026367187500, -36.960937500000, 22.632812500000, 7.429687500000, 1490846195
-0.003906250000, -0.919433593750, -0.143554687500, -26.000000000000, 53.765625000000, 15.453125000000, 1490846195
-0.003906250000, -0.919433593750, -0.143554687500, -26.000000000000, 53.765625000000, 15.453125000000, 1490846195
-0.003906250000, -0.919433593750, -0.143554687500, -26.000000000000, 53.765625000000, 15.453125000000, 1490846195
-0.003906250000, -0.919433593750, -0.143554687500, -26.000000000000, 53.765625000000, 15.453125000000, 1490846195
-0.003906250000, -0.919433593750, -0.143554687500, -26.000000000000, 53.765625000000, 15.453125000000, 1490846195
-0.000244140625, -1.088134765625, -0.101074218750, -38.554687500000, 10.656250000000, 0.078125000000, 1490846195
-0.040771484375, -1.196044921875, -0.036865234375, -24.406250000000, -24.140625000000, -8.367187500000, 1490846195
-0.040771484375, -1.196044921875, -0.036865234375, -24.406250000000, -24.140625000000, -8.367187500000, 1490846195
-0.040771484375, -1.196044921875, -0.036865234375, -24.406250000000, -24.140625000000, -8.367187500000, 1490846195
-0.040771484375, -1.196044921875, -0.036865234375, -24.406250000000, -24.140625000000, -8.367187500000, 1490846195
-0.343505859375, -1.062744140625, -0.064453125000, 47.812500000000, -106.132812500000, -8.554687500000, 1490846195
-0.343505859375, -1.062744140625, -0.064453125000, 47.812500000000, -106.132812500000, -8.554687500000, 1490846195
-0.343505859375, -1.062744140625, -0.064453125000, 47.812500000000, -106.132812500000, -8.554687500000, 1490846195
0.067626953125, -0.914062500000, 0.151611328125, 18.859375000000, -83.257812500000, -9.312500000000, 1490846195
0.067626953125, -0.914062500000, 0.151611328125, 18.859375000000, -83.257812500000, -9.312500000000, 1490846195
0.067626953125, -0.914062500000, 0.151611328125, 18.859375000000, -83.257812500000, -9.312500000000, 1490846195
0.217773437500, -0.857666015625, 0.080566406250, -17.507812500000, 51.976562500000, -13.421875000000, 1490846195
0.217773437500, -0.857666015625, 0.080566406250, -17.507812500000, 51.976562500000, -13.421875000000, 1490846195
0.217773437500, -0.857666015625, 0.080566406250, -17.507812500000, 51.976562500000, -13.421875000000, 1490846195
0.217773437500, -0.857666015625, 0.080566406250, -17.507812500000, 51.976562500000, -13.421875000000, 1490846195
0.035156250000, -0.839599609375, -0.009521484375, -1.390625000000, 34.890625000000, -14.125000000000, 1490846195
0.035156250000, -0.839599609375, -0.009521484375, -1.390625000000, 34.890625000000, -14.125000000000, 1490846195
0.035156250000, -0.839599609375, -0.009521484375, -1.390625000000, 34.890625000000, -14.125000000000, 1490846195
-0.080566406250, -0.851074218750, 0.119384765625, 24.234375000000, 27.742187500000, -18.445312500000, 1490846196
-0.080566406250, -0.851074218750, 0.119384765625, 24.234375000000, 27.742187500000, -18.445312500000, 1490846196
-0.080566406250, -0.851074218750, 0.119384765625, 24.234375000000, 27.742187500000, -18.445312500000, 1490846196
-0.047363281250, -0.936279296875, 0.125488281250, 18.687500000000, 17.531250000000, -15.484375000000, 1490846196
0.127685546875, -1.039306640625, 0.266601562500, -11.000000000000, 8.726562500000, -12.679687500000, 1490846196
0.058837890625, -1.134277343750, 0.183593750000, -13.390625000000, 6.132812500000, -10.492187500000, 1490846196
0.058837890625, -1.134277343750, 0.183593750000, -13.390625000000, 6.132812500000, -10.492187500000, 1490846196
0.058837890625, -1.134277343750, 0.183593750000, -13.390625000000, 6.132812500000, -10.492187500000, 1490846196
0.058837890625, -1.134277343750, 0.183593750000, -13.539062500000, 17.890625000000, -3.828125000000, 1490846196
0.194580078125, -1.275634765625, 0.051025390625, -20.445312500000, 25.210937500000, -2.984375000000, 1490846196
0.194580078125, -1.275634765625, 0.051025390625, -20.445312500000, 25.210937500000, -2.984375000000, 1490846196
0.194580078125, -1.275634765625, 0.051025390625, -20.445312500000, 25.210937500000, -2.984375000000, 1490846196
0.194580078125, -1.275634765625, 0.051025390625, -20.445312500000, 25.210937500000, -2.984375000000, 1490846196
0.196533203125, -1.406005859375, -0.015380859375, -18.250000000000, 51.710937500000, -2.210937500000, 1490846196
0.196533203125, -1.406005859375, -0.015380859375, -18.250000000000, 51.710937500000, -2.210937500000, 1490846196
0.196533203125, -1.406005859375, -0.015380859375, -18.250000000000, 51.710937500000, -2.210937500000, 1490846196
0.121582031250, -1.056396484375, -0.082275390625, 18.046875000000, 26.359375000000, 4.562500000000, 1490846196
0.121582031250, -1.056396484375, -0.082275390625, 18.046875000000, 26.359375000000, 4.562500000000, 1490846196
0.216796875000, -0.773925781250, 0.083984375000, -6.695312500000, 56.734375000000, 13.937500000000, 1490846196
0.216796875000, -0.773925781250, 0.083984375000, -6.695312500000, 56.734375000000, 13.937500000000, 1490846196
0.036376953125, -0.734863281250, -0.038330078125, -44.304687500000, 58.617187500000, 14.187500000000, 1490846196
0.036376953125, -0.734863281250, -0.038330078125, -44.304687500000, 58.617187500000, 14.187500000000, 1490846196
0.036376953125, -0.734863281250, -0.038330078125, -44.304687500000, 58.617187500000, 14.187500000000, 1490846196
-0.073486328125, -0.905517578125, -0.064453125000, -59.812500000000, 39.953125000000, 18.906250000000, 1490846196
-0.067138671875, -0.997070312500, -0.193359375000, -65.460937500000, 57.257812500000, 26.789062500000, 1490846196
-0.067138671875, -0.997070312500, -0.193359375000, -65.460937500000, 57.257812500000, 26.789062500000, 1490846196
-0.067138671875, -0.997070312500, -0.193359375000, -65.460937500000, 57.257812500000, 26.789062500000, 1490846196
-0.067138671875, -0.997070312500, -0.193359375000, -65.460937500000, 57.257812500000, 26.789062500000, 1490846196
-0.067138671875, -0.997070312500, -0.193359375000, -65.460937500000, 57.257812500000, 26.789062500000, 1490846196
0.118896484375, -1.129150390625, -0.108398437500, 22.835937500000, 100.632812500000, -9.476562500000, 1490846196
0.118896484375, -1.129150390625, -0.108398437500, 22.835937500000, 100.632812500000, -9.476562500000, 1490846196
0.118896484375, -1.129150390625, -0.108398437500, 22.835937500000, 100.632812500000, -9.476562500000, 1490846196
0.118896484375, -1.129150390625, -0.108398437500, 22.835937500000, 100.632812500000, -9.476562500000, 1490846196
0.149169921875, -1.025634765625, -0.033203125000, 69.257812500000, 36.937500000000, -36.054687500000, 1490846196
0.149169921875, -1.025634765625, -0.033203125000, 69.257812500000, 36.937500000000, -36.054687500000, 1490846196
0.149169921875, -1.025634765625, -0.033203125000, 69.257812500000, 36.937500000000, -36.054687500000, 1490846196
-0.065185546875, -0.838378906250, 0.199218750000, -57.570312500000, -63.640625000000, 2.015625000000, 1490846196
-0.065185546875, -0.838378906250, 0.199218750000, -57.570312500000, -63.640625000000, 2.015625000000, 1490846196
-0.065185546875, -0.838378906250, 0.199218750000, -57.570312500000, -63.640625000000, 2.015625000000, 1490846196
0.118652343750, -1.074707031250, 0.073974609375, -51.085937500000, -23.546875000000, 4.335937500000, 1490846196
0.090332031250, -1.014892578125, 0.015136718750, -31.093750000000, -11.218750000000, -12.156250000000, 1490846196
0.090332031250, -1.014892578125, 0.015136718750, -31.093750000000, -11.218750000000, -12.156250000000, 1490846196
0.090332031250, -1.014892578125, 0.015136718750, -31.093750000000, -11.218750000000, -12.156250000000, 1490846196
0.090332031250, -1.014892578125, 0.015136718750, -31.093750000000, -11.218750000000, -12.156250000000, 1490846196
0.180175781250, -1.056640625000, -0.007812500000, 3.109375000000, -16.531250000000, -13.804687500000, 1490846196
0.180175781250, -1.056640625000, -0.007812500000, 3.109375000000, -16.531250000000, -13.804687500000, 1490846196
0.180175781250, -1.056640625000, -0.007812500000, 3.109375000000, -16.531250000000, -13.804687500000, 1490846196
0.180175781250, -1.056640625000, -0.007812500000, 3.109375000000, -16.531250000000, -13.804687500000, 1490846196
0.180175781250, -1.056640625000, -0.007812500000, 3.109375000000, -16.531250000000, -13.804687500000, 1490846196
0.153076171875, -1.022949218750, 0.193115234375, 8.781250000000, -17.757812500000, -17.796875000000, 1490846196
0.153076171875, -1.022949218750, 0.193115234375, 8.781250000000, -17.757812500000, -17.796875000000, 1490846196
0.153076171875, -1.022949218750, 0.193115234375, 8.781250000000, -17.757812500000, -17.796875000000, 1490846196
0.043212890625, -1.049804687500, 0.198242187500, -33.421875000000, -19.234375000000, -15.632812500000, 1490846196
0.043212890625, -1.049804687500, 0.198242187500, -33.421875000000, -19.234375000000, -15.632812500000, 1490846196
0.043212890625, -1.049804687500, 0.198242187500, -33.421875000000, -19.234375000000, -15.632812500000, 1490846196
0.143066406250, -1.442382812500, 0.079101562500, -24.000000000000, 3.687500000000, -26.562500000000, 1490846196
0.143066406250, -1.442382812500, 0.079101562500, -24.000000000000, 3.687500000000, -26.562500000000, 1490846196
0.143066406250, -1.442382812500, 0.079101562500, -24.000000000000, 3.687500000000, -26.562500000000, 1490846196
0.143066406250, -1.442382812500, 0.079101562500, -24.000000000000, 3.687500000000, -26.562500000000, 1490846196
0.098388671875, -0.956054687500, -0.074462890625, -11.765625000000, 11.906250000000, -12.968750000000, 1490846196
0.098388671875, -0.956054687500, -0.074462890625, -11.765625000000, 11.906250000000, -12.968750000000, 1490846196
0.098388671875, -0.956054687500, -0.074462890625, -11.765625000000, 11.906250000000, -12.968750000000, 1490846196
-0.074707031250, -0.672607421875, -0.018066406250, -23.500000000000, -32.265625000000, 12.773437500000, 1490846196
-0.074707031250, -0.672607421875, -0.018066406250, -23.500000000000, -32.265625000000, 12.773437500000, 1490846196
-0.074707031250, -0.672607421875, -0.018066406250, -23.500000000000, -32.265625000000, 12.773437500000, 1490846196
-0.060302734375, -0.968505859375, 0.010253906250, -23.507812500000, -36.343750000000, -5.328125000000, 1490846196
-0.060302734375, -0.968505859375, 0.010253906250, -23.507812500000, -36.343750000000, -5.328125000000, 1490846197
-0.060302734375, -0.968505859375, 0.010253906250, -23.507812500000, -36.343750000000, -5.328125000000, 1490846197
-0.199707031250, -0.721191406250, 0.062744140625, -27.976562500000, -98.304687500000, -0.039062500000, 1490846197
-0.199707031250, -0.721191406250, 0.062744140625, -27.976562500000, -98.304687500000, -0.039062500000, 1490846197
-0.199707031250, -0.721191406250, 0.062744140625, -27.976562500000, -98.304687500000, -0.039062500000, 1490846197
-0.199707031250, -0.721191406250, 0.062744140625, -27.976562500000, -98.304687500000, -0.039062500000, 1490846197
-0.281494140625, -1.087158203125, 0.065673828125, 23.023437500000, -133.023437500000, -11.039062500000, 1490846197
-0.281494140625, -1.087158203125, 0.065673828125, 23.023437500000, -133.023437500000, -11.039062500000, 1490846197
-0.281494140625, -1.087158203125, 0.065673828125, 23.023437500000, -133.023437500000, -11.039062500000, 1490846197
0.162353515625, -1.081298828125, 0.342529296875, -7.085937500000, -54.945312500000, 20.492187500000, 1490846197
0.058837890625, -1.011718750000, 0.095947265625, -27.507812500000, 14.812500000000, 26.695312500000, 1490846197
0.058837890625, -1.011718750000, 0.095947265625, -27.507812500000, 14.812500000000, 26.695312500000, 1490846197
0.090332031250, -0.900878906250, 0.031250000000, -9.039062500000, 77.632812500000, 22.421875000000, 1490846197
0.090332031250, -0.900878906250, 0.031250000000, -9.039062500000, 77.632812500000, 22.421875000000, 1490846197
0.090332031250, -0.900878906250, 0.031250000000, -9.039062500000, 77.632812500000, 22.421875000000, 1490846197
0.090332031250, -0.900878906250, 0.031250000000, -9.039062500000, 77.632812500000, 22.421875000000, 1490846197
0.090332031250, -0.900878906250, 0.031250000000, -9.039062500000, 77.632812500000, 22.421875000000, 1490846197
0.090332031250, -0.900878906250, 0.031250000000, -9.039062500000, 77.632812500000, 22.421875000000, 1490846197
0.090332031250, -0.900878906250, 0.031250000000, -9.039062500000, 77.632812500000, 22.421875000000, 1490846197
0.090332031250, -0.900878906250, 0.031250000000, -9.039062500000, 77.632812500000, 22.421875000000, 1490846197
0.090332031250, -0.900878906250, 0.031250000000, -9.039062500000, 77.632812500000, 22.421875000000, 1490846197
0.090332031250, -0.900878906250, 0.031250000000, -9.039062500000, 77.632812500000, 22.421875000000, 1490846197
-0.118896484375, -1.026123046875, 0.270263671875, 19.265625000000, 61.164062500000, -6.843750000000, 1490846197
-0.118896484375, -1.026123046875, 0.270263671875, 19.265625000000, 61.164062500000, -6.843750000000, 1490846197
-0.118896484375, -1.026123046875, 0.270263671875, 19.265625000000, 61.164062500000, -6.843750000000, 1490846197
-0.118896484375, -1.026123046875, 0.270263671875, 19.265625000000, 61.164062500000, -6.843750000000, 1490846197
-0.118896484375, -1.026123046875, 0.270263671875, 19.265625000000, 61.164062500000, -6.843750000000, 1490846197
-0.118896484375, -1.026123046875, 0.270263671875, 19.265625000000, 61.164062500000, -6.843750000000, 1490846197
0.084960937500, -1.023437500000, 0.036132812500, -3.054687500000, 57.750000000000, -2.343750000000, 1490846197
0.084960937500, -1.023437500000, 0.036132812500, -3.054687500000, 57.750000000000, -2.343750000000, 1490846197
0.084960937500, -1.023437500000, 0.036132812500, -3.054687500000, 57.750000000000, -2.343750000000, 1490846197
0.084960937500, -1.023437500000, 0.036132812500, -3.054687500000, 57.750000000000, -2.343750000000, 1490846197
-0.000976562500, -1.035644531250, 0.146728515625, 3.625000000000, 27.375000000000, 5.523437500000, 1490846197
-0.000976562500, -1.035644531250, 0.146728515625, 3.625000000000, 27.375000000000, 5.523437500000, 1490846197
-0.000976562500, -1.035644531250, 0.146728515625, 3.625000000000, 27.375000000000, 5.523437500000, 1490846197
0.100830078125, -1.080322265625, 0.105957031250, 13.171875000000, 10.289062500000, 12.054687500000, 1490846197
0.100830078125, -1.080322265625, 0.105957031250, 13.171875000000, 10.289062500000, 12.054687500000, 1490846197
0.100830078125, -1.080322265625, 0.105957031250, 13.171875000000, 10.289062500000, 12.054687500000, 1490846197
0.056640625000, -1.217773437500, 0.056640625000, -28.945312500000, 68.367187500000, 18.117187500000, 1490846197
0.056640625000, -1.217773437500, 0.056640625000, -28.945312500000, 68.367187500000, 18.117187500000, 1490846197
0.056640625000, -1.217773437500, 0.056640625000, -28.945312500000, 68.367187500000, 18.117187500000, 1490846197
0.134521484375, -1.140136718750, -0.050292968750, -2.398437500000, 44.812500000000, 20.570312500000, 1490846197
0.134521484375, -1.140136718750, -0.050292968750, -2.398437500000, 44.812500000000, 20.570312500000, 1490846197
0.134521484375, -1.140136718750, -0.050292968750, -2.398437500000, 44.812500000000, 20.570312500000, 1490846197
0.134521484375, -1.140136718750, -0.050292968750, -2.398437500000, 44.812500000000, 20.570312500000, 1490846197
0.176269531250, -0.896972656250, 0.076660156250, -2.523437500000, 43.265625000000, 23.195312500000, 1490846197
0.176269531250, -0.896972656250, 0.076660156250, -2.523437500000, 43.265625000000, 23.195312500000, 1490846197
0.176269531250, -0.896972656250, 0.076660156250, -2.523437500000, 43.265625000000, 23.195312500000, 1490846197
0.204833984375, -0.821777343750, -0.078369140625, -17.804687500000, 59.187500000000, 46.757812500000, 1490846197
0.204833984375, -0.821777343750, -0.078369140625, -17.804687500000, 59.187500000000, 46.757812500000, 1490846197
0.204833984375, -0.821777343750, -0.078369140625, -17.804687500000, 59.187500000000, 46.757812500000, 1490846197
0.242431640625, -0.934570312500, -0.126464843750, -44.109375000000, 102.054687500000, 43.843750000000, 1490846197
0.242431640625, -0.934570312500, -0.126464843750, -44.109375000000, 102.054687500000, 43.843750000000, 1490846197
0.242431640625, -0.934570312500, -0.126464843750, -44.109375000000, 102.054687500000, 43.843750000000, 1490846197
0.201171875000, -1.172363281250, -0.153076171875, 2.070312500000, 95.578125000000, 15.554687500000, 1490846197
0.201171875000, -1.172363281250, -0.153076171875, 2.070312500000, 95.578125000000, 15.554687500000, 1490846197
0.201171875000, -1.172363281250, -0.153076171875, 2.070312500000, 95.578125000000, 15.554687500000, 1490846197
-0.081787109375, -1.040039062500, -0.090820312500, 38.937500000000, -19.406250000000, 2.382812500000, 1490846197
-0.081787109375, -1.040039062500, -0.090820312500, 38.937500000000, -19.406250000000, 2.382812500000, 1490846197
-0.081787109375, -1.040039062500, -0.090820312500, 38.937500000000, -19.406250000000, 2.382812500000, 1490846197
-0.081787109375, -1.040039062500, -0.090820312500, 38.937500000000, -19.406250000000, 2.382812500000, 1490846197
0.061767578125, -1.065917968750, 0.325195312500, 91.296875000000, -72.585937500000, -22.140625000000, 1490846197
0.061767578125, -1.065917968750, 0.325195312500, 91.296875000000, -72.585937500000, -22.140625000000, 1490846197
0.061767578125, -1.065917968750, 0.325195312500, 91.296875000000, -72.585937500000, -22.140625000000, 1490846197
0.404785156250, -0.835937500000, 0.275146484375, -31.453125000000, -2.750000000000, -5.914062500000, 1490846197
0.404785156250, -0.835937500000, 0.275146484375, -31.453125000000, -2.750000000000, -5.914062500000, 1490846197
0.404785156250, -0.835937500000, 0.275146484375, -31.453125000000, -2.750000000000, -5.914062500000, 1490846197
0.237792968750, -0.805664062500, -0.138916015625, -29.640625000000, 14.218750000000, -7.421875000000, 1490846198
0.237792968750, -0.805664062500, -0.138916015625, -29.640625000000, 14.218750000000, -7.421875000000, 1490846198
0.237792968750, -0.805664062500, -0.138916015625, -29.640625000000, 14.218750000000, -7.421875000000, 1490846198
0.237792968750, -0.805664062500, -0.138916015625, -29.640625000000, 14.218750000000, -7.421875000000, 1490846198
