ACC_X,ACC_Y,ACC_Z,G_X,G_Y,G_Z,Unix Time
0.030273437500, -0.910400390625, 0.402099609375, 5.398437500000, -2.015625000000, 1.585937500000, 1490933394
0.030273437500, -0.910400390625, 0.402099609375, 5.398437500000, -2.015625000000, 1.585937500000, 1490933394
0.030273437500, -0.910400390625, 0.402099609375, 5.398437500000, -2.015625000000, 1.585937500000, 1490933394
-0.203613281250, -0.744384765625, 0.466064453125, 14.257812500000, 27.296875000000, 26.640625000000, 1490933394
-0.203613281250, -0.744384765625, 0.466064453125, 14.257812500000, 27.296875000000, 26.640625000000, 1490933394
-0.147460937500, -0.950683593750, 0.416503906250, -20.015625000000, -14.015625000000, -9.328125000000, 1490933394
-0.147460937500, -0.950683593750, 0.416503906250, -20.015625000000, -14.015625000000, -9.328125000000, 1490933394
-0.147460937500, -0.950683593750, 0.416503906250, -20.015625000000, -14.015625000000, -9.328125000000, 1490933394
-0.147460937500, -0.950683593750, 0.416503906250, -20.015625000000, -14.015625000000, -9.328125000000, 1490933394
-0.147460937500, -0.950683593750, 0.416503906250, -20.015625000000, -14.015625000000, -9.328125000000, 1490933394
0.002441406250, -0.969482421875, 0.454589843750, -36.757812500000, 13.500000000000, -4.648437500000, 1490933394
0.002441406250, -0.969482421875, 0.454589843750, -36.757812500000, 13.500000000000, -4.648437500000, 1490933394
0.002441406250, -0.969482421875, 0.454589843750, -36.757812500000, 13.500000000000, -4.648437500000, 1490933394
-0.072509765625, -0.927734375000, 0.531494140625, 7.195312500000, 13.390625000000, -2.210937500000, 1490933394
-0.072509765625, -0.927734375000, 0.531494140625, 7.195312500000, 13.390625000000, -2.210937500000, 1490933394
-0.072509765625, -0.927734375000, 0.531494140625, 7.195312500000, 13.390625000000, -2.210937500000, 1490933394
-0.106689453125, -0.914794921875, 0.441162109375, -15.039062500000, -6.429687500000, -6.367187500000, 1490933394
-0.106689453125, -0.914794921875, 0.441162109375, -15.039062500000, -6.429687500000, -6.367187500000, 1490933394
-0.106689453125, -0.914794921875, 0.441162109375, -15.039062500000, -6.429687500000, -6.367187500000, 1490933394
-0.106689453125, -0.914794921875, 0.441162109375, -15.039062500000, -6.429687500000, -6.367187500000, 1490933394
-0.026611328125, -0.781982421875, 0.535156250000, 2.625000000000, 12.125000000000, -8.023437500000, 1490933394
-0.026611328125, -0.781982421875, 0.535156250000, 2.625000000000, 12.125000000000, -8.023437500000, 1490933394
-0.026611328125, -0.781982421875, 0.535156250000, 2.625000000000, 12.125000000000, -8.023437500000, 1490933394
-0.137939453125, -0.797363281250, 0.507568359375, -12.156250000000, -12.484375000000, -9.421875000000, 1490933394
-0.137939453125, -0.797363281250, 0.507568359375, -12.156250000000, -12.484375000000, -9.421875000000, 1490933394
-0.137939453125, -0.797363281250, 0.507568359375, -12.156250000000, -12.484375000000, -9.421875000000, 1490933394
-0.000976562500, -0.849609375000, 0.376708984375, -11.914062500000, -18.421875000000, -17.125000000000, 1490933394
-0.000976562500, -0.849609375000, 0.376708984375, -11.914062500000, -18.421875000000, -17.125000000000, 1490933394
-0.000976562500, -0.849609375000, 0.376708984375, -11.914062500000, -18.421875000000, -17.125000000000, 1490933394
-0.011718750000, -0.878662109375, 0.443359375000, 0.335937500000, 9.195312500000, -13.250000000000, 1490933394
-0.011718750000, -0.878662109375, 0.443359375000, 0.335937500000, 9.195312500000, -13.250000000000, 1490933394
-0.011718750000, -0.878662109375, 0.443359375000, 0.335937500000, 9.195312500000, -13.250000000000, 1490933394
-0.034912109375, -1.112792968750, 0.511718750000, -22.429687500000, -3.250000000000, 5.632812500000, 1490933394
-0.170410156250, -1.035400390625, 0.337158203125, -24.460937500000, 13.031250000000, 6.257812500000, 1490933394
-0.170410156250, -1.035400390625, 0.337158203125, -24.460937500000, 13.031250000000, 6.257812500000, 1490933394
-0.170410156250, -1.035400390625, 0.337158203125, -24.460937500000, 13.031250000000, 6.257812500000, 1490933394
0.126708984375, -0.892333984375, 0.582519531250, 31.203125000000, -4.242187500000, -14.703125000000, 1490933394
0.126708984375, -0.892333984375, 0.582519531250, 31.203125000000, -4.242187500000, -14.703125000000, 1490933394
0.126708984375, -0.892333984375, 0.582519531250, 31.203125000000, -4.242187500000, -14.703125000000, 1490933394
-0.144287109375, -0.880615234375, 0.477294921875, -21.265625000000, 3.398437500000, -10.554687500000, 1490933394
-0.144287109375, -0.880615234375, 0.477294921875, -21.265625000000, 3.398437500000, -10.554687500000, 1490933394
-0.144287109375, -0.880615234375, 0.477294921875, -21.265625000000, 3.398437500000, -10.554687500000, 1490933394
-0.025390625000, -0.913818359375, 0.473876953125, -5.382812500000, -9.070312500000, -12.335937500000, 1490933394
-0.025390625000, -0.913818359375, 0.473876953125, -5.382812500000, -9.070312500000, -12.335937500000, 1490933394
-0.025390625000, -0.913818359375, 0.473876953125, -5.382812500000, -9.070312500000, -12.335937500000, 1490933394
-0.025390625000, -0.913818359375, 0.473876953125, -5.382812500000, -9.070312500000, -12.335937500000, 1490933394
-0.086425781250, -0.856933593750, 0.522949218750, -6.171875000000, -5.773437500000, -12.757812500000, 1490933394
-0.086425781250, -0.856933593750, 0.522949218750, -6.171875000000, -5.773437500000, -12.757812500000, 1490933394
-0.086425781250, -0.856933593750, 0.522949218750, -6.171875000000, -5.773437500000, -12.757812500000, 1490933394
-0.097167968750, -0.845214843750, 0.503662109375, -3.679687500000, -1.835937500000, -6.492187500000, 1490933394
-0.097167968750, -0.845214843750, 0.503662109375, -3.679687500000, -1.835937500000, -6.492187500000, 1490933394
-0.097167968750, -0.845214843750, 0.503662109375, -3.679687500000, -1.835937500000, -6.492187500000, 1490933395
-0.086181640625, -0.801757812500, 0.414062500000, -11.906250000000, -6.210937500000, -6.898437500000, 1490933395
-0.086181640625, -0.801757812500, 0.414062500000, -11.906250000000, -6.210937500000, -6.898437500000, 1490933395
-0.086181640625, -0.801757812500, 0.414062500000, -11.906250000000, -6.210937500000, -6.898437500000, 1490933395
-0.042724609375, -0.805908203125, 0.516601562500, 12.093750000000, 12.875000000000, -8.125000000000, 1490933395
-0.042724609375, -0.805908203125, 0.516601562500, 12.093750000000, 12.875000000000, -8.125000000000, 1490933395
-0.042724609375, -0.805908203125, 0.516601562500, 12.093750000000, 12.875000000000, -8.125000000000, 1490933395
-0.042724609375, -0.805908203125, 0.516601562500, 12.093750000000, 12.875000000000, -8.125000000000, 1490933395
-0.054931640625, -0.888183593750, 0.460937500000, -8.703125000000, 10.421875000000, 1.687500000000, 1490933395
-0.054931640625, -0.888183593750, 0.460937500000, -8.703125000000, 10.421875000000, 1.687500000000, 1490933395
-0.054931640625, -0.888183593750, 0.460937500000, -8.703125000000, 10.421875000000, 1.687500000000, 1490933395
-0.034423828125, -0.873291015625, 0.351562500000, -6.460937500000, 6.570312500000, 6.218750000000, 1490933395
-0.034423828125, -0.873291015625, 0.351562500000, -6.460937500000, 6.570312500000, 6.218750000000, 1490933395
-0.034423828125, -0.873291015625, 0.351562500000, -6.460937500000, 6.570312500000, 6.218750000000, 1490933395
-0.192138671875, -0.870849609375, 0.372070312500, -2.750000000000, 11.929687500000, 5.156250000000, 1490933395
-0.192138671875, -0.870849609375, 0.372070312500, -2.750000000000, 11.929687500000, 5.156250000000, 1490933395
-0.192138671875, -0.870849609375, 0.372070312500, -2.750000000000, 11.929687500000, 5.156250000000, 1490933395
-0.051025390625, -0.912597656250, 0.554931640625, -1.859375000000, 15.781250000000, 11.500000000000, 1490933395
-0.051025390625, -0.912597656250, 0.554931640625, -1.859375000000, 15.781250000000, 11.500000000000, 1490933395
-0.051025390625, -0.912597656250, 0.554931640625, -1.859375000000, 15.781250000000, 11.500000000000, 1490933395
-0.051025390625, -0.912597656250, 0.554931640625, -1.859375000000, 15.781250000000, 11.500000000000, 1490933395
-0.115966796875, -0.936035156250, 0.492675781250, -7.351562500000, -7.140625000000, -9.023437500000, 1490933395
-0.115966796875, -0.936035156250, 0.492675781250, -7.351562500000, -7.140625000000, -9.023437500000, 1490933395
-0.115966796875, -0.936035156250, 0.492675781250, -7.351562500000, -7.140625000000, -9.023437500000, 1490933395
0.010986328125, -0.964843750000, 0.441894531250, -41.710937500000, 3.945312500000, 12.312500000000, 1490933395
0.010986328125, -0.964843750000, 0.441894531250, -41.710937500000, 3.945312500000, 12.312500000000, 1490933395
0.010986328125, -0.964843750000, 0.441894531250, -41.710937500000, 3.945312500000, 12.312500000000, 1490933395
-0.138916015625, -0.811279296875, 0.463867187500, 20.414062500000, 8.328125000000, -8.546875000000, 1490933395
-0.138916015625, -0.811279296875, 0.463867187500, 20.414062500000, 8.328125000000, -8.546875000000, 1490933395
-0.138916015625, -0.811279296875, 0.463867187500, 20.414062500000, 8.328125000000, -8.546875000000, 1490933395
-0.113525390625, -0.970458984375, 0.406982421875, -12.828125000000, 17.117187500000, 0.562500000000, 1490933395
-0.113525390625, -0.970458984375, 0.406982421875, -12.828125000000, 17.117187500000, 0.562500000000, 1490933395
-0.113525390625, -0.970458984375, 0.406982421875, -12.828125000000, 17.117187500000, 0.562500000000, 1490933395
-0.113525390625, -0.970458984375, 0.406982421875, -12.828125000000, 17.117187500000, 0.562500000000, 1490933395
-0.164306640625, -0.745849609375, 0.427490234375, -3.679687500000, 1.312500000000, 1.953125000000, 1490933395
-0.164306640625, -0.745849609375, 0.427490234375, -3.679687500000, 1.312500000000, 1.953125000000, 1490933395
-0.164306640625, -0.745849609375, 0.427490234375, -3.679687500000, 1.312500000000, 1.953125000000, 1490933395
-0.128417968750, -0.958251953125, 0.374023437500, -7.195312500000, 0.398437500000, -7.140625000000, 1490933395
-0.128417968750, -0.958251953125, 0.374023437500, -7.195312500000, 0.398437500000, -7.140625000000, 1490933395
-0.128417968750, -0.958251953125, 0.374023437500, -7.195312500000, 0.398437500000, -7.140625000000, 1490933395
-0.190917968750, -0.853515625000, 0.580078125000, 2.734375000000, 14.296875000000, -0.460937500000, 1490933395
-0.190917968750, -0.853515625000, 0.580078125000, 2.734375000000, 14.296875000000, -0.460937500000, 1490933395
-0.190917968750, -0.853515625000, 0.580078125000, 2.734375000000, 14.296875000000, -0.460937500000, 1490933395
-0.024902343750, -0.917724609375, 0.517089843750, -9.046875000000, 6.117187500000, 3.414062500000, 1490933395
-0.024902343750, -0.917724609375, 0.517089843750, -9.046875000000, 6.117187500000, 3.414062500000, 1490933395
-0.024902343750, -0.917724609375, 0.517089843750, -9.046875000000, 6.117187500000, 3.414062500000, 1490933395
-0.024902343750, -0.917724609375, 0.517089843750, -9.046875000000, 6.117187500000, 3.414062500000, 1490933395
-0.149902343750, -0.847167968750, 0.504150390625, 0.773437500000, 8.710937500000, 1.531250000000, 1490933395
-0.149902343750, -0.847167968750, 0.504150390625, 0.773437500000, 8.710937500000, 1.531250000000, 1490933395
-0.149902343750, -0.847167968750, 0.504150390625, 0.773437500000, 8.710937500000, 1.531250000000, 1490933395
-0.095458984375, -0.864746093750, 0.461181640625, -7.234375000000, -2.867187500000, -2.406250000000, 1490933395
-0.095458984375, -0.864746093750, 0.461181640625, -7.234375000000, -2.867187500000, -2.406250000000, 1490933395
-0.095458984375, -0.864746093750, 0.461181640625, -7.234375000000, -2.867187500000, -2.406250000000, 1490933395
-0.140869140625, -0.904541015625, 0.495361328125, -3.781250000000, -6.625000000000, -3.476562500000, 1490933395
-0.140869140625, -0.904541015625, 0.495361328125, -3.781250000000, -6.625000000000, -3.476562500000, 1490933395
-0.140869140625, -0.904541015625, 0.495361328125, -3.781250000000, -6.625000000000, -3.476562500000, 1490933395
-0.167480468750, -0.943603515625, 0.501953125000, -12.781250000000, -10.937500000000, -12.710937500000, 1490933395
-0.167480468750, -0.943603515625, 0.501953125000, -12.781250000000, -10.937500000000, -12.710937500000, 1490933395
-0.167480468750, -0.943603515625, 0.501953125000, -12.781250000000, -10.937500000000, -12.710937500000, 1490933395
-0.167480468750, -0.943603515625, 0.501953125000, -12.781250000000, -10.937500000000, -12.710937500000, 1490933395
-0.135498046875, -0.921142578125, 0.485839843750, -10.210937500000, -7.460937500000, -10.000000000000, 1490933395
-0.135498046875, -0.921142578125, 0.485839843750, -10.210937500000, -7.460937500000, -10.000000000000, 1490933395
-0.135498046875, -0.921142578125, 0.485839843750, -10.210937500000, -7.460937500000, -10.000000000000, 1490933395
-0.192626953125, -0.802978515625, 0.418945312500, -6.328125000000, -8.078125000000, -9.382812500000, 1490933395
-0.090332031250, -0.881103515625, 0.495361328125, 4.984375000000, -4.250000000000, -6.640625000000, 1490933396
-0.090332031250, -0.881103515625, 0.495361328125, 4.984375000000, -4.250000000000, -6.640625000000, 1490933396
-0.090332031250, -0.881103515625, 0.495361328125, 4.984375000000, -4.250000000000, -6.640625000000, 1490933396
-0.090332031250, -0.881103515625, 0.495361328125, 4.984375000000, -4.250000000000, -6.640625000000, 1490933396
-0.106689453125, -0.845214843750, 0.500488281250, 2.406250000000, 4.976562500000, -1.945312500000, 1490933396
-0.106689453125, -0.845214843750, 0.500488281250, 2.406250000000, 4.976562500000, -1.945312500000, 1490933396
-0.106689453125, -0.845214843750, 0.500488281250, 2.406250000000, 4.976562500000, -1.945312500000, 1490933396
-0.106689453125, -0.845214843750, 0.500488281250, 2.406250000000, 4.976562500000, -1.945312500000, 1490933396
-0.106689453125, -0.845214843750, 0.500488281250, 2.406250000000, 4.976562500000, -1.945312500000, 1490933396
-0.261718750000, -0.963623046875, 0.466064453125, -3.382812500000, -4.328125000000, -6.101562500000, 1490933396
-0.261718750000, -0.963623046875, 0.466064453125, -3.382812500000, -4.328125000000, -6.101562500000, 1490933396
-0.261718750000, -0.963623046875, 0.466064453125, -3.382812500000, -4.328125000000, -6.101562500000, 1490933396
-0.143310546875, -0.955810546875, 0.488769531250, -1.382812500000, -0.156250000000, -4.007812500000, 1490933396
-0.143310546875, -0.955810546875, 0.488769531250, -1.382812500000, -0.156250000000, -4.007812500000, 1490933396
-0.143310546875, -0.955810546875, 0.488769531250, -1.382812500000, -0.156250000000, -4.007812500000, 1490933396
-0.160400390625, -0.957031250000, 0.500488281250, -0.726562500000, -2.187500000000, -1.179687500000, 1490933396
-0.160400390625, -0.957031250000, 0.500488281250, -0.726562500000, -2.187500000000, -1.179687500000, 1490933396
-0.160400390625, -0.957031250000, 0.500488281250, -0.726562500000, -2.187500000000, -1.179687500000, 1490933396
-0.102783203125, -0.957275390625, 0.534179687500, -4.187500000000, 0.625000000000, -1.664062500000, 1490933396
-0.102783203125, -0.957275390625, 0.534179687500, -4.187500000000, 0.625000000000, -1.664062500000, 1490933396
-0.102783203125, -0.957275390625, 0.534179687500, -4.187500000000, 0.625000000000, -1.664062500000, 1490933396
-0.102783203125, -0.957275390625, 0.534179687500, -4.187500000000, 0.625000000000, -1.664062500000, 1490933396
-0.177001953125, -0.945800781250, 0.499755859375, -2.445312500000, 2.335937500000, -2.406250000000, 1490933396
-0.177001953125, -0.945800781250, 0.499755859375, -2.445312500000, 2.335937500000, -2.406250000000, 1490933396
-0.177001953125, -0.945800781250, 0.499755859375, -2.445312500000, 2.335937500000, -2.406250000000, 1490933396
-0.051757812500, -0.967773437500, 0.426025390625, -6.226562500000, 0.890625000000, -0.890625000000, 1490933396
-0.051757812500, -0.967773437500, 0.426025390625, -6.226562500000, 0.890625000000, -0.890625000000, 1490933396
-0.051757812500, -0.967773437500, 0.426025390625, -6.226562500000, 0.890625000000, -0.890625000000, 1490933396
-0.114990234375, -0.844970703125, 0.528076171875, -6.171875000000, -4.062500000000, 0.687500000000, 1490933396
-0.114990234375, -0.844970703125, 0.528076171875, -6.171875000000, -4.062500000000, 0.687500000000, 1490933396
-0.114990234375, -0.844970703125, 0.528076171875, -6.171875000000, -4.062500000000, 0.687500000000, 1490933396
-0.189941406250, -0.955078125000, 0.423583984375, -6.171875000000, -1.476562500000, -6.500000000000, 1490933396
-0.189941406250, -0.955078125000, 0.423583984375, -6.171875000000, -1.476562500000, -6.500000000000, 1490933396
-0.189941406250, -0.955078125000, 0.423583984375, -6.171875000000, -1.476562500000, -6.500000000000, 1490933396
-0.189941406250, -0.955078125000, 0.423583984375, -6.171875000000, -1.476562500000, -6.500000000000, 1490933396
-0.108642578125, -0.951904296875, 0.518066406250, -14.671875000000, 2.273437500000, -5.445312500000, 1490933396
-0.108642578125, -0.951904296875, 0.518066406250, -14.671875000000, 2.273437500000, -5.445312500000, 1490933396
-0.108642578125, -0.951904296875, 0.518066406250, -14.671875000000, 2.273437500000, -5.445312500000, 1490933396
-0.110839843750, -0.807128906250, 0.528320312500, 2.000000000000, 10.648437500000, -0.570312500000, 1490933396
-0.110839843750, -0.807128906250, 0.528320312500, 2.000000000000, 10.648437500000, -0.570312500000, 1490933396
-0.110839843750, -0.807128906250, 0.528320312500, 2.000000000000, 10.648437500000, -0.570312500000, 1490933396
-0.100830078125, -0.908447265625, 0.519775390625, -9.617187500000, 4.148437500000, -3.882812500000, 1490933396
-0.100830078125, -0.908447265625, 0.519775390625, -9.617187500000, 4.148437500000, -3.882812500000, 1490933396
-0.100830078125, -0.908447265625, 0.519775390625, -9.617187500000, 4.148437500000, -3.882812500000, 1490933396
-0.062988281250, -1.007324218750, 0.498535156250, -4.929687500000, -2.007812500000, -4.109375000000, 1490933396
-0.062988281250, -1.007324218750, 0.498535156250, -4.929687500000, -2.007812500000, -4.109375000000, 1490933396
-0.062988281250, -1.007324218750, 0.498535156250, -4.929687500000, -2.007812500000, -4.109375000000, 1490933396
-0.062988281250, -1.007324218750, 0.498535156250, -4.929687500000, -2.007812500000, -4.109375000000, 1490933396
-0.127929687500, -0.975341796875, 0.475341796875, -3.164062500000, -0.492187500000, -4.492187500000, 1490933396
-0.127929687500, -0.975341796875, 0.475341796875, -3.164062500000, -0.492187500000, -4.492187500000, 1490933396
-0.127929687500, -0.975341796875, 0.475341796875, -3.164062500000, -0.492187500000, -4.492187500000, 1490933396
-0.148437500000, -0.846435546875, 0.524902343750, -3.625000000000, 4.156250000000, -4.687500000000, 1490933396
-0.148437500000, -0.846435546875, 0.524902343750, -3.625000000000, 4.156250000000, -4.687500000000, 1490933396
-0.148437500000, -0.846435546875, 0.524902343750, -3.625000000000, 4.156250000000, -4.687500000000, 1490933396
0.000244140625, -0.839843750000, 0.476074218750, -3.210937500000, -0.093750000000, -2.281250000000, 1490933396
0.000244140625, -0.839843750000, 0.476074218750, -3.210937500000, -0.093750000000, -2.281250000000, 1490933396
0.000244140625, -0.839843750000, 0.476074218750, -3.210937500000, -0.093750000000, -2.281250000000, 1490933396
-0.188232421875, -0.894042968750, 0.527343750000, -4.632812500000, 0.960937500000, -3.187500000000, 1490933396
-0.188232421875, -0.894042968750, 0.527343750000, -4.632812500000, 0.960937500000, -3.187500000000, 1490933396
-0.188232421875, -0.894042968750, 0.527343750000, -4.632812500000, 0.960937500000, -3.187500000000, 1490933396
-0.188232421875, -0.894042968750, 0.527343750000, -4.632812500000, 0.960937500000, -3.187500000000, 1490933396
-0.136962890625, -0.971923828125, 0.509521484375, -4.328125000000, 1.398437500000, -2.851562500000, 1490933396
-0.136962890625, -0.971923828125, 0.509521484375, -4.328125000000, 1.398437500000, -2.851562500000, 1490933396
-0.136962890625, -0.971923828125, 0.509521484375, -4.328125000000, 1.398437500000, -2.851562500000, 1490933396
-0.061279296875, -0.899414062500, 0.516357421875, 5.085937500000, 6.203125000000, 0.789062500000, 1490933396
-0.061279296875, -0.899414062500, 0.516357421875, 5.085937500000, 6.203125000000, 0.789062500000, 1490933396
-0.061279296875, -0.899414062500, 0.516357421875, 5.085937500000, 6.203125000000, 0.789062500000, 1490933396
-0.126953125000, -0.799560546875, 0.367919921875, -6.328125000000, -6.078125000000, -4.765625000000, 1490933396
-0.126953125000, -0.799560546875, 0.367919921875, -6.328125000000, -6.078125000000, -4.765625000000, 1490933396
-0.126953125000, -0.799560546875, 0.367919921875, -6.328125000000, -6.078125000000, -4.765625000000, 1490933396
-0.256591796875, -0.908691406250, 0.430908203125, -7.093750000000, -1.460937500000, -1.648437500000, 1490933397
-0.256591796875, -0.908691406250, 0.430908203125, -7.093750000000, -1.460937500000, -1.648437500000, 1490933397
-0.256591796875, -0.908691406250, 0.430908203125, -7.093750000000, -1.460937500000, -1.648437500000, 1490933397
-0.256591796875, -0.908691406250, 0.430908203125, -7.093750000000, -1.460937500000, -1.648437500000, 1490933397
-0.133544921875, -0.898681640625, 0.408691406250, -1.593750000000, -0.750000000000, -2.421875000000, 1490933397
-0.133544921875, -0.898681640625, 0.408691406250, -1.593750000000, -0.750000000000, -2.421875000000, 1490933397
-0.133544921875, -0.898681640625, 0.408691406250, -1.593750000000, -0.750000000000, -2.421875000000, 1490933397
-0.110595703125, -0.958496093750, 0.475097656250, -2.625000000000, -0.656250000000, -2.617187500000, 1490933397
-0.110595703125, -0.958496093750, 0.475097656250, -2.625000000000, -0.656250000000, -2.617187500000, 1490933397
-0.110595703125, -0.958496093750, 0.475097656250, -2.625000000000, -0.656250000000, -2.617187500000, 1490933397
-0.194335937500, -0.940185546875, 0.504150390625, -1.460937500000, -2.015625000000, -2.218750000000, 1490933397
-0.194335937500, -0.940185546875, 0.504150390625, -1.460937500000, -2.015625000000, -2.218750000000, 1490933397
-0.194335937500, -0.940185546875, 0.504150390625, -1.460937500000, -2.015625000000, -2.218750000000, 1490933397
-0.097656250000, -0.945312500000, 0.567382812500, -6.351562500000, -0.156250000000, -2.164062500000, 1490933397
-0.097656250000, -0.945312500000, 0.567382812500, -6.351562500000, -0.156250000000, -2.164062500000, 1490933397
-0.097656250000, -0.945312500000, 0.567382812500, -6.351562500000, -0.156250000000, -2.164062500000, 1490933397
-0.097656250000, -0.945312500000, 0.567382812500, -6.351562500000, -0.156250000000, -2.164062500000, 1490933397
-0.194091796875, -0.949462890625, 0.471679687500, -3.953125000000, 2.507812500000, -1.492187500000, 1490933397
-0.194091796875, -0.949462890625, 0.471679687500, -3.953125000000, 2.507812500000, -1.492187500000, 1490933397
-0.194091796875, -0.949462890625, 0.471679687500, -3.953125000000, 2.507812500000, -1.492187500000, 1490933397
-0.197265625000, -0.870117187500, 0.500732421875, -2.976562500000, 0.593750000000, -2.132812500000, 1490933397
-0.197265625000, -0.870117187500, 0.500732421875, -2.976562500000, 0.593750000000, -2.132812500000, 1490933397
-0.197265625000, -0.870117187500, 0.500732421875, -2.976562500000, 0.593750000000, -2.132812500000, 1490933397
-0.101562500000, -0.938964843750, 0.527343750000, -2.726562500000, 1.734375000000, -0.843750000000, 1490933397
-0.190185546875, -0.892333984375, 0.501464843750, -14.601562500000, -1.453125000000, -3.320312500000, 1490933397
-0.190185546875, -0.892333984375, 0.501464843750, -14.601562500000, -1.453125000000, -3.320312500000, 1490933397
-0.190185546875, -0.892333984375, 0.501464843750, -14.601562500000, -1.453125000000, -3.320312500000, 1490933397
-0.190185546875, -0.892333984375, 0.501464843750, -14.601562500000, -1.453125000000, -3.320312500000, 1490933397
-0.190185546875, -0.892333984375, 0.501464843750, -14.601562500000, -1.453125000000, -3.320312500000, 1490933397
-0.212402343750, -0.861572265625, 0.430419921875, 1.765625000000, 7.726562500000, 0.718750000000, 1490933397
-0.212402343750, -0.861572265625, 0.430419921875, 1.765625000000, 7.726562500000, 0.718750000000, 1490933397
-0.212402343750, -0.861572265625, 0.430419921875, 1.765625000000, 7.726562500000, 0.718750000000, 1490933397
-0.212402343750, -0.861572265625, 0.430419921875, 1.765625000000, 7.726562500000, 0.718750000000, 1490933397
-0.123535156250, -0.877197265625, 0.500732421875, -1.984375000000, 2.851562500000, 0.914062500000, 1490933397
-0.123535156250, -0.877197265625, 0.500732421875, -1.984375000000, 2.851562500000, 0.914062500000, 1490933397
-0.123535156250, -0.877197265625, 0.500732421875, -1.984375000000, 2.851562500000, 0.914062500000, 1490933397
-0.208007812500, -0.864013671875, 0.455078125000, 0.062500000000, 3.445312500000, -2.523437500000, 1490933397
-0.150390625000, -0.859619140625, 0.525146484375, -3.585937500000, -2.445312500000, -4.992187500000, 1490933397
-0.150390625000, -0.859619140625, 0.525146484375, -3.585937500000, -2.445312500000, -4.992187500000, 1490933397
-0.150390625000, -0.859619140625, 0.525146484375, -3.585937500000, -2.445312500000, -4.992187500000, 1490933397
-0.150390625000, -0.859619140625, 0.525146484375, -3.585937500000, -2.445312500000, -4.992187500000, 1490933397
-0.187744140625, -0.944580078125, 0.471191406250, -2.484375000000, 2.484375000000, 0.625000000000, 1490933397
-0.187744140625, -0.944580078125, 0.471191406250, -2.484375000000, 2.484375000000, 0.625000000000, 1490933397
-0.187744140625, -0.944580078125, 0.471191406250, -2.484375000000, 2.484375000000, 0.625000000000, 1490933397
-0.187744140625, -0.944580078125, 0.471191406250, -2.484375000000, 2.484375000000, 0.625000000000, 1490933397
-0.105712890625, -0.798828125000, 0.410644531250, -5.289062500000, 0.171875000000, -6.179687500000, 1490933397
-0.105712890625, -0.798828125000, 0.410644531250, -5.289062500000, 0.171875000000, -6.179687500000, 1490933397
-0.105712890625, -0.798828125000, 0.410644531250, -5.289062500000, 0.171875000000, -6.179687500000, 1490933397
-0.105712890625, -0.798828125000, 0.410644531250, -5.289062500000, 0.171875000000, -6.179687500000, 1490933397
-0.266601562500, -0.874755859375, 0.408447265625, -6.242187500000, 0.492187500000, -4.765625000000, 1490933397
-0.159179687500, -0.898193359375, 0.578369140625, 0.554687500000, 2.828125000000, -2.562500000000, 1490933397
-0.159179687500, -0.898193359375, 0.578369140625, 0.554687500000, 2.828125000000, -2.562500000000, 1490933397
-0.159179687500, -0.898193359375, 0.578369140625, 0.554687500000, 2.828125000000, -2.562500000000, 1490933397
-0.159179687500, -0.898193359375, 0.578369140625, 0.554687500000, 2.828125000000, -2.562500000000, 1490933397
-0.159179687500, -0.898193359375, 0.578369140625, 0.554687500000, 2.828125000000, -2.562500000000, 1490933397
-0.159179687500, -0.898193359375, 0.578369140625, 0.554687500000, 2.828125000000, -2.562500000000, 1490933397
-0.125732421875, -0.901367187500, 0.488525390625, 5.531250000000, 2.382812500000, 0.242187500000, 1490933397
-0.125732421875, -0.901367187500, 0.488525390625, 5.531250000000, 2.382812500000, 0.242187500000, 1490933397
-0.125732421875, -0.901367187500, 0.488525390625, 5.531250000000, 2.382812500000, 0.242187500000, 1490933397
-0.125000000000, -0.879150390625, 0.371826171875, -8.835937500000, -7.429687500000, -5.406250000000, 1490933397
-0.125000000000, -0.879150390625, 0.371826171875, -8.835937500000, -7.429687500000, -5.406250000000, 1490933397
-0.125000000000, -0.879150390625, 0.371826171875, -8.835937500000, -7.429687500000, -5.406250000000, 1490933397
-0.034423828125, -0.865966796875, 0.430664062500, -1.031250000000, -6.812500000000, -6.835937500000, 1490933397
-0.034423828125, -0.865966796875, 0.430664062500, -1.031250000000, -6.812500000000, -6.835937500000, 1490933397
-0.034423828125, -0.865966796875, 0.430664062500, -1.031250000000, -6.812500000000, -6.835937500000, 1490933397
-0.124267578125, -0.889404296875, 0.518066406250, 8.937500000000, -3.296875000000, 0.546875000000, 1490933398
-0.124267578125, -0.889404296875, 0.518066406250, 8.937500000000, -3.296875000000, 0.546875000000, 1490933398
-0.124267578125, -0.889404296875, 0.518066406250, 8.937500000000, -3.296875000000, 0.546875000000, 1490933398
-0.124267578125, -0.889404296875, 0.518066406250, 8.937500000000, -3.296875000000, 0.546875000000, 1490933398
-0.191162109375, -0.848388671875, 0.576660156250, 15.781250000000, -6.062500000000, 4.429687500000, 1490933398
-0.191162109375, -0.848388671875, 0.576660156250, 15.781250000000, -6.062500000000, 4.429687500000, 1490933398
-0.191162109375, -0.848388671875, 0.576660156250, 15.781250000000, -6.062500000000, 4.429687500000, 1490933398
-0.203125000000, -0.814453125000, 0.516601562500, 20.195312500000, -3.945312500000, -1.609375000000, 1490933398
-0.203125000000, -0.814453125000, 0.516601562500, 20.195312500000, -3.945312500000, -1.609375000000, 1490933398
-0.203125000000, -0.814453125000, 0.516601562500, 20.195312500000, -3.945312500000, -1.609375000000, 1490933398
-0.124267578125, -0.727539062500, 0.432128906250, 27.695312500000, -4.515625000000, 1.460937500000, 1490933398
-0.124267578125, -0.727539062500, 0.432128906250, 27.695312500000, -4.515625000000, 1.460937500000, 1490933398
-0.124267578125, -0.727539062500, 0.432128906250, 27.695312500000, -4.515625000000, 1.460937500000, 1490933398
-0.152832031250, -0.742187500000, 0.583740234375, 40.585937500000, -2.273437500000, 1.875000000000, 1490933398
-0.152832031250, -0.742187500000, 0.583740234375, 40.585937500000, -2.273437500000, 1.875000000000, 1490933398
-0.152832031250, -0.742187500000, 0.583740234375, 40.585937500000, -2.273437500000, 1.875000000000, 1490933398
-0.152832031250, -0.742187500000, 0.583740234375, 40.585937500000, -2.273437500000, 1.875000000000, 1490933398
-0.065429687500, -0.850097656250, 0.426757812500, 48.781250000000, -0.835937500000, 10.804687500000, 1490933398
-0.065429687500, -0.850097656250, 0.426757812500, 48.781250000000, -0.835937500000, 10.804687500000, 1490933398
-0.065429687500, -0.850097656250, 0.426757812500, 48.781250000000, -0.835937500000, 10.804687500000, 1490933398
-0.114501953125, -0.789794921875, 0.414550781250, 55.437500000000, -0.375000000000, 9.234375000000, 1490933398
-0.114501953125, -0.789794921875, 0.414550781250, 55.437500000000, -0.375000000000, 9.234375000000, 1490933398
-0.114501953125, -0.789794921875, 0.414550781250, 55.437500000000, -0.375000000000, 9.234375000000, 1490933398
-0.046875000000, -0.789062500000, 0.302734375000, 73.625000000000, 0.507812500000, 13.296875000000, 1490933398
-0.085693359375, -0.789062500000, 0.402832031250, 73.625000000000, 0.507812500000, 13.296875000000, 1490933398
-0.085693359375, -0.789062500000, 0.402832031250, 73.625000000000, 0.507812500000, 13.296875000000, 1490933398
-0.085693359375, -0.789062500000, 0.402832031250, 73.625000000000, 0.507812500000, 13.296875000000, 1490933398
-0.094238281250, -0.779541015625, 0.305908203125, 71.578125000000, -1.867187500000, 12.679687500000, 1490933398
-0.094238281250, -0.779541015625, 0.305908203125, 71.578125000000, -1.867187500000, 12.679687500000, 1490933398
-0.094238281250, -0.779541015625, 0.305908203125, 71.578125000000, -1.867187500000, 12.679687500000, 1490933398
-0.094238281250, -0.779541015625, 0.305908203125, 71.578125000000, -1.867187500000, 12.679687500000, 1490933398
-0.094238281250, -0.779541015625, 0.305908203125, 71.578125000000, -1.867187500000, 12.679687500000, 1490933398
-0.094238281250, -0.779541015625, 0.305908203125, 71.578125000000, -1.867187500000, 12.679687500000, 1490933398
-0.013916015625, -0.778320312500, 0.222167968750, 84.296875000000, 2.343750000000, 15.304687500000, 1490933398
-0.013916015625, -0.778320312500, 0.222167968750, 84.296875000000, 2.343750000000, 15.304687500000, 1490933398
-0.013916015625, -0.778320312500, 0.222167968750, 84.296875000000, 2.343750000000, 15.304687500000, 1490933398
-0.094238281250, -0.725097656250, 0.278564453125, 96.898437500000, 2.773437500000, 17.078125000000, 1490933398
-0.094238281250, -0.725097656250, 0.278564453125, 96.898437500000, 2.773437500000, 17.078125000000, 1490933398
-0.006103515625, -0.683593750000, 0.083984375000, 87.898437500000, -4.507812500000, 6.757812500000, 1490933398
-0.006103515625, -0.683593750000, 0.083984375000, 87.898437500000, -4.507812500000, 6.757812500000, 1490933398
-0.006103515625, -0.683593750000, 0.083984375000, 87.898437500000, -4.507812500000, 6.757812500000, 1490933398
-0.006103515625, -0.683593750000, 0.083984375000, 87.898437500000, -4.507812500000, 6.757812500000, 1490933398
-0.006103515625, -0.683593750000, 0.083984375000, 87.898437500000, -4.507812500000, 6.757812500000, 1490933398
-0.042968750000, -0.715576171875, -0.003906250000, 86.773437500000, -17.117187500000, -14.414062500000, 1490933398
-0.042968750000, -0.715576171875, -0.003906250000, 86.773437500000, -17.117187500000, -14.414062500000, 1490933398
-0.042968750000, -0.715576171875, -0.003906250000, 86.773437500000, -17.117187500000, -14.414062500000, 1490933398
-0.089599609375, -0.964111328125, -0.021728515625, 49.695312500000, 8.367187500000, -29.039062500000, 1490933398
-0.089599609375, -0.964111328125, -0.021728515625, 49.695312500000, 8.367187500000, -29.039062500000, 1490933398
-0.089599609375, -0.964111328125, -0.021728515625, 49.695312500000, 8.367187500000, -29.039062500000, 1490933398
-0.105957031250, -1.187500000000, 0.023925781250, 23.945312500000, 16.914062500000, -4.101562500000, 1490933398
-0.105957031250, -1.187500000000, 0.023925781250, 23.945312500000, 16.914062500000, -4.101562500000, 1490933398
-0.186279296875, -1.977783203125, 0.324462890625, 90.187500000000, 45.445312500000, 20.812500000000, 1490933398
-0.186279296875, -1.977783203125, 0.324462890625, 90.187500000000, 45.445312500000, 20.812500000000, 1490933398
-0.186279296875, -1.977783203125, 0.324462890625, 90.187500000000, 45.445312500000, 20.812500000000, 1490933398
-0.186279296875, -1.977783203125, 0.324462890625, 90.187500000000, 45.445312500000, 20.812500000000, 1490933398
-0.186279296875, -1.977783203125, 0.324462890625, 90.187500000000, 45.445312500000, 20.812500000000, 1490933398
-0.634033203125, -1.274169921875, 1.098144531250, 73.273437500000, -55.015625000000, 58.914062500000, 1490933398
-0.634033203125, -1.274169921875, 1.098144531250, 73.273437500000, -55.015625000000, 58.914062500000, 1490933398
-0.634033203125, -1.274169921875, 1.098144531250, 73.273437500000, -55.015625000000, 58.914062500000, 1490933398
0.058105468750, -0.347656250000, 0.233642578125, -90.640625000000, 84.984375000000, -3.796875000000, 1490933398
0.058105468750, -0.347656250000, 0.233642578125, -90.640625000000, 84.984375000000, -3.796875000000, 1490933398
0.058105468750, -0.347656250000, 0.233642578125, -90.640625000000, 84.984375000000, -3.796875000000, 1490933398
0.123046875000, 0.045654296875, 0.071289062500, -90.984375000000, 188.226562500000, 48.046875000000, 1490933398
0.123046875000, 0.045654296875, 0.071289062500, -90.984375000000, 188.226562500000, 48.046875000000, 1490933398
0.123046875000, 0.045654296875, 0.071289062500, -90.984375000000, 188.226562500000, 48.046875000000, 1490933398
0.012207031250, 0.005126953125, -0.038330078125, -22.703125000000, 191.093750000000, 13.554687500000, 1490933398
0.012207031250, 0.005126953125, -0.038330078125, -22.703125000000, 191.093750000000, 13.554687500000, 1490933399
0.012207031250, 0.005126953125, -0.038330078125, -22.703125000000, 191.093750000000, 13.554687500000, 1490933399
0.012207031250, 0.005126953125, -0.038330078125, -22.703125000000, 191.093750000000, 13.554687500000, 1490933399
-0.008544921875, -0.072998046875, 0.057617187500, -46.281250000000, 75.960937500000, -63.828125000000, 1490933399
-0.008544921875, -0.072998046875, 0.057617187500, -46.281250000000, 75.960937500000, -63.828125000000, 1490933399
-0.008544921875, -0.072998046875, 0.057617187500, -46.281250000000, 75.960937500000, -63.828125000000, 1490933399
-0.054443359375, -0.214843750000, -0.088134765625, -50.109375000000, 38.132812500000, -42.781250000000, 1490933399
-0.054443359375, -0.214843750000, -0.088134765625, -50.109375000000, 38.132812500000, -42.781250000000, 1490933399
-0.054443359375, -0.214843750000, -0.088134765625, -50.109375000000, 38.132812500000, -42.781250000000, 1490933399
5.122802734375, -8.000000000000, -7.937255859375, 253.992187500000, -195.226562500000, 253.992187500000, 1490933399
5.122802734375, -8.000000000000, -7.937255859375, 253.992187500000, -195.226562500000, 253.992187500000, 1490933399
5.122802734375, -8.000000000000, -7.937255859375, 253.992187500000, -195.226562500000, 253.992187500000, 1490933399
-7.937255859375, 3.640380859375, 3.305908203125, -256.000000000000, -209.062500000000, -256.000000000000, 1490933399
-7.937255859375, 3.640380859375, 3.305908203125, -256.000000000000, -209.062500000000, -256.000000000000, 1490933399
-7.937255859375, 3.640380859375, 3.305908203125, -256.000000000000, -209.062500000000, -256.000000000000, 1490933399
-7.937255859375, 3.640380859375, 3.305908203125, -256.000000000000, -209.062500000000, -256.000000000000, 1490933399
-1.708251953125, 3.379638671875, 4.350341796875, 253.992187500000, 253.992187500000, 253.992187500000, 1490933399
-1.708251953125, 3.379638671875, 4.350341796875, 253.992187500000, 253.992187500000, 253.992187500000, 1490933399
-1.708251953125, 3.379638671875, 4.350341796875, 253.992187500000, 253.992187500000, 253.992187500000, 1490933399
0.361572265625, -0.360839843750, -2.180419921875, -107.343750000000, 8.304687500000, -106.820312500000, 1490933399
0.361572265625, -0.360839843750, -2.180419921875, -107.343750000000, 8.304687500000, -106.820312500000, 1490933399
0.361572265625, -0.360839843750, -2.180419921875, -107.343750000000, 8.304687500000, -106.820312500000, 1490933399
0.086669921875, 0.107666015625, -0.767089843750, -220.562500000000, -53.742187500000, -87.273437500000, 1490933399
0.086669921875, 0.107666015625, -0.767089843750, -220.562500000000, -53.742187500000, -87.273437500000, 1490933399
0.086669921875, 0.107666015625, -0.767089843750, -220.562500000000, -53.742187500000, -87.273437500000, 1490933399
0.136474609375, -0.590820312500, -0.752685546875, -142.203125000000, -65.695312500000, -89.937500000000, 1490933399
0.136474609375, -0.590820312500, -0.752685546875, -142.203125000000, -65.695312500000, -89.937500000000, 1490933399
0.136474609375, -0.590820312500, -0.752685546875, -142.203125000000, -65.695312500000, -89.937500000000, 1490933399
0.136474609375, -0.590820312500, -0.752685546875, -142.203125000000, -65.695312500000, -89.937500000000, 1490933399
0.069091796875, -0.647705078125, -0.424072265625, 124.093750000000, 76.812500000000, -106.960937500000, 1490933399
-0.077392578125, -0.459472656250, -0.317138671875, 124.093750000000, 76.812500000000, -106.960937500000, 1490933399
-0.077392578125, -0.459472656250, -0.317138671875, 124.093750000000, 76.812500000000, -106.960937500000, 1490933399
-0.077392578125, -0.459472656250, -0.317138671875, 124.093750000000, 76.812500000000, -106.960937500000, 1490933399
-0.077392578125, -0.459472656250, -0.317138671875, 124.093750000000, 76.812500000000, -106.960937500000, 1490933399
-0.077392578125, -0.459472656250, -0.317138671875, 124.093750000000, 76.812500000000, -106.960937500000, 1490933399
-0.148193359375, -0.390869140625, -0.739013671875, 253.992187500000, 95.179687500000, -133.609375000000, 1490933399
-0.148193359375, -0.390869140625, -0.739013671875, 253.992187500000, 95.179687500000, -133.609375000000, 1490933399
-0.148193359375, -0.390869140625, -0.739013671875, 253.992187500000, 95.179687500000, -133.609375000000, 1490933399
-0.018066406250, 0.506591796875, -0.739990234375, 102.414062500000, 62.789062500000, -50.812500000000, 1490933399
-0.018066406250, 0.506591796875, -0.739990234375, 102.414062500000, 62.789062500000, -50.812500000000, 1490933399
-0.018066406250, 0.506591796875, -0.739990234375, 102.414062500000, 62.789062500000, -50.812500000000, 1490933399
-0.018066406250, 0.506591796875, -0.739990234375, 102.414062500000, 62.789062500000, -50.812500000000, 1490933399
-0.092773437500, -0.061279296875, -1.558105468750, -256.000000000000, -33.625000000000, -23.023437500000, 1490933399
-0.092773437500, -0.061279296875, -1.558105468750, -256.000000000000, -33.625000000000, -23.023437500000, 1490933399
-0.092773437500, -0.061279296875, -1.558105468750, -256.000000000000, -33.625000000000, -23.023437500000, 1490933399
0.150146484375, -0.635253906250, -1.741210937500, 7.250000000000, 13.492187500000, 0.406250000000, 1490933399
0.150146484375, -0.635253906250, -1.741210937500, 7.250000000000, 13.492187500000, 0.406250000000, 1490933399
0.150146484375, -0.635253906250, -1.741210937500, 7.250000000000, 13.492187500000, 0.406250000000, 1490933399
-0.085693359375, -0.181152343750, -0.687744140625, 242.976562500000, -15.578125000000, 168.000000000000, 1490933399
-0.085693359375, -0.181152343750, -0.687744140625, 242.976562500000, -15.578125000000, 168.000000000000, 1490933399
-0.085693359375, -0.181152343750, -0.687744140625, 242.976562500000, -15.578125000000, 168.000000000000, 1490933399
0.043701171875, 0.067626953125, -1.821044921875, -256.000000000000, -142.109375000000, 20.921875000000, 1490933399
0.043701171875, 0.067626953125, -1.821044921875, -256.000000000000, -142.109375000000, 20.921875000000, 1490933399
0.043701171875, 0.067626953125, -1.821044921875, -256.000000000000, -142.109375000000, 20.921875000000, 1490933399
0.043701171875, 0.067626953125, -1.821044921875, -256.000000000000, -142.109375000000, 20.921875000000, 1490933399
-0.058837890625, -0.059082031250, -1.465332031250, -256.000000000000, -151.281250000000, 39.734375000000, 1490933399
-0.041992187500, -1.028320312500, -0.501220703125, -256.000000000000, -256.000000000000, 83.812500000000, 1490933399
-0.041992187500, -1.028320312500, -0.501220703125, -256.000000000000, -256.000000000000, 83.812500000000, 1490933399
-0.041992187500, -1.028320312500, -0.501220703125, -256.000000000000, -256.000000000000, 83.812500000000, 1490933399
-0.041992187500, -1.028320312500, -0.501220703125, -256.000000000000, -256.000000000000, 83.812500000000, 1490933399
-0.041992187500, -1.028320312500, -0.501220703125, -256.000000000000, -256.000000000000, 83.812500000000, 1490933399
-0.051269531250, -0.698486328125, 0.159179687500, -256.000000000000, -256.000000000000, 28.625000000000, 1490933399
-0.051269531250, -0.698486328125, 0.159179687500, -256.000000000000, -256.000000000000, 28.625000000000, 1490933399
-0.016601562500, -0.875000000000, -0.129638671875, 86.523437500000, 253.992187500000, 173.593750000000, 1490933399
-0.016601562500, -0.875000000000, -0.129638671875, 86.523437500000, 253.992187500000, 173.593750000000, 1490933399
-0.016601562500, -0.875000000000, -0.129638671875, 86.523437500000, 253.992187500000, 173.593750000000, 1490933399
-0.016601562500, -0.875000000000, -0.129638671875, 86.523437500000, 253.992187500000, 173.593750000000, 1490933399
-0.016601562500, -0.875000000000, -0.129638671875, 86.523437500000, 253.992187500000, 173.593750000000, 1490933399
0.322509765625, -0.605468750000, -0.105224609375, 246.773437500000, 253.992187500000, 160.031250000000, 1490933400
0.322509765625, -0.605468750000, -0.105224609375, 246.773437500000, 253.992187500000, 160.031250000000, 1490933400
0.554931640625, -0.797363281250, -0.581542968750, 174.078125000000, 7.328125000000, -32.226562500000, 1490933400
0.554931640625, -0.797363281250, -0.581542968750, 174.078125000000, 7.328125000000, -32.226562500000, 1490933400
0.554931640625, -0.797363281250, -0.581542968750, 174.078125000000, 7.328125000000, -32.226562500000, 1490933400
0.554931640625, -0.797363281250, -0.581542968750, 174.078125000000, 7.328125000000, -32.226562500000, 1490933400
0.675537109375, -0.973388671875, -0.505615234375, 140.320312500000, -237.187500000000, -40.914062500000, 1490933400
0.675537109375, -0.973388671875, -0.505615234375, 140.320312500000, -237.187500000000, -40.914062500000, 1490933400
0.041748046875, -0.560546875000, -0.870361328125, 92.765625000000, 71.093750000000, -80.679687500000, 1490933400
0.041748046875, -0.560546875000, -0.870361328125, 92.765625000000, 71.093750000000, -80.679687500000, 1490933400
0.041748046875, -0.560546875000, -0.870361328125, 92.765625000000, 71.093750000000, -80.679687500000, 1490933400
0.041748046875, -0.560546875000, -0.870361328125, 92.765625000000, 71.093750000000, -80.679687500000, 1490933400
0.041748046875, -0.560546875000, -0.870361328125, 92.765625000000, 71.093750000000, -80.679687500000, 1490933400
-0.018310546875, -0.672119140625, -0.762695312500, 44.304687500000, 60.414062500000, -31.671875000000, 1490933400
-0.018310546875, -0.672119140625, -0.762695312500, 44.304687500000, 60.414062500000, -31.671875000000, 1490933400
0.147460937500, -0.630859375000, -0.697753906250, 50.593750000000, 39.664062500000, -32.765625000000, 1490933400
0.206787109375, -0.567382812500, -0.699218750000, 86.890625000000, 7.226562500000, -23.296875000000, 1490933400
0.206787109375, -0.567382812500, -0.699218750000, 86.890625000000, 7.226562500000, -23.296875000000, 1490933400
0.206787109375, -0.567382812500, -0.699218750000, 86.890625000000, 7.226562500000, -23.296875000000, 1490933400
0.137451171875, -0.491455078125, -0.902099609375, 96.546875000000, 8.937500000000, -19.007812500000, 1490933400
0.137451171875, -0.491455078125, -0.902099609375, 96.546875000000, 8.937500000000, -19.007812500000, 1490933400
0.137451171875, -0.491455078125, -0.902099609375, 96.546875000000, 8.937500000000, -19.007812500000, 1490933400
0.209228515625, -0.513671875000, -0.886474609375, 75.515625000000, 20.281250000000, -45.398437500000, 1490933400
0.209228515625, -0.513671875000, -0.886474609375, 75.515625000000, 20.281250000000, -45.398437500000, 1490933400
0.209228515625, -0.513671875000, -0.886474609375, 75.515625000000, 20.281250000000, -45.398437500000, 1490933400
0.209228515625, -0.513671875000, -0.886474609375, 72.789062500000, 11.132812500000, -49.414062500000, 1490933400
0.210937500000, -0.444091796875, -0.952880859375, 55.781250000000, -0.937500000000, -60.796875000000, 1490933400
0.210937500000, -0.444091796875, -0.952880859375, 55.781250000000, -0.937500000000, -60.796875000000, 1490933400
0.210937500000, -0.444091796875, -0.952880859375, 55.781250000000, -0.937500000000, -60.796875000000, 1490933400
0.070312500000, -0.295166015625, -0.962646484375, 30.015625000000, 20.078125000000, -48.328125000000, 1490933400
0.070312500000, -0.295166015625, -0.962646484375, 30.015625000000, 20.078125000000, -48.328125000000, 1490933400
0.070312500000, -0.295166015625, -0.962646484375, 30.015625000000, 20.078125000000, -48.328125000000, 1490933400
0.191650390625, -0.312500000000, -0.919189453125, 9.867187500000, 8.492187500000, -21.679687500000, 1490933400
0.191650390625, -0.312500000000, -0.919189453125, 9.867187500000, 8.492187500000, -21.679687500000, 1490933400
0.191650390625, -0.312500000000, -0.919189453125, 9.867187500000, 8.492187500000, -21.679687500000, 1490933400
0.127685546875, -0.300781250000, -0.954589843750, 3.960937500000, 5.648437500000, 0.226562500000, 1490933400
0.127685546875, -0.300781250000, -0.954589843750, 3.960937500000, 5.648437500000, 0.226562500000, 1490933400
0.127685546875, -0.300781250000, -0.954589843750, 3.960937500000, 5.648437500000, 0.226562500000, 1490933400
0.127685546875, -0.300781250000, -0.954589843750, 3.960937500000, 5.648437500000, 0.226562500000, 1490933400
0.214355468750, -0.366943359375, -0.862548828125, 5.914062500000, -4.679687500000, -3.156250000000, 1490933400
0.214355468750, -0.366943359375, -0.862548828125, 5.914062500000, -4.679687500000, -3.156250000000, 1490933400
0.214355468750, -0.366943359375, -0.862548828125, 5.914062500000, -4.679687500000, -3.156250000000, 1490933400
0.111083984375, -0.342529296875, -0.911865234375, 4.875000000000, 2.398437500000, -8.507812500000, 1490933400
0.111083984375, -0.342529296875, -0.911865234375, 4.875000000000, 2.398437500000, -8.507812500000, 1490933400
0.111083984375, -0.342529296875, -0.911865234375, 4.875000000000, 2.398437500000, -8.507812500000, 1490933400
0.069580078125, -0.299072265625, -0.856933593750, -1.367187500000, -2.351562500000, -10.570312500000, 1490933400
0.069580078125, -0.299072265625, -0.856933593750, -1.367187500000, -2.351562500000, -10.570312500000, 1490933400
0.069580078125, -0.299072265625, -0.856933593750, -1.367187500000, -2.351562500000, -10.570312500000, 1490933400
0.094482421875, -0.402099609375, -0.872314453125, -8.289062500000, 0.773437500000, -2.023437500000, 1490933400
0.094482421875, -0.402099609375, -0.872314453125, -8.289062500000, 0.773437500000, -2.023437500000, 1490933400
0.094482421875, -0.402099609375, -0.872314453125, -8.289062500000, 0.773437500000, -2.023437500000, 1490933400
0.094482421875, -0.402099609375, -0.872314453125, -8.289062500000, 0.773437500000, -2.023437500000, 1490933400
0.026855468750, -0.317626953125, -0.931884765625, -4.179687500000, -1.812500000000, -1.453125000000, 1490933400
0.026855468750, -0.317626953125, -0.931884765625, -4.179687500000, -1.812500000000, -1.453125000000, 1490933400
0.026855468750, -0.317626953125, -0.931884765625, -4.179687500000, -1.812500000000, -1.453125000000, 1490933400
0.049316406250, -0.371337890625, -0.895019531250, -0.421875000000, 2.289062500000, -1.171875000000, 1490933400
0.049316406250, -0.371337890625, -0.895019531250, -0.421875000000, 2.289062500000, -1.171875000000, 1490933400
0.049316406250, -0.371337890625, -0.895019531250, -0.421875000000, 2.289062500000, -1.171875000000, 1490933400
0.149414062500, -0.384033203125, -0.864990234375, 3.125000000000, -2.148437500000, -6.484375000000, 1490933400
0.149414062500, -0.384033203125, -0.864990234375, 3.125000000000, -2.148437500000, -6.484375000000, 1490933400
0.149414062500, -0.384033203125, -0.864990234375, 3.125000000000, -2.148437500000, -6.484375000000, 1490933400
0.145019531250, -0.441894531250, -0.934814453125, 4.054687500000, -2.265625000000, -1.875000000000, 1490933400
0.145019531250, -0.441894531250, -0.934814453125, 4.054687500000, -2.265625000000, -1.875000000000, 1490933400
0.145019531250, -0.441894531250, -0.934814453125, 4.054687500000, -2.265625000000, -1.875000000000, 1490933400
0.145019531250, -0.441894531250, -0.934814453125, 4.054687500000, -2.265625000000, -1.875000000000, 1490933400
0.044189453125, -0.233398437500, -0.873046875000, -0.625000000000, -0.398437500000, -2.851562500000, 1490933400
0.044189453125, -0.233398437500, -0.873046875000, -0.625000000000, -0.398437500000, -2.851562500000, 1490933400
0.044189453125, -0.233398437500, -0.873046875000, -0.625000000000, -0.398437500000, -2.851562500000, 1490933401
0.070312500000, -0.458740234375, -0.908203125000, -2.898437500000, 0.601562500000, -1.898437500000, 1490933401
0.070312500000, -0.458740234375, -0.908203125000, -2.898437500000, 0.601562500000, -1.898437500000, 1490933401
0.070312500000, -0.458740234375, -0.908203125000, -2.898437500000, 0.601562500000, -1.898437500000, 1490933401
0.062500000000, -0.375732421875, -0.912597656250, -0.867187500000, 0.609375000000, 0.773437500000, 1490933401
0.062500000000, -0.375732421875, -0.912597656250, -0.867187500000, 0.609375000000, 0.773437500000, 1490933401
0.062500000000, -0.375732421875, -0.912597656250, -0.867187500000, 0.609375000000, 0.773437500000, 1490933401
0.146484375000, -0.400390625000, -0.917724609375, -1.695312500000, 2.062500000000, -0.968750000000, 1490933401
0.146484375000, -0.400390625000, -0.917724609375, -1.695312500000, 2.062500000000, -0.968750000000, 1490933401
0.146484375000, -0.400390625000, -0.917724609375, -1.695312500000, 2.062500000000, -0.968750000000, 1490933401
0.146484375000, -0.400390625000, -0.917724609375, -1.695312500000, 2.062500000000, -0.968750000000, 1490933401
0.087158203125, -0.364746093750, -0.915039062500, -2.171875000000, -2.921875000000, -4.406250000000, 1490933401
0.087158203125, -0.364746093750, -0.915039062500, -2.171875000000, -2.921875000000, -4.406250000000, 1490933401
0.087158203125, -0.364746093750, -0.915039062500, -2.171875000000, -2.921875000000, -4.406250000000, 1490933401
0.128906250000, -0.229980468750, -0.955322265625, -2.593750000000, -0.804687500000, -4.265625000000, 1490933401
0.128906250000, -0.229980468750, -0.955322265625, -2.593750000000, -0.804687500000, -4.265625000000, 1490933401
0.128906250000, -0.229980468750, -0.955322265625, -2.593750000000, -0.804687500000, -4.265625000000, 1490933401
0.216308593750, -0.356201171875, -0.938476562500, -0.242187500000, -4.531250000000, -2.679687500000, 1490933401
0.216308593750, -0.356201171875, -0.938476562500, -0.242187500000, -4.531250000000, -2.679687500000, 1490933401
0.216308593750, -0.356201171875, -0.938476562500, -0.242187500000, -4.531250000000, -2.679687500000, 1490933401
0.216308593750, -0.356201171875, -0.938476562500, -0.242187500000, -4.531250000000, -2.679687500000, 1490933401
0.056884765625, -0.320800781250, -0.906005859375, 1.976562500000, -1.484375000000, -2.476562500000, 1490933401
0.056884765625, -0.320800781250, -0.906005859375, 1.976562500000, -1.484375000000, -2.476562500000, 1490933401
0.056884765625, -0.320800781250, -0.906005859375, 1.976562500000, -1.484375000000, -2.476562500000, 1490933401
0.056884765625, -0.320800781250, -0.906005859375, 1.976562500000, -1.484375000000, -2.476562500000, 1490933401
0.056884765625, -0.320800781250, -0.906005859375, 1.976562500000, -1.484375000000, -2.476562500000, 1490933401
0.056884765625, -0.320800781250, -0.906005859375, 1.976562500000, -1.484375000000, -2.476562500000, 1490933401
0.124023437500, -0.366699218750, -0.937255859375, 0.953125000000, -0.468750000000, -2.843750000000, 1490933401
0.124023437500, -0.366699218750, -0.937255859375, 0.953125000000, -0.468750000000, -2.843750000000, 1490933401
0.124023437500, -0.366699218750, -0.937255859375, 0.953125000000, -0.468750000000, -2.843750000000, 1490933401
0.031494140625, -0.265625000000, -0.907958984375, 0.585937500000, 0.101562500000, -4.453125000000, 1490933401
0.031494140625, -0.265625000000, -0.907958984375, 0.585937500000, 0.101562500000, -4.453125000000, 1490933401
0.031494140625, -0.265625000000, -0.907958984375, 0.585937500000, 0.101562500000, -4.453125000000, 1490933401
0.130126953125, -0.249023437500, -0.865234375000, -1.218750000000, 0.179687500000, -8.281250000000, 1490933401
0.130126953125, -0.249023437500, -0.865234375000, -1.218750000000, 0.179687500000, -8.281250000000, 1490933401
0.130126953125, -0.249023437500, -0.865234375000, -1.218750000000, 0.179687500000, -8.281250000000, 1490933401
0.130126953125, -0.249023437500, -0.865234375000, -1.218750000000, 0.179687500000, -8.281250000000, 1490933401
0.196289062500, -0.157958984375, -0.953125000000, -1.242187500000, 1.585937500000, -3.023437500000, 1490933401
0.196289062500, -0.157958984375, -0.953125000000, -1.242187500000, 1.585937500000, -3.023437500000, 1490933401
0.196289062500, -0.157958984375, -0.953125000000, -1.242187500000, 1.585937500000, -3.023437500000, 1490933401
0.145263671875, -0.316650390625, -0.916992187500, -2.773437500000, -1.367187500000, -4.015625000000, 1490933401
0.145263671875, -0.316650390625, -0.916992187500, -2.773437500000, -1.367187500000, -4.015625000000, 1490933401
0.145263671875, -0.316650390625, -0.916992187500, -2.773437500000, -1.367187500000, -4.015625000000, 1490933401
0.131835937500, -0.320800781250, -0.871582031250, 0.570312500000, -0.234375000000, -4.773437500000, 1490933401
0.131835937500, -0.320800781250, -0.871582031250, 0.570312500000, -0.234375000000, -4.773437500000, 1490933401
0.131835937500, -0.320800781250, -0.871582031250, 0.570312500000, -0.234375000000, -4.773437500000, 1490933401
0.046386718750, -0.289062500000, -0.966796875000, -2.625000000000, 2.632812500000, -6.882812500000, 1490933401
0.046386718750, -0.289062500000, -0.966796875000, -2.625000000000, 2.632812500000, -6.882812500000, 1490933401
0.046386718750, -0.289062500000, -0.966796875000, -2.625000000000, 2.632812500000, -6.882812500000, 1490933401
0.046386718750, -0.289062500000, -0.966796875000, -2.625000000000, 2.632812500000, -6.882812500000, 1490933401
0.061767578125, -0.303222656250, -0.974121093750, 0.835937500000, -2.218750000000, -1.476562500000, 1490933401
0.061767578125, -0.303222656250, -0.974121093750, 0.835937500000, -2.218750000000, -1.476562500000, 1490933401
0.061767578125, -0.303222656250, -0.974121093750, 0.835937500000, -2.218750000000, -1.476562500000, 1490933401
0.136962890625, -0.328369140625, -0.866455078125, -3.765625000000, -0.484375000000, -1.070312500000, 1490933401
0.136962890625, -0.328369140625, -0.866455078125, -3.765625000000, -0.484375000000, -1.070312500000, 1490933401
0.136962890625, -0.328369140625, -0.866455078125, -3.765625000000, -0.484375000000, -1.070312500000, 1490933401
0.156005859375, -0.328125000000, -0.947021484375, -1.531250000000, -2.695312500000, -3.343750000000, 1490933401
0.156005859375, -0.328125000000, -0.947021484375, -1.531250000000, -2.695312500000, -3.343750000000, 1490933401
0.156005859375, -0.328125000000, -0.947021484375, -1.531250000000, -2.695312500000, -3.343750000000, 1490933401
0.072753906250, -0.184082031250, -0.960205078125, -3.289062500000, 2.273437500000, -2.531250000000, 1490933401
0.072753906250, -0.184082031250, -0.960205078125, -3.289062500000, 2.273437500000, -2.531250000000, 1490933401
0.072753906250, -0.184082031250, -0.960205078125, -3.289062500000, 2.273437500000, -2.531250000000, 1490933401
0.072753906250, -0.184082031250, -0.960205078125, -3.289062500000, 2.273437500000, -2.531250000000, 1490933401
0.092285156250, -0.219238281250, -1.003906250000, -2.625000000000, -0.945312500000, -2.500000000000, 1490933402
0.092285156250, -0.219238281250, -1.003906250000, -2.625000000000, -0.945312500000, -2.500000000000, 1490933402
0.092285156250, -0.219238281250, -1.003906250000, -2.625000000000, -0.945312500000, -2.500000000000, 1490933402
0.092285156250, -0.219238281250, -1.003906250000, -2.625000000000, -0.945312500000, -2.500000000000, 1490933402
0.121337890625, -0.244140625000, -0.964111328125, -2.523437500000, 0.390625000000, -1.445312500000, 1490933402
0.039306640625, -0.323730468750, -0.981689453125, -1.648437500000, 0.773437500000, -4.585937500000, 1490933402
0.039306640625, -0.323730468750, -0.981689453125, -1.648437500000, 0.773437500000, -4.585937500000, 1490933402
0.039306640625, -0.323730468750, -0.981689453125, -1.648437500000, 0.773437500000, -4.585937500000, 1490933402
0.039306640625, -0.323730468750, -0.981689453125, -1.648437500000, 0.773437500000, -4.585937500000, 1490933402
0.081298828125, -0.330322265625, -0.911865234375, -0.250000000000, 0.218750000000, -2.601562500000, 1490933402
0.081298828125, -0.330322265625, -0.911865234375, -0.250000000000, 0.218750000000, -2.601562500000, 1490933402
0.081298828125, -0.330322265625, -0.911865234375, -0.250000000000, 0.218750000000, -2.601562500000, 1490933402
0.081298828125, -0.330322265625, -0.911865234375, -0.250000000000, 0.218750000000, -2.601562500000, 1490933402
0.077392578125, -0.400634765625, -0.902587890625, -1.679687500000, -0.937500000000, 0.406250000000, 1490933402
0.077392578125, -0.400634765625, -0.902587890625, -1.679687500000, -0.937500000000, 0.406250000000, 1490933402
0.077392578125, -0.400634765625, -0.902587890625, -1.679687500000, -0.937500000000, 0.406250000000, 1490933402
0.111328125000, -0.239746093750, -1.012451171875, -0.906250000000, -2.109375000000, -4.015625000000, 1490933402
0.111328125000, -0.239746093750, -1.012451171875, -0.906250000000, -2.109375000000, -4.015625000000, 1490933402
0.063232421875, -0.232177734375, -0.917480468750, -1.523437500000, -0.671875000000, -1.945312500000, 1490933402
0.063232421875, -0.232177734375, -0.917480468750, -1.523437500000, -0.671875000000, -1.945312500000, 1490933402
0.063232421875, -0.232177734375, -0.917480468750, -1.523437500000, -0.671875000000, -1.945312500000, 1490933402
0.104248046875, -0.275634765625, -0.934570312500, 1.703125000000, 0.867187500000, -4.601562500000, 1490933402
0.063476562500, -0.296630859375, -0.930664062500, -0.468750000000, -1.609375000000, -6.445312500000, 1490933402
0.063476562500, -0.296630859375, -0.930664062500, -0.468750000000, -1.609375000000, -6.445312500000, 1490933402
0.063476562500, -0.296630859375, -0.930664062500, -0.468750000000, -1.609375000000, -6.445312500000, 1490933402
0.063476562500, -0.296630859375, -0.930664062500, -0.468750000000, -1.609375000000, -6.445312500000, 1490933402
0.063476562500, -0.296630859375, -0.930664062500, -0.468750000000, -1.609375000000, -6.445312500000, 1490933402
0.063476562500, -0.296630859375, -0.930664062500, -0.468750000000, -1.609375000000, -6.445312500000, 1490933402
0.063476562500, -0.296630859375, -0.930664062500, -0.468750000000, -1.609375000000, -6.445312500000, 1490933402
0.038085937500, -0.224609375000, -0.917724609375, 0.390625000000, -0.117187500000, -3.390625000000, 1490933402
0.038085937500, -0.224609375000, -0.917724609375, 0.390625000000, -0.117187500000, -3.390625000000, 1490933402
0.038085937500, -0.224609375000, -0.917724609375, 0.390625000000, -0.117187500000, -3.390625000000, 1490933402
0.108154296875, -0.273681640625, -0.868408203125, -1.453125000000, 0.335937500000, -3.265625000000, 1490933402
0.108154296875, -0.273681640625, -0.868408203125, -1.453125000000, 0.335937500000, -3.265625000000, 1490933402
0.108154296875, -0.273681640625, -0.868408203125, -1.453125000000, 0.335937500000, -3.265625000000, 1490933402
0.057861328125, -0.269531250000, -0.897705078125, -2.867187500000, -2.781250000000, -1.500000000000, 1490933402
0.057861328125, -0.269531250000, -0.897705078125, -2.867187500000, -2.781250000000, -1.500000000000, 1490933402
0.057861328125, -0.269531250000, -0.897705078125, -2.867187500000, -2.781250000000, -1.500000000000, 1490933402
0.057861328125, -0.269531250000, -0.897705078125, -2.867187500000, -2.781250000000, -1.500000000000, 1490933402
0.145507812500, -0.259277343750, -0.916015625000, -2.296875000000, 2.062500000000, -4.351562500000, 1490933402
0.145507812500, -0.259277343750, -0.916015625000, -2.296875000000, 2.062500000000, -4.351562500000, 1490933402
0.145507812500, -0.259277343750, -0.916015625000, -2.296875000000, 2.062500000000, -4.351562500000, 1490933402
0.126953125000, -0.184326171875, -0.915039062500, 0.710937500000, -0.359375000000, -1.500000000000, 1490933402
0.126953125000, -0.184326171875, -0.915039062500, 0.710937500000, -0.359375000000, -1.500000000000, 1490933402
0.126953125000, -0.184326171875, -0.915039062500, 0.710937500000, -0.359375000000, -1.500000000000, 1490933402
0.137939453125, -0.302734375000, -0.932373046875, -0.445312500000, 0.476562500000, -4.414062500000, 1490933402
0.137939453125, -0.302734375000, -0.932373046875, -0.445312500000, 0.476562500000, -4.414062500000, 1490933402
0.137939453125, -0.302734375000, -0.932373046875, -0.445312500000, 0.476562500000, -4.414062500000, 1490933402
0.151123046875, -0.260742187500, -0.965820312500, 0.960937500000, -0.992187500000, -1.617187500000, 1490933402
0.151123046875, -0.260742187500, -0.965820312500, 0.960937500000, -0.992187500000, -1.617187500000, 1490933402
0.151123046875, -0.260742187500, -0.965820312500, 0.960937500000, -0.992187500000, -1.617187500000, 1490933402
0.151123046875, -0.260742187500, -0.965820312500, 0.960937500000, -0.992187500000, -1.617187500000, 1490933402
-0.023925781250, -0.269531250000, -0.947753906250, -0.101562500000, -2.804687500000, -3.812500000000, 1490933402
-0.023925781250, -0.269531250000, -0.947753906250, -0.101562500000, -2.804687500000, -3.812500000000, 1490933402
-0.023925781250, -0.269531250000, -0.947753906250, -0.101562500000, -2.804687500000, -3.812500000000, 1490933402
0.107666015625, -0.204833984375, -0.908203125000, 2.500000000000, 0.929687500000, -5.367187500000, 1490933402
0.107666015625, -0.204833984375, -0.908203125000, 2.500000000000, 0.929687500000, -5.367187500000, 1490933402
0.107666015625, -0.204833984375, -0.908203125000, 2.500000000000, 0.929687500000, -5.367187500000, 1490933402
0.039306640625, -0.257080078125, -0.965820312500, -4.304687500000, -0.570312500000, -6.492187500000, 1490933402
0.039306640625, -0.257080078125, -0.965820312500, -4.304687500000, -0.570312500000, -6.492187500000, 1490933402
0.039306640625, -0.257080078125, -0.965820312500, -4.304687500000, -0.570312500000, -6.492187500000, 1490933402
0.108398437500, -0.237792968750, -0.917236328125, -2.125000000000, -1.421875000000, -1.898437500000, 1490933402
0.138183593750, -0.326904296875, -0.951416015625, -4.921875000000, 1.929687500000, -3.515625000000, 1490933402
0.138183593750, -0.326904296875, -0.951416015625, -4.921875000000, 1.929687500000, -3.515625000000, 1490933402
0.155273437500, -0.219970703125, -0.930664062500, 1.226562500000, -4.265625000000, -4.718750000000, 1490933402
0.155273437500, -0.219970703125, -0.930664062500, 1.226562500000, -4.265625000000, -4.718750000000, 1490933402
0.155273437500, -0.219970703125, -0.930664062500, 1.226562500000, -4.265625000000, -4.718750000000, 1490933402
0.155273437500, -0.219970703125, -0.930664062500, 1.226562500000, -4.265625000000, -4.718750000000, 1490933403
0.155273437500, -0.219970703125, -0.930664062500, 1.226562500000, -4.265625000000, -4.718750000000, 1490933403
0.031738281250, -0.244384765625, -0.795898437500, -2.960937500000, 2.664062500000, -6.726562500000, 1490933403
0.031738281250, -0.244384765625, -0.795898437500, -2.960937500000, 2.664062500000, -6.726562500000, 1490933403
0.031738281250, -0.244384765625, -0.795898437500, -2.960937500000, 2.664062500000, -6.726562500000, 1490933403
0.031738281250, -0.244384765625, -0.795898437500, -2.960937500000, 2.664062500000, -6.726562500000, 1490933403
0.006835937500, -0.209228515625, -0.945312500000, -2.203125000000, -0.773437500000, -6.234375000000, 1490933403
0.006835937500, -0.209228515625, -0.945312500000, -2.203125000000, -0.773437500000, -6.234375000000, 1490933403
0.006835937500, -0.209228515625, -0.945312500000, -2.203125000000, -0.773437500000, -6.234375000000, 1490933403
0.006835937500, -0.209228515625, -0.945312500000, -2.203125000000, -0.773437500000, -6.234375000000, 1490933403
0.006835937500, -0.209228515625, -0.945312500000, -2.203125000000, -0.773437500000, -6.234375000000, 1490933403
0.034667968750, -0.240234375000, -1.019042968750, 0.281250000000, -2.132812500000, -1.750000000000, 1490933403
0.034667968750, -0.240234375000, -1.019042968750, 0.281250000000, -2.132812500000, -1.750000000000, 1490933403
0.034667968750, -0.240234375000, -1.019042968750, 0.281250000000, -2.132812500000, -1.750000000000, 1490933403
0.038330078125, -0.315917968750, -0.929443359375, -1.976562500000, -0.960937500000, -1.484375000000, 1490933403
0.038330078125, -0.315917968750, -0.929443359375, -1.976562500000, -0.960937500000, -1.484375000000, 1490933403
0.038330078125, -0.315917968750, -0.929443359375, -1.976562500000, -0.960937500000, -1.484375000000, 1490933403
0.055664062500, -0.178466796875, -1.019531250000, -1.070312500000, -2.164062500000, -3.164062500000, 1490933403
0.055664062500, -0.178466796875, -1.019531250000, -1.070312500000, -2.164062500000, -3.164062500000, 1490933403
0.055664062500, -0.178466796875, -1.019531250000, -1.070312500000, -2.164062500000, -3.164062500000, 1490933403
0.084716796875, -0.177734375000, -0.924560546875, -1.687500000000, 0.632812500000, -1.250000000000, 1490933403
0.084716796875, -0.177734375000, -0.924560546875, -1.687500000000, 0.632812500000, -1.250000000000, 1490933403
0.084716796875, -0.177734375000, -0.924560546875, -1.687500000000, 0.632812500000, -1.250000000000, 1490933403
0.084716796875, -0.177734375000, -0.924560546875, -1.687500000000, 0.632812500000, -1.250000000000, 1490933403
0.050048828125, -0.218505859375, -1.008300781250, -4.429687500000, 0.421875000000, -1.406250000000, 1490933403
0.050048828125, -0.218505859375, -1.008300781250, -4.429687500000, 0.421875000000, -1.406250000000, 1490933403
0.050048828125, -0.218505859375, -1.008300781250, -4.429687500000, 0.421875000000, -1.406250000000, 1490933403
0.151123046875, -0.227539062500, -0.915771484375, -1.039062500000, 0.875000000000, -4.046875000000, 1490933403
0.151123046875, -0.227539062500, -0.915771484375, -1.039062500000, 0.875000000000, -4.046875000000, 1490933403
0.151123046875, -0.227539062500, -0.915771484375, -1.039062500000, 0.875000000000, -4.046875000000, 1490933403
0.086669921875, -0.202148437500, -0.980468750000, -4.851562500000, -0.984375000000, -3.070312500000, 1490933403
0.086669921875, -0.202148437500, -0.980468750000, -4.851562500000, -0.984375000000, -3.070312500000, 1490933403
0.083984375000, -0.156982421875, -0.958496093750, -2.796875000000, -1.460937500000, -4.898437500000, 1490933403
0.083984375000, -0.156982421875, -0.958496093750, -2.796875000000, -1.460937500000, -4.898437500000, 1490933403
0.083984375000, -0.156982421875, -0.958496093750, -2.796875000000, -1.460937500000, -4.898437500000, 1490933403
0.083984375000, -0.156982421875, -0.958496093750, -2.796875000000, -1.460937500000, -4.898437500000, 1490933403
0.136962890625, -0.117919921875, -1.023925781250, -3.132812500000, 2.375000000000, -2.062500000000, 1490933403
0.136962890625, -0.117919921875, -1.023925781250, -3.132812500000, 2.375000000000, -2.062500000000, 1490933403
0.136962890625, -0.117919921875, -1.023925781250, -3.132812500000, 2.375000000000, -2.062500000000, 1490933403
0.136962890625, -0.117919921875, -1.023925781250, -3.132812500000, 2.375000000000, -2.062500000000, 1490933403
0.135253906250, -0.219726562500, -0.852294921875, -6.101562500000, -2.437500000000, -1.554687500000, 1490933403
0.135253906250, -0.219726562500, -0.852294921875, -6.101562500000, -2.437500000000, -1.554687500000, 1490933403
0.135253906250, -0.219726562500, -0.852294921875, -6.101562500000, -2.437500000000, -1.554687500000, 1490933403
0.108886718750, -0.267578125000, -0.942138671875, -4.007812500000, 0.921875000000, -4.078125000000, 1490933403
0.108886718750, -0.267578125000, -0.942138671875, -4.007812500000, 0.921875000000, -4.078125000000, 1490933403
0.108886718750, -0.267578125000, -0.942138671875, -4.007812500000, 0.921875000000, -4.078125000000, 1490933403
0.138671875000, -0.139648437500, -0.919433593750, -4.539062500000, 0.937500000000, -1.367187500000, 1490933403
0.138671875000, -0.139648437500, -0.919433593750, -4.539062500000, 0.937500000000, -1.367187500000, 1490933403
0.138671875000, -0.139648437500, -0.919433593750, -4.539062500000, 0.937500000000, -1.367187500000, 1490933403
0.138671875000, -0.139648437500, -0.919433593750, -4.539062500000, 0.937500000000, -1.367187500000, 1490933403
-0.028076171875, -0.318359375000, -0.985839843750, -0.859375000000, -0.617187500000, -3.125000000000, 1490933403
-0.028076171875, -0.318359375000, -0.985839843750, -0.859375000000, -0.617187500000, -3.125000000000, 1490933403
-0.028076171875, -0.318359375000, -0.985839843750, -0.859375000000, -0.617187500000, -3.125000000000, 1490933403
0.128662109375, -0.257324218750, -0.934082031250, 0.539062500000, -0.992187500000, -3.687500000000, 1490933403
0.128662109375, -0.257324218750, -0.934082031250, 0.539062500000, -0.992187500000, -3.687500000000, 1490933403
0.128662109375, -0.257324218750, -0.934082031250, 0.539062500000, -0.992187500000, -3.687500000000, 1490933403
0.200195312500, -0.169433593750, -0.927490234375, -0.640625000000, -0.148437500000, -3.890625000000, 1490933403
0.200195312500, -0.169433593750, -0.927490234375, -0.640625000000, -0.148437500000, -3.890625000000, 1490933403
0.200195312500, -0.169433593750, -0.927490234375, -0.640625000000, -0.148437500000, -3.890625000000, 1490933403
0.082031250000, -0.148925781250, -1.009277343750, -2.078125000000, -2.617187500000, -3.281250000000, 1490933403
0.082031250000, -0.148925781250, -1.009277343750, -2.078125000000, -2.617187500000, -3.281250000000, 1490933403
0.082031250000, -0.148925781250, -1.009277343750, -2.078125000000, -2.617187500000, -3.281250000000, 1490933403
0.082031250000, -0.148925781250, -1.009277343750, -2.078125000000, -2.617187500000, -3.281250000000, 1490933403
0.049072265625, -0.271728515625, -0.925781250000, -4.078125000000, -0.882812500000, -1.507812500000, 1490933403
0.049072265625, -0.271728515625, -0.925781250000, -4.078125000000, -0.882812500000, -1.507812500000, 1490933403
0.049072265625, -0.271728515625, -0.925781250000, -4.078125000000, -0.882812500000, -1.507812500000, 1490933403
0.069091796875, -0.059814453125, -1.005126953125, -6.117187500000, 2.765625000000, -4.335937500000, 1490933403
0.069091796875, -0.059814453125, -1.005126953125, -6.117187500000, 2.765625000000, -4.335937500000, 1490933403
0.069091796875, -0.059814453125, -1.005126953125, -6.117187500000, 2.765625000000, -4.335937500000, 1490933403
