ACC_X,ACC_Y,ACC_Z,G_X,G_Y,G_Z,Unix Time
0.190673828125, -0.941162109375, 0.527099609375, -5.273437500000, 0.218750000000, -6.968750000000, 1490933371
0.190673828125, -0.941162109375, 0.527099609375, -5.273437500000, 0.218750000000, -6.968750000000, 1490933371
0.190673828125, -0.941162109375, 0.527099609375, -5.273437500000, 0.218750000000, -6.968750000000, 1490933371
0.138183593750, -0.911376953125, 0.430175781250, -1.148437500000, -3.296875000000, -5.742187500000, 1490933371
0.138183593750, -0.911376953125, 0.430175781250, -1.148437500000, -3.296875000000, -5.742187500000, 1490933371
0.188720703125, -0.873779296875, 0.434082031250, -4.921875000000, -0.492187500000, -5.304687500000, 1490933371
0.188720703125, -0.873779296875, 0.434082031250, -4.921875000000, -0.492187500000, -5.304687500000, 1490933371
0.188720703125, -0.873779296875, 0.434082031250, -4.921875000000, -0.492187500000, -5.304687500000, 1490933371
0.188720703125, -0.873779296875, 0.434082031250, -4.921875000000, -0.492187500000, -5.304687500000, 1490933371
0.165283203125, -1.000732421875, 0.509277343750, -3.539062500000, -0.156250000000, -4.023437500000, 1490933371
0.256103515625, -0.828369140625, 0.445556640625, -4.203125000000, 2.054687500000, -6.437500000000, 1490933371
0.256103515625, -0.828369140625, 0.445556640625, -4.203125000000, 2.054687500000, -6.437500000000, 1490933371
0.256103515625, -0.828369140625, 0.445556640625, -4.203125000000, 2.054687500000, -6.437500000000, 1490933371
0.160400390625, -0.881347656250, 0.462890625000, -1.507812500000, -2.742187500000, -5.710937500000, 1490933371
0.160400390625, -0.881347656250, 0.462890625000, -1.507812500000, -2.742187500000, -5.710937500000, 1490933371
0.160400390625, -0.881347656250, 0.462890625000, -1.507812500000, -2.742187500000, -5.710937500000, 1490933372
0.160400390625, -0.881347656250, 0.462890625000, -1.507812500000, -2.742187500000, -5.710937500000, 1490933372
0.215087890625, -0.890380859375, 0.415771484375, 4.500000000000, -3.523437500000, -2.148437500000, 1490933372
0.210937500000, -0.773681640625, 0.397949218750, 4.500000000000, -3.523437500000, -2.148437500000, 1490933372
0.210937500000, -0.773681640625, 0.397949218750, 4.500000000000, -3.523437500000, -2.148437500000, 1490933372
0.210937500000, -0.773681640625, 0.397949218750, 4.500000000000, -3.523437500000, -2.148437500000, 1490933372
0.210937500000, -0.773681640625, 0.397949218750, 4.500000000000, -3.523437500000, -2.148437500000, 1490933372
0.161376953125, -0.914794921875, 0.355468750000, -1.664062500000, 1.406250000000, -1.664062500000, 1490933372
0.161376953125, -0.914794921875, 0.355468750000, -1.664062500000, 1.406250000000, -1.664062500000, 1490933372
0.161376953125, -0.914794921875, 0.355468750000, -1.664062500000, 1.406250000000, -1.664062500000, 1490933372
0.161376953125, -0.914794921875, 0.355468750000, -1.664062500000, 1.406250000000, -1.664062500000, 1490933372
0.211669921875, -0.949462890625, 0.530273437500, 0.140625000000, -1.218750000000, -5.906250000000, 1490933372
0.211669921875, -0.949462890625, 0.530273437500, 0.140625000000, -1.218750000000, -5.906250000000, 1490933372
0.211669921875, -0.949462890625, 0.530273437500, 0.140625000000, -1.218750000000, -5.906250000000, 1490933372
0.203125000000, -0.959472656250, 0.582275390625, 2.812500000000, -4.054687500000, -6.500000000000, 1490933372
0.203125000000, -0.959472656250, 0.582275390625, 2.812500000000, -4.054687500000, -6.500000000000, 1490933372
0.203125000000, -0.959472656250, 0.582275390625, 2.812500000000, -4.054687500000, -6.500000000000, 1490933372
0.217529296875, -1.000488281250, 0.510009765625, -1.828125000000, -4.007812500000, -5.562500000000, 1490933372
0.217529296875, -1.000488281250, 0.510009765625, -1.828125000000, -4.007812500000, -5.562500000000, 1490933372
0.217529296875, -1.000488281250, 0.510009765625, -1.828125000000, -4.007812500000, -5.562500000000, 1490933372
0.119628906250, -0.874267578125, 0.362792968750, -6.679687500000, 1.687500000000, -6.234375000000, 1490933372
0.119628906250, -0.874267578125, 0.362792968750, -6.679687500000, 1.687500000000, -6.234375000000, 1490933372
0.119628906250, -0.874267578125, 0.362792968750, -6.679687500000, 1.687500000000, -6.234375000000, 1490933372
0.119628906250, -0.874267578125, 0.362792968750, -6.679687500000, 1.687500000000, -6.234375000000, 1490933372
0.123535156250, -0.837646484375, 0.507812500000, -4.585937500000, 4.031250000000, -3.234375000000, 1490933372
0.123535156250, -0.837646484375, 0.507812500000, -4.585937500000, 4.031250000000, -3.234375000000, 1490933372
0.123535156250, -0.837646484375, 0.507812500000, -4.585937500000, 4.031250000000, -3.234375000000, 1490933372
0.152343750000, -0.866943359375, 0.512207031250, -1.960937500000, 3.539062500000, -6.578125000000, 1490933372
0.152343750000, -0.866943359375, 0.512207031250, -1.960937500000, 3.539062500000, -6.578125000000, 1490933372
0.152343750000, -0.866943359375, 0.512207031250, -1.960937500000, 3.539062500000, -6.578125000000, 1490933372
0.163085937500, -0.947753906250, 0.440917968750, 1.679687500000, -1.710937500000, -6.710937500000, 1490933372
0.163085937500, -0.947753906250, 0.440917968750, 1.679687500000, -1.710937500000, -6.710937500000, 1490933372
0.163085937500, -0.947753906250, 0.440917968750, 1.679687500000, -1.710937500000, -6.710937500000, 1490933372
0.211914062500, -0.951171875000, 0.427734375000, 1.210937500000, -3.289062500000, -3.484375000000, 1490933372
0.211914062500, -0.951171875000, 0.427734375000, 1.210937500000, -3.289062500000, -3.484375000000, 1490933372
0.211914062500, -0.951171875000, 0.427734375000, 1.210937500000, -3.289062500000, -3.484375000000, 1490933372
0.211914062500, -0.951171875000, 0.427734375000, 1.210937500000, -3.289062500000, -3.484375000000, 1490933372
0.148925781250, -0.896240234375, 0.431640625000, -6.515625000000, -2.453125000000, -5.101562500000, 1490933372
0.148925781250, -0.896240234375, 0.431640625000, -6.515625000000, -2.453125000000, -5.101562500000, 1490933372
0.148925781250, -0.896240234375, 0.431640625000, -6.515625000000, -2.453125000000, -5.101562500000, 1490933372
0.143310546875, -0.878906250000, 0.524169921875, -3.296875000000, -1.593750000000, -5.992187500000, 1490933372
0.143310546875, -0.878906250000, 0.524169921875, -3.296875000000, -1.593750000000, -5.992187500000, 1490933372
0.143310546875, -0.878906250000, 0.524169921875, -3.296875000000, -1.593750000000, -5.992187500000, 1490933372
0.108154296875, -0.931884765625, 0.455566406250, -5.703125000000, -1.000000000000, -5.031250000000, 1490933372
0.108154296875, -0.931884765625, 0.455566406250, -5.703125000000, -1.000000000000, -5.031250000000, 1490933372
0.108154296875, -0.931884765625, 0.455566406250, -5.703125000000, -1.000000000000, -5.031250000000, 1490933372
0.130126953125, -0.939208984375, 0.426757812500, -4.703125000000, -4.164062500000, -3.851562500000, 1490933372
0.130126953125, -0.939208984375, 0.426757812500, -4.703125000000, -4.164062500000, -3.851562500000, 1490933372
0.130126953125, -0.939208984375, 0.426757812500, -4.703125000000, -4.164062500000, -3.851562500000, 1490933372
0.146240234375, -0.859619140625, 0.515625000000, -10.539062500000, -0.187500000000, -5.328125000000, 1490933372
0.146240234375, -0.859619140625, 0.515625000000, -10.539062500000, -0.187500000000, -5.328125000000, 1490933372
0.146240234375, -0.859619140625, 0.515625000000, -10.539062500000, -0.187500000000, -5.328125000000, 1490933372
0.146240234375, -0.859619140625, 0.515625000000, -10.539062500000, -0.187500000000, -5.328125000000, 1490933372
0.096679687500, -0.942626953125, 0.312011718750, -6.218750000000, 0.507812500000, -8.148437500000, 1490933372
0.096679687500, -0.942626953125, 0.312011718750, -6.218750000000, 0.507812500000, -8.148437500000, 1490933372
0.096679687500, -0.942626953125, 0.312011718750, -6.218750000000, 0.507812500000, -8.148437500000, 1490933372
0.152832031250, -0.903076171875, 0.408691406250, -3.789062500000, -1.695312500000, 0.015625000000, 1490933372
0.152832031250, -0.903076171875, 0.408691406250, -3.789062500000, -1.695312500000, 0.015625000000, 1490933372
0.152832031250, -0.903076171875, 0.408691406250, -3.789062500000, -1.695312500000, 0.015625000000, 1490933372
0.054931640625, -0.854492187500, 0.490234375000, -3.648437500000, -4.250000000000, -4.492187500000, 1490933372
0.054931640625, -0.854492187500, 0.490234375000, -3.648437500000, -4.250000000000, -4.492187500000, 1490933372
0.054931640625, -0.854492187500, 0.490234375000, -3.648437500000, -4.250000000000, -4.492187500000, 1490933372
0.054931640625, -0.854492187500, 0.490234375000, -3.648437500000, -4.250000000000, -4.492187500000, 1490933372
0.207519531250, -0.957519531250, 0.431640625000, -4.203125000000, -1.101562500000, -4.734375000000, 1490933372
0.207519531250, -0.957519531250, 0.431640625000, -4.203125000000, -1.101562500000, -4.734375000000, 1490933372
0.207519531250, -0.957519531250, 0.431640625000, -4.203125000000, -1.101562500000, -4.734375000000, 1490933372
0.093994140625, -0.874511718750, 0.435058593750, -12.046875000000, -4.570312500000, -1.773437500000, 1490933372
0.093994140625, -0.874511718750, 0.435058593750, -12.046875000000, -4.570312500000, -1.773437500000, 1490933372
0.093994140625, -0.874511718750, 0.435058593750, -12.046875000000, -4.570312500000, -1.773437500000, 1490933372
0.214599609375, -0.993164062500, 0.515380859375, -2.804687500000, -7.195312500000, -8.265625000000, 1490933373
0.214599609375, -0.993164062500, 0.515380859375, -2.804687500000, -7.195312500000, -8.265625000000, 1490933373
0.214599609375, -0.993164062500, 0.515380859375, -2.804687500000, -7.195312500000, -8.265625000000, 1490933373
0.203369140625, -0.894287109375, 0.436767578125, -8.914062500000, 1.843750000000, -2.828125000000, 1490933373
0.203369140625, -0.894287109375, 0.436767578125, -8.914062500000, 1.843750000000, -2.828125000000, 1490933373
0.203369140625, -0.894287109375, 0.436767578125, -8.914062500000, 1.843750000000, -2.828125000000, 1490933373
0.203369140625, -0.894287109375, 0.436767578125, -8.914062500000, 1.843750000000, -2.828125000000, 1490933373
0.163574218750, -0.859130859375, 0.451416015625, -3.570312500000, -2.554687500000, -6.445312500000, 1490933373
0.163574218750, -0.859130859375, 0.451416015625, -3.570312500000, -2.554687500000, -6.445312500000, 1490933373
0.163574218750, -0.859130859375, 0.451416015625, -3.570312500000, -2.554687500000, -6.445312500000, 1490933373
0.112304687500, -0.731201171875, 0.507568359375, -4.773437500000, 2.562500000000, -3.937500000000, 1490933373
0.112304687500, -0.731201171875, 0.507568359375, -4.773437500000, 2.562500000000, -3.937500000000, 1490933373
0.112304687500, -0.731201171875, 0.507568359375, -4.773437500000, 2.562500000000, -3.937500000000, 1490933373
0.119873046875, -0.911621093750, 0.462646484375, -3.296875000000, -0.273437500000, -8.625000000000, 1490933373
0.119873046875, -0.911621093750, 0.462646484375, -3.296875000000, -0.273437500000, -8.625000000000, 1490933373
0.119873046875, -0.911621093750, 0.462646484375, -3.296875000000, -0.273437500000, -8.625000000000, 1490933373
0.203857421875, -0.876220703125, 0.502929687500, -5.171875000000, 0.070312500000, -1.562500000000, 1490933373
0.203857421875, -0.876220703125, 0.502929687500, -5.171875000000, 0.070312500000, -1.562500000000, 1490933373
0.203857421875, -0.876220703125, 0.502929687500, -5.171875000000, 0.070312500000, -1.562500000000, 1490933373
0.203857421875, -0.876220703125, 0.502929687500, -5.171875000000, 0.070312500000, -1.562500000000, 1490933373
0.214111328125, -0.913330078125, 0.427978515625, -2.500000000000, -2.960937500000, -3.710937500000, 1490933373
0.152343750000, -0.910888671875, 0.478759765625, -2.500000000000, -2.960937500000, -3.710937500000, 1490933373
0.152343750000, -0.910888671875, 0.478759765625, -2.500000000000, -2.960937500000, -3.710937500000, 1490933373
0.152343750000, -0.910888671875, 0.478759765625, -2.500000000000, -2.960937500000, -3.710937500000, 1490933373
0.152343750000, -0.910888671875, 0.478759765625, -2.500000000000, -2.960937500000, -3.710937500000, 1490933373
0.152343750000, -0.910888671875, 0.478759765625, -2.500000000000, -2.960937500000, -3.710937500000, 1490933373
0.168945312500, -0.953125000000, 0.442626953125, -3.890625000000, 0.640625000000, -6.992187500000, 1490933373
0.168945312500, -0.953125000000, 0.442626953125, -3.890625000000, 0.640625000000, -6.992187500000, 1490933373
0.168945312500, -0.953125000000, 0.442626953125, -3.890625000000, 0.640625000000, -6.992187500000, 1490933373
0.183105468750, -0.857910156250, 0.510742187500, -4.078125000000, -1.476562500000, -8.601562500000, 1490933373
0.183105468750, -0.857910156250, 0.510742187500, -4.078125000000, -1.476562500000, -8.601562500000, 1490933373
0.183105468750, -0.857910156250, 0.510742187500, -4.078125000000, -1.476562500000, -8.601562500000, 1490933373
0.183105468750, -0.857910156250, 0.510742187500, -4.078125000000, -1.476562500000, -8.601562500000, 1490933373
0.194091796875, -0.806396484375, 0.446777343750, -1.882812500000, -0.968750000000, -5.437500000000, 1490933373
0.194091796875, -0.806396484375, 0.446777343750, -1.882812500000, -0.968750000000, -5.437500000000, 1490933373
0.194091796875, -0.806396484375, 0.446777343750, -1.882812500000, -0.968750000000, -5.437500000000, 1490933373
0.136962890625, -0.880615234375, 0.425292968750, -4.500000000000, -1.468750000000, -4.156250000000, 1490933373
0.136962890625, -0.880615234375, 0.425292968750, -4.500000000000, -1.468750000000, -4.156250000000, 1490933373
0.136962890625, -0.880615234375, 0.425292968750, -4.500000000000, -1.468750000000, -4.156250000000, 1490933373
0.192871093750, -0.889160156250, 0.362060546875, -5.421875000000, 1.156250000000, -6.867187500000, 1490933373
0.192871093750, -0.889160156250, 0.362060546875, -5.421875000000, 1.156250000000, -6.867187500000, 1490933373
0.192871093750, -0.889160156250, 0.362060546875, -5.421875000000, 1.156250000000, -6.867187500000, 1490933373
0.206298828125, -0.803955078125, 0.371826171875, -3.976562500000, -0.953125000000, -3.804687500000, 1490933373
0.206298828125, -0.803955078125, 0.371826171875, -3.976562500000, -0.953125000000, -3.804687500000, 1490933373
0.206298828125, -0.803955078125, 0.371826171875, -3.976562500000, -0.953125000000, -3.804687500000, 1490933373
0.206298828125, -0.803955078125, 0.371826171875, -3.976562500000, -0.953125000000, -3.804687500000, 1490933373
0.103271484375, -0.924560546875, 0.464111328125, -4.734375000000, -0.335937500000, -5.507812500000, 1490933373
0.103271484375, -0.924560546875, 0.464111328125, -4.734375000000, -0.335937500000, -5.507812500000, 1490933373
0.103271484375, -0.924560546875, 0.464111328125, -4.734375000000, -0.335937500000, -5.507812500000, 1490933373
0.190917968750, -1.022949218750, 0.405761718750, -6.273437500000, -0.296875000000, -5.671875000000, 1490933373
0.190917968750, -1.022949218750, 0.405761718750, -6.273437500000, -0.296875000000, -5.671875000000, 1490933373
0.190917968750, -1.022949218750, 0.405761718750, -6.273437500000, -0.296875000000, -5.671875000000, 1490933373
0.209716796875, -0.849121093750, 0.461181640625, -3.546875000000, 2.781250000000, -3.195312500000, 1490933373
0.209716796875, -0.849121093750, 0.461181640625, -3.546875000000, 2.781250000000, -3.195312500000, 1490933373
0.209716796875, -0.849121093750, 0.461181640625, -3.546875000000, 2.781250000000, -3.195312500000, 1490933373
0.128906250000, -0.943847656250, 0.428710937500, -1.070312500000, -2.093750000000, -5.179687500000, 1490933373
0.128906250000, -0.943847656250, 0.428710937500, -1.070312500000, -2.093750000000, -5.179687500000, 1490933373
0.128906250000, -0.943847656250, 0.428710937500, -1.070312500000, -2.093750000000, -5.179687500000, 1490933373
0.128906250000, -0.943847656250, 0.428710937500, -1.070312500000, -2.093750000000, -5.179687500000, 1490933373
0.060302734375, -0.844726562500, 0.462158203125, -6.320312500000, 1.945312500000, -6.648437500000, 1490933373
0.060302734375, -0.844726562500, 0.462158203125, -6.320312500000, 1.945312500000, -6.648437500000, 1490933373
0.060302734375, -0.844726562500, 0.462158203125, -6.320312500000, 1.945312500000, -6.648437500000, 1490933373
0.117675781250, -0.867675781250, 0.473876953125, -2.140625000000, -0.593750000000, -4.656250000000, 1490933373
0.117675781250, -0.867675781250, 0.473876953125, -2.140625000000, -0.593750000000, -4.656250000000, 1490933373
0.117675781250, -0.867675781250, 0.473876953125, -2.140625000000, -0.593750000000, -4.656250000000, 1490933373
0.188720703125, -0.851806640625, 0.410156250000, -7.140625000000, 1.812500000000, -1.781250000000, 1490933373
0.188720703125, -0.851806640625, 0.410156250000, -7.140625000000, 1.812500000000, -1.781250000000, 1490933373
0.188720703125, -0.851806640625, 0.410156250000, -7.140625000000, 1.812500000000, -1.781250000000, 1490933373
0.273681640625, -0.885986328125, 0.492187500000, -3.976562500000, -0.804687500000, -3.078125000000, 1490933374
0.141845703125, -0.962646484375, 0.459716796875, -6.796875000000, 2.609375000000, -4.265625000000, 1490933374
0.160156250000, -0.927978515625, 0.419677734375, -4.031250000000, -0.484375000000, -4.617187500000, 1490933374
0.259033203125, -0.926513671875, 0.447021484375, -4.031250000000, -0.484375000000, -4.617187500000, 1490933374
0.259033203125, -0.926513671875, 0.447021484375, -4.031250000000, -0.484375000000, -4.617187500000, 1490933374
0.259033203125, -0.926513671875, 0.447021484375, -4.031250000000, -0.484375000000, -4.617187500000, 1490933374
0.259033203125, -0.926513671875, 0.447021484375, -4.031250000000, -0.484375000000, -4.617187500000, 1490933374
0.099853515625, -0.942871093750, 0.426269531250, -6.078125000000, -0.218750000000, -3.945312500000, 1490933374
0.099853515625, -0.942871093750, 0.426269531250, -6.078125000000, -0.218750000000, -3.945312500000, 1490933374
0.099853515625, -0.942871093750, 0.426269531250, -6.078125000000, -0.218750000000, -3.945312500000, 1490933374
0.099853515625, -0.942871093750, 0.426269531250, -6.078125000000, -0.218750000000, -3.945312500000, 1490933374
0.099853515625, -0.942871093750, 0.426269531250, -6.078125000000, -0.218750000000, -3.945312500000, 1490933374
0.099853515625, -0.942871093750, 0.426269531250, -6.078125000000, -0.218750000000, -3.945312500000, 1490933374
0.105224609375, -0.958007812500, 0.370361328125, -1.257812500000, 0.789062500000, -4.187500000000, 1490933374
0.105224609375, -0.958007812500, 0.370361328125, -1.257812500000, 0.789062500000, -4.187500000000, 1490933374
0.105224609375, -0.958007812500, 0.370361328125, -1.257812500000, 0.789062500000, -4.187500000000, 1490933374
0.105224609375, -0.958007812500, 0.370361328125, -1.257812500000, 0.789062500000, -4.187500000000, 1490933374
0.111328125000, -0.912109375000, 0.470214843750, -3.687500000000, 1.609375000000, -4.906250000000, 1490933374
0.111328125000, -0.912109375000, 0.470214843750, -3.687500000000, 1.609375000000, -4.906250000000, 1490933374
0.111328125000, -0.912109375000, 0.470214843750, -3.687500000000, 1.609375000000, -4.906250000000, 1490933374
0.196289062500, -0.955322265625, 0.433593750000, -4.835937500000, 2.859375000000, -3.390625000000, 1490933374
0.196289062500, -0.955322265625, 0.433593750000, -4.835937500000, 2.859375000000, -3.390625000000, 1490933374
0.196289062500, -0.955322265625, 0.433593750000, -4.835937500000, 2.859375000000, -3.390625000000, 1490933374
0.124755859375, -0.894531250000, 0.452392578125, -4.023437500000, -2.460937500000, -6.250000000000, 1490933374
0.124755859375, -0.894531250000, 0.452392578125, -4.023437500000, -2.460937500000, -6.250000000000, 1490933374
0.124755859375, -0.894531250000, 0.452392578125, -4.023437500000, -2.460937500000, -6.250000000000, 1490933374
0.119140625000, -0.946777343750, 0.434082031250, -6.156250000000, -4.632812500000, -3.921875000000, 1490933374
0.119140625000, -0.946777343750, 0.434082031250, -6.156250000000, -4.632812500000, -3.921875000000, 1490933374
0.119140625000, -0.946777343750, 0.434082031250, -6.156250000000, -4.632812500000, -3.921875000000, 1490933374
0.119140625000, -0.946777343750, 0.434082031250, -6.156250000000, -4.632812500000, -3.921875000000, 1490933374
0.252441406250, -0.862060546875, 0.512207031250, -10.125000000000, -0.953125000000, -8.859375000000, 1490933374
0.252441406250, -0.862060546875, 0.512207031250, -10.125000000000, -0.953125000000, -8.859375000000, 1490933374
0.252441406250, -0.862060546875, 0.512207031250, -10.125000000000, -0.953125000000, -8.859375000000, 1490933374
0.120849609375, -0.894042968750, 0.330322265625, -1.804687500000, 0.914062500000, -4.890625000000, 1490933374
0.120849609375, -0.894042968750, 0.330322265625, -1.804687500000, 0.914062500000, -4.890625000000, 1490933374
0.120849609375, -0.894042968750, 0.330322265625, -1.804687500000, 0.914062500000, -4.890625000000, 1490933374
0.212890625000, -0.938720703125, 0.505126953125, -3.234375000000, 2.359375000000, -4.593750000000, 1490933374
0.212890625000, -0.938720703125, 0.505126953125, -3.234375000000, 2.359375000000, -4.593750000000, 1490933374
0.212890625000, -0.938720703125, 0.505126953125, -3.234375000000, 2.359375000000, -4.593750000000, 1490933374
0.188964843750, -0.944580078125, 0.356201171875, -1.500000000000, 0.289062500000, -4.890625000000, 1490933374
0.188964843750, -0.944580078125, 0.356201171875, -1.500000000000, 0.289062500000, -4.890625000000, 1490933374
0.188964843750, -0.944580078125, 0.356201171875, -1.500000000000, 0.289062500000, -4.890625000000, 1490933374
0.188964843750, -0.944580078125, 0.356201171875, -1.500000000000, 0.289062500000, -4.890625000000, 1490933374
0.102050781250, -0.915527343750, 0.449707031250, -5.093750000000, 2.750000000000, -3.390625000000, 1490933374
0.102050781250, -0.915527343750, 0.449707031250, -5.093750000000, 2.750000000000, -3.390625000000, 1490933374
0.102050781250, -0.915527343750, 0.449707031250, -5.093750000000, 2.750000000000, -3.390625000000, 1490933374
0.111083984375, -0.860839843750, 0.460449218750, -1.296875000000, 1.656250000000, -3.382812500000, 1490933374
0.111083984375, -0.860839843750, 0.460449218750, -1.296875000000, 1.656250000000, -3.382812500000, 1490933374
0.111083984375, -0.860839843750, 0.460449218750, -1.296875000000, 1.656250000000, -3.382812500000, 1490933374
0.105468750000, -0.847900390625, 0.504882812500, 0.468750000000, -2.546875000000, -6.367187500000, 1490933374
0.105468750000, -0.847900390625, 0.504882812500, 0.468750000000, -2.546875000000, -6.367187500000, 1490933374
0.105468750000, -0.847900390625, 0.504882812500, 0.468750000000, -2.546875000000, -6.367187500000, 1490933374
0.192382812500, -0.862548828125, 0.452148437500, -6.976562500000, 4.070312500000, -10.304687500000, 1490933374
0.192382812500, -0.862548828125, 0.452148437500, -6.976562500000, 4.070312500000, -10.304687500000, 1490933374
0.192382812500, -0.862548828125, 0.452148437500, -6.976562500000, 4.070312500000, -10.304687500000, 1490933374
0.203369140625, -0.967041015625, 0.387695312500, 0.007812500000, -0.523437500000, -3.492187500000, 1490933374
0.203369140625, -0.967041015625, 0.387695312500, 0.007812500000, -0.523437500000, -3.492187500000, 1490933374
0.203369140625, -0.967041015625, 0.387695312500, 0.007812500000, -0.523437500000, -3.492187500000, 1490933374
0.099365234375, -1.002929687500, 0.364746093750, -4.140625000000, 2.828125000000, -5.757812500000, 1490933374
0.099365234375, -1.002929687500, 0.364746093750, -4.140625000000, 2.828125000000, -5.757812500000, 1490933374
0.099365234375, -1.002929687500, 0.364746093750, -4.140625000000, 2.828125000000, -5.757812500000, 1490933374
0.099365234375, -1.002929687500, 0.364746093750, -4.140625000000, 2.828125000000, -5.757812500000, 1490933374
0.212890625000, -1.020507812500, 0.408203125000, -1.796875000000, 5.812500000000, -3.695312500000, 1490933374
0.212890625000, -1.020507812500, 0.408203125000, -1.796875000000, 5.812500000000, -3.695312500000, 1490933374
0.212890625000, -1.020507812500, 0.408203125000, -1.796875000000, 5.812500000000, -3.695312500000, 1490933374
0.190429687500, -0.923339843750, 0.357910156250, -5.085937500000, 8.773437500000, -3.273437500000, 1490933375
0.190429687500, -0.923339843750, 0.357910156250, -5.085937500000, 8.773437500000, -3.273437500000, 1490933375
0.190429687500, -0.923339843750, 0.357910156250, -5.085937500000, 8.773437500000, -3.273437500000, 1490933375
0.190429687500, -0.923339843750, 0.357910156250, -5.085937500000, 8.773437500000, -3.273437500000, 1490933375
0.079345703125, -0.956787109375, 0.464355468750, -0.203125000000, -1.757812500000, -8.101562500000, 1490933375
0.079345703125, -0.956787109375, 0.464355468750, -0.203125000000, -1.757812500000, -8.101562500000, 1490933375
0.079345703125, -0.956787109375, 0.464355468750, -0.203125000000, -1.757812500000, -8.101562500000, 1490933375
0.243164062500, -0.875000000000, 0.453613281250, -2.140625000000, 6.953125000000, -1.945312500000, 1490933375
0.243164062500, -0.875000000000, 0.453613281250, -2.140625000000, 6.953125000000, -1.945312500000, 1490933375
0.243164062500, -0.875000000000, 0.453613281250, -2.140625000000, 6.953125000000, -1.945312500000, 1490933375
0.112060546875, -0.890625000000, 0.415039062500, 0.906250000000, 0.648437500000, -7.695312500000, 1490933375
0.112060546875, -0.890625000000, 0.415039062500, 0.906250000000, 0.648437500000, -7.695312500000, 1490933375
0.112060546875, -0.890625000000, 0.415039062500, 0.906250000000, 0.648437500000, -7.695312500000, 1490933375
0.206542968750, -0.788330078125, 0.456054687500, -5.015625000000, 1.023437500000, -5.179687500000, 1490933375
0.206542968750, -0.788330078125, 0.456054687500, -5.015625000000, 1.023437500000, -5.179687500000, 1490933375
0.206542968750, -0.788330078125, 0.456054687500, -5.015625000000, 1.023437500000, -5.179687500000, 1490933375
0.206542968750, -0.788330078125, 0.456054687500, -5.015625000000, 1.023437500000, -5.179687500000, 1490933375
0.212402343750, -0.852783203125, 0.367431640625, 1.164062500000, -4.117187500000, -1.625000000000, 1490933375
0.212402343750, -0.852783203125, 0.367431640625, 1.164062500000, -4.117187500000, -1.625000000000, 1490933375
0.212402343750, -0.852783203125, 0.367431640625, 1.164062500000, -4.117187500000, -1.625000000000, 1490933375
0.266113281250, -0.877929687500, 0.443359375000, -2.609375000000, -4.695312500000, -8.718750000000, 1490933375
0.266113281250, -0.877929687500, 0.443359375000, -2.609375000000, -4.695312500000, -8.718750000000, 1490933375
0.266113281250, -0.877929687500, 0.443359375000, -2.609375000000, -4.695312500000, -8.718750000000, 1490933375
0.337402343750, -0.964843750000, 0.399169921875, -4.367187500000, -3.898437500000, -7.851562500000, 1490933375
0.337402343750, -0.964843750000, 0.399169921875, -4.367187500000, -3.898437500000, -7.851562500000, 1490933375
0.337402343750, -0.964843750000, 0.399169921875, -4.367187500000, -3.898437500000, -7.851562500000, 1490933375
0.167724609375, -0.963378906250, 0.398193359375, 0.921875000000, -5.781250000000, -6.851562500000, 1490933375
0.167724609375, -0.963378906250, 0.398193359375, 0.921875000000, -5.781250000000, -6.851562500000, 1490933375
0.167724609375, -0.963378906250, 0.398193359375, 0.921875000000, -5.781250000000, -6.851562500000, 1490933375
0.167724609375, -0.963378906250, 0.398193359375, 0.921875000000, -5.781250000000, -6.851562500000, 1490933375
0.276123046875, -0.896728515625, 0.380615234375, -2.781250000000, -7.351562500000, -7.093750000000, 1490933375
0.276123046875, -0.896728515625, 0.380615234375, -2.781250000000, -7.351562500000, -7.093750000000, 1490933375
0.276123046875, -0.896728515625, 0.380615234375, -2.781250000000, -7.351562500000, -7.093750000000, 1490933375
0.097412109375, -0.915039062500, 0.470214843750, -0.039062500000, -11.648437500000, -14.390625000000, 1490933375
0.097412109375, -0.915039062500, 0.470214843750, -0.039062500000, -11.648437500000, -14.390625000000, 1490933375
0.097412109375, -0.915039062500, 0.470214843750, -0.039062500000, -11.648437500000, -14.390625000000, 1490933375
0.187011718750, -0.944580078125, 0.340820312500, -6.484375000000, -3.617187500000, -13.351562500000, 1490933375
0.187011718750, -0.944580078125, 0.340820312500, -6.484375000000, -3.617187500000, -13.351562500000, 1490933375
0.187011718750, -0.944580078125, 0.340820312500, -6.484375000000, -3.617187500000, -13.351562500000, 1490933375
0.266113281250, -0.951904296875, 0.394531250000, -5.304687500000, -4.460937500000, -18.468750000000, 1490933375
0.266113281250, -0.951904296875, 0.394531250000, -5.304687500000, -4.460937500000, -18.468750000000, 1490933375
0.266113281250, -0.951904296875, 0.394531250000, -5.304687500000, -4.460937500000, -18.468750000000, 1490933375
0.266113281250, -0.951904296875, 0.394531250000, -5.304687500000, -4.460937500000, -18.468750000000, 1490933375
0.110107421875, -0.964111328125, 0.370117187500, -10.117187500000, 0.242187500000, -13.992187500000, 1490933375
0.110107421875, -0.964111328125, 0.370117187500, -10.117187500000, 0.242187500000, -13.992187500000, 1490933375
0.110107421875, -0.964111328125, 0.370117187500, -10.117187500000, 0.242187500000, -13.992187500000, 1490933375
0.185058593750, -0.893066406250, 0.433105468750, -6.109375000000, -2.093750000000, -15.554687500000, 1490933375
0.185058593750, -0.893066406250, 0.433105468750, -6.109375000000, -2.093750000000, -15.554687500000, 1490933375
0.185058593750, -0.893066406250, 0.433105468750, -6.109375000000, -2.093750000000, -15.554687500000, 1490933375
0.114013671875, -0.883056640625, 0.418701171875, -7.304687500000, 1.492187500000, -18.875000000000, 1490933375
0.114013671875, -0.883056640625, 0.418701171875, -7.304687500000, 1.492187500000, -18.875000000000, 1490933375
0.114013671875, -0.883056640625, 0.418701171875, -7.304687500000, 1.492187500000, -18.875000000000, 1490933375
0.260009765625, -0.855224609375, 0.354248046875, -3.515625000000, 5.343750000000, -16.539062500000, 1490933375
0.260009765625, -0.855224609375, 0.354248046875, -3.515625000000, 5.343750000000, -16.539062500000, 1490933375
0.260009765625, -0.855224609375, 0.354248046875, -3.515625000000, 5.343750000000, -16.539062500000, 1490933375
0.260009765625, -0.855224609375, 0.354248046875, -3.515625000000, 5.343750000000, -16.539062500000, 1490933375
0.278076171875, -0.844970703125, 0.344970703125, -6.437500000000, 7.187500000000, -18.406250000000, 1490933375
0.278076171875, -0.844970703125, 0.344970703125, -6.437500000000, 7.187500000000, -18.406250000000, 1490933375
0.278076171875, -0.844970703125, 0.344970703125, -6.437500000000, 7.187500000000, -18.406250000000, 1490933375
0.105957031250, -0.858886718750, 0.381347656250, -1.929687500000, 8.585937500000, -21.390625000000, 1490933375
0.105957031250, -0.858886718750, 0.381347656250, -1.929687500000, 8.585937500000, -21.390625000000, 1490933375
0.105957031250, -0.858886718750, 0.381347656250, -1.929687500000, 8.585937500000, -21.390625000000, 1490933375
0.203857421875, -0.832275390625, 0.290527343750, 0.367187500000, 8.289062500000, -15.257812500000, 1490933375
0.203857421875, -0.832275390625, 0.290527343750, 0.367187500000, 8.289062500000, -15.257812500000, 1490933375
0.203857421875, -0.832275390625, 0.290527343750, 0.367187500000, 8.289062500000, -15.257812500000, 1490933375
0.129638671875, -0.794433593750, 0.345703125000, 11.289062500000, -0.851562500000, -9.750000000000, 1490933375
0.129638671875, -0.794433593750, 0.345703125000, 11.289062500000, -0.851562500000, -9.750000000000, 1490933375
0.129638671875, -0.794433593750, 0.345703125000, 11.289062500000, -0.851562500000, -9.750000000000, 1490933375
0.129638671875, -0.794433593750, 0.345703125000, 11.289062500000, -0.851562500000, -9.750000000000, 1490933375
0.257324218750, -0.832031250000, 0.329345703125, 10.710937500000, 0.914062500000, -5.671875000000, 1490933376
0.257324218750, -0.832031250000, 0.329345703125, 10.710937500000, 0.914062500000, -5.671875000000, 1490933376
0.257324218750, -0.832031250000, 0.329345703125, 10.710937500000, 0.914062500000, -5.671875000000, 1490933376
0.151123046875, -0.904785156250, 0.305664062500, 13.210937500000, -5.460937500000, -2.609375000000, 1490933376
0.151123046875, -0.904785156250, 0.305664062500, 13.210937500000, -5.460937500000, -2.609375000000, 1490933376
0.151123046875, -0.904785156250, 0.305664062500, 13.210937500000, -5.460937500000, -2.609375000000, 1490933376
0.059570312500, -0.697021484375, 0.320068359375, 16.453125000000, -14.351562500000, -2.773437500000, 1490933376
0.059570312500, -0.697021484375, 0.320068359375, 16.453125000000, -14.351562500000, -2.773437500000, 1490933376
0.059570312500, -0.697021484375, 0.320068359375, 16.453125000000, -14.351562500000, -2.773437500000, 1490933376
0.111816406250, -0.603027343750, 0.177978515625, 21.171875000000, -23.562500000000, 2.875000000000, 1490933376
0.111816406250, -0.603027343750, 0.177978515625, 21.171875000000, -23.562500000000, 2.875000000000, 1490933376
0.111816406250, -0.603027343750, 0.177978515625, 21.171875000000, -23.562500000000, 2.875000000000, 1490933376
0.111816406250, -0.603027343750, 0.177978515625, 21.171875000000, -23.562500000000, 2.875000000000, 1490933376
0.024169921875, -0.464355468750, 0.275878906250, 23.382812500000, -25.210937500000, -0.609375000000, 1490933376
0.024169921875, -0.464355468750, 0.275878906250, 23.382812500000, -25.210937500000, -0.609375000000, 1490933376
0.024169921875, -0.464355468750, 0.275878906250, 23.382812500000, -25.210937500000, -0.609375000000, 1490933376
0.083740234375, -0.282958984375, 0.154052734375, 29.906250000000, -50.960937500000, -14.664062500000, 1490933376
0.083740234375, -0.282958984375, 0.154052734375, 29.906250000000, -50.960937500000, -14.664062500000, 1490933376
0.083740234375, -0.282958984375, 0.154052734375, 29.906250000000, -50.960937500000, -14.664062500000, 1490933376
0.045898437500, -0.145263671875, 0.058837890625, 19.570312500000, 0.320312500000, -21.000000000000, 1490933376
0.045898437500, -0.145263671875, 0.058837890625, 19.570312500000, 0.320312500000, -21.000000000000, 1490933376
0.045898437500, -0.145263671875, 0.058837890625, 19.570312500000, 0.320312500000, -21.000000000000, 1490933376
0.084228515625, -0.106689453125, 0.074462890625, 16.593750000000, 58.898437500000, -43.609375000000, 1490933376
0.084228515625, -0.106689453125, 0.074462890625, 16.593750000000, 58.898437500000, -43.609375000000, 1490933376
0.084228515625, -0.106689453125, 0.074462890625, 16.593750000000, 58.898437500000, -43.609375000000, 1490933376
0.084228515625, -0.106689453125, 0.074462890625, 16.593750000000, 58.898437500000, -43.609375000000, 1490933376
0.086914062500, -0.150634765625, 0.082031250000, -22.625000000000, -25.531250000000, -65.500000000000, 1490933376
0.086914062500, -0.150634765625, 0.082031250000, -22.625000000000, -25.531250000000, -65.500000000000, 1490933376
0.086914062500, -0.150634765625, 0.082031250000, -22.625000000000, -25.531250000000, -65.500000000000, 1490933376
0.050537109375, -0.104980468750, 0.067626953125, -49.875000000000, -23.132812500000, -68.273437500000, 1490933376
0.050537109375, -0.104980468750, 0.067626953125, -49.875000000000, -23.132812500000, -68.273437500000, 1490933376
0.050537109375, -0.104980468750, 0.067626953125, -49.875000000000, -23.132812500000, -68.273437500000, 1490933376
0.279785156250, -0.832763671875, 0.033691406250, -89.054687500000, 53.625000000000, -72.359375000000, 1490933376
0.279785156250, -0.832763671875, 0.033691406250, -89.054687500000, 53.625000000000, -72.359375000000, 1490933376
0.279785156250, -0.832763671875, 0.033691406250, -89.054687500000, 53.625000000000, -72.359375000000, 1490933376
-0.096679687500, -1.559814453125, 0.076171875000, -142.046875000000, -69.890625000000, -256.000000000000, 1490933376
-0.096679687500, -1.559814453125, 0.076171875000, -142.046875000000, -69.890625000000, -256.000000000000, 1490933376
-0.096679687500, -1.559814453125, 0.076171875000, -142.046875000000, -69.890625000000, -256.000000000000, 1490933376
-0.096679687500, -1.559814453125, 0.076171875000, -142.046875000000, -69.890625000000, -256.000000000000, 1490933376
-1.325927734375, -2.704345703125, 0.490478515625, 253.992187500000, 130.031250000000, -256.000000000000, 1490933376
-1.325927734375, -2.704345703125, 0.490478515625, 253.992187500000, 130.031250000000, -256.000000000000, 1490933376
-1.325927734375, -2.704345703125, 0.490478515625, 253.992187500000, 130.031250000000, -256.000000000000, 1490933376
-1.556884765625, -3.453613281250, 0.944580078125, 253.992187500000, -256.000000000000, 136.179687500000, 1490933376
-1.556884765625, -3.453613281250, 0.944580078125, 253.992187500000, -256.000000000000, 136.179687500000, 1490933376
-1.556884765625, -3.453613281250, 0.944580078125, 253.992187500000, -256.000000000000, 136.179687500000, 1490933376
-4.727783203125, -4.181640625000, 2.890625000000, -69.734375000000, -100.570312500000, -256.000000000000, 1490933376
-4.727783203125, -4.181640625000, 2.890625000000, -69.734375000000, -100.570312500000, -256.000000000000, 1490933376
-4.727783203125, -4.181640625000, 2.890625000000, -69.734375000000, -100.570312500000, -256.000000000000, 1490933376
-0.157226562500, -0.172363281250, -0.013427734375, -150.351562500000, 49.593750000000, -256.000000000000, 1490933376
-0.157226562500, -0.172363281250, -0.013427734375, -150.351562500000, 49.593750000000, -256.000000000000, 1490933376
-0.157226562500, -0.172363281250, -0.013427734375, -150.351562500000, 49.593750000000, -256.000000000000, 1490933376
-0.157226562500, -0.172363281250, -0.013427734375, -150.351562500000, 49.593750000000, -256.000000000000, 1490933376
-1.698730468750, -0.191650390625, 0.533203125000, -177.554687500000, -256.000000000000, -110.617187500000, 1490933376
-1.698730468750, -0.191650390625, 0.533203125000, -177.554687500000, -256.000000000000, -110.617187500000, 1490933376
-1.698730468750, -0.191650390625, 0.533203125000, -177.554687500000, -256.000000000000, -110.617187500000, 1490933376
-0.174804687500, -0.020996093750, 0.980712890625, -143.789062500000, -181.742187500000, -61.210937500000, 1490933376
-0.174804687500, -0.020996093750, 0.980712890625, -143.789062500000, -181.742187500000, -61.210937500000, 1490933376
-0.174804687500, -0.020996093750, 0.980712890625, -143.789062500000, -181.742187500000, -61.210937500000, 1490933376
-0.492431640625, 0.021728515625, 0.062744140625, 33.179687500000, 206.921875000000, -86.796875000000, 1490933376
-0.492431640625, 0.021728515625, 0.062744140625, 33.179687500000, 206.921875000000, -86.796875000000, 1490933376
-0.492431640625, 0.021728515625, 0.062744140625, 33.179687500000, 206.921875000000, -86.796875000000, 1490933376
-0.446044921875, 0.279296875000, 0.525146484375, -96.484375000000, -170.296875000000, -31.078125000000, 1490933376
-0.446044921875, 0.279296875000, 0.525146484375, -96.484375000000, -170.296875000000, -31.078125000000, 1490933376
-0.446044921875, 0.279296875000, 0.525146484375, -96.484375000000, -170.296875000000, -31.078125000000, 1490933376
-0.446044921875, 0.279296875000, 0.525146484375, -96.484375000000, -170.296875000000, -31.078125000000, 1490933376
-0.878662109375, -0.514648437500, 0.680908203125, -120.781250000000, -21.679687500000, 12.507812500000, 1490933377
-0.878662109375, -0.514648437500, 0.680908203125, -120.781250000000, -21.679687500000, 12.507812500000, 1490933377
-0.878662109375, -0.514648437500, 0.680908203125, -120.781250000000, -21.679687500000, 12.507812500000, 1490933377
-0.858886718750, 0.133544921875, 0.820312500000, -89.656250000000, 53.843750000000, 37.835937500000, 1490933377
-0.858886718750, 0.133544921875, 0.820312500000, -89.656250000000, 53.843750000000, 37.835937500000, 1490933377
-0.858886718750, 0.133544921875, 0.820312500000, -89.656250000000, 53.843750000000, 37.835937500000, 1490933377
-0.903076171875, -0.201171875000, 0.348388671875, -128.023437500000, 40.031250000000, -63.671875000000, 1490933377
-0.903076171875, -0.201171875000, 0.348388671875, -128.023437500000, 40.031250000000, -63.671875000000, 1490933377
-0.903076171875, -0.201171875000, 0.348388671875, -128.023437500000, 40.031250000000, -63.671875000000, 1490933377
-0.995117187500, -0.136474609375, 0.767333984375, -144.929687500000, -2.039062500000, 203.437500000000, 1490933377
-0.995117187500, -0.136474609375, 0.767333984375, -144.929687500000, -2.039062500000, 203.437500000000, 1490933377
-0.995117187500, -0.136474609375, 0.767333984375, -144.929687500000, -2.039062500000, 203.437500000000, 1490933377
-0.995117187500, -0.136474609375, 0.767333984375, -144.929687500000, -2.039062500000, 203.437500000000, 1490933377
-0.541748046875, -0.236083984375, 0.107421875000, -5.828125000000, -21.687500000000, 186.843750000000, 1490933377
-0.541748046875, -0.236083984375, 0.107421875000, -5.828125000000, -21.687500000000, 186.843750000000, 1490933377
-0.541748046875, -0.236083984375, 0.107421875000, -5.828125000000, -21.687500000000, 186.843750000000, 1490933377
-1.069091796875, -0.294189453125, 1.176757812500, 3.882812500000, -102.507812500000, 199.351562500000, 1490933377
-1.069091796875, -0.294189453125, 1.176757812500, 3.882812500000, -102.507812500000, 199.351562500000, 1490933377
-1.069091796875, -0.294189453125, 1.176757812500, 3.882812500000, -102.507812500000, 199.351562500000, 1490933377
-0.534179687500, -0.289062500000, 0.286621093750, -10.632812500000, 11.617187500000, 233.210937500000, 1490933377
-0.534179687500, -0.289062500000, 0.286621093750, -10.632812500000, 11.617187500000, 233.210937500000, 1490933377
-0.534179687500, -0.289062500000, 0.286621093750, -10.632812500000, 11.617187500000, 233.210937500000, 1490933377
-0.916015625000, -0.695556640625, 0.467529296875, -78.820312500000, 231.554687500000, 186.007812500000, 1490933377
-0.916015625000, -0.695556640625, 0.467529296875, -78.820312500000, 231.554687500000, 186.007812500000, 1490933377
-0.916015625000, -0.695556640625, 0.467529296875, -78.820312500000, 231.554687500000, 186.007812500000, 1490933377
-0.916015625000, -0.695556640625, 0.467529296875, -78.820312500000, 231.554687500000, 186.007812500000, 1490933377
-0.820556640625, -0.614746093750, 0.294677734375, -31.968750000000, 76.398437500000, 152.085937500000, 1490933377
-0.820556640625, -0.614746093750, 0.294677734375, -31.968750000000, 76.398437500000, 152.085937500000, 1490933377
-0.820556640625, -0.614746093750, 0.294677734375, -31.968750000000, 76.398437500000, 152.085937500000, 1490933377
-1.068603515625, -0.566406250000, 0.668212890625, -27.156250000000, 253.992187500000, 174.656250000000, 1490933377
-1.068603515625, -0.566406250000, 0.668212890625, -27.156250000000, 253.992187500000, 174.656250000000, 1490933377
-1.068603515625, -0.566406250000, 0.668212890625, -27.156250000000, 253.992187500000, 174.656250000000, 1490933377
-0.752929687500, -0.704345703125, 0.344482421875, -2.820312500000, -38.945312500000, 60.445312500000, 1490933377
-0.752929687500, -0.704345703125, 0.344482421875, -2.820312500000, -38.945312500000, 60.445312500000, 1490933377
-0.752929687500, -0.704345703125, 0.344482421875, -2.820312500000, -38.945312500000, 60.445312500000, 1490933377
-0.279296875000, -0.611083984375, 0.377685546875, 60.898437500000, -94.835937500000, 40.289062500000, 1490933377
-0.279296875000, -0.611083984375, 0.377685546875, 60.898437500000, -94.835937500000, 40.289062500000, 1490933377
-0.279296875000, -0.611083984375, 0.377685546875, 60.898437500000, -94.835937500000, 40.289062500000, 1490933377
-0.279296875000, -0.611083984375, 0.377685546875, 60.898437500000, -94.835937500000, 40.289062500000, 1490933377
0.023193359375, -0.766845703125, 0.755371093750, 96.125000000000, -105.437500000000, -3.351562500000, 1490933377
0.023193359375, -0.766845703125, 0.755371093750, 96.125000000000, -105.437500000000, -3.351562500000, 1490933377
0.023193359375, -0.766845703125, 0.755371093750, 96.125000000000, -105.437500000000, -3.351562500000, 1490933377
-0.395507812500, -1.392822265625, 0.304931640625, 58.265625000000, 28.609375000000, 19.742187500000, 1490933377
-0.395507812500, -1.392822265625, 0.304931640625, 58.265625000000, 28.609375000000, 19.742187500000, 1490933377
-0.395507812500, -1.392822265625, 0.304931640625, 58.265625000000, 28.609375000000, 19.742187500000, 1490933377
0.035888671875, -0.709716796875, 0.526367187500, 119.156250000000, -10.867187500000, 28.101562500000, 1490933377
0.035888671875, -0.709716796875, 0.526367187500, 119.156250000000, -10.867187500000, 28.101562500000, 1490933377
0.035888671875, -0.709716796875, 0.526367187500, 119.156250000000, -10.867187500000, 28.101562500000, 1490933377
-0.255859375000, -0.669677734375, -0.026367187500, 132.742187500000, 41.476562500000, 0.671875000000, 1490933377
-0.511718750000, -0.955810546875, -0.054443359375, 103.898437500000, 86.203125000000, -47.851562500000, 1490933377
-0.511718750000, -0.955810546875, -0.054443359375, 103.898437500000, 86.203125000000, -47.851562500000, 1490933377
-0.511718750000, -0.955810546875, -0.054443359375, 103.898437500000, 86.203125000000, -47.851562500000, 1490933377
-0.511718750000, -0.955810546875, -0.054443359375, 103.898437500000, 86.203125000000, -47.851562500000, 1490933377
-0.522705078125, -1.025146484375, -0.155029296875, 86.539062500000, 27.039062500000, -38.484375000000, 1490933377
-0.522705078125, -1.025146484375, -0.155029296875, 86.539062500000, 27.039062500000, -38.484375000000, 1490933377
-0.522705078125, -1.025146484375, -0.155029296875, 86.539062500000, 27.039062500000, -38.484375000000, 1490933377
-0.522705078125, -1.025146484375, -0.155029296875, 86.539062500000, 27.039062500000, -38.484375000000, 1490933377
-0.559814453125, -1.004638671875, -0.334716796875, 36.882812500000, 33.414062500000, -40.187500000000, 1490933377
-0.559814453125, -1.004638671875, -0.334716796875, 36.882812500000, 33.414062500000, -40.187500000000, 1490933377
-0.559814453125, -1.004638671875, -0.334716796875, 36.882812500000, 33.414062500000, -40.187500000000, 1490933377
-0.559814453125, -1.004638671875, -0.334716796875, 36.882812500000, 33.414062500000, -40.187500000000, 1490933377
-0.462646484375, -0.874023437500, -0.233886718750, 11.242187500000, 29.343750000000, -25.843750000000, 1490933377
-0.462646484375, -0.874023437500, -0.233886718750, 11.242187500000, 29.343750000000, -25.843750000000, 1490933377
-0.462646484375, -0.874023437500, -0.233886718750, 11.242187500000, 29.343750000000, -25.843750000000, 1490933377
-0.462646484375, -0.874023437500, -0.233886718750, 11.242187500000, 29.343750000000, -25.843750000000, 1490933377
-0.432373046875, -0.906005859375, -0.170166015625, -15.640625000000, -6.687500000000, -10.796875000000, 1490933377
-0.432373046875, -0.906005859375, -0.170166015625, -15.640625000000, -6.687500000000, -10.796875000000, 1490933377
-0.432373046875, -0.906005859375, -0.170166015625, -15.640625000000, -6.687500000000, -10.796875000000, 1490933377
-0.473632812500, -0.800781250000, -0.250000000000, -11.109375000000, 11.093750000000, -5.210937500000, 1490933378
-0.473632812500, -0.800781250000, -0.250000000000, -11.109375000000, 11.093750000000, -5.210937500000, 1490933378
-0.473632812500, -0.800781250000, -0.250000000000, -11.109375000000, 11.093750000000, -5.210937500000, 1490933378
-0.579101562500, -0.803710937500, -0.106933593750, -26.187500000000, 10.632812500000, 5.625000000000, 1490933378
-0.579101562500, -0.803710937500, -0.106933593750, -26.187500000000, 10.632812500000, 5.625000000000, 1490933378
-0.579101562500, -0.803710937500, -0.106933593750, -26.187500000000, 10.632812500000, 5.625000000000, 1490933378
-0.409423828125, -0.812255859375, -0.190673828125, -29.640625000000, 15.085937500000, 22.460937500000, 1490933378
-0.409423828125, -0.812255859375, -0.190673828125, -29.640625000000, 15.085937500000, 22.460937500000, 1490933378
-0.409423828125, -0.812255859375, -0.190673828125, -29.640625000000, 15.085937500000, 22.460937500000, 1490933378
-0.409423828125, -0.812255859375, -0.190673828125, -29.640625000000, 15.085937500000, 22.460937500000, 1490933378
-0.522216796875, -0.797363281250, -0.187011718750, -30.132812500000, 11.070312500000, 17.351562500000, 1490933378
-0.522216796875, -0.797363281250, -0.187011718750, -30.132812500000, 11.070312500000, 17.351562500000, 1490933378
-0.522216796875, -0.797363281250, -0.187011718750, -30.132812500000, 11.070312500000, 17.351562500000, 1490933378
-0.392822265625, -0.868652343750, -0.197753906250, -27.750000000000, -2.421875000000, 12.875000000000, 1490933378
-0.392822265625, -0.868652343750, -0.197753906250, -27.750000000000, -2.421875000000, 12.875000000000, 1490933378
-0.392822265625, -0.868652343750, -0.197753906250, -27.750000000000, -2.421875000000, 12.875000000000, 1490933378
-0.356689453125, -0.874267578125, -0.047363281250, -22.765625000000, -15.007812500000, 5.976562500000, 1490933378
-0.356689453125, -0.874267578125, -0.047363281250, -22.765625000000, -15.007812500000, 5.976562500000, 1490933378
-0.356689453125, -0.874267578125, -0.047363281250, -22.765625000000, -15.007812500000, 5.976562500000, 1490933378
-0.389160156250, -0.940185546875, -0.201171875000, -9.664062500000, -24.578125000000, -2.507812500000, 1490933378
-0.389160156250, -0.940185546875, -0.201171875000, -9.664062500000, -24.578125000000, -2.507812500000, 1490933378
-0.389160156250, -0.940185546875, -0.201171875000, -9.664062500000, -24.578125000000, -2.507812500000, 1490933378
-0.389160156250, -0.940185546875, -0.201171875000, -9.664062500000, -24.578125000000, -2.507812500000, 1490933378
-0.415527343750, -0.947753906250, -0.097412109375, 3.781250000000, -6.835937500000, -13.210937500000, 1490933378
-0.415527343750, -0.947753906250, -0.097412109375, 3.781250000000, -6.835937500000, -13.210937500000, 1490933378
-0.415527343750, -0.947753906250, -0.097412109375, 3.781250000000, -6.835937500000, -13.210937500000, 1490933378
-0.416748046875, -0.911865234375, -0.112304687500, 8.140625000000, -12.218750000000, -18.539062500000, 1490933378
-0.416748046875, -0.911865234375, -0.112304687500, 8.140625000000, -12.218750000000, -18.539062500000, 1490933378
-0.416748046875, -0.911865234375, -0.112304687500, 8.140625000000, -12.218750000000, -18.539062500000, 1490933378
-0.366210937500, -0.859863281250, -0.055664062500, 9.250000000000, -6.671875000000, -13.875000000000, 1490933378
-0.366210937500, -0.859863281250, -0.055664062500, 9.250000000000, -6.671875000000, -13.875000000000, 1490933378
-0.366210937500, -0.859863281250, -0.055664062500, 9.250000000000, -6.671875000000, -13.875000000000, 1490933378
-0.429687500000, -0.848144531250, -0.165283203125, 6.515625000000, 4.945312500000, -6.570312500000, 1490933378
-0.429687500000, -0.848144531250, -0.165283203125, 6.515625000000, 4.945312500000, -6.570312500000, 1490933378
-0.429687500000, -0.848144531250, -0.165283203125, 6.515625000000, 4.945312500000, -6.570312500000, 1490933378
-0.429687500000, -0.848144531250, -0.165283203125, 6.515625000000, 4.945312500000, -6.570312500000, 1490933378
-0.484863281250, -0.962890625000, -0.154296875000, 0.460937500000, 0.070312500000, -16.195312500000, 1490933378
-0.484863281250, -0.962890625000, -0.154296875000, 0.460937500000, 0.070312500000, -16.195312500000, 1490933378
-0.484863281250, -0.962890625000, -0.154296875000, 0.460937500000, 0.070312500000, -16.195312500000, 1490933378
-0.507568359375, -0.938964843750, -0.197021484375, -6.539062500000, -0.218750000000, -4.289062500000, 1490933378
-0.507568359375, -0.938964843750, -0.197021484375, -6.539062500000, -0.218750000000, -4.289062500000, 1490933378
-0.507568359375, -0.938964843750, -0.197021484375, -6.539062500000, -0.218750000000, -4.289062500000, 1490933378
-0.373291015625, -0.887451171875, -0.260253906250, -4.382812500000, 4.539062500000, -3.921875000000, 1490933378
-0.373291015625, -0.887451171875, -0.260253906250, -4.382812500000, 4.539062500000, -3.921875000000, 1490933378
-0.373291015625, -0.887451171875, -0.260253906250, -4.382812500000, 4.539062500000, -3.921875000000, 1490933378
-0.395996093750, -0.898681640625, -0.099121093750, -6.320312500000, 1.335937500000, 2.382812500000, 1490933378
-0.395996093750, -0.898681640625, -0.099121093750, -6.320312500000, 1.335937500000, 2.382812500000, 1490933378
-0.395996093750, -0.898681640625, -0.099121093750, -6.320312500000, 1.335937500000, 2.382812500000, 1490933378
-0.395996093750, -0.898681640625, -0.099121093750, -6.320312500000, 1.335937500000, 2.382812500000, 1490933378
-0.467529296875, -0.845947265625, -0.132568359375, -7.992187500000, 4.742187500000, -4.664062500000, 1490933378
-0.467529296875, -0.845947265625, -0.132568359375, -7.992187500000, 4.742187500000, -4.664062500000, 1490933378
-0.467529296875, -0.845947265625, -0.132568359375, -7.992187500000, 4.742187500000, -4.664062500000, 1490933378
-0.467529296875, -0.845947265625, -0.132568359375, -7.992187500000, 4.742187500000, -4.664062500000, 1490933378
-0.467529296875, -0.845947265625, -0.132568359375, -7.992187500000, 4.742187500000, -4.664062500000, 1490933378
-0.469238281250, -0.949218750000, -0.204589843750, -1.867187500000, 0.421875000000, -8.093750000000, 1490933378
-0.469238281250, -0.949218750000, -0.204589843750, -1.867187500000, 0.421875000000, -8.093750000000, 1490933378
-0.469238281250, -0.949218750000, -0.204589843750, -1.867187500000, 0.421875000000, -8.093750000000, 1490933378
-0.469238281250, -0.949218750000, -0.204589843750, -1.867187500000, 0.421875000000, -8.093750000000, 1490933378
-0.445556640625, -1.013183593750, -0.041259765625, -6.632812500000, -3.085937500000, -6.734375000000, 1490933378
-0.445556640625, -1.013183593750, -0.041259765625, -6.632812500000, -3.085937500000, -6.734375000000, 1490933378
-0.445556640625, -1.013183593750, -0.041259765625, -6.632812500000, -3.085937500000, -6.734375000000, 1490933378
-0.445556640625, -1.013183593750, -0.041259765625, -6.632812500000, -3.085937500000, -6.734375000000, 1490933378
-0.349121093750, -0.875488281250, -0.124755859375, -0.648437500000, -0.531250000000, -10.351562500000, 1490933378
-0.349121093750, -0.875488281250, -0.124755859375, -0.648437500000, -0.531250000000, -10.351562500000, 1490933378
-0.349121093750, -0.875488281250, -0.124755859375, -0.648437500000, -0.531250000000, -10.351562500000, 1490933378
-0.363525390625, -0.860351562500, 0.025634765625, -10.335937500000, -2.390625000000, -2.640625000000, 1490933378
-0.363525390625, -0.860351562500, 0.025634765625, -10.335937500000, -2.390625000000, -2.640625000000, 1490933379
-0.363525390625, -0.860351562500, 0.025634765625, -10.335937500000, -2.390625000000, -2.640625000000, 1490933379
-0.572021484375, -0.803710937500, -0.206542968750, -2.234375000000, -1.546875000000, -6.390625000000, 1490933379
-0.572021484375, -0.803710937500, -0.206542968750, -2.234375000000, -1.546875000000, -6.390625000000, 1490933379
-0.572021484375, -0.803710937500, -0.206542968750, -2.234375000000, -1.546875000000, -6.390625000000, 1490933379
-0.371582031250, -0.872070312500, -0.105468750000, -5.960937500000, 2.070312500000, -4.648437500000, 1490933379
-0.371582031250, -0.872070312500, -0.105468750000, -5.960937500000, 2.070312500000, -4.648437500000, 1490933379
-0.371582031250, -0.872070312500, -0.105468750000, -5.960937500000, 2.070312500000, -4.648437500000, 1490933379
-0.371582031250, -0.872070312500, -0.105468750000, -5.960937500000, 2.070312500000, -4.648437500000, 1490933379
-0.451904296875, -0.903076171875, -0.128417968750, -6.507812500000, -0.546875000000, -3.648437500000, 1490933379
-0.451904296875, -0.903076171875, -0.128417968750, -6.507812500000, -0.546875000000, -3.648437500000, 1490933379
-0.451904296875, -0.903076171875, -0.128417968750, -6.507812500000, -0.546875000000, -3.648437500000, 1490933379
-0.430175781250, -0.890136718750, -0.048339843750, -6.796875000000, -0.734375000000, 0.015625000000, 1490933379
-0.430175781250, -0.890136718750, -0.048339843750, -6.796875000000, -0.734375000000, 0.015625000000, 1490933379
-0.430175781250, -0.890136718750, -0.048339843750, -6.796875000000, -0.734375000000, 0.015625000000, 1490933379
-0.500488281250, -0.885253906250, -0.187744140625, -5.265625000000, 0.984375000000, -4.171875000000, 1490933379
-0.500488281250, -0.885253906250, -0.187744140625, -5.265625000000, 0.984375000000, -4.171875000000, 1490933379
-0.500488281250, -0.885253906250, -0.187744140625, -5.265625000000, 0.984375000000, -4.171875000000, 1490933379
-0.467041015625, -0.808837890625, -0.157714843750, -7.265625000000, 0.328125000000, -2.085937500000, 1490933379
-0.467041015625, -0.808837890625, -0.157714843750, -7.265625000000, 0.328125000000, -2.085937500000, 1490933379
-0.467041015625, -0.808837890625, -0.157714843750, -7.265625000000, 0.328125000000, -2.085937500000, 1490933379
-0.467041015625, -0.808837890625, -0.157714843750, -7.265625000000, 0.328125000000, -2.085937500000, 1490933379
-0.356201171875, -0.885986328125, -0.147705078125, -1.796875000000, 0.414062500000, -4.523437500000, 1490933379
-0.356201171875, -0.885986328125, -0.147705078125, -1.796875000000, 0.414062500000, -4.523437500000, 1490933379
-0.356201171875, -0.885986328125, -0.147705078125, -1.796875000000, 0.414062500000, -4.523437500000, 1490933379
-0.520996093750, -0.858642578125, -0.158691406250, -3.578125000000, -2.039062500000, -3.046875000000, 1490933379
-0.520996093750, -0.858642578125, -0.158691406250, -3.578125000000, -2.039062500000, -3.046875000000, 1490933379
-0.520996093750, -0.858642578125, -0.158691406250, -3.578125000000, -2.039062500000, -3.046875000000, 1490933379
-0.438232421875, -0.955078125000, -0.147949218750, -3.351562500000, 0.015625000000, -4.695312500000, 1490933379
-0.419677734375, -0.901123046875, -0.147705078125, -6.484375000000, 0.593750000000, -4.781250000000, 1490933379
-0.419677734375, -0.901123046875, -0.147705078125, -6.484375000000, 0.593750000000, -4.781250000000, 1490933379
-0.419677734375, -0.901123046875, -0.147705078125, -6.484375000000, 0.593750000000, -4.781250000000, 1490933379
-0.419677734375, -0.901123046875, -0.147705078125, -6.484375000000, 0.593750000000, -4.781250000000, 1490933379
-0.452636718750, -0.884277343750, -0.123779296875, -4.460937500000, 0.390625000000, -6.976562500000, 1490933379
-0.452636718750, -0.884277343750, -0.123779296875, -4.460937500000, 0.390625000000, -6.976562500000, 1490933379
-0.452636718750, -0.884277343750, -0.123779296875, -4.460937500000, 0.390625000000, -6.976562500000, 1490933379
-0.452636718750, -0.884277343750, -0.123779296875, -4.460937500000, 0.390625000000, -6.976562500000, 1490933379
-0.452636718750, -0.884277343750, -0.123779296875, -4.460937500000, 0.390625000000, -6.976562500000, 1490933379
-0.419677734375, -0.906250000000, -0.113525390625, -1.726562500000, -0.664062500000, -3.234375000000, 1490933379
-0.419677734375, -0.906250000000, -0.113525390625, -1.726562500000, -0.664062500000, -3.234375000000, 1490933379
-0.419677734375, -0.906250000000, -0.113525390625, -1.726562500000, -0.664062500000, -3.234375000000, 1490933379
-0.428710937500, -0.894775390625, -0.153320312500, -5.273437500000, 0.593750000000, -5.000000000000, 1490933379
-0.428710937500, -0.894775390625, -0.153320312500, -5.273437500000, 0.593750000000, -5.000000000000, 1490933379
-0.428710937500, -0.894775390625, -0.153320312500, -5.273437500000, 0.593750000000, -5.000000000000, 1490933379
-0.440917968750, -0.885742187500, -0.119873046875, -6.054687500000, 0.421875000000, -3.429687500000, 1490933379
-0.440917968750, -0.885742187500, -0.119873046875, -6.054687500000, 0.421875000000, -3.429687500000, 1490933379
-0.440917968750, -0.885742187500, -0.119873046875, -6.054687500000, 0.421875000000, -3.429687500000, 1490933379
-0.440917968750, -0.885742187500, -0.119873046875, -6.054687500000, 0.421875000000, -3.429687500000, 1490933379
-0.510253906250, -0.730957031250, -0.200927734375, -6.093750000000, 2.656250000000, -8.796875000000, 1490933379
-0.510253906250, -0.730957031250, -0.200927734375, -6.093750000000, 2.656250000000, -8.796875000000, 1490933379
-0.510253906250, -0.730957031250, -0.200927734375, -6.093750000000, 2.656250000000, -8.796875000000, 1490933379
-0.525146484375, -0.892333984375, 0.027343750000, -6.601562500000, -0.523437500000, -1.218750000000, 1490933379
-0.525146484375, -0.892333984375, 0.027343750000, -6.601562500000, -0.523437500000, -1.218750000000, 1490933379
-0.525146484375, -0.892333984375, 0.027343750000, -6.601562500000, -0.523437500000, -1.218750000000, 1490933379
-0.471191406250, -0.944824218750, -0.102539062500, -3.796875000000, -0.117187500000, -8.921875000000, 1490933379
-0.471191406250, -0.944824218750, -0.102539062500, -3.796875000000, -0.117187500000, -8.921875000000, 1490933379
-0.433837890625, -0.737304687500, -0.054199218750, -4.632812500000, -0.484375000000, -6.140625000000, 1490933379
-0.512695312500, -0.838378906250, -0.057861328125, 0.382812500000, 0.718750000000, -1.320312500000, 1490933379
-0.512695312500, -0.838378906250, -0.057861328125, 0.382812500000, 0.718750000000, -1.320312500000, 1490933379
-0.512695312500, -0.838378906250, -0.057861328125, 0.382812500000, 0.718750000000, -1.320312500000, 1490933379
-0.512695312500, -0.838378906250, -0.057861328125, 0.382812500000, 0.718750000000, -1.320312500000, 1490933379
-0.512695312500, -0.838378906250, -0.057861328125, 0.382812500000, 0.718750000000, -1.320312500000, 1490933379
-0.531005859375, -0.891601562500, -0.090576171875, -7.679687500000, -1.046875000000, -4.679687500000, 1490933379
-0.531005859375, -0.891601562500, -0.090576171875, -7.679687500000, -1.046875000000, -4.679687500000, 1490933379
-0.531005859375, -0.891601562500, -0.090576171875, -7.679687500000, -1.046875000000, -4.679687500000, 1490933379
-0.531005859375, -0.891601562500, -0.090576171875, -7.679687500000, -1.046875000000, -4.679687500000, 1490933380
-0.366210937500, -0.847656250000, -0.207031250000, -5.875000000000, 0.492187500000, -3.679687500000, 1490933380
-0.366210937500, -0.847656250000, -0.207031250000, -5.875000000000, 0.492187500000, -3.679687500000, 1490933380
-0.366210937500, -0.847656250000, -0.207031250000, -5.875000000000, 0.492187500000, -3.679687500000, 1490933380
-0.402343750000, -0.799560546875, -0.146240234375, -4.578125000000, -2.328125000000, -4.617187500000, 1490933380
-0.402343750000, -0.799560546875, -0.146240234375, -4.578125000000, -2.328125000000, -4.617187500000, 1490933380
-0.402343750000, -0.799560546875, -0.146240234375, -4.578125000000, -2.328125000000, -4.617187500000, 1490933380
-0.456298828125, -0.941894531250, -0.139404296875, -6.554687500000, -2.890625000000, -3.625000000000, 1490933380
-0.515136718750, -0.858398437500, -0.141357421875, -2.101562500000, 0.968750000000, -5.710937500000, 1490933380
-0.515136718750, -0.858398437500, -0.141357421875, -2.101562500000, 0.968750000000, -5.710937500000, 1490933380
-0.515136718750, -0.858398437500, -0.141357421875, -2.101562500000, 0.968750000000, -5.710937500000, 1490933380
-0.515136718750, -0.858398437500, -0.141357421875, -2.101562500000, 0.968750000000, -5.710937500000, 1490933380
-0.438720703125, -0.797607421875, -0.094970703125, -6.328125000000, -0.843750000000, -3.226562500000, 1490933380
-0.438720703125, -0.797607421875, -0.094970703125, -6.328125000000, -0.843750000000, -3.226562500000, 1490933380
-0.438720703125, -0.797607421875, -0.094970703125, -6.328125000000, -0.843750000000, -3.226562500000, 1490933380
-0.409667968750, -0.899658203125, -0.133300781250, -6.390625000000, -0.882812500000, -8.976562500000, 1490933380
-0.409667968750, -0.899658203125, -0.133300781250, -6.390625000000, -0.882812500000, -8.976562500000, 1490933380
-0.409667968750, -0.899658203125, -0.133300781250, -6.390625000000, -0.882812500000, -8.976562500000, 1490933380
-0.435546875000, -0.807861328125, -0.199218750000, -6.601562500000, -0.335937500000, -6.156250000000, 1490933380
-0.435546875000, -0.807861328125, -0.199218750000, -6.601562500000, -0.335937500000, -6.156250000000, 1490933380
-0.435546875000, -0.807861328125, -0.199218750000, -6.601562500000, -0.335937500000, -6.156250000000, 1490933380
-0.435546875000, -0.807861328125, -0.199218750000, -6.601562500000, -0.335937500000, -6.156250000000, 1490933380
-0.347167968750, -0.901611328125, -0.127441406250, -6.609375000000, -2.375000000000, -7.109375000000, 1490933380
-0.347167968750, -0.901611328125, -0.127441406250, -6.609375000000, -2.375000000000, -7.109375000000, 1490933380
-0.347167968750, -0.901611328125, -0.127441406250, -6.609375000000, -2.375000000000, -7.109375000000, 1490933380
-0.421875000000, -0.953857421875, -0.101318359375, -3.648437500000, -0.765625000000, -4.945312500000, 1490933380
-0.421875000000, -0.953857421875, -0.101318359375, -3.648437500000, -0.765625000000, -4.945312500000, 1490933380
-0.421875000000, -0.953857421875, -0.101318359375, -3.648437500000, -0.765625000000, -4.945312500000, 1490933380
-0.429931640625, -0.835205078125, -0.097412109375, -1.273437500000, 0.820312500000, 0.679687500000, 1490933380
-0.429931640625, -0.835205078125, -0.097412109375, -1.273437500000, 0.820312500000, 0.679687500000, 1490933380
-0.429931640625, -0.835205078125, -0.097412109375, -1.273437500000, 0.820312500000, 0.679687500000, 1490933380
-0.506347656250, -0.896484375000, -0.138427734375, -4.492187500000, -0.921875000000, -2.281250000000, 1490933380
-0.506347656250, -0.896484375000, -0.138427734375, -4.492187500000, -0.921875000000, -2.281250000000, 1490933380
-0.506347656250, -0.896484375000, -0.138427734375, -4.492187500000, -0.921875000000, -2.281250000000, 1490933380
-0.506347656250, -0.896484375000, -0.138427734375, -4.492187500000, -0.921875000000, -2.281250000000, 1490933380
-0.423339843750, -0.937011718750, -0.189208984375, -1.148437500000, -1.046875000000, -6.140625000000, 1490933380
-0.423339843750, -0.937011718750, -0.189208984375, -1.148437500000, -1.046875000000, -6.140625000000, 1490933380
-0.423339843750, -0.937011718750, -0.189208984375, -1.148437500000, -1.046875000000, -6.140625000000, 1490933380
-0.522705078125, -0.883056640625, -0.202880859375, -4.281250000000, 0.445312500000, -2.742187500000, 1490933380
-0.522705078125, -0.883056640625, -0.202880859375, -4.281250000000, 0.445312500000, -2.742187500000, 1490933380
-0.522705078125, -0.883056640625, -0.202880859375, -4.281250000000, 0.445312500000, -2.742187500000, 1490933380
-0.520751953125, -0.943847656250, -0.148925781250, -0.492187500000, 1.890625000000, -2.890625000000, 1490933380
-0.520751953125, -0.943847656250, -0.148925781250, -0.492187500000, 1.890625000000, -2.890625000000, 1490933380
-0.520751953125, -0.943847656250, -0.148925781250, -0.492187500000, 1.890625000000, -2.890625000000, 1490933380
-0.585693359375, -0.872558593750, -0.147460937500, -3.742187500000, -2.148437500000, -1.210937500000, 1490933380
-0.585693359375, -0.872558593750, -0.147460937500, -3.742187500000, -2.148437500000, -1.210937500000, 1490933380
-0.585693359375, -0.872558593750, -0.147460937500, -3.742187500000, -2.148437500000, -1.210937500000, 1490933380
-0.425537109375, -0.801757812500, -0.112304687500, -5.164062500000, 0.085937500000, -5.132812500000, 1490933380
-0.425537109375, -0.801757812500, -0.112304687500, -5.164062500000, 0.085937500000, -5.132812500000, 1490933380
-0.425537109375, -0.801757812500, -0.112304687500, -5.164062500000, 0.085937500000, -5.132812500000, 1490933380
-0.425537109375, -0.801757812500, -0.112304687500, -5.164062500000, 0.085937500000, -5.132812500000, 1490933380
-0.425537109375, -0.801757812500, -0.112304687500, -5.164062500000, 0.085937500000, -5.132812500000, 1490933380
-0.415527343750, -0.871093750000, -0.053955078125, -4.023437500000, -2.132812500000, -1.320312500000, 1490933380
-0.356445312500, -0.785644531250, -0.145263671875, -3.812500000000, -2.476562500000, -3.726562500000, 1490933380
-0.356445312500, -0.785644531250, -0.145263671875, -3.812500000000, -2.476562500000, -3.726562500000, 1490933380
-0.356445312500, -0.785644531250, -0.145263671875, -3.812500000000, -2.476562500000, -3.726562500000, 1490933380
-0.356445312500, -0.785644531250, -0.145263671875, -3.812500000000, -2.476562500000, -3.726562500000, 1490933380
-0.470703125000, -0.842529296875, -0.061279296875, -3.726562500000, 0.312500000000, -4.382812500000, 1490933380
-0.470703125000, -0.842529296875, -0.061279296875, -3.726562500000, 0.312500000000, -4.382812500000, 1490933380
-0.470703125000, -0.842529296875, -0.061279296875, -3.726562500000, 0.312500000000, -4.382812500000, 1490933380
-0.470703125000, -0.842529296875, -0.061279296875, -3.726562500000, 0.312500000000, -4.382812500000, 1490933380
-0.409912109375, -0.886962890625, -0.068603515625, -4.421875000000, -0.218750000000, -6.968750000000, 1490933380
-0.409912109375, -0.886962890625, -0.068603515625, -4.421875000000, -0.218750000000, -6.968750000000, 1490933380
-0.409912109375, -0.886962890625, -0.068603515625, -4.421875000000, -0.218750000000, -6.968750000000, 1490933380
-0.510009765625, -0.792968750000, -0.125732421875, -4.835937500000, -1.257812500000, -4.640625000000, 1490933380
-0.510009765625, -0.792968750000, -0.125732421875, -4.835937500000, -1.257812500000, -4.640625000000, 1490933380
-0.510009765625, -0.792968750000, -0.125732421875, -4.835937500000, -1.257812500000, -4.640625000000, 1490933380
-0.493652343750, -0.818115234375, -0.152343750000, -6.289062500000, 0.148437500000, -6.570312500000, 1490933380
-0.493652343750, -0.818115234375, -0.152343750000, -6.289062500000, 0.148437500000, -6.570312500000, 1490933381
-0.493652343750, -0.818115234375, -0.152343750000, -6.289062500000, 0.148437500000, -6.570312500000, 1490933381
-0.498779296875, -0.837158203125, -0.115966796875, -6.750000000000, 2.820312500000, -8.617187500000, 1490933381
-0.498779296875, -0.837158203125, -0.115966796875, -6.750000000000, 2.820312500000, -8.617187500000, 1490933381
-0.498779296875, -0.837158203125, -0.115966796875, -6.750000000000, 2.820312500000, -8.617187500000, 1490933381
-0.498779296875, -0.837158203125, -0.115966796875, -6.750000000000, 2.820312500000, -8.617187500000, 1490933381
-0.448974609375, -0.811767578125, -0.143310546875, -1.757812500000, -0.453125000000, -5.687500000000, 1490933381
-0.448974609375, -0.811767578125, -0.143310546875, -1.757812500000, -0.453125000000, -5.687500000000, 1490933381
-0.448974609375, -0.811767578125, -0.143310546875, -1.757812500000, -0.453125000000, -5.687500000000, 1490933381
-0.511718750000, -0.881103515625, -0.113525390625, -7.906250000000, 0.492187500000, -8.109375000000, 1490933381
-0.511718750000, -0.881103515625, -0.113525390625, -7.906250000000, 0.492187500000, -8.109375000000, 1490933381
-0.511718750000, -0.881103515625, -0.113525390625, -7.906250000000, 0.492187500000, -8.109375000000, 1490933381
-0.373046875000, -0.865478515625, -0.146484375000, 0.445312500000, -0.187500000000, -6.117187500000, 1490933381
-0.373046875000, -0.865478515625, -0.146484375000, 0.445312500000, -0.187500000000, -6.117187500000, 1490933381
-0.373046875000, -0.865478515625, -0.146484375000, 0.445312500000, -0.187500000000, -6.117187500000, 1490933381
-0.422851562500, -0.743164062500, -0.075683593750, -6.843750000000, 1.453125000000, -8.578125000000, 1490933381
-0.422851562500, -0.743164062500, -0.075683593750, -6.843750000000, 1.453125000000, -8.578125000000, 1490933381
-0.422851562500, -0.743164062500, -0.075683593750, -6.843750000000, 1.453125000000, -8.578125000000, 1490933381
-0.422851562500, -0.743164062500, -0.075683593750, -6.843750000000, 1.453125000000, -8.578125000000, 1490933381
-0.523681640625, -0.815185546875, -0.138183593750, -4.875000000000, -0.359375000000, -3.398437500000, 1490933381
-0.523681640625, -0.815185546875, -0.138183593750, -4.875000000000, -0.359375000000, -3.398437500000, 1490933381
-0.523681640625, -0.815185546875, -0.138183593750, -4.875000000000, -0.359375000000, -3.398437500000, 1490933381
-0.567138671875, -0.847900390625, -0.134277343750, -6.101562500000, 0.945312500000, -2.156250000000, 1490933381
-0.567138671875, -0.847900390625, -0.134277343750, -6.101562500000, 0.945312500000, -2.156250000000, 1490933381
-0.567138671875, -0.847900390625, -0.134277343750, -6.101562500000, 0.945312500000, -2.156250000000, 1490933381
-0.481933593750, -0.800048828125, -0.034912109375, -3.851562500000, 0.000000000000, -5.203125000000, 1490933381
-0.481933593750, -0.800048828125, -0.034912109375, -3.851562500000, 0.000000000000, -5.203125000000, 1490933381
-0.481933593750, -0.800048828125, -0.034912109375, -3.851562500000, 0.000000000000, -5.203125000000, 1490933381
-0.391113281250, -0.837402343750, -0.148925781250, -3.953125000000, -0.617187500000, -4.203125000000, 1490933381
-0.391113281250, -0.837402343750, -0.148925781250, -3.953125000000, -0.617187500000, -4.203125000000, 1490933381
-0.391113281250, -0.837402343750, -0.148925781250, -3.953125000000, -0.617187500000, -4.203125000000, 1490933381
-0.391113281250, -0.837402343750, -0.148925781250, -3.953125000000, -0.617187500000, -4.203125000000, 1490933381
-0.527343750000, -0.868896484375, -0.053955078125, -6.265625000000, 0.398437500000, -5.492187500000, 1490933381
-0.527343750000, -0.868896484375, -0.053955078125, -6.265625000000, 0.398437500000, -5.492187500000, 1490933381
-0.527343750000, -0.868896484375, -0.053955078125, -6.265625000000, 0.398437500000, -5.492187500000, 1490933381
-0.422119140625, -0.919433593750, -0.128173828125, -4.617187500000, 0.687500000000, -6.156250000000, 1490933381
-0.422119140625, -0.919433593750, -0.128173828125, -4.617187500000, 0.687500000000, -6.156250000000, 1490933381
-0.422119140625, -0.919433593750, -0.128173828125, -4.617187500000, 0.687500000000, -6.156250000000, 1490933381
-0.486816406250, -0.873291015625, -0.101318359375, -3.656250000000, -2.039062500000, -5.273437500000, 1490933381
-0.486816406250, -0.873291015625, -0.101318359375, -3.656250000000, -2.039062500000, -5.273437500000, 1490933381
-0.486816406250, -0.873291015625, -0.101318359375, -3.656250000000, -2.039062500000, -5.273437500000, 1490933381
