ACC_X,ACC_Y,ACC_Z,G_X,G_Y,G_Z,Unix Time
0.899414062500, -1.812255859375, 1.457031250000, 253.992187500000, 253.992187500000, 19.828125000000, 1490761886
0.899414062500, -1.812255859375, 1.457031250000, 253.992187500000, 253.992187500000, 19.828125000000, 1490761886
0.899414062500, -1.812255859375, 1.457031250000, 253.992187500000, 253.992187500000, 19.828125000000, 1490761886
0.312255859375, -1.077148437500, 0.027587890625, -167.734375000000, 253.992187500000, -118.093750000000, 1490761886
0.312255859375, -1.077148437500, 0.027587890625, -167.734375000000, 253.992187500000, -118.093750000000, 1490761886
0.187255859375, -0.889160156250, -0.093017578125, -183.234375000000, 195.562500000000, 60.484375000000, 1490761886
0.260742187500, -0.539794921875, -0.123779296875, -173.937500000000, 63.609375000000, 85.664062500000, 1490761886
0.260742187500, -0.539794921875, -0.123779296875, -173.937500000000, 63.609375000000, 85.664062500000, 1490761886
0.260742187500, -0.539794921875, -0.123779296875, -173.937500000000, 63.609375000000, 85.664062500000, 1490761886
0.260742187500, -0.539794921875, -0.123779296875, -173.937500000000, 63.609375000000, 85.664062500000, 1490761886
0.131591796875, -0.038330078125, 0.000976562500, -197.218750000000, -256.000000000000, 33.296875000000, 1490761886
0.131591796875, -0.038330078125, 0.000976562500, -197.218750000000, -256.000000000000, 33.296875000000, 1490761886
0.131591796875, -0.038330078125, 0.000976562500, -197.218750000000, -256.000000000000, 33.296875000000, 1490761886
0.046875000000, -0.090332031250, -0.022216796875, -51.328125000000, -256.000000000000, 25.164062500000, 1490761886
0.046875000000, -0.090332031250, -0.022216796875, -51.328125000000, -256.000000000000, 25.164062500000, 1490761886
0.046875000000, -0.090332031250, -0.022216796875, -51.328125000000, -256.000000000000, 25.164062500000, 1490761886
0.076904296875, -2.080566406250, 0.295166015625, -92.429687500000, 118.093750000000, 160.492187500000, 1490761886
0.076904296875, -2.080566406250, 0.295166015625, -92.429687500000, 118.093750000000, 160.492187500000, 1490761886
0.076904296875, -2.080566406250, 0.295166015625, -92.429687500000, 118.093750000000, 160.492187500000, 1490761886
0.076904296875, -2.080566406250, 0.295166015625, -92.429687500000, 118.093750000000, 160.492187500000, 1490761886
0.242187500000, -1.798583984375, 0.254150390625, 108.343750000000, 253.992187500000, 104.250000000000, 1490761886
0.242187500000, -1.798583984375, 0.254150390625, 108.343750000000, 253.992187500000, 104.250000000000, 1490761886
0.242187500000, -1.798583984375, 0.254150390625, 108.343750000000, 253.992187500000, 104.250000000000, 1490761886
-0.109375000000, -1.619384765625, -0.040283203125, 253.992187500000, 253.992187500000, 17.695312500000, 1490761886
-0.109375000000, -1.619384765625, -0.040283203125, 253.992187500000, 253.992187500000, 17.695312500000, 1490761886
-0.109375000000, -1.619384765625, -0.040283203125, 253.992187500000, 253.992187500000, 17.695312500000, 1490761886
-0.335693359375, -1.267333984375, 1.605957031250, -220.445312500000, -5.257812500000, 139.375000000000, 1490761886
-0.335693359375, -1.267333984375, 1.605957031250, -220.445312500000, -5.257812500000, 139.375000000000, 1490761886
-0.335693359375, -1.267333984375, 1.605957031250, -220.445312500000, -5.257812500000, 139.375000000000, 1490761886
-0.175292968750, -1.003906250000, 0.010498046875, -240.359375000000, 253.992187500000, -50.117187500000, 1490761887
-0.175292968750, -1.003906250000, 0.010498046875, -240.359375000000, 253.992187500000, -50.117187500000, 1490761887
-0.175292968750, -1.003906250000, 0.010498046875, -240.359375000000, 253.992187500000, -50.117187500000, 1490761887
-0.175292968750, -1.003906250000, 0.010498046875, -240.359375000000, 253.992187500000, -50.117187500000, 1490761887
0.059082031250, -0.560058593750, 0.010986328125, -66.468750000000, 245.609375000000, 65.078125000000, 1490761887
0.059082031250, -0.560058593750, 0.010986328125, -66.468750000000, 245.609375000000, 65.078125000000, 1490761887
0.059082031250, -0.560058593750, 0.010986328125, -66.468750000000, 245.609375000000, 65.078125000000, 1490761887
0.114746093750, -0.295166015625, 0.021240234375, 35.617187500000, 52.398437500000, 25.562500000000, 1490761887
0.114746093750, -0.295166015625, 0.021240234375, 35.617187500000, 52.398437500000, 25.562500000000, 1490761887
0.114746093750, -0.295166015625, 0.021240234375, 35.617187500000, 52.398437500000, 25.562500000000, 1490761887
0.070800781250, 0.153076171875, 0.073242187500, 133.828125000000, -55.859375000000, -33.078125000000, 1490761887
0.070800781250, 0.153076171875, 0.073242187500, 133.828125000000, -55.859375000000, -33.078125000000, 1490761887
0.070800781250, 0.153076171875, 0.073242187500, 133.828125000000, -55.859375000000, -33.078125000000, 1490761887
0.590087890625, -1.159423828125, 0.207275390625, -13.531250000000, 89.625000000000, 27.859375000000, 1490761887
0.590087890625, -1.159423828125, 0.207275390625, -13.531250000000, 89.625000000000, 27.859375000000, 1490761887
0.590087890625, -1.159423828125, 0.207275390625, -13.531250000000, 89.625000000000, 27.859375000000, 1490761887
0.590087890625, -1.159423828125, 0.207275390625, -13.531250000000, 89.625000000000, 27.859375000000, 1490761887
0.175537109375, -1.873535156250, 0.521728515625, 253.992187500000, 253.992187500000, 240.257812500000, 1490761887
0.175537109375, -1.873535156250, 0.521728515625, 253.992187500000, 253.992187500000, 240.257812500000, 1490761887
0.175537109375, -1.873535156250, 0.521728515625, 253.992187500000, 253.992187500000, 240.257812500000, 1490761887
-0.669189453125, -1.631103515625, 0.981445312500, -8.742187500000, -214.453125000000, 53.000000000000, 1490761887
-0.669189453125, -1.631103515625, 0.981445312500, -8.742187500000, -214.453125000000, 53.000000000000, 1490761887
-0.669189453125, -1.631103515625, 0.981445312500, -8.742187500000, -214.453125000000, 53.000000000000, 1490761887
-0.250488281250, -1.359375000000, 0.538818359375, -85.218750000000, -7.085937500000, -90.968750000000, 1490761887
-0.250488281250, -1.359375000000, 0.538818359375, -85.218750000000, -7.085937500000, -90.968750000000, 1490761887
0.127197265625, -0.720214843750, 0.328369140625, 36.703125000000, 43.257812500000, 35.695312500000, 1490761887
0.127197265625, -0.720214843750, 0.328369140625, 36.703125000000, 43.257812500000, 35.695312500000, 1490761887
0.127197265625, -0.720214843750, 0.328369140625, 36.703125000000, 43.257812500000, 35.695312500000, 1490761887
0.127197265625, -0.720214843750, 0.328369140625, 36.703125000000, 43.257812500000, 35.695312500000, 1490761887
0.127197265625, -0.720214843750, 0.328369140625, 36.703125000000, 43.257812500000, 35.695312500000, 1490761887
0.028564453125, -0.150146484375, -0.001708984375, -24.914062500000, 10.156250000000, 73.351562500000, 1490761887
0.028564453125, -0.150146484375, -0.001708984375, -24.914062500000, 10.156250000000, 73.351562500000, 1490761887
0.028564453125, -0.150146484375, -0.001708984375, -24.914062500000, 10.156250000000, 73.351562500000, 1490761887
0.023437500000, -0.088134765625, -0.082275390625, -33.015625000000, -248.398437500000, 57.015625000000, 1490761887
0.023437500000, -0.088134765625, -0.082275390625, -33.015625000000, -248.398437500000, 57.015625000000, 1490761887
0.023437500000, -0.088134765625, -0.082275390625, -33.015625000000, -248.398437500000, 57.015625000000, 1490761887
0.003417968750, -0.412597656250, -0.028564453125, -47.554687500000, -256.000000000000, 27.554687500000, 1490761887
0.003417968750, -0.412597656250, -0.028564453125, -47.554687500000, -256.000000000000, 27.554687500000, 1490761887
-0.453369140625, -2.978515625000, 1.418212890625, 241.382812500000, -123.625000000000, -43.132812500000, 1490761887
-0.453369140625, -2.978515625000, 1.418212890625, 241.382812500000, -123.625000000000, -43.132812500000, 1490761887
-0.453369140625, -2.978515625000, 1.418212890625, 241.382812500000, -123.625000000000, -43.132812500000, 1490761887
0.258300781250, -1.643066406250, 0.913330078125, 5.343750000000, 24.156250000000, -8.148437500000, 1490761887
0.258300781250, -1.643066406250, 0.913330078125, 5.343750000000, 24.156250000000, -8.148437500000, 1490761887
0.258300781250, -1.643066406250, 0.913330078125, 5.343750000000, 24.156250000000, -8.148437500000, 1490761887
0.258300781250, -1.643066406250, 0.913330078125, 5.343750000000, 24.156250000000, -8.148437500000, 1490761887
0.258300781250, -1.643066406250, 0.913330078125, 5.343750000000, 24.156250000000, -8.148437500000, 1490761887
0.173339843750, -1.024902343750, 0.275878906250, -141.875000000000, -76.867187500000, -2.523437500000, 1490761887
0.173339843750, -1.024902343750, 0.275878906250, -141.875000000000, -76.867187500000, -2.523437500000, 1490761887
0.173339843750, -1.024902343750, 0.275878906250, -141.875000000000, -76.867187500000, -2.523437500000, 1490761887
0.127197265625, -0.339843750000, -0.000244140625, -85.046875000000, -78.796875000000, -17.335937500000, 1490761887
0.127197265625, -0.339843750000, -0.000244140625, -85.046875000000, -78.796875000000, -17.335937500000, 1490761887
0.127197265625, -0.339843750000, -0.000244140625, -85.046875000000, -78.796875000000, -17.335937500000, 1490761887
0.112060546875, -0.160400390625, -0.003417968750, -96.367187500000, -25.789062500000, 5.140625000000, 1490761887
0.112060546875, -0.160400390625, -0.003417968750, -96.367187500000, -25.789062500000, 5.140625000000, 1490761887
0.112060546875, -0.160400390625, -0.003417968750, -96.367187500000, -25.789062500000, 5.140625000000, 1490761887
0.112060546875, -0.160400390625, -0.003417968750, -96.367187500000, -25.789062500000, 5.140625000000, 1490761887
0.207031250000, -0.394531250000, -0.000488281250, -147.640625000000, 174.562500000000, 11.210937500000, 1490761887
0.207031250000, -0.394531250000, -0.000488281250, -147.640625000000, 174.562500000000, 11.210937500000, 1490761887
0.207031250000, -0.394531250000, -0.000488281250, -147.640625000000, 174.562500000000, 11.210937500000, 1490761887
0.661865234375, -1.197998046875, 0.213134765625, -137.078125000000, 253.992187500000, 131.476562500000, 1490761887
0.661865234375, -1.197998046875, 0.213134765625, -137.078125000000, 253.992187500000, 131.476562500000, 1490761887
0.661865234375, -1.197998046875, 0.213134765625, -137.078125000000, 253.992187500000, 131.476562500000, 1490761887
0.859863281250, -1.589355468750, -0.044921875000, 160.734375000000, -174.250000000000, -5.406250000000, 1490761887
0.859863281250, -1.589355468750, -0.044921875000, 160.734375000000, -174.250000000000, -5.406250000000, 1490761887
0.859863281250, -1.589355468750, -0.044921875000, 160.734375000000, -174.250000000000, -5.406250000000, 1490761887
-0.011474609375, -1.832763671875, 1.475341796875, 253.992187500000, 253.992187500000, 92.523437500000, 1490761887
-0.011474609375, -1.832763671875, 1.475341796875, 253.992187500000, 253.992187500000, 92.523437500000, 1490761888
-0.011474609375, -1.832763671875, 1.475341796875, 253.992187500000, 253.992187500000, 92.523437500000, 1490761888
-0.011474609375, -1.832763671875, 1.475341796875, 253.992187500000, 253.992187500000, 92.523437500000, 1490761888
-0.283935546875, -1.189208984375, 0.354980468750, -241.562500000000, -69.945312500000, -108.750000000000, 1490761888
-0.283935546875, -1.189208984375, 0.354980468750, -241.562500000000, -69.945312500000, -108.750000000000, 1490761888
-0.283935546875, -1.189208984375, 0.354980468750, -241.562500000000, -69.945312500000, -108.750000000000, 1490761888
0.085937500000, -0.529785156250, 0.387939453125, -145.156250000000, -209.437500000000, 30.710937500000, 1490761888
0.085937500000, -0.529785156250, 0.387939453125, -145.156250000000, -209.437500000000, 30.710937500000, 1490761888
0.085937500000, -0.529785156250, 0.387939453125, -145.156250000000, -209.437500000000, 30.710937500000, 1490761888
-0.013671875000, -0.274658203125, -0.048339843750, -129.835937500000, -256.000000000000, 21.726562500000, 1490761888
-0.013671875000, -0.274658203125, -0.048339843750, -129.835937500000, -256.000000000000, 21.726562500000, 1490761888
-0.127929687500, -0.505371093750, 0.053466796875, -36.960937500000, -256.000000000000, 96.328125000000, 1490761888
-0.127929687500, -0.505371093750, 0.053466796875, -36.960937500000, -256.000000000000, 96.328125000000, 1490761888
-0.127929687500, -0.505371093750, 0.053466796875, -36.960937500000, -256.000000000000, 96.328125000000, 1490761888
-0.127929687500, -0.505371093750, 0.053466796875, -36.960937500000, -256.000000000000, 96.328125000000, 1490761888
-0.127929687500, -0.505371093750, 0.053466796875, -36.960937500000, -256.000000000000, 96.328125000000, 1490761888
-0.325927734375, -1.219726562500, 0.119873046875, -9.476562500000, -256.000000000000, -22.835937500000, 1490761888
-0.325927734375, -1.219726562500, 0.119873046875, -9.476562500000, -256.000000000000, -22.835937500000, 1490761888
-0.325927734375, -1.219726562500, 0.119873046875, -9.476562500000, -256.000000000000, -22.835937500000, 1490761888
-0.375488281250, -1.355224609375, 0.382080078125, 13.265625000000, -20.929687500000, -50.468750000000, 1490761888
-0.375488281250, -1.355224609375, 0.382080078125, 13.265625000000, -20.929687500000, -50.468750000000, 1490761888
-0.375488281250, -1.355224609375, 0.382080078125, 13.265625000000, -20.929687500000, -50.468750000000, 1490761888
-0.351318359375, -1.994384765625, 0.387207031250, 76.710937500000, 188.898437500000, -69.765625000000, 1490761888
2.011962890625, -1.936523437500, 3.482421875000, 253.992187500000, -256.000000000000, -99.570312500000, 1490761888
2.011962890625, -1.936523437500, 3.482421875000, 253.992187500000, -256.000000000000, -99.570312500000, 1490761888
2.011962890625, -1.936523437500, 3.482421875000, 253.992187500000, -256.000000000000, -99.570312500000, 1490761888
2.011962890625, -1.936523437500, 3.482421875000, 253.992187500000, -256.000000000000, -99.570312500000, 1490761888
0.268066406250, -0.424316406250, 0.389160156250, -256.000000000000, 111.101562500000, 58.664062500000, 1490761888
0.268066406250, -0.424316406250, 0.389160156250, -256.000000000000, 111.101562500000, 58.664062500000, 1490761888
0.268066406250, -0.424316406250, 0.389160156250, -256.000000000000, 111.101562500000, 58.664062500000, 1490761888
0.268066406250, -0.424316406250, 0.389160156250, -256.000000000000, 111.101562500000, 58.664062500000, 1490761888
0.268066406250, -0.424316406250, 0.389160156250, -256.000000000000, 111.101562500000, 58.664062500000, 1490761888
0.198974609375, -0.057373046875, 0.024902343750, -47.562500000000, 48.710937500000, -13.953125000000, 1490761888
0.198974609375, -0.057373046875, 0.024902343750, -47.562500000000, 48.710937500000, -13.953125000000, 1490761888
0.198974609375, -0.057373046875, 0.024902343750, -47.562500000000, 48.710937500000, -13.953125000000, 1490761888
0.069091796875, -0.205078125000, 0.010742187500, -22.281250000000, 32.390625000000, -15.960937500000, 1490761888
0.069091796875, -0.205078125000, 0.010742187500, -22.281250000000, 32.390625000000, -15.960937500000, 1490761888
0.069091796875, -0.205078125000, 0.010742187500, -22.281250000000, 32.390625000000, -15.960937500000, 1490761888
0.384521484375, -0.961914062500, -0.077392578125, -256.000000000000, 248.500000000000, 24.343750000000, 1490761888
0.384521484375, -0.961914062500, -0.077392578125, -256.000000000000, 248.500000000000, 24.343750000000, 1490761888
0.384521484375, -0.961914062500, -0.077392578125, -256.000000000000, 248.500000000000, 24.343750000000, 1490761888
0.384521484375, -0.961914062500, -0.077392578125, -256.000000000000, 248.500000000000, 24.343750000000, 1490761888
0.881835937500, -1.516357421875, 0.148681640625, 94.390625000000, -6.164062500000, 120.265625000000, 1490761888
0.881835937500, -1.516357421875, 0.148681640625, 94.390625000000, -6.164062500000, 120.265625000000, 1490761888
0.881835937500, -1.516357421875, 0.148681640625, 94.390625000000, -6.164062500000, 120.265625000000, 1490761888
0.964599609375, -2.143798828125, 0.571777343750, 253.992187500000, -201.007812500000, -97.031250000000, 1490761888
0.964599609375, -2.143798828125, 0.571777343750, 253.992187500000, -201.007812500000, -97.031250000000, 1490761888
0.964599609375, -2.143798828125, 0.571777343750, 253.992187500000, -201.007812500000, -97.031250000000, 1490761888
-0.091064453125, -1.833496093750, 1.043701171875, -75.382812500000, 253.992187500000, -7.523437500000, 1490761888
-0.091064453125, -1.833496093750, 1.043701171875, -75.382812500000, 253.992187500000, -7.523437500000, 1490761888
-0.091064453125, -1.833496093750, 1.043701171875, -75.382812500000, 253.992187500000, -7.523437500000, 1490761888
0.076904296875, -0.586669921875, -0.078613281250, -256.000000000000, -91.703125000000, 60.757812500000, 1490761888
0.076904296875, -0.586669921875, -0.078613281250, -256.000000000000, -91.703125000000, 60.757812500000, 1490761888
0.076904296875, -0.586669921875, -0.078613281250, -256.000000000000, -91.703125000000, 60.757812500000, 1490761888
0.076904296875, -0.586669921875, -0.078613281250, -256.000000000000, -91.703125000000, 60.757812500000, 1490761888
0.901855468750, -0.799804687500, -1.574218750000, 253.992187500000, -256.000000000000, 128.976562500000, 1490761888
0.901855468750, -0.799804687500, -1.574218750000, 253.992187500000, -256.000000000000, 128.976562500000, 1490761888
0.901855468750, -0.799804687500, -1.574218750000, 253.992187500000, -256.000000000000, 128.976562500000, 1490761888
-0.934326171875, -0.062744140625, -0.309082031250, 7.812500000000, 228.414062500000, 215.406250000000, 1490761888
-0.934326171875, -0.062744140625, -0.309082031250, 7.812500000000, 228.414062500000, 215.406250000000, 1490761888
-0.934326171875, -0.062744140625, -0.309082031250, 7.812500000000, 228.414062500000, 215.406250000000, 1490761888
-0.276367187500, -1.002197265625, 0.178955078125, 92.093750000000, 253.992187500000, -98.789062500000, 1490761888
-0.276367187500, -1.002197265625, 0.178955078125, 92.093750000000, 253.992187500000, -98.789062500000, 1490761888
-0.276367187500, -1.002197265625, 0.178955078125, 92.093750000000, 253.992187500000, -98.789062500000, 1490761888
-0.465576171875, -2.397460937500, 0.312744140625, 94.750000000000, 253.992187500000, 81.328125000000, 1490761888
-0.465576171875, -2.397460937500, 0.312744140625, 94.750000000000, 253.992187500000, 81.328125000000, 1490761888
-0.465576171875, -2.397460937500, 0.312744140625, 94.750000000000, 253.992187500000, 81.328125000000, 1490761888
-0.465576171875, -2.397460937500, 0.312744140625, 94.750000000000, 253.992187500000, 81.328125000000, 1490761888
-0.689697265625, -2.126220703125, 4.746826171875, 253.992187500000, 253.992187500000, 246.406250000000, 1490761889
-0.689697265625, -2.126220703125, 4.746826171875, 253.992187500000, 253.992187500000, 246.406250000000, 1490761889
-0.689697265625, -2.126220703125, 4.746826171875, 253.992187500000, 253.992187500000, 246.406250000000, 1490761889
0.251464843750, -1.323486328125, 0.463134765625, -256.000000000000, 86.953125000000, 14.437500000000, 1490761889
0.251464843750, -1.323486328125, 0.463134765625, -256.000000000000, 86.953125000000, 14.437500000000, 1490761889
0.251464843750, -1.323486328125, 0.463134765625, -256.000000000000, 86.953125000000, 14.437500000000, 1490761889
0.081054687500, -0.753662109375, 0.229492187500, -139.859375000000, 247.234375000000, 117.796875000000, 1490761889
0.081054687500, -0.753662109375, 0.229492187500, -139.859375000000, 247.234375000000, 117.796875000000, 1490761889
0.053222656250, -0.094970703125, -0.030029296875, -75.523437500000, 46.250000000000, 69.312500000000, 1490761889
0.053222656250, -0.094970703125, -0.030029296875, -75.523437500000, 46.250000000000, 69.312500000000, 1490761889
0.053222656250, -0.094970703125, -0.030029296875, -75.523437500000, 46.250000000000, 69.312500000000, 1490761889
0.053222656250, -0.094970703125, -0.030029296875, -75.523437500000, 46.250000000000, 69.312500000000, 1490761889
0.128417968750, -0.163085937500, 0.020019531250, -81.031250000000, 69.054687500000, 58.890625000000, 1490761889
0.187988281250, -0.184326171875, 0.079589843750, -75.484375000000, 109.382812500000, 49.195312500000, 1490761889
0.187988281250, -0.184326171875, 0.079589843750, -75.484375000000, 109.382812500000, 49.195312500000, 1490761889
0.187988281250, -0.184326171875, 0.079589843750, -75.484375000000, 109.382812500000, 49.195312500000, 1490761889
0.183837890625, -0.516357421875, -0.006347656250, -48.695312500000, 192.007812500000, 76.734375000000, 1490761889
0.183837890625, -0.516357421875, -0.006347656250, -48.695312500000, 192.007812500000, 76.734375000000, 1490761889
0.183837890625, -0.516357421875, -0.006347656250, -48.695312500000, 192.007812500000, 76.734375000000, 1490761889
0.706054687500, -1.274902343750, 0.193603515625, -35.437500000000, 253.992187500000, 139.031250000000, 1490761889
0.706054687500, -1.274902343750, 0.193603515625, -35.437500000000, 253.992187500000, 139.031250000000, 1490761889
0.706054687500, -1.274902343750, 0.193603515625, -35.437500000000, 253.992187500000, 139.031250000000, 1490761889
-0.059814453125, -1.884521484375, 1.219238281250, -36.703125000000, 253.992187500000, 53.125000000000, 1490761889
-0.059814453125, -1.884521484375, 1.219238281250, -36.703125000000, 253.992187500000, 53.125000000000, 1490761889
-0.059814453125, -1.884521484375, 1.219238281250, -36.703125000000, 253.992187500000, 53.125000000000, 1490761889
-0.059814453125, -1.884521484375, 1.219238281250, -36.703125000000, 253.992187500000, 53.125000000000, 1490761889
0.108154296875, -1.464843750000, 0.345703125000, -89.765625000000, 44.390625000000, 55.718750000000, 1490761889
0.108154296875, -1.464843750000, 0.345703125000, -89.765625000000, 44.390625000000, 55.718750000000, 1490761889
0.108154296875, -1.464843750000, 0.345703125000, -89.765625000000, 44.390625000000, 55.718750000000, 1490761889
-0.325439453125, -0.853027343750, 0.769287109375, 58.140625000000, 146.203125000000, 57.164062500000, 1490761889
-0.325439453125, -0.853027343750, 0.769287109375, 58.140625000000, 146.203125000000, 57.164062500000, 1490761889
-0.325439453125, -0.853027343750, 0.769287109375, 58.140625000000, 146.203125000000, 57.164062500000, 1490761889
-0.047119140625, -0.396240234375, 0.170166015625, -85.992187500000, 112.921875000000, 16.851562500000, 1490761889
-0.047119140625, -0.396240234375, 0.170166015625, -85.992187500000, 112.921875000000, 16.851562500000, 1490761889
-0.047119140625, -0.396240234375, 0.170166015625, -85.992187500000, 112.921875000000, 16.851562500000, 1490761889
-0.033447265625, -0.358642578125, -0.078369140625, -158.320312500000, -59.531250000000, 20.890625000000, 1490761889
-0.033447265625, -0.358642578125, -0.078369140625, -158.320312500000, -59.531250000000, 20.890625000000, 1490761889
-0.125976562500, -0.830078125000, 0.270263671875, 95.046875000000, -57.015625000000, 37.835937500000, 1490761889
-0.125976562500, -0.830078125000, 0.270263671875, 95.046875000000, -57.015625000000, 37.835937500000, 1490761889
-0.125976562500, -0.830078125000, 0.270263671875, 95.046875000000, -57.015625000000, 37.835937500000, 1490761889
-0.125976562500, -0.830078125000, 0.270263671875, 95.046875000000, -57.015625000000, 37.835937500000, 1490761889
-0.125976562500, -0.830078125000, 0.270263671875, 95.046875000000, -57.015625000000, 37.835937500000, 1490761889
-0.059326171875, -0.810791015625, 0.699218750000, 22.234375000000, 253.992187500000, 50.968750000000, 1490761889
-0.059326171875, -0.810791015625, 0.699218750000, 22.234375000000, 253.992187500000, 50.968750000000, 1490761889
-0.059326171875, -0.810791015625, 0.699218750000, 22.234375000000, 253.992187500000, 50.968750000000, 1490761889
-0.140136718750, -1.278808593750, 0.815673828125, 52.781250000000, 253.992187500000, 28.304687500000, 1490761889
-0.140136718750, -1.278808593750, 0.815673828125, 52.781250000000, 253.992187500000, 28.304687500000, 1490761889
-0.140136718750, -1.278808593750, 0.815673828125, 52.781250000000, 253.992187500000, 28.304687500000, 1490761889
-0.246337890625, -0.759765625000, 0.393066406250, -82.523437500000, -136.867187500000, -1.718750000000, 1490761889
-0.246337890625, -0.759765625000, 0.393066406250, -82.523437500000, -136.867187500000, -1.718750000000, 1490761889
-0.246337890625, -0.759765625000, 0.393066406250, -82.523437500000, -136.867187500000, -1.718750000000, 1490761889
-0.246337890625, -0.759765625000, 0.393066406250, -82.523437500000, -136.867187500000, -1.718750000000, 1490761889
-0.313476562500, -0.728515625000, 0.308837890625, -31.062500000000, -139.687500000000, -11.882812500000, 1490761889
-0.313476562500, -0.728515625000, 0.308837890625, -31.062500000000, -139.687500000000, -11.882812500000, 1490761889
-0.313476562500, -0.728515625000, 0.308837890625, -31.062500000000, -139.687500000000, -11.882812500000, 1490761889
-0.076904296875, -0.903076171875, 0.490722656250, 84.664062500000, 29.476562500000, -23.835937500000, 1490761889
-0.076904296875, -0.903076171875, 0.490722656250, 84.664062500000, 29.476562500000, -23.835937500000, 1490761889
-0.076904296875, -0.903076171875, 0.490722656250, 84.664062500000, 29.476562500000, -23.835937500000, 1490761889
0.062988281250, -0.723388671875, 0.671386718750, 28.257812500000, 104.578125000000, -11.617187500000, 1490761889
0.062988281250, -0.723388671875, 0.671386718750, 28.257812500000, 104.578125000000, -11.617187500000, 1490761889
0.062988281250, -0.723388671875, 0.671386718750, 28.257812500000, 104.578125000000, -11.617187500000, 1490761889
-0.011962890625, -0.656982421875, 0.528808593750, -1.187500000000, -30.203125000000, 4.828125000000, 1490761889
-0.011962890625, -0.656982421875, 0.528808593750, -1.187500000000, -30.203125000000, 4.828125000000, 1490761889
-0.011962890625, -0.656982421875, 0.528808593750, -1.187500000000, -30.203125000000, 4.828125000000, 1490761889
-0.011962890625, -0.656982421875, 0.528808593750, -1.187500000000, -30.203125000000, 4.828125000000, 1490761889
-0.064208984375, -0.826660156250, 0.582275390625, 8.296875000000, 42.140625000000, 29.867187500000, 1490761890
-0.064208984375, -0.826660156250, 0.582275390625, 8.296875000000, 42.140625000000, 29.867187500000, 1490761890
-0.064208984375, -0.826660156250, 0.582275390625, 8.296875000000, 42.140625000000, 29.867187500000, 1490761890
-0.096435546875, -0.888427734375, 0.483154296875, 11.695312500000, 17.679687500000, 30.828125000000, 1490761890
-0.096435546875, -0.888427734375, 0.483154296875, 11.695312500000, 17.679687500000, 30.828125000000, 1490761890
-0.096435546875, -0.888427734375, 0.483154296875, 11.695312500000, 17.679687500000, 30.828125000000, 1490761890
-0.133789062500, -0.888916015625, 0.457031250000, -41.078125000000, -79.234375000000, 13.429687500000, 1490761890
-0.133789062500, -0.888916015625, 0.457031250000, -41.078125000000, -79.234375000000, 13.429687500000, 1490761890
-0.133789062500, -0.888916015625, 0.457031250000, -41.078125000000, -79.234375000000, 13.429687500000, 1490761890
-0.275878906250, -0.954589843750, 0.646484375000, 39.820312500000, 21.078125000000, 7.804687500000, 1490761890
-0.275878906250, -0.954589843750, 0.646484375000, 39.820312500000, 21.078125000000, 7.804687500000, 1490761890
-0.275878906250, -0.954589843750, 0.646484375000, 39.820312500000, 21.078125000000, 7.804687500000, 1490761890
-0.275878906250, -0.954589843750, 0.646484375000, 39.820312500000, 21.078125000000, 7.804687500000, 1490761890
-0.025390625000, -0.927734375000, 0.760986328125, 7.117187500000, -29.328125000000, -11.304687500000, 1490761890
-0.025390625000, -0.927734375000, 0.760986328125, 7.117187500000, -29.328125000000, -11.304687500000, 1490761890
-0.025390625000, -0.927734375000, 0.760986328125, 7.117187500000, -29.328125000000, -11.304687500000, 1490761890
0.088623046875, -1.024658203125, 0.558593750000, -12.203125000000, -54.640625000000, -2.812500000000, 1490761890
0.088623046875, -1.024658203125, 0.558593750000, -12.203125000000, -54.640625000000, -2.812500000000, 1490761890
0.088623046875, -1.024658203125, 0.558593750000, -12.203125000000, -54.640625000000, -2.812500000000, 1490761890
0.045654296875, -0.919433593750, 0.445068359375, -38.093750000000, 16.031250000000, -2.703125000000, 1490761890
0.045654296875, -0.919433593750, 0.445068359375, -38.093750000000, 16.031250000000, -2.703125000000, 1490761890
0.045654296875, -0.919433593750, 0.445068359375, -38.093750000000, 16.031250000000, -2.703125000000, 1490761890
-0.017578125000, -0.751953125000, 0.394287109375, -23.890625000000, 15.718750000000, -4.406250000000, 1490761890
-0.017578125000, -0.751953125000, 0.394287109375, -23.890625000000, 15.718750000000, -4.406250000000, 1490761890
-0.017578125000, -0.751953125000, 0.394287109375, -23.890625000000, 15.718750000000, -4.406250000000, 1490761890
-0.017578125000, -0.751953125000, 0.394287109375, -23.890625000000, 15.718750000000, -4.406250000000, 1490761890
0.181152343750, -0.887451171875, 0.107177734375, -41.132812500000, -34.968750000000, 6.632812500000, 1490761890
0.181152343750, -0.887451171875, 0.107177734375, -41.132812500000, -34.968750000000, 6.632812500000, 1490761890
0.181152343750, -0.887451171875, 0.107177734375, -41.132812500000, -34.968750000000, 6.632812500000, 1490761890
0.210449218750, -0.914062500000, 0.304199218750, -30.164062500000, 0.656250000000, 6.031250000000, 1490761890
0.210449218750, -0.914062500000, 0.304199218750, -30.164062500000, 0.656250000000, 6.031250000000, 1490761890
0.210449218750, -0.914062500000, 0.304199218750, -30.164062500000, 0.656250000000, 6.031250000000, 1490761890
0.044677734375, -0.975097656250, 0.496337890625, 49.710937500000, 122.585937500000, 13.546875000000, 1490761890
0.044677734375, -0.975097656250, 0.496337890625, 49.710937500000, 122.585937500000, 13.546875000000, 1490761890
0.044677734375, -0.975097656250, 0.496337890625, 49.710937500000, 122.585937500000, 13.546875000000, 1490761890
-0.115234375000, -0.881347656250, 0.466796875000, -2.101562500000, 36.812500000000, 5.828125000000, 1490761890
-0.115234375000, -0.881347656250, 0.466796875000, -2.101562500000, 36.812500000000, 5.828125000000, 1490761890
-0.115234375000, -0.881347656250, 0.466796875000, -2.101562500000, 36.812500000000, 5.828125000000, 1490761890
-0.115234375000, -0.881347656250, 0.466796875000, -2.101562500000, 36.812500000000, 5.828125000000, 1490761890
0.004150390625, -0.805664062500, 0.510009765625, 26.132812500000, -3.492187500000, 2.000000000000, 1490761890
0.004150390625, -0.805664062500, 0.510009765625, 26.132812500000, -3.492187500000, 2.000000000000, 1490761890
0.004150390625, -0.805664062500, 0.510009765625, 26.132812500000, -3.492187500000, 2.000000000000, 1490761890
0.040527343750, -0.811767578125, 0.366210937500, 4.054687500000, 32.992187500000, -2.976562500000, 1490761890
0.040527343750, -0.811767578125, 0.366210937500, 4.054687500000, 32.992187500000, -2.976562500000, 1490761890
0.040527343750, -0.811767578125, 0.366210937500, 4.054687500000, 32.992187500000, -2.976562500000, 1490761890
-0.025146484375, -0.890625000000, 0.477294921875, 3.781250000000, 10.179687500000, -1.390625000000, 1490761890
-0.025146484375, -0.890625000000, 0.477294921875, 3.781250000000, 10.179687500000, -1.390625000000, 1490761890
-0.025146484375, -0.890625000000, 0.477294921875, 3.781250000000, 10.179687500000, -1.390625000000, 1490761890
0.067382812500, -0.894775390625, 0.513916015625, -20.960937500000, -6.648437500000, -3.835937500000, 1490761890
0.067382812500, -0.894775390625, 0.513916015625, -20.960937500000, -6.648437500000, -3.835937500000, 1490761890
0.067382812500, -0.894775390625, 0.513916015625, -20.960937500000, -6.648437500000, -3.835937500000, 1490761890
0.067382812500, -0.894775390625, 0.513916015625, -20.960937500000, -6.648437500000, -3.835937500000, 1490761890
0.007324218750, -1.028076171875, 0.431396484375, -7.203125000000, 5.546875000000, -5.148437500000, 1490761890
0.007324218750, -1.028076171875, 0.431396484375, -7.203125000000, 5.546875000000, -5.148437500000, 1490761890
0.007324218750, -1.028076171875, 0.431396484375, -7.203125000000, 5.546875000000, -5.148437500000, 1490761890
-0.085693359375, -0.874267578125, 0.542968750000, -6.585937500000, 21.820312500000, -16.132812500000, 1490761890
-0.085693359375, -0.874267578125, 0.542968750000, -6.585937500000, 21.820312500000, -16.132812500000, 1490761890
-0.085693359375, -0.874267578125, 0.542968750000, -6.585937500000, 21.820312500000, -16.132812500000, 1490761890
0.025146484375, -0.921142578125, 0.550048828125, -9.546875000000, -48.117187500000, -16.734375000000, 1490761890
0.040039062500, -0.942138671875, 0.574218750000, -8.015625000000, -46.335937500000, -3.734375000000, 1490761890
0.040039062500, -0.942138671875, 0.574218750000, -8.015625000000, -46.335937500000, -3.734375000000, 1490761890
0.040039062500, -0.942138671875, 0.574218750000, -8.015625000000, -46.335937500000, -3.734375000000, 1490761890
0.040039062500, -0.942138671875, 0.574218750000, -8.015625000000, -46.335937500000, -3.734375000000, 1490761890
-0.064941406250, -0.914794921875, 0.364746093750, -35.640625000000, -16.742187500000, 2.820312500000, 1490761890
-0.064941406250, -0.914794921875, 0.364746093750, -35.640625000000, -16.742187500000, 2.820312500000, 1490761890
-0.064941406250, -0.914794921875, 0.364746093750, -35.640625000000, -16.742187500000, 2.820312500000, 1490761890
-0.064941406250, -0.914794921875, 0.364746093750, -35.640625000000, -16.742187500000, 2.820312500000, 1490761890
-0.064941406250, -0.914794921875, 0.364746093750, -35.640625000000, -16.742187500000, 2.820312500000, 1490761890
-0.053710937500, -0.781494140625, 0.248046875000, -17.007812500000, -24.554687500000, 4.578125000000, 1490761891
-0.053710937500, -0.781494140625, 0.248046875000, -17.007812500000, -24.554687500000, 4.578125000000, 1490761891
-0.053710937500, -0.781494140625, 0.248046875000, -17.007812500000, -24.554687500000, 4.578125000000, 1490761891
-0.104248046875, -0.786132812500, 0.204345703125, -22.523437500000, -96.843750000000, -17.726562500000, 1490761891
-0.104248046875, -0.786132812500, 0.204345703125, -22.523437500000, -96.843750000000, -17.726562500000, 1490761891
-0.104248046875, -0.786132812500, 0.204345703125, -22.523437500000, -96.843750000000, -17.726562500000, 1490761891
-0.130859375000, -0.824462890625, 0.173828125000, 34.093750000000, -126.429687500000, -30.796875000000, 1490761891
-0.130859375000, -0.824462890625, 0.173828125000, 34.093750000000, -126.429687500000, -30.796875000000, 1490761891
-0.130859375000, -0.824462890625, 0.173828125000, 34.093750000000, -126.429687500000, -30.796875000000, 1490761891
-0.130859375000, -0.824462890625, 0.173828125000, 34.093750000000, -126.429687500000, -30.796875000000, 1490761891
0.007568359375, -1.008056640625, 0.290527343750, 68.914062500000, 33.054687500000, -27.320312500000, 1490761891
0.007568359375, -1.008056640625, 0.290527343750, 68.914062500000, 33.054687500000, -27.320312500000, 1490761891
0.007568359375, -1.008056640625, 0.290527343750, 68.914062500000, 33.054687500000, -27.320312500000, 1490761891
0.068359375000, -1.072021484375, 0.657714843750, 64.007812500000, 102.210937500000, -18.351562500000, 1490761891
0.068359375000, -1.072021484375, 0.657714843750, 64.007812500000, 102.210937500000, -18.351562500000, 1490761891
0.068359375000, -1.072021484375, 0.657714843750, 64.007812500000, 102.210937500000, -18.351562500000, 1490761891
0.024658203125, -0.790283203125, 0.509277343750, -6.304687500000, -92.718750000000, -26.898437500000, 1490761891
0.024658203125, -0.790283203125, 0.509277343750, -6.304687500000, -92.718750000000, -26.898437500000, 1490761891
0.024658203125, -0.790283203125, 0.509277343750, -6.304687500000, -92.718750000000, -26.898437500000, 1490761891
-0.005126953125, -0.747558593750, 0.375976562500, -8.281250000000, -131.554687500000, -7.593750000000, 1490761891
-0.005126953125, -0.747558593750, 0.375976562500, -8.281250000000, -131.554687500000, -7.593750000000, 1490761891
-0.005126953125, -0.747558593750, 0.375976562500, -8.281250000000, -131.554687500000, -7.593750000000, 1490761891
-0.005126953125, -0.747558593750, 0.375976562500, -8.281250000000, -131.554687500000, -7.593750000000, 1490761891
0.029296875000, -0.859130859375, 0.405517578125, -1.218750000000, 17.460937500000, -18.117187500000, 1490761891
0.029296875000, -0.859130859375, 0.405517578125, -1.218750000000, 17.460937500000, -18.117187500000, 1490761891
0.029296875000, -0.859130859375, 0.405517578125, -1.218750000000, 17.460937500000, -18.117187500000, 1490761891
-0.090087890625, -0.829833984375, 0.303710937500, 7.546875000000, 36.851562500000, -20.687500000000, 1490761891
-0.090087890625, -0.829833984375, 0.303710937500, 7.546875000000, 36.851562500000, -20.687500000000, 1490761891
-0.090087890625, -0.829833984375, 0.303710937500, 7.546875000000, 36.851562500000, -20.687500000000, 1490761891
-0.077148437500, -0.957763671875, 0.505371093750, 10.367187500000, -17.687500000000, -23.593750000000, 1490761891
-0.077148437500, -0.957763671875, 0.505371093750, 10.367187500000, -17.687500000000, -23.593750000000, 1490761891
-0.077148437500, -0.957763671875, 0.505371093750, 10.367187500000, -17.687500000000, -23.593750000000, 1490761891
0.108154296875, -1.068603515625, 0.617187500000, -39.851562500000, 34.210937500000, 0.343750000000, 1490761891
0.108154296875, -1.068603515625, 0.617187500000, -39.851562500000, 34.210937500000, 0.343750000000, 1490761891
0.108154296875, -1.068603515625, 0.617187500000, -39.851562500000, 34.210937500000, 0.343750000000, 1490761891
0.108154296875, -1.068603515625, 0.617187500000, -39.851562500000, 34.210937500000, 0.343750000000, 1490761891
-0.097167968750, -1.192138671875, 0.709960937500, -84.601562500000, 13.984375000000, -2.898437500000, 1490761891
-0.097167968750, -1.192138671875, 0.709960937500, -84.601562500000, 13.984375000000, -2.898437500000, 1490761891
-0.097167968750, -1.192138671875, 0.709960937500, -84.601562500000, 13.984375000000, -2.898437500000, 1490761891
-0.101074218750, -1.080322265625, 0.372314453125, -43.984375000000, -61.796875000000, -4.007812500000, 1490761891
-0.101074218750, -1.080322265625, 0.372314453125, -43.984375000000, -61.796875000000, -4.007812500000, 1490761891
-0.101074218750, -1.080322265625, 0.372314453125, -43.984375000000, -61.796875000000, -4.007812500000, 1490761891
0.078613281250, -0.875732421875, 0.220947265625, -3.476562500000, -53.609375000000, -12.460937500000, 1490761891
0.078613281250, -0.875732421875, 0.220947265625, -3.476562500000, -53.609375000000, -12.460937500000, 1490761891
0.078613281250, -0.875732421875, 0.220947265625, -3.476562500000, -53.609375000000, -12.460937500000, 1490761891
0.025878906250, -0.759765625000, 0.320312500000, -0.531250000000, 83.265625000000, -8.507812500000, 1490761891
0.025878906250, -0.759765625000, 0.320312500000, -0.531250000000, 83.265625000000, -8.507812500000, 1490761891
0.025878906250, -0.759765625000, 0.320312500000, -0.531250000000, 83.265625000000, -8.507812500000, 1490761891
0.025878906250, -0.759765625000, 0.320312500000, -0.531250000000, 83.265625000000, -8.507812500000, 1490761891
-0.013183593750, -0.889892578125, 0.268066406250, -41.656250000000, -7.898437500000, -12.351562500000, 1490761891
-0.013183593750, -0.889892578125, 0.268066406250, -41.656250000000, -7.898437500000, -12.351562500000, 1490761891
-0.013183593750, -0.889892578125, 0.268066406250, -41.656250000000, -7.898437500000, -12.351562500000, 1490761891
0.070800781250, -0.922851562500, 0.245361328125, 2.773437500000, -23.421875000000, -3.070312500000, 1490761891
0.070800781250, -0.922851562500, 0.245361328125, 2.773437500000, -23.421875000000, -3.070312500000, 1490761891
0.070800781250, -0.922851562500, 0.245361328125, 2.773437500000, -23.421875000000, -3.070312500000, 1490761891
0.343750000000, -0.933837890625, 0.455078125000, 43.054687500000, 94.367187500000, 11.593750000000, 1490761891
0.343750000000, -0.933837890625, 0.455078125000, 43.054687500000, 94.367187500000, 11.593750000000, 1490761891
-0.143554687500, -0.952392578125, 0.520996093750, 18.421875000000, 127.937500000000, 19.898437500000, 1490761891
-0.143554687500, -0.952392578125, 0.520996093750, 18.421875000000, 127.937500000000, 19.898437500000, 1490761891
-0.143554687500, -0.952392578125, 0.520996093750, 18.421875000000, 127.937500000000, 19.898437500000, 1490761891
-0.143554687500, -0.952392578125, 0.520996093750, 18.421875000000, 127.937500000000, 19.898437500000, 1490761891
-0.143554687500, -0.952392578125, 0.520996093750, 18.421875000000, 127.937500000000, 19.898437500000, 1490761891
-0.154052734375, -0.896972656250, 0.305419921875, -37.257812500000, -43.000000000000, -0.851562500000, 1490761891
-0.154052734375, -0.896972656250, 0.305419921875, -37.257812500000, -43.000000000000, -0.851562500000, 1490761891
-0.154052734375, -0.896972656250, 0.305419921875, -37.257812500000, -43.000000000000, -0.851562500000, 1490761891
-0.016357421875, -0.894775390625, 0.346923828125, -11.679687500000, -59.898437500000, -5.843750000000, 1490761891
-0.016357421875, -0.894775390625, 0.346923828125, -11.679687500000, -59.898437500000, -5.843750000000, 1490761891
-0.016357421875, -0.894775390625, 0.346923828125, -11.679687500000, -59.898437500000, -5.843750000000, 1490761892
0.197509765625, -0.856201171875, 0.464843750000, 25.492187500000, 59.031250000000, 2.070312500000, 1490761892
0.197509765625, -0.856201171875, 0.464843750000, 25.492187500000, 59.031250000000, 2.070312500000, 1490761892
0.197509765625, -0.856201171875, 0.464843750000, 25.492187500000, 59.031250000000, 2.070312500000, 1490761892
-0.054931640625, -0.885498046875, 0.489746093750, 5.054687500000, 48.773437500000, -1.609375000000, 1490761892
-0.054931640625, -0.885498046875, 0.489746093750, 5.054687500000, 48.773437500000, -1.609375000000, 1490761892
-0.054931640625, -0.885498046875, 0.489746093750, 5.054687500000, 48.773437500000, -1.609375000000, 1490761892
-0.054931640625, -0.885498046875, 0.489746093750, 5.054687500000, 48.773437500000, -1.609375000000, 1490761892
-0.061035156250, -0.936279296875, 0.567626953125, -34.234375000000, -58.851562500000, -18.281250000000, 1490761892
-0.061035156250, -0.936279296875, 0.567626953125, -34.234375000000, -58.851562500000, -18.281250000000, 1490761892
-0.061035156250, -0.936279296875, 0.567626953125, -34.234375000000, -58.851562500000, -18.281250000000, 1490761892
-0.021240234375, -0.900390625000, 0.400146484375, -22.429687500000, -53.687500000000, -24.304687500000, 1490761892
-0.021240234375, -0.900390625000, 0.400146484375, -22.429687500000, -53.687500000000, -24.304687500000, 1490761892
-0.021240234375, -0.900390625000, 0.400146484375, -22.429687500000, -53.687500000000, -24.304687500000, 1490761892
-0.066406250000, -0.933105468750, 0.581542968750, -34.875000000000, 12.656250000000, -35.320312500000, 1490761892
-0.066406250000, -0.933105468750, 0.581542968750, -34.875000000000, 12.656250000000, -35.320312500000, 1490761892
-0.066406250000, -0.933105468750, 0.581542968750, -34.875000000000, 12.656250000000, -35.320312500000, 1490761892
-0.015869140625, -1.075683593750, 0.578369140625, -22.835937500000, -45.531250000000, -21.367187500000, 1490761892
-0.015869140625, -1.075683593750, 0.578369140625, -22.835937500000, -45.531250000000, -21.367187500000, 1490761892
-0.015869140625, -1.075683593750, 0.578369140625, -22.835937500000, -45.531250000000, -21.367187500000, 1490761892
-0.015869140625, -1.075683593750, 0.578369140625, -22.835937500000, -45.531250000000, -21.367187500000, 1490761892
-0.050292968750, -0.723144531250, 0.282470703125, -7.882812500000, -65.640625000000, -9.710937500000, 1490761892
-0.050292968750, -0.723144531250, 0.282470703125, -7.882812500000, -65.640625000000, -9.710937500000, 1490761892
-0.050292968750, -0.723144531250, 0.282470703125, -7.882812500000, -65.640625000000, -9.710937500000, 1490761892
-0.052734375000, -0.719726562500, 0.120849609375, -35.929687500000, -86.320312500000, -19.593750000000, 1490761892
-0.052734375000, -0.719726562500, 0.120849609375, -35.929687500000, -86.320312500000, -19.593750000000, 1490761892
-0.052734375000, -0.719726562500, 0.120849609375, -35.929687500000, -86.320312500000, -19.593750000000, 1490761892
-0.093994140625, -0.824462890625, 0.260986328125, 17.171875000000, -84.195312500000, -22.179687500000, 1490761892
-0.093994140625, -0.824462890625, 0.260986328125, 17.171875000000, -84.195312500000, -22.179687500000, 1490761892
-0.093994140625, -0.824462890625, 0.260986328125, 17.171875000000, -84.195312500000, -22.179687500000, 1490761892
0.137451171875, -1.080566406250, 0.498291015625, 89.859375000000, 94.500000000000, -7.359375000000, 1490761892
0.137451171875, -1.080566406250, 0.498291015625, 89.859375000000, 94.500000000000, -7.359375000000, 1490761892
0.137451171875, -1.080566406250, 0.498291015625, 89.859375000000, 94.500000000000, -7.359375000000, 1490761892
0.137451171875, -1.080566406250, 0.498291015625, 89.859375000000, 94.500000000000, -7.359375000000, 1490761892
-0.003662109375, -0.890380859375, 0.655517578125, 63.773437500000, 48.265625000000, 13.390625000000, 1490761892
-0.003662109375, -0.890380859375, 0.655517578125, 63.773437500000, 48.265625000000, 13.390625000000, 1490761892
-0.003662109375, -0.890380859375, 0.655517578125, 63.773437500000, 48.265625000000, 13.390625000000, 1490761892
0.035156250000, -0.811767578125, 0.475830078125, -15.531250000000, -74.007812500000, 7.828125000000, 1490761892
0.035156250000, -0.811767578125, 0.475830078125, -15.531250000000, -74.007812500000, 7.828125000000, 1490761892
0.035156250000, -0.811767578125, 0.475830078125, -15.531250000000, -74.007812500000, 7.828125000000, 1490761892
-0.075683593750, -0.791503906250, 0.307128906250, -50.398437500000, -41.296875000000, 5.507812500000, 1490761892
-0.075683593750, -0.791503906250, 0.307128906250, -50.398437500000, -41.296875000000, 5.507812500000, 1490761892
-0.075683593750, -0.791503906250, 0.307128906250, -50.398437500000, -41.296875000000, 5.507812500000, 1490761892
-0.122558593750, -0.874267578125, 0.394042968750, 22.695312500000, 11.476562500000, -10.109375000000, 1490761892
-0.122558593750, -0.874267578125, 0.394042968750, 22.695312500000, 11.476562500000, -10.109375000000, 1490761892
-0.122558593750, -0.874267578125, 0.394042968750, 22.695312500000, 11.476562500000, -10.109375000000, 1490761892
-0.122558593750, -0.874267578125, 0.394042968750, 22.695312500000, 11.476562500000, -10.109375000000, 1490761892
-0.048583984375, -0.903808593750, 0.568847656250, 29.351562500000, 6.273437500000, -14.234375000000, 1490761892
-0.048583984375, -0.903808593750, 0.568847656250, 29.351562500000, 6.273437500000, -14.234375000000, 1490761892
-0.048583984375, -0.903808593750, 0.568847656250, 29.351562500000, 6.273437500000, -14.234375000000, 1490761892
0.072021484375, -0.910156250000, 0.546630859375, -8.929687500000, 9.890625000000, -9.164062500000, 1490761892
0.072021484375, -0.910156250000, 0.546630859375, -8.929687500000, 9.890625000000, -9.164062500000, 1490761892
0.072021484375, -0.910156250000, 0.546630859375, -8.929687500000, 9.890625000000, -9.164062500000, 1490761892
0.086181640625, -0.931640625000, 0.492919921875, -43.023437500000, 5.015625000000, 0.242187500000, 1490761892
0.086181640625, -0.931640625000, 0.492919921875, -43.023437500000, 5.015625000000, 0.242187500000, 1490761892
0.086181640625, -0.931640625000, 0.492919921875, -43.023437500000, 5.015625000000, 0.242187500000, 1490761892
0.026611328125, -1.131591796875, 0.364257812500, -29.515625000000, -44.687500000000, 10.820312500000, 1490761892
0.026611328125, -1.131591796875, 0.364257812500, -29.515625000000, -44.687500000000, 10.820312500000, 1490761892
0.026611328125, -1.131591796875, 0.364257812500, -29.515625000000, -44.687500000000, 10.820312500000, 1490761892
0.026611328125, -1.131591796875, 0.364257812500, -29.515625000000, -44.687500000000, 10.820312500000, 1490761892
0.115478515625, -1.126953125000, 0.237548828125, 11.328125000000, 25.609375000000, 9.406250000000, 1490761892
0.115478515625, -1.126953125000, 0.237548828125, 11.328125000000, 25.609375000000, 9.406250000000, 1490761892
0.115478515625, -1.126953125000, 0.237548828125, 11.328125000000, 25.609375000000, 9.406250000000, 1490761892
0.047363281250, -0.797119140625, 0.249023437500, 22.062500000000, 125.187500000000, 7.593750000000, 1490761892
0.047363281250, -0.797119140625, 0.249023437500, 22.062500000000, 125.187500000000, 7.593750000000, 1490761892
0.047363281250, -0.797119140625, 0.249023437500, 22.062500000000, 125.187500000000, 7.593750000000, 1490761892
0.128662109375, -0.680419921875, 0.270507812500, -6.562500000000, 32.218750000000, 0.898437500000, 1490761893
0.128662109375, -0.680419921875, 0.270507812500, -6.562500000000, 32.218750000000, 0.898437500000, 1490761893
0.128662109375, -0.680419921875, 0.270507812500, -6.562500000000, 32.218750000000, 0.898437500000, 1490761893
