ACC_X,ACC_Y,ACC_Z,G_X,G_Y,G_Z,Unix Time
-0.041259765625, -0.754882812500, -0.276367187500, -256.000000000000, -11.398437500000, 59.359375000000, 1490761900
-0.041259765625, -0.754882812500, -0.276367187500, -256.000000000000, -11.398437500000, 59.359375000000, 1490761900
0.688476562500, -1.484130859375, 0.476806640625, 253.992187500000, -256.000000000000, -232.031250000000, 1490761900
0.688476562500, -1.484130859375, 0.476806640625, 253.992187500000, -256.000000000000, -232.031250000000, 1490761900
0.688476562500, -1.484130859375, 0.476806640625, 253.992187500000, -256.000000000000, -232.031250000000, 1490761900
0.688476562500, -1.484130859375, 0.476806640625, 253.992187500000, -256.000000000000, -232.031250000000, 1490761900
0.790771484375, -0.819580078125, 1.291992187500, 253.992187500000, 253.992187500000, -256.000000000000, 1490761900
0.790771484375, -0.819580078125, 1.291992187500, 253.992187500000, 253.992187500000, -256.000000000000, 1490761900
0.790771484375, -0.819580078125, 1.291992187500, 253.992187500000, 253.992187500000, -256.000000000000, 1490761900
-0.225585937500, 0.137207031250, -0.138916015625, -58.851562500000, 253.992187500000, -233.343750000000, 1490761900
-0.225585937500, 0.137207031250, -0.138916015625, -58.851562500000, 253.992187500000, -233.343750000000, 1490761900
-0.225585937500, 0.137207031250, -0.138916015625, -58.851562500000, 253.992187500000, -233.343750000000, 1490761900
-0.225585937500, 0.137207031250, -0.138916015625, -58.851562500000, 253.992187500000, -233.343750000000, 1490761900
0.103027343750, 0.006103515625, -0.117431640625, -256.000000000000, -256.000000000000, 31.851562500000, 1490761900
0.103027343750, 0.006103515625, -0.117431640625, -256.000000000000, -256.000000000000, 31.851562500000, 1490761900
0.103027343750, 0.006103515625, -0.117431640625, -256.000000000000, -256.000000000000, 31.851562500000, 1490761900
0.103027343750, 0.006103515625, -0.117431640625, -256.000000000000, -256.000000000000, 31.851562500000, 1490761900
1.186523437500, -5.455566406250, 0.662109375000, -256.000000000000, -256.000000000000, 32.750000000000, 1490761900
1.186523437500, -5.455566406250, 0.662109375000, -256.000000000000, -256.000000000000, 32.750000000000, 1490761900
1.186523437500, -5.455566406250, 0.662109375000, -256.000000000000, -256.000000000000, 32.750000000000, 1490761900
1.186523437500, -5.455566406250, 0.662109375000, -256.000000000000, -256.000000000000, 32.750000000000, 1490761900
1.186523437500, -5.455566406250, 0.662109375000, -256.000000000000, -256.000000000000, 32.750000000000, 1490761900
3.026367187500, -1.496582031250, 4.467041015625, 253.992187500000, -224.679687500000, -111.679687500000, 1490761900
3.026367187500, -1.496582031250, 4.467041015625, 253.992187500000, -224.679687500000, -111.679687500000, 1490761900
3.026367187500, -1.496582031250, 4.467041015625, 253.992187500000, -224.679687500000, -111.679687500000, 1490761900
-0.022216796875, -0.153808593750, 0.008544921875, -256.804687500000, 104.656250000000, 51.890625000000, 1490761900
-0.022216796875, -0.153808593750, 0.008544921875, -256.804687500000, 104.656250000000, 51.890625000000, 1490761900
-0.022216796875, -0.153808593750, 0.008544921875, -256.804687500000, 104.656250000000, 51.890625000000, 1490761900
-0.005126953125, 0.130371093750, 0.012207031250, -41.453125000000, 173.328125000000, 1.953125000000, 1490761900
-0.005126953125, 0.130371093750, 0.012207031250, -41.453125000000, 173.328125000000, 1.953125000000, 1490761900
-0.005126953125, 0.130371093750, 0.012207031250, -41.453125000000, 173.328125000000, 1.953125000000, 1490761900
-0.005126953125, 0.130371093750, 0.012207031250, -41.453125000000, 173.328125000000, 1.953125000000, 1490761900
0.036376953125, -0.030517578125, -0.010986328125, -6.593750000000, 146.601562500000, -12.781250000000, 1490761900
0.036376953125, -0.030517578125, -0.010986328125, -6.593750000000, 146.601562500000, -12.781250000000, 1490761900
0.036376953125, -0.030517578125, -0.010986328125, -6.593750000000, 146.601562500000, -12.781250000000, 1490761900
0.643798828125, -1.352783203125, -0.087890625000, -226.320312500000, 253.992187500000, 83.101562500000, 1490761900
0.643798828125, -1.352783203125, -0.087890625000, -226.320312500000, 253.992187500000, 83.101562500000, 1490761900
0.643798828125, -1.352783203125, -0.087890625000, -226.320312500000, 253.992187500000, 83.101562500000, 1490761900
1.551269531250, -2.419433593750, 0.254882812500, 253.992187500000, -256.000000000000, -94.968750000000, 1490761900
1.551269531250, -2.419433593750, 0.254882812500, 253.992187500000, -256.000000000000, -94.968750000000, 1490761900
1.551269531250, -2.419433593750, 0.254882812500, 253.992187500000, -256.000000000000, -94.968750000000, 1490761900
0.779541015625, -1.194580078125, 1.974121093750, 253.992187500000, 253.992187500000, -86.406250000000, 1490761900
0.779541015625, -1.194580078125, 1.974121093750, 253.992187500000, 253.992187500000, -86.406250000000, 1490761900
0.779541015625, -1.194580078125, 1.974121093750, 253.992187500000, 253.992187500000, -86.406250000000, 1490761900
0.779541015625, -1.194580078125, 1.974121093750, 253.992187500000, 253.992187500000, -86.406250000000, 1490761900
0.039306640625, 0.029541015625, -0.019531250000, -256.000000000000, -133.148437500000, -144.789062500000, 1490761900
0.039306640625, 0.029541015625, -0.019531250000, -256.000000000000, -133.148437500000, -144.789062500000, 1490761900
0.039306640625, 0.029541015625, -0.019531250000, -256.000000000000, -133.148437500000, -144.789062500000, 1490761900
-0.012451171875, 0.230224609375, 0.153076171875, -144.218750000000, -148.656250000000, -5.000000000000, 1490761900
-0.012451171875, 0.230224609375, 0.153076171875, -144.218750000000, -148.656250000000, -5.000000000000, 1490761900
-0.012451171875, 0.230224609375, 0.153076171875, -144.218750000000, -148.656250000000, -5.000000000000, 1490761900
0.098876953125, 0.004150390625, -0.027832031250, 26.992187500000, -185.625000000000, 101.218750000000, 1490761901
0.098876953125, 0.004150390625, -0.027832031250, 26.992187500000, -185.625000000000, 101.218750000000, 1490761901
0.098876953125, 0.004150390625, -0.027832031250, 26.992187500000, -185.625000000000, 101.218750000000, 1490761901
0.819824218750, -4.847656250000, 0.180908203125, -256.000000000000, 217.835937500000, 253.992187500000, 1490761901
0.819824218750, -4.847656250000, 0.180908203125, -256.000000000000, 217.835937500000, 253.992187500000, 1490761901
0.819824218750, -4.847656250000, 0.180908203125, -256.000000000000, 217.835937500000, 253.992187500000, 1490761901
0.819824218750, -4.847656250000, 0.180908203125, -256.000000000000, 217.835937500000, 253.992187500000, 1490761901
0.205078125000, -0.987548828125, 0.512207031250, 253.992187500000, 154.828125000000, -24.484375000000, 1490761901
0.205078125000, -0.987548828125, 0.512207031250, 253.992187500000, 154.828125000000, -24.484375000000, 1490761901
1.327636718750, -0.198486328125, 2.433837890625, 47.023437500000, -256.000000000000, -110.906250000000, 1490761901
1.327636718750, -0.198486328125, 2.433837890625, 47.023437500000, -256.000000000000, -110.906250000000, 1490761901
1.327636718750, -0.198486328125, 2.433837890625, 47.023437500000, -256.000000000000, -110.906250000000, 1490761901
1.327636718750, -0.198486328125, 2.433837890625, 47.023437500000, -256.000000000000, -110.906250000000, 1490761901
0.037353515625, 0.139648437500, 0.035156250000, -93.710937500000, 46.250000000000, -56.851562500000, 1490761901
0.037353515625, 0.139648437500, 0.035156250000, -93.710937500000, 46.250000000000, -56.851562500000, 1490761901
0.037353515625, 0.139648437500, 0.035156250000, -93.710937500000, 46.250000000000, -56.851562500000, 1490761901
0.875732421875, -1.223144531250, 0.197753906250, -211.765625000000, 253.992187500000, 145.375000000000, 1490761901
0.875732421875, -1.223144531250, 0.197753906250, -211.765625000000, 253.992187500000, 145.375000000000, 1490761901
0.875732421875, -1.223144531250, 0.197753906250, -211.765625000000, 253.992187500000, 145.375000000000, 1490761901
0.875732421875, -1.223144531250, 0.197753906250, -211.765625000000, 253.992187500000, 145.375000000000, 1490761901
0.875732421875, -1.223144531250, 0.197753906250, -211.765625000000, 253.992187500000, 145.375000000000, 1490761901
1.709472656250, -1.932373046875, 0.463867187500, 253.992187500000, 253.992187500000, 253.992187500000, 1490761901
1.709472656250, -1.932373046875, 0.463867187500, 253.992187500000, 253.992187500000, 253.992187500000, 1490761901
0.400146484375, 0.092773437500, 0.601318359375, -19.414062500000, 50.117187500000, -182.835937500000, 1490761901
0.400146484375, 0.092773437500, 0.601318359375, -19.414062500000, 50.117187500000, -182.835937500000, 1490761901
0.400146484375, 0.092773437500, 0.601318359375, -19.414062500000, 50.117187500000, -182.835937500000, 1490761901
0.400146484375, 0.092773437500, 0.601318359375, -19.414062500000, 50.117187500000, -182.835937500000, 1490761901
0.400146484375, 0.092773437500, 0.601318359375, -19.414062500000, 50.117187500000, -182.835937500000, 1490761901
0.137207031250, 0.093750000000, -0.027587890625, -120.867187500000, 153.242187500000, -6.843750000000, 1490761901
0.137207031250, 0.093750000000, -0.027587890625, -120.867187500000, 153.242187500000, -6.843750000000, 1490761901
0.137207031250, 0.093750000000, -0.027587890625, -120.867187500000, 153.242187500000, -6.843750000000, 1490761901
0.137207031250, 0.093750000000, -0.027587890625, -120.867187500000, 153.242187500000, -6.843750000000, 1490761901
0.137207031250, 0.093750000000, -0.027587890625, -120.867187500000, 153.242187500000, -6.843750000000, 1490761901
0.142822265625, 0.031738281250, -0.006347656250, -8.867187500000, 106.335937500000, -23.460937500000, 1490761901
0.142822265625, 0.031738281250, -0.006347656250, -8.867187500000, 106.335937500000, -23.460937500000, 1490761901
0.142822265625, 0.031738281250, -0.006347656250, -8.867187500000, 106.335937500000, -23.460937500000, 1490761901
0.091308593750, -0.196289062500, -0.039306640625, -174.570312500000, 129.492187500000, 69.968750000000, 1490761901
0.091308593750, -0.196289062500, -0.039306640625, -174.570312500000, 129.492187500000, 69.968750000000, 1490761901
0.091308593750, -0.196289062500, -0.039306640625, -174.570312500000, 129.492187500000, 69.968750000000, 1490761901
1.955810546875, -5.044189453125, 1.174316406250, -223.882812500000, 50.656250000000, 253.992187500000, 1490761901
1.955810546875, -5.044189453125, 1.174316406250, -223.882812500000, 50.656250000000, 253.992187500000, 1490761901
1.955810546875, -5.044189453125, 1.174316406250, -223.882812500000, 50.656250000000, 253.992187500000, 1490761901
1.237304687500, -1.407958984375, 3.408935546875, 253.992187500000, -256.000000000000, -105.367187500000, 1490761901
1.237304687500, -1.407958984375, 3.408935546875, 253.992187500000, -256.000000000000, -105.367187500000, 1490761901
1.237304687500, -1.407958984375, 3.408935546875, 253.992187500000, -256.000000000000, -105.367187500000, 1490761901
1.237304687500, -1.407958984375, 3.408935546875, 253.992187500000, -256.000000000000, -105.367187500000, 1490761901
0.170898437500, -0.177490234375, -0.008789062500, -159.539062500000, 243.695312500000, 18.835937500000, 1490761901
0.170898437500, -0.177490234375, -0.008789062500, -159.539062500000, 243.695312500000, 18.835937500000, 1490761901
0.170898437500, -0.177490234375, -0.008789062500, -159.539062500000, 243.695312500000, 18.835937500000, 1490761901
0.085693359375, -0.062255859375, 0.115234375000, -142.710937500000, 251.539062500000, 24.929687500000, 1490761901
0.085693359375, -0.062255859375, 0.115234375000, -142.710937500000, 251.539062500000, 24.929687500000, 1490761901
0.085693359375, -0.062255859375, 0.115234375000, -142.710937500000, 251.539062500000, 24.929687500000, 1490761901
0.137207031250, -0.066406250000, 0.050537109375, -50.867187500000, 253.992187500000, 41.968750000000, 1490761901
0.137207031250, -0.066406250000, 0.050537109375, -50.867187500000, 253.992187500000, 41.968750000000, 1490761901
0.137207031250, -0.066406250000, 0.050537109375, -50.867187500000, 253.992187500000, 41.968750000000, 1490761901
-0.023437500000, -2.427490234375, 0.015380859375, -256.000000000000, 193.851562500000, 16.234375000000, 1490761901
-0.023437500000, -2.427490234375, 0.015380859375, -256.000000000000, 193.851562500000, 16.234375000000, 1490761901
-0.023437500000, -2.427490234375, 0.015380859375, -256.000000000000, 193.851562500000, 16.234375000000, 1490761901
-0.023437500000, -2.427490234375, 0.015380859375, -256.000000000000, 193.851562500000, 16.234375000000, 1490761901
0.077880859375, -1.456542968750, 0.416992187500, 253.992187500000, -224.687500000000, 27.007812500000, 1490761901
0.077880859375, -1.456542968750, 0.416992187500, 253.992187500000, -224.687500000000, 27.007812500000, 1490761901
0.077880859375, -1.456542968750, 0.416992187500, 253.992187500000, -224.687500000000, 27.007812500000, 1490761901
0.660400390625, -1.981201171875, -0.169921875000, 253.992187500000, -69.578125000000, -102.125000000000, 1490761901
0.660400390625, -1.981201171875, -0.169921875000, 253.992187500000, -69.578125000000, -102.125000000000, 1490761901
0.660400390625, -1.981201171875, -0.169921875000, 253.992187500000, -69.578125000000, -102.125000000000, 1490761901
0.234863281250, -0.339355468750, 0.105957031250, -256.000000000000, 165.226562500000, 78.460937500000, 1490761901
0.234863281250, -0.339355468750, 0.105957031250, -256.000000000000, 165.226562500000, 78.460937500000, 1490761901
0.234863281250, -0.339355468750, 0.105957031250, -256.000000000000, 165.226562500000, 78.460937500000, 1490761901
-0.011474609375, -0.081542968750, 0.025878906250, -203.859375000000, 108.507812500000, 85.046875000000, 1490761902
-0.011474609375, -0.081542968750, 0.025878906250, -203.859375000000, 108.507812500000, 85.046875000000, 1490761902
-0.011474609375, -0.081542968750, 0.025878906250, -203.859375000000, 108.507812500000, 85.046875000000, 1490761902
-0.011474609375, -0.081542968750, 0.025878906250, -203.859375000000, 108.507812500000, 85.046875000000, 1490761902
-0.029541015625, -0.042480468750, -0.023193359375, -70.945312500000, 19.390625000000, 105.218750000000, 1490761902
-0.029541015625, -0.042480468750, -0.023193359375, -70.945312500000, 19.390625000000, 105.218750000000, 1490761902
-0.029541015625, -0.042480468750, -0.023193359375, -70.945312500000, 19.390625000000, 105.218750000000, 1490761902
-0.183105468750, -1.631591796875, -0.315673828125, -104.054687500000, -68.023437500000, 26.421875000000, 1490761902
-0.183105468750, -1.631591796875, -0.315673828125, -104.054687500000, -68.023437500000, 26.421875000000, 1490761902
-0.183105468750, -1.631591796875, -0.315673828125, -104.054687500000, -68.023437500000, 26.421875000000, 1490761902
0.481689453125, -2.527099609375, 1.016113281250, -166.554687500000, 253.992187500000, 253.992187500000, 1490761902
0.481689453125, -2.527099609375, 1.016113281250, -166.554687500000, 253.992187500000, 253.992187500000, 1490761902
0.481689453125, -2.527099609375, 1.016113281250, -166.554687500000, 253.992187500000, 253.992187500000, 1490761902
0.297119140625, -1.506347656250, 0.375488281250, 253.992187500000, 156.296875000000, -63.921875000000, 1490761902
0.297119140625, -1.506347656250, 0.375488281250, 253.992187500000, 156.296875000000, -63.921875000000, 1490761902
0.297119140625, -1.506347656250, 0.375488281250, 253.992187500000, 156.296875000000, -63.921875000000, 1490761902
0.297119140625, -1.506347656250, 0.375488281250, 253.992187500000, 156.296875000000, -63.921875000000, 1490761902
0.905273437500, -0.192138671875, 1.177978515625, -26.359375000000, -164.632812500000, -85.539062500000, 1490761902
0.905273437500, -0.192138671875, 1.177978515625, -26.359375000000, -164.632812500000, -85.539062500000, 1490761902
0.905273437500, -0.192138671875, 1.177978515625, -26.359375000000, -164.632812500000, -85.539062500000, 1490761902
0.027587890625, -0.053955078125, 0.038085937500, -211.812500000000, 80.945312500000, 35.250000000000, 1490761902
0.027587890625, -0.053955078125, 0.038085937500, -211.812500000000, 80.945312500000, 35.250000000000, 1490761902
0.027587890625, -0.053955078125, 0.038085937500, -211.812500000000, 80.945312500000, 35.250000000000, 1490761902
0.065917968750, -0.093017578125, 0.017578125000, -80.601562500000, 249.132812500000, 76.148437500000, 1490761902
0.065917968750, -0.093017578125, 0.017578125000, -80.601562500000, 249.132812500000, 76.148437500000, 1490761902
0.065917968750, -0.093017578125, 0.017578125000, -80.601562500000, 249.132812500000, 76.148437500000, 1490761902
0.159912109375, -0.302001953125, 0.029785156250, -65.804687500000, 253.992187500000, 72.453125000000, 1490761902
0.430908203125, -1.051025390625, 0.208251953125, 253.992187500000, 30.195312500000, 61.054687500000, 1490761902
0.430908203125, -1.051025390625, 0.208251953125, 253.992187500000, 30.195312500000, 61.054687500000, 1490761902
0.430908203125, -1.051025390625, 0.208251953125, 253.992187500000, 30.195312500000, 61.054687500000, 1490761902
0.430908203125, -1.051025390625, 0.208251953125, 253.992187500000, 30.195312500000, 61.054687500000, 1490761902
0.430908203125, -1.051025390625, 0.208251953125, 253.992187500000, 30.195312500000, 61.054687500000, 1490761902
0.430908203125, -1.051025390625, 0.208251953125, 253.992187500000, 30.195312500000, 61.054687500000, 1490761902
-1.244140625000, -2.338134765625, 6.226562500000, 253.992187500000, 253.992187500000, -182.164062500000, 1490761902
-1.244140625000, -2.338134765625, 6.226562500000, 253.992187500000, 253.992187500000, -182.164062500000, 1490761902
-1.244140625000, -2.338134765625, 6.226562500000, 253.992187500000, 253.992187500000, -182.164062500000, 1490761902
0.121582031250, -0.598144531250, 0.063476562500, -245.851562500000, 253.992187500000, -117.023437500000, 1490761902
0.121582031250, -0.598144531250, 0.063476562500, -245.851562500000, 253.992187500000, -117.023437500000, 1490761902
0.121582031250, -0.598144531250, 0.063476562500, -245.851562500000, 253.992187500000, -117.023437500000, 1490761902
-0.009765625000, -0.125488281250, 0.052001953125, -201.234375000000, -206.671875000000, 17.750000000000, 1490761902
-0.009765625000, -0.125488281250, 0.052001953125, -201.234375000000, -206.671875000000, 17.750000000000, 1490761902
-0.009765625000, -0.125488281250, 0.052001953125, -201.234375000000, -206.671875000000, 17.750000000000, 1490761902
-0.009765625000, -0.125488281250, 0.052001953125, -201.234375000000, -206.671875000000, 17.750000000000, 1490761902
-0.066162109375, -0.024658203125, 0.024169921875, -93.789062500000, -205.367187500000, 85.945312500000, 1490761902
-0.066162109375, -0.024658203125, 0.024169921875, -93.789062500000, -205.367187500000, 85.945312500000, 1490761902
-0.066162109375, -0.024658203125, 0.024169921875, -93.789062500000, -205.367187500000, 85.945312500000, 1490761902
0.054687500000, -0.455810546875, 0.013671875000, -256.000000000000, -123.273437500000, 123.140625000000, 1490761902
0.054687500000, -0.455810546875, 0.013671875000, -256.000000000000, -123.273437500000, 123.140625000000, 1490761902
0.054687500000, -0.455810546875, 0.013671875000, -256.000000000000, -123.273437500000, 123.140625000000, 1490761902
0.175537109375, -3.516845703125, 0.772216796875, -42.851562500000, -256.000000000000, -195.750000000000, 1490761902
0.175537109375, -3.516845703125, 0.772216796875, -42.851562500000, -256.000000000000, -195.750000000000, 1490761902
0.175537109375, -3.516845703125, 0.772216796875, -42.851562500000, -256.000000000000, -195.750000000000, 1490761902
-0.597900390625, -2.574218750000, -0.078369140625, 253.992187500000, 253.992187500000, -47.554687500000, 1490761902
-0.597900390625, -2.574218750000, -0.078369140625, 253.992187500000, 253.992187500000, -47.554687500000, 1490761902
-0.597900390625, -2.574218750000, -0.078369140625, 253.992187500000, 253.992187500000, -47.554687500000, 1490761902
-0.597900390625, -2.574218750000, -0.078369140625, 253.992187500000, 253.992187500000, -47.554687500000, 1490761902
-1.785400390625, -0.644287109375, 2.115478515625, -47.812500000000, 164.289062500000, 22.882812500000, 1490761902
-1.785400390625, -0.644287109375, 2.115478515625, -47.812500000000, 164.289062500000, 22.882812500000, 1490761902
-1.785400390625, -0.644287109375, 2.115478515625, -47.812500000000, 164.289062500000, 22.882812500000, 1490761902
-0.008789062500, 0.001220703125, 0.013916015625, -256.000000000000, -98.289062500000, -4.289062500000, 1490761902
-0.008789062500, 0.001220703125, 0.013916015625, -256.000000000000, -98.289062500000, -4.289062500000, 1490761902
-0.008789062500, 0.001220703125, 0.013916015625, -256.000000000000, -98.289062500000, -4.289062500000, 1490761902
0.149414062500, -0.196044921875, 0.103027343750, -207.898437500000, -135.976562500000, -17.820312500000, 1490761902
0.149414062500, -0.196044921875, 0.103027343750, -207.898437500000, -135.976562500000, -17.820312500000, 1490761902
0.149414062500, -0.196044921875, 0.103027343750, -207.898437500000, -135.976562500000, -17.820312500000, 1490761902
0.094482421875, -0.549316406250, 0.038330078125, -256.000000000000, -2.648437500000, 20.421875000000, 1490761903
0.094482421875, -0.549316406250, 0.038330078125, -256.000000000000, -2.648437500000, 20.421875000000, 1490761903
0.563720703125, -0.776611328125, 0.065185546875, 62.851562500000, 75.984375000000, 99.164062500000, 1490761903
0.563720703125, -0.776611328125, 0.065185546875, 62.851562500000, 75.984375000000, 99.164062500000, 1490761903
0.563720703125, -0.776611328125, 0.065185546875, 62.851562500000, 75.984375000000, 99.164062500000, 1490761903
0.563720703125, -0.776611328125, 0.065185546875, 62.851562500000, 75.984375000000, 99.164062500000, 1490761903
0.563720703125, -0.776611328125, 0.065185546875, 62.851562500000, 75.984375000000, 99.164062500000, 1490761903
0.629638671875, -2.627685546875, 0.338378906250, 253.992187500000, -158.296875000000, -71.070312500000, 1490761903
0.629638671875, -2.627685546875, 0.338378906250, 253.992187500000, -158.296875000000, -71.070312500000, 1490761903
0.629638671875, -2.627685546875, 0.338378906250, 253.992187500000, -158.296875000000, -71.070312500000, 1490761903
-1.069091796875, -1.748291015625, 2.952636718750, 119.718750000000, 253.992187500000, 124.765625000000, 1490761903
-1.069091796875, -1.748291015625, 2.952636718750, 119.718750000000, 253.992187500000, 124.765625000000, 1490761903
-1.069091796875, -1.748291015625, 2.952636718750, 119.718750000000, 253.992187500000, 124.765625000000, 1490761903
-0.000000000000, -0.241455078125, 0.011718750000, -256.000000000000, 22.968750000000, -62.968750000000, 1490761903
-0.000000000000, -0.241455078125, 0.011718750000, -256.000000000000, 22.968750000000, -62.968750000000, 1490761903
-0.000000000000, -0.241455078125, 0.011718750000, -256.000000000000, 22.968750000000, -62.968750000000, 1490761903
-0.000000000000, -0.241455078125, 0.011718750000, -256.000000000000, 22.968750000000, -62.968750000000, 1490761903
0.368896484375, -1.766601562500, -0.402099609375, 128.492187500000, -256.000000000000, 57.859375000000, 1490761903
0.368896484375, -1.766601562500, -0.402099609375, 128.492187500000, -256.000000000000, 57.859375000000, 1490761903
0.368896484375, -1.766601562500, -0.402099609375, 128.492187500000, -256.000000000000, 57.859375000000, 1490761903
0.368896484375, -1.766601562500, -0.402099609375, 128.492187500000, -256.000000000000, 57.859375000000, 1490761903
0.368896484375, -1.766601562500, -0.402099609375, 128.492187500000, -256.000000000000, 57.859375000000, 1490761903
-0.026855468750, -1.159423828125, 0.103271484375, -256.000000000000, -256.000000000000, 185.960937500000, 1490761903
0.279785156250, -1.096923828125, 0.472167968750, -133.835937500000, -247.250000000000, -8.625000000000, 1490761903
0.279785156250, -1.096923828125, 0.472167968750, -133.835937500000, -247.250000000000, -8.625000000000, 1490761903
0.279785156250, -1.096923828125, 0.472167968750, -133.835937500000, -247.250000000000, -8.625000000000, 1490761903
-0.311767578125, -2.725585937500, 0.182861328125, 253.992187500000, 253.992187500000, -200.796875000000, 1490761903
-0.311767578125, -2.725585937500, 0.182861328125, 253.992187500000, 253.992187500000, -200.796875000000, 1490761903
-0.311767578125, -2.725585937500, 0.182861328125, 253.992187500000, 253.992187500000, -200.796875000000, 1490761903
-0.311767578125, -2.725585937500, 0.182861328125, 253.992187500000, 253.992187500000, -200.796875000000, 1490761903
0.407226562500, -2.070068359375, 5.605957031250, 253.992187500000, -256.000000000000, -26.320312500000, 1490761903
0.407226562500, -2.070068359375, 5.605957031250, 253.992187500000, -256.000000000000, -26.320312500000, 1490761903
0.407226562500, -2.070068359375, 5.605957031250, 253.992187500000, -256.000000000000, -26.320312500000, 1490761903
-0.092529296875, -0.552246093750, 0.087158203125, -256.000000000000, -77.546875000000, 61.554687500000, 1490761903
-0.092529296875, -0.552246093750, 0.087158203125, -256.000000000000, -77.546875000000, 61.554687500000, 1490761903
-0.092529296875, -0.552246093750, 0.087158203125, -256.000000000000, -77.546875000000, 61.554687500000, 1490761903
0.138916015625, -0.707763671875, 0.145751953125, -121.523437500000, 113.320312500000, 21.070312500000, 1490761903
0.138916015625, -0.707763671875, 0.145751953125, -121.523437500000, 113.320312500000, 21.070312500000, 1490761903
0.138916015625, -0.707763671875, 0.145751953125, -121.523437500000, 113.320312500000, 21.070312500000, 1490761903
0.155273437500, -0.570556640625, 0.019531250000, -87.398437500000, -97.929687500000, -33.640625000000, 1490761903
0.155273437500, -0.570556640625, 0.019531250000, -87.398437500000, -97.929687500000, -33.640625000000, 1490761903
0.155273437500, -0.570556640625, 0.019531250000, -87.398437500000, -97.929687500000, -33.640625000000, 1490761903
0.155273437500, -0.570556640625, 0.019531250000, -87.398437500000, -97.929687500000, -33.640625000000, 1490761903
0.096923828125, -0.696044921875, -0.008056640625, -120.546875000000, -115.773437500000, 20.148437500000, 1490761903
0.096923828125, -0.696044921875, -0.008056640625, -120.546875000000, -115.773437500000, 20.148437500000, 1490761903
0.096923828125, -0.696044921875, -0.008056640625, -120.546875000000, -115.773437500000, 20.148437500000, 1490761903
0.333007812500, -1.248535156250, 0.256347656250, 63.039062500000, 53.921875000000, 7.710937500000, 1490761903
0.333007812500, -1.248535156250, 0.256347656250, 63.039062500000, 53.921875000000, 7.710937500000, 1490761903
0.333007812500, -1.248535156250, 0.256347656250, 63.039062500000, 53.921875000000, 7.710937500000, 1490761903
0.303222656250, -1.241210937500, 0.096923828125, 172.085937500000, 253.992187500000, -27.304687500000, 1490761903
0.303222656250, -1.241210937500, 0.096923828125, 172.085937500000, 253.992187500000, -27.304687500000, 1490761903
0.303222656250, -1.241210937500, 0.096923828125, 172.085937500000, 253.992187500000, -27.304687500000, 1490761903
0.193603515625, -1.422363281250, 1.124511718750, 253.992187500000, 34.835937500000, -34.921875000000, 1490761903
0.311767578125, -0.942138671875, 0.174072265625, -137.234375000000, 226.554687500000, 81.210937500000, 1490761903
0.362548828125, -0.920410156250, 0.173828125000, -113.765625000000, 253.992187500000, 96.968750000000, 1490761903
0.362548828125, -0.920410156250, 0.173828125000, -113.765625000000, 253.992187500000, 96.968750000000, 1490761903
0.362548828125, -0.920410156250, 0.173828125000, -113.765625000000, 253.992187500000, 96.968750000000, 1490761903
-0.009521484375, -0.890625000000, -0.008544921875, 72.218750000000, 177.367187500000, -5.148437500000, 1490761903
-0.009521484375, -0.890625000000, -0.008544921875, 72.218750000000, 177.367187500000, -5.148437500000, 1490761903
-0.009521484375, -0.890625000000, -0.008544921875, 72.218750000000, 177.367187500000, -5.148437500000, 1490761903
-0.009521484375, -0.890625000000, -0.008544921875, 72.218750000000, 177.367187500000, -5.148437500000, 1490761903
0.055419921875, -0.846679687500, 0.352294921875, 60.109375000000, -149.437500000000, -13.781250000000, 1490761903
0.055419921875, -0.846679687500, 0.352294921875, 60.109375000000, -149.437500000000, -13.781250000000, 1490761903
0.055419921875, -0.846679687500, 0.352294921875, 60.109375000000, -149.437500000000, -13.781250000000, 1490761903
0.055419921875, -0.846679687500, 0.352294921875, 60.109375000000, -149.437500000000, -13.781250000000, 1490761903
0.285400390625, -0.743652343750, 0.422851562500, -17.757812500000, 35.023437500000, 22.843750000000, 1490761903
0.285400390625, -0.743652343750, 0.422851562500, -17.757812500000, 35.023437500000, 22.843750000000, 1490761903
0.285400390625, -0.743652343750, 0.422851562500, -17.757812500000, 35.023437500000, 22.843750000000, 1490761903
0.285400390625, -0.743652343750, 0.422851562500, -17.757812500000, 35.023437500000, 22.843750000000, 1490761904
0.187744140625, -0.802978515625, 0.264160156250, -21.992187500000, 99.242187500000, 23.171875000000, 1490761904
0.187744140625, -0.802978515625, 0.264160156250, -21.992187500000, 99.242187500000, 23.171875000000, 1490761904
0.187744140625, -0.802978515625, 0.264160156250, -21.992187500000, 99.242187500000, 23.171875000000, 1490761904
0.060546875000, -0.845458984375, 0.233886718750, 24.382812500000, -70.531250000000, -0.804687500000, 1490761904
0.060546875000, -0.845458984375, 0.233886718750, 24.382812500000, -70.531250000000, -0.804687500000, 1490761904
0.060546875000, -0.845458984375, 0.233886718750, 24.382812500000, -70.531250000000, -0.804687500000, 1490761904
0.049560546875, -1.008544921875, 0.393798828125, 41.500000000000, -117.570312500000, -8.921875000000, 1490761904
0.456298828125, -1.188232421875, 0.432373046875, -38.164062500000, -65.953125000000, -30.281250000000, 1490761904
0.456298828125, -1.188232421875, 0.432373046875, -38.164062500000, -65.953125000000, -30.281250000000, 1490761904
0.456298828125, -1.188232421875, 0.432373046875, -38.164062500000, -65.953125000000, -30.281250000000, 1490761904
0.456298828125, -1.188232421875, 0.432373046875, -38.164062500000, -65.953125000000, -30.281250000000, 1490761904
0.290283203125, -1.144042968750, 0.184814453125, -47.046875000000, 47.164062500000, -13.164062500000, 1490761904
0.290283203125, -1.144042968750, 0.184814453125, -47.046875000000, 47.164062500000, -13.164062500000, 1490761904
0.290283203125, -1.144042968750, 0.184814453125, -47.046875000000, 47.164062500000, -13.164062500000, 1490761904
0.417236328125, -0.977539062500, 0.147460937500, -48.062500000000, 59.242187500000, -1.312500000000, 1490761904
0.417236328125, -0.977539062500, 0.147460937500, -48.062500000000, 59.242187500000, -1.312500000000, 1490761904
0.417236328125, -0.977539062500, 0.147460937500, -48.062500000000, 59.242187500000, -1.312500000000, 1490761904
0.417236328125, -0.977539062500, 0.147460937500, -48.062500000000, 59.242187500000, -1.312500000000, 1490761904
0.417236328125, -0.977539062500, 0.147460937500, -48.062500000000, 59.242187500000, -1.312500000000, 1490761904
0.203369140625, -0.741699218750, 0.053710937500, -12.875000000000, 31.015625000000, -2.335937500000, 1490761904
0.203369140625, -0.741699218750, 0.053710937500, -12.875000000000, 31.015625000000, -2.335937500000, 1490761904
0.203369140625, -0.741699218750, 0.053710937500, -12.875000000000, 31.015625000000, -2.335937500000, 1490761904
-0.140380859375, -0.948730468750, 0.038574218750, 2.500000000000, -71.367187500000, -9.812500000000, 1490761904
-0.140380859375, -0.948730468750, 0.038574218750, 2.500000000000, -71.367187500000, -9.812500000000, 1490761904
-0.140380859375, -0.948730468750, 0.038574218750, 2.500000000000, -71.367187500000, -9.812500000000, 1490761904
-0.140380859375, -0.948730468750, 0.038574218750, 2.500000000000, -71.367187500000, -9.812500000000, 1490761904
0.081542968750, -1.034179687500, 0.136230468750, 13.359375000000, -29.320312500000, -22.742187500000, 1490761904
0.081542968750, -1.034179687500, 0.136230468750, 13.359375000000, -29.320312500000, -22.742187500000, 1490761904
0.081542968750, -1.034179687500, 0.136230468750, 13.359375000000, -29.320312500000, -22.742187500000, 1490761904
0.320556640625, -1.077880859375, 0.321533203125, 64.640625000000, -66.671875000000, -21.601562500000, 1490761904
0.320556640625, -1.077880859375, 0.321533203125, 64.640625000000, -66.671875000000, -21.601562500000, 1490761904
0.320556640625, -1.077880859375, 0.321533203125, 64.640625000000, -66.671875000000, -21.601562500000, 1490761904
0.335937500000, -0.941650390625, 0.458251953125, 39.546875000000, -94.164062500000, -15.210937500000, 1490761904
0.335937500000, -0.941650390625, 0.458251953125, 39.546875000000, -94.164062500000, -15.210937500000, 1490761904
0.335937500000, -0.941650390625, 0.458251953125, 39.546875000000, -94.164062500000, -15.210937500000, 1490761904
-0.016601562500, -0.773925781250, 0.256591796875, -12.593750000000, 15.085937500000, 10.632812500000, 1490761904
-0.016601562500, -0.773925781250, 0.256591796875, -12.593750000000, 15.085937500000, 10.632812500000, 1490761904
-0.016601562500, -0.773925781250, 0.256591796875, -12.593750000000, 15.085937500000, 10.632812500000, 1490761904
-0.016601562500, -0.773925781250, 0.256591796875, -12.593750000000, 15.085937500000, 10.632812500000, 1490761904
0.034179687500, -0.876953125000, 0.187500000000, 6.539062500000, 12.367187500000, -2.656250000000, 1490761904
0.034179687500, -0.876953125000, 0.187500000000, 6.539062500000, 12.367187500000, -2.656250000000, 1490761904
0.034179687500, -0.876953125000, 0.187500000000, 6.539062500000, 12.367187500000, -2.656250000000, 1490761904
0.083007812500, -0.968017578125, 0.401367187500, 5.484375000000, -7.304687500000, -8.421875000000, 1490761904
0.083007812500, -0.968017578125, 0.401367187500, 5.484375000000, -7.304687500000, -8.421875000000, 1490761904
0.083007812500, -0.968017578125, 0.401367187500, 5.484375000000, -7.304687500000, -8.421875000000, 1490761904
0.148681640625, -0.932861328125, 0.321289062500, -19.500000000000, -3.585937500000, -8.546875000000, 1490761904
0.148681640625, -0.932861328125, 0.321289062500, -19.500000000000, -3.585937500000, -8.546875000000, 1490761904
0.148681640625, -0.932861328125, 0.321289062500, -19.500000000000, -3.585937500000, -8.546875000000, 1490761904
0.236572265625, -1.080566406250, 0.351806640625, -14.843750000000, 1.546875000000, -3.539062500000, 1490761904
0.236572265625, -1.080566406250, 0.351806640625, -14.843750000000, 1.546875000000, -3.539062500000, 1490761904
0.236572265625, -1.080566406250, 0.351806640625, -14.843750000000, 1.546875000000, -3.539062500000, 1490761904
0.326904296875, -1.241943359375, 0.442871093750, -47.007812500000, 47.648437500000, 7.296875000000, 1490761904
0.326904296875, -1.241943359375, 0.442871093750, -47.007812500000, 47.648437500000, 7.296875000000, 1490761904
0.326904296875, -1.241943359375, 0.442871093750, -47.007812500000, 47.648437500000, 7.296875000000, 1490761904
0.326904296875, -1.241943359375, 0.442871093750, -47.007812500000, 47.648437500000, 7.296875000000, 1490761904
0.217773437500, -1.117919921875, 0.336669921875, -52.960937500000, 55.226562500000, 15.203125000000, 1490761904
0.217773437500, -1.117919921875, 0.336669921875, -52.960937500000, 55.226562500000, 15.203125000000, 1490761904
0.217773437500, -1.117919921875, 0.336669921875, -52.960937500000, 55.226562500000, 15.203125000000, 1490761904
0.231689453125, -0.874755859375, 0.115722656250, -45.132812500000, 50.359375000000, 12.992187500000, 1490761904
0.231689453125, -0.874755859375, 0.115722656250, -45.132812500000, 50.359375000000, 12.992187500000, 1490761904
0.231689453125, -0.874755859375, 0.115722656250, -45.132812500000, 50.359375000000, 12.992187500000, 1490761904
0.206054687500, -0.761962890625, 0.048339843750, -58.421875000000, 118.507812500000, 21.460937500000, 1490761904
0.206054687500, -0.761962890625, 0.048339843750, -58.421875000000, 118.507812500000, 21.460937500000, 1490761904
0.206054687500, -0.761962890625, 0.048339843750, -58.421875000000, 118.507812500000, 21.460937500000, 1490761904
0.206054687500, -0.761962890625, 0.048339843750, -58.421875000000, 118.507812500000, 21.460937500000, 1490761904
0.268066406250, -0.864501953125, 0.149902343750, 6.359375000000, 122.515625000000, 5.398437500000, 1490761905
0.268066406250, -0.864501953125, 0.149902343750, 6.359375000000, 122.515625000000, 5.398437500000, 1490761905
0.268066406250, -0.864501953125, 0.149902343750, 6.359375000000, 122.515625000000, 5.398437500000, 1490761905
0.139648437500, -1.071777343750, 0.214355468750, 54.132812500000, 28.742187500000, 6.453125000000, 1490761905
0.139648437500, -1.071777343750, 0.214355468750, 54.132812500000, 28.742187500000, 6.453125000000, 1490761905
0.139648437500, -1.071777343750, 0.214355468750, 54.132812500000, 28.742187500000, 6.453125000000, 1490761905
0.104980468750, -0.970703125000, 0.363769531250, 82.171875000000, -82.343750000000, -21.335937500000, 1490761905
0.104980468750, -0.970703125000, 0.363769531250, 82.171875000000, -82.343750000000, -21.335937500000, 1490761905
0.104980468750, -0.970703125000, 0.363769531250, 82.171875000000, -82.343750000000, -21.335937500000, 1490761905
0.149414062500, -0.781494140625, 0.285156250000, -50.351562500000, 36.296875000000, 1.078125000000, 1490761905
0.149414062500, -0.781494140625, 0.285156250000, -50.351562500000, 36.296875000000, 1.078125000000, 1490761905
0.149414062500, -0.781494140625, 0.285156250000, -50.351562500000, 36.296875000000, 1.078125000000, 1490761905
0.149414062500, -0.781494140625, 0.285156250000, -50.351562500000, 36.296875000000, 1.078125000000, 1490761905
0.199707031250, -0.862792968750, 0.168212890625, -19.312500000000, 62.250000000000, -3.460937500000, 1490761905
0.199707031250, -0.862792968750, 0.168212890625, -19.312500000000, 62.250000000000, -3.460937500000, 1490761905
0.199707031250, -0.862792968750, 0.168212890625, -19.312500000000, 62.250000000000, -3.460937500000, 1490761905
0.119140625000, -0.842529296875, 0.338867187500, 11.765625000000, -23.968750000000, -10.851562500000, 1490761905
0.119140625000, -0.842529296875, 0.338867187500, 11.765625000000, -23.968750000000, -10.851562500000, 1490761905
0.119140625000, -0.842529296875, 0.338867187500, 11.765625000000, -23.968750000000, -10.851562500000, 1490761905
0.191406250000, -0.947753906250, 0.336914062500, -1.210937500000, 1.195312500000, -10.062500000000, 1490761905
0.121582031250, -1.080322265625, 0.412109375000, -20.914062500000, -9.421875000000, -1.421875000000, 1490761905
0.262451171875, -0.993652343750, 0.351074218750, -28.140625000000, -38.500000000000, -16.710937500000, 1490761905
0.262451171875, -0.993652343750, 0.351074218750, -28.140625000000, -38.500000000000, -16.710937500000, 1490761905
0.262451171875, -0.993652343750, 0.351074218750, -28.140625000000, -38.500000000000, -16.710937500000, 1490761905
0.262451171875, -0.993652343750, 0.351074218750, -28.140625000000, -38.500000000000, -16.710937500000, 1490761905
0.166259765625, -1.143798828125, 0.414306640625, -54.945312500000, -8.945312500000, -14.953125000000, 1490761905
0.205078125000, -1.049560546875, 0.448486328125, -54.945312500000, -8.945312500000, -14.953125000000, 1490761905
0.205078125000, -1.049560546875, 0.448486328125, -54.945312500000, -8.945312500000, -14.953125000000, 1490761905
0.205078125000, -1.049560546875, 0.448486328125, -54.945312500000, -8.945312500000, -14.953125000000, 1490761905
0.205078125000, -1.049560546875, 0.448486328125, -54.945312500000, -8.945312500000, -14.953125000000, 1490761905
0.205078125000, -1.049560546875, 0.448486328125, -54.945312500000, -8.945312500000, -14.953125000000, 1490761905
0.205078125000, -1.049560546875, 0.448486328125, -54.945312500000, -8.945312500000, -14.953125000000, 1490761905
0.280029296875, -0.988281250000, 0.316162109375, -43.171875000000, -23.414062500000, -14.468750000000, 1490761905
0.280029296875, -0.988281250000, 0.316162109375, -43.171875000000, -23.414062500000, -14.468750000000, 1490761905
0.280029296875, -0.988281250000, 0.316162109375, -43.171875000000, -23.414062500000, -14.468750000000, 1490761905
0.067138671875, -0.720947265625, 0.256591796875, -17.234375000000, -2.351562500000, -9.554687500000, 1490761905
0.067138671875, -0.720947265625, 0.256591796875, -17.234375000000, -2.351562500000, -9.554687500000, 1490761905
0.067138671875, -0.720947265625, 0.256591796875, -17.234375000000, -2.351562500000, -9.554687500000, 1490761905
0.067138671875, -0.720947265625, 0.256591796875, -17.234375000000, -2.351562500000, -9.554687500000, 1490761905
-0.012695312500, -0.719726562500, 0.167480468750, -24.187500000000, -31.140625000000, -12.875000000000, 1490761905
-0.012695312500, -0.719726562500, 0.167480468750, -24.187500000000, -31.140625000000, -12.875000000000, 1490761905
-0.012695312500, -0.719726562500, 0.167480468750, -24.187500000000, -31.140625000000, -12.875000000000, 1490761905
0.026855468750, -0.860839843750, 0.187988281250, 1.593750000000, -18.820312500000, -18.101562500000, 1490761905
0.026855468750, -0.860839843750, 0.187988281250, 1.593750000000, -18.820312500000, -18.101562500000, 1490761905
0.026855468750, -0.860839843750, 0.187988281250, 1.593750000000, -18.820312500000, -18.101562500000, 1490761905
0.140625000000, -1.075439453125, 0.390625000000, 45.539062500000, -116.062500000000, -23.468750000000, 1490761905
0.140625000000, -1.075439453125, 0.390625000000, 45.539062500000, -116.062500000000, -23.468750000000, 1490761905
0.140625000000, -1.075439453125, 0.390625000000, 45.539062500000, -116.062500000000, -23.468750000000, 1490761905
0.300292968750, -1.010986328125, 0.523925781250, 58.445312500000, -65.039062500000, -20.484375000000, 1490761905
0.300292968750, -1.010986328125, 0.523925781250, 58.445312500000, -65.039062500000, -20.484375000000, 1490761905
0.300292968750, -1.010986328125, 0.523925781250, 58.445312500000, -65.039062500000, -20.484375000000, 1490761905
0.300292968750, -1.010986328125, 0.523925781250, 58.445312500000, -65.039062500000, -20.484375000000, 1490761905
0.336669921875, -0.961425781250, 0.293701171875, -0.109375000000, -11.085937500000, -3.312500000000, 1490761905
0.336669921875, -0.961425781250, 0.293701171875, -0.109375000000, -11.085937500000, -3.312500000000, 1490761905
0.336669921875, -0.961425781250, 0.293701171875, -0.109375000000, -11.085937500000, -3.312500000000, 1490761905
0.054199218750, -0.790283203125, 0.279785156250, 12.257812500000, 20.320312500000, -6.640625000000, 1490761905
0.054199218750, -0.790283203125, 0.279785156250, 12.257812500000, 20.320312500000, -6.640625000000, 1490761905
0.054199218750, -0.790283203125, 0.279785156250, 12.257812500000, 20.320312500000, -6.640625000000, 1490761905
0.123046875000, -0.823242187500, 0.335937500000, 20.507812500000, 15.640625000000, -7.429687500000, 1490761905
0.123046875000, -0.823242187500, 0.335937500000, 20.507812500000, 15.640625000000, -7.429687500000, 1490761905
0.123046875000, -0.823242187500, 0.335937500000, 20.507812500000, 15.640625000000, -7.429687500000, 1490761905
0.097167968750, -0.949707031250, 0.298095703125, 4.820312500000, 18.726562500000, -6.796875000000, 1490761905
0.097167968750, -0.949707031250, 0.298095703125, 4.820312500000, 18.726562500000, -6.796875000000, 1490761905
0.097167968750, -0.949707031250, 0.298095703125, 4.820312500000, 18.726562500000, -6.796875000000, 1490761905
0.097167968750, -0.949707031250, 0.298095703125, 4.820312500000, 18.726562500000, -6.796875000000, 1490761905
0.168212890625, -0.960693359375, 0.365722656250, -1.734375000000, 14.757812500000, -6.750000000000, 1490761905
0.168212890625, -0.960693359375, 0.365722656250, -1.734375000000, 14.757812500000, -6.750000000000, 1490761905
0.168212890625, -0.960693359375, 0.365722656250, -1.734375000000, 14.757812500000, -6.750000000000, 1490761905
0.240234375000, -1.043945312500, 0.448486328125, -9.054687500000, 13.281250000000, 3.343750000000, 1490761906
0.240234375000, -1.043945312500, 0.448486328125, -9.054687500000, 13.281250000000, 3.343750000000, 1490761906
0.240234375000, -1.043945312500, 0.448486328125, -9.054687500000, 13.281250000000, 3.343750000000, 1490761906
0.220214843750, -1.056396484375, 0.231689453125, -53.351562500000, 45.945312500000, 22.351562500000, 1490761906
0.220214843750, -1.056396484375, 0.231689453125, -53.351562500000, 45.945312500000, 22.351562500000, 1490761906
0.220214843750, -1.056396484375, 0.231689453125, -53.351562500000, 45.945312500000, 22.351562500000, 1490761906
0.208496093750, -0.935302734375, 0.262451171875, 2.367187500000, 38.804687500000, 21.281250000000, 1490761906
0.208496093750, -0.935302734375, 0.262451171875, 2.367187500000, 38.804687500000, 21.281250000000, 1490761906
0.208496093750, -0.935302734375, 0.262451171875, 2.367187500000, 38.804687500000, 21.281250000000, 1490761906
0.208496093750, -0.935302734375, 0.262451171875, 2.367187500000, 38.804687500000, 21.281250000000, 1490761906
0.114990234375, -0.859863281250, 0.164062500000, -13.281250000000, 59.625000000000, 9.125000000000, 1490761906
0.114990234375, -0.859863281250, 0.164062500000, -13.281250000000, 59.625000000000, 9.125000000000, 1490761906
0.114990234375, -0.859863281250, 0.164062500000, -13.281250000000, 59.625000000000, 9.125000000000, 1490761906
0.172119140625, -0.896240234375, 0.084716796875, -18.468750000000, 52.468750000000, -8.039062500000, 1490761906
0.172119140625, -0.896240234375, 0.084716796875, -18.468750000000, 52.468750000000, -8.039062500000, 1490761906
0.172119140625, -0.896240234375, 0.084716796875, -18.468750000000, 52.468750000000, -8.039062500000, 1490761906
0.096435546875, -1.083984375000, 0.235107421875, 12.210937500000, 78.007812500000, -2.796875000000, 1490761906
0.096435546875, -1.083984375000, 0.235107421875, 12.210937500000, 78.007812500000, -2.796875000000, 1490761906
0.096435546875, -1.083984375000, 0.235107421875, 12.210937500000, 78.007812500000, -2.796875000000, 1490761906
