ACC_X,ACC_Y,ACC_Z,G_X,G_Y,G_Z,Unix Time
0.014648437500, -1.027832031250, 0.411376953125, -6.273437500000, -3.617187500000, -20.351562500000, 1490762095
0.014648437500, -1.027832031250, 0.411376953125, -6.273437500000, -3.617187500000, -20.351562500000, 1490762095
0.014648437500, -1.027832031250, 0.411376953125, -6.273437500000, -3.617187500000, -20.351562500000, 1490762095
0.267578125000, -0.874511718750, 0.353027343750, -8.039062500000, -26.765625000000, -20.765625000000, 1490762095
0.267578125000, -0.874511718750, 0.353027343750, -8.039062500000, -26.765625000000, -20.765625000000, 1490762095
0.267578125000, -0.874511718750, 0.353027343750, -8.039062500000, -26.765625000000, -20.765625000000, 1490762095
0.199218750000, -0.933837890625, 0.302001953125, -8.078125000000, 3.031250000000, -0.507812500000, 1490762095
0.199218750000, -0.933837890625, 0.302001953125, -8.078125000000, 3.031250000000, -0.507812500000, 1490762095
0.199218750000, -0.933837890625, 0.302001953125, -8.078125000000, 3.031250000000, -0.507812500000, 1490762095
0.199218750000, -0.933837890625, 0.302001953125, -8.078125000000, 3.031250000000, -0.507812500000, 1490762095
0.155761718750, -0.874755859375, 0.404296875000, -1.835937500000, 7.195312500000, 1.468750000000, 1490762096
0.155761718750, -0.874755859375, 0.404296875000, -1.835937500000, 7.195312500000, 1.468750000000, 1490762096
0.155761718750, -0.874755859375, 0.404296875000, -1.835937500000, 7.195312500000, 1.468750000000, 1490762096
0.092773437500, -1.009521484375, 0.372314453125, 1.953125000000, -7.632812500000, -7.640625000000, 1490762096
0.092773437500, -1.009521484375, 0.372314453125, 1.953125000000, -7.632812500000, -7.640625000000, 1490762096
0.092773437500, -1.009521484375, 0.372314453125, 1.953125000000, -7.632812500000, -7.640625000000, 1490762096
0.072265625000, -0.957275390625, 0.405029296875, 0.562500000000, -24.835937500000, -8.289062500000, 1490762096
0.072265625000, -0.957275390625, 0.405029296875, 0.562500000000, -24.835937500000, -8.289062500000, 1490762096
0.072265625000, -0.957275390625, 0.405029296875, 0.562500000000, -24.835937500000, -8.289062500000, 1490762096
0.161865234375, -0.856445312500, 0.311279296875, -12.179687500000, 6.320312500000, -8.578125000000, 1490762096
0.161865234375, -0.856445312500, 0.311279296875, -12.179687500000, 6.320312500000, -8.578125000000, 1490762096
0.161865234375, -0.856445312500, 0.311279296875, -12.179687500000, 6.320312500000, -8.578125000000, 1490762096
0.161865234375, -0.856445312500, 0.311279296875, -12.179687500000, 6.320312500000, -8.578125000000, 1490762096
0.196044921875, -0.935546875000, 0.249755859375, -9.046875000000, 1.210937500000, 0.468750000000, 1490762096
0.196044921875, -0.935546875000, 0.249755859375, -9.046875000000, 1.210937500000, 0.468750000000, 1490762096
0.196044921875, -0.935546875000, 0.249755859375, -9.046875000000, 1.210937500000, 0.468750000000, 1490762096
0.037109375000, -0.938476562500, 0.312744140625, 3.507812500000, -1.820312500000, -8.593750000000, 1490762096
0.037109375000, -0.938476562500, 0.312744140625, 3.507812500000, -1.820312500000, -8.593750000000, 1490762096
0.037109375000, -0.938476562500, 0.312744140625, 3.507812500000, -1.820312500000, -8.593750000000, 1490762096
0.131591796875, -0.918945312500, 0.386230468750, -11.304687500000, 2.382812500000, -3.953125000000, 1490762096
0.131591796875, -0.918945312500, 0.386230468750, -11.304687500000, 2.382812500000, -3.953125000000, 1490762096
0.131591796875, -0.918945312500, 0.386230468750, -11.304687500000, 2.382812500000, -3.953125000000, 1490762096
0.148681640625, -0.970458984375, 0.299804687500, -15.148437500000, -0.710937500000, -8.468750000000, 1490762096
0.033935546875, -0.906738281250, 0.382568359375, -8.953125000000, 1.453125000000, -4.710937500000, 1490762096
0.134277343750, -0.869140625000, 0.346923828125, -8.953125000000, 1.453125000000, -4.710937500000, 1490762096
0.134277343750, -0.869140625000, 0.346923828125, -8.953125000000, 1.453125000000, -4.710937500000, 1490762096
0.134277343750, -0.869140625000, 0.346923828125, -8.953125000000, 1.453125000000, -4.710937500000, 1490762096
0.053222656250, -0.916503906250, 0.391357421875, -9.203125000000, -8.234375000000, -4.218750000000, 1490762096
0.053222656250, -0.916503906250, 0.391357421875, -9.203125000000, -8.234375000000, -4.218750000000, 1490762096
0.053222656250, -0.916503906250, 0.391357421875, -9.203125000000, -8.234375000000, -4.218750000000, 1490762096
0.053222656250, -0.916503906250, 0.391357421875, -9.203125000000, -8.234375000000, -4.218750000000, 1490762096
0.053222656250, -0.916503906250, 0.391357421875, -9.203125000000, -8.234375000000, -4.218750000000, 1490762096
0.049804687500, -0.878906250000, 0.300292968750, 3.789062500000, -17.968750000000, -6.648437500000, 1490762096
0.049804687500, -0.878906250000, 0.300292968750, 3.789062500000, -17.968750000000, -6.648437500000, 1490762096
0.049804687500, -0.878906250000, 0.300292968750, 3.789062500000, -17.968750000000, -6.648437500000, 1490762096
0.193115234375, -0.958251953125, 0.444335937500, -8.085937500000, 1.937500000000, -0.437500000000, 1490762096
0.193115234375, -0.958251953125, 0.444335937500, -8.085937500000, 1.937500000000, -0.437500000000, 1490762096
0.193115234375, -0.958251953125, 0.444335937500, -8.085937500000, 1.937500000000, -0.437500000000, 1490762096
0.193115234375, -0.958251953125, 0.444335937500, -8.085937500000, 1.937500000000, -0.437500000000, 1490762096
0.046142578125, -0.951171875000, 0.440673828125, -1.921875000000, -2.914062500000, -1.453125000000, 1490762096
0.046142578125, -0.951171875000, 0.440673828125, -1.921875000000, -2.914062500000, -1.453125000000, 1490762096
0.046142578125, -0.951171875000, 0.440673828125, -1.921875000000, -2.914062500000, -1.453125000000, 1490762096
0.102783203125, -0.952636718750, 0.366943359375, -9.085937500000, -0.890625000000, -2.203125000000, 1490762096
0.102783203125, -0.952636718750, 0.366943359375, -9.085937500000, -0.890625000000, -2.203125000000, 1490762096
0.102783203125, -0.952636718750, 0.366943359375, -9.085937500000, -0.890625000000, -2.203125000000, 1490762096
0.148437500000, -0.936035156250, 0.344970703125, -8.789062500000, 0.992187500000, 0.156250000000, 1490762096
0.148437500000, -0.936035156250, 0.344970703125, -8.789062500000, 0.992187500000, 0.156250000000, 1490762096
0.148437500000, -0.936035156250, 0.344970703125, -8.789062500000, 0.992187500000, 0.156250000000, 1490762096
0.148193359375, -0.801757812500, 0.381103515625, -3.117187500000, -0.335937500000, -6.125000000000, 1490762096
0.148193359375, -0.801757812500, 0.381103515625, -3.117187500000, -0.335937500000, -6.125000000000, 1490762096
0.148193359375, -0.801757812500, 0.381103515625, -3.117187500000, -0.335937500000, -6.125000000000, 1490762096
0.148193359375, -0.801757812500, 0.381103515625, -3.117187500000, -0.335937500000, -6.125000000000, 1490762096
0.195556640625, -0.987792968750, 0.366455078125, 7.398437500000, -3.359375000000, -7.992187500000, 1490762096
0.195556640625, -0.987792968750, 0.366455078125, 7.398437500000, -3.359375000000, -7.992187500000, 1490762096
0.195556640625, -0.987792968750, 0.366455078125, 7.398437500000, -3.359375000000, -7.992187500000, 1490762096
0.169921875000, -0.943359375000, 0.382080078125, -2.640625000000, 3.968750000000, -1.046875000000, 1490762096
0.169921875000, -0.943359375000, 0.382080078125, -2.640625000000, 3.968750000000, -1.046875000000, 1490762096
0.169921875000, -0.943359375000, 0.382080078125, -2.640625000000, 3.968750000000, -1.046875000000, 1490762096
0.048339843750, -0.945312500000, 0.286865234375, 25.851562500000, 5.593750000000, -3.046875000000, 1490762096
0.048339843750, -0.945312500000, 0.286865234375, 25.851562500000, 5.593750000000, -3.046875000000, 1490762096
0.048339843750, -0.945312500000, 0.286865234375, 25.851562500000, 5.593750000000, -3.046875000000, 1490762096
0.139160156250, -0.843505859375, 0.177490234375, 59.554687500000, -4.562500000000, -2.414062500000, 1490762096
0.139160156250, -0.843505859375, 0.177490234375, 59.554687500000, -4.562500000000, -2.414062500000, 1490762096
0.139160156250, -0.843505859375, 0.177490234375, 59.554687500000, -4.562500000000, -2.414062500000, 1490762096
0.139160156250, -0.843505859375, 0.177490234375, 59.554687500000, -4.562500000000, -2.414062500000, 1490762096
0.087402343750, -0.729492187500, 0.156982421875, 82.210937500000, -11.992187500000, 0.484375000000, 1490762096
0.087402343750, -0.729492187500, 0.156982421875, 82.210937500000, -11.992187500000, 0.484375000000, 1490762096
0.087402343750, -0.729492187500, 0.156982421875, 82.210937500000, -11.992187500000, 0.484375000000, 1490762096
0.082763671875, -0.590576171875, 0.099609375000, 99.476562500000, -47.921875000000, -4.820312500000, 1490762097
0.082763671875, -0.590576171875, 0.099609375000, 99.476562500000, -47.921875000000, -4.820312500000, 1490762097
0.082763671875, -0.590576171875, 0.099609375000, 99.476562500000, -47.921875000000, -4.820312500000, 1490762097
0.063964843750, -0.406738281250, 0.097900390625, 99.250000000000, -47.890625000000, -10.179687500000, 1490762097
0.063964843750, -0.406738281250, 0.097900390625, 99.250000000000, -47.890625000000, -10.179687500000, 1490762097
0.063964843750, -0.406738281250, 0.097900390625, 99.250000000000, -47.890625000000, -10.179687500000, 1490762097
0.096191406250, -0.420166015625, -0.071533203125, 129.992187500000, -58.507812500000, -13.328125000000, 1490762097
0.096191406250, -0.420166015625, -0.071533203125, 129.992187500000, -58.507812500000, -13.328125000000, 1490762097
0.096191406250, -0.420166015625, -0.071533203125, 129.992187500000, -58.507812500000, -13.328125000000, 1490762097
0.096191406250, -0.420166015625, -0.071533203125, 129.992187500000, -58.507812500000, -13.328125000000, 1490762097
0.122070312500, -0.593505859375, -0.084716796875, 142.757812500000, -98.867187500000, -18.015625000000, 1490762097
0.122070312500, -0.593505859375, -0.084716796875, 142.757812500000, -98.867187500000, -18.015625000000, 1490762097
0.122070312500, -0.593505859375, -0.084716796875, 142.757812500000, -98.867187500000, -18.015625000000, 1490762097
0.138916015625, -0.754638671875, -0.079345703125, 106.531250000000, -120.890625000000, -10.632812500000, 1490762097
0.138916015625, -0.754638671875, -0.079345703125, 106.531250000000, -120.890625000000, -10.632812500000, 1490762097
0.138916015625, -0.754638671875, -0.079345703125, 106.531250000000, -120.890625000000, -10.632812500000, 1490762097
0.143798828125, -0.486328125000, 0.064208984375, 68.976562500000, -140.945312500000, -2.218750000000, 1490762097
0.143798828125, -0.486328125000, 0.064208984375, 68.976562500000, -140.945312500000, -2.218750000000, 1490762097
0.143798828125, -0.486328125000, 0.064208984375, 68.976562500000, -140.945312500000, -2.218750000000, 1490762097
-0.029785156250, -0.827880859375, 0.022949218750, -46.476562500000, -109.421875000000, -37.804687500000, 1490762097
-0.029785156250, -0.827880859375, 0.022949218750, -46.476562500000, -109.421875000000, -37.804687500000, 1490762097
-0.029785156250, -0.827880859375, 0.022949218750, -46.476562500000, -109.421875000000, -37.804687500000, 1490762097
-0.029785156250, -0.827880859375, 0.022949218750, -46.476562500000, -109.421875000000, -37.804687500000, 1490762097
-0.070068359375, -1.012695312500, -0.032226562500, -77.984375000000, -98.203125000000, -13.320312500000, 1490762097
-0.070068359375, -1.012695312500, -0.032226562500, -77.984375000000, -98.203125000000, -13.320312500000, 1490762097
-0.070068359375, -1.012695312500, -0.032226562500, -77.984375000000, -98.203125000000, -13.320312500000, 1490762097
-0.089843750000, -1.033203125000, 0.075439453125, -183.664062500000, -37.953125000000, -9.609375000000, 1490762097
-0.089843750000, -1.033203125000, 0.075439453125, -183.664062500000, -37.953125000000, -9.609375000000, 1490762097
-0.089843750000, -1.033203125000, 0.075439453125, -183.664062500000, -37.953125000000, -9.609375000000, 1490762097
-0.183593750000, -1.441406250000, 0.072998046875, -152.070312500000, 11.843750000000, -32.015625000000, 1490762097
-0.183593750000, -1.441406250000, 0.072998046875, -152.070312500000, 11.843750000000, -32.015625000000, 1490762097
-0.183593750000, -1.441406250000, 0.072998046875, -152.070312500000, 11.843750000000, -32.015625000000, 1490762097
-0.183593750000, -1.441406250000, 0.072998046875, -152.070312500000, 11.843750000000, -32.015625000000, 1490762097
-0.240722656250, -1.450195312500, 0.069580078125, -110.750000000000, 0.695312500000, 2.492187500000, 1490762097
-0.240722656250, -1.450195312500, 0.069580078125, -110.750000000000, 0.695312500000, 2.492187500000, 1490762097
-0.240722656250, -1.450195312500, 0.069580078125, -110.750000000000, 0.695312500000, 2.492187500000, 1490762097
-0.240722656250, -1.450195312500, 0.069580078125, -110.750000000000, 0.695312500000, 2.492187500000, 1490762097
-0.240722656250, -1.450195312500, 0.069580078125, -110.750000000000, 0.695312500000, 2.492187500000, 1490762097
-0.053466796875, -1.404052734375, 0.076416015625, -136.148437500000, 35.742187500000, -0.570312500000, 1490762097
-0.053466796875, -1.404052734375, 0.076416015625, -136.148437500000, 35.742187500000, -0.570312500000, 1490762097
-0.053466796875, -1.404052734375, 0.076416015625, -136.148437500000, 35.742187500000, -0.570312500000, 1490762097
-0.053466796875, -1.404052734375, 0.076416015625, -136.148437500000, 35.742187500000, -0.570312500000, 1490762097
-0.202880859375, -1.342285156250, 0.059570312500, -51.132812500000, 96.156250000000, 2.335937500000, 1490762097
-0.202880859375, -1.342285156250, 0.059570312500, -51.132812500000, 96.156250000000, 2.335937500000, 1490762097
-0.202880859375, -1.342285156250, 0.059570312500, -51.132812500000, 96.156250000000, 2.335937500000, 1490762097
-0.115966796875, -1.360351562500, -0.007812500000, -10.351562500000, -70.289062500000, -3.671875000000, 1490762097
-0.115966796875, -1.360351562500, -0.007812500000, -10.351562500000, -70.289062500000, -3.671875000000, 1490762097
-0.115966796875, -1.360351562500, -0.007812500000, -10.351562500000, -70.289062500000, -3.671875000000, 1490762097
-0.115966796875, -1.360351562500, -0.007812500000, -10.351562500000, -70.289062500000, -3.671875000000, 1490762097
-0.115966796875, -1.360351562500, -0.007812500000, -10.351562500000, -70.289062500000, -3.671875000000, 1490762097
-0.213134765625, -1.438232421875, 0.098632812500, 57.757812500000, -52.992187500000, -27.507812500000, 1490762097
-0.213134765625, -1.438232421875, 0.098632812500, 57.757812500000, -52.992187500000, -27.507812500000, 1490762097
-0.213134765625, -1.438232421875, 0.098632812500, 57.757812500000, -52.992187500000, -27.507812500000, 1490762097
-0.213134765625, -1.438232421875, 0.098632812500, 57.757812500000, -52.992187500000, -27.507812500000, 1490762097
-0.213134765625, -1.438232421875, 0.098632812500, 57.757812500000, -52.992187500000, -27.507812500000, 1490762097
-0.290283203125, -1.451904296875, 0.128906250000, 86.984375000000, -71.671875000000, -21.929687500000, 1490762097
-0.290283203125, -1.451904296875, 0.128906250000, 86.984375000000, -71.671875000000, -21.929687500000, 1490762097
-0.290283203125, -1.451904296875, 0.128906250000, 86.984375000000, -71.671875000000, -21.929687500000, 1490762097
-0.284179687500, -1.424560546875, 0.141113281250, 103.484375000000, -136.468750000000, -39.992187500000, 1490762097
-0.284179687500, -1.424560546875, 0.141113281250, 103.484375000000, -136.468750000000, -39.992187500000, 1490762097
-0.284179687500, -1.424560546875, 0.141113281250, 103.484375000000, -136.468750000000, -39.992187500000, 1490762097
-0.284179687500, -1.424560546875, 0.141113281250, 103.484375000000, -136.468750000000, -39.992187500000, 1490762097
0.573730468750, -2.170166015625, 1.582763671875, -256.000000000000, 253.992187500000, 253.992187500000, 1490762097
0.573730468750, -2.170166015625, 1.582763671875, -256.000000000000, 253.992187500000, 253.992187500000, 1490762097
0.573730468750, -2.170166015625, 1.582763671875, -256.000000000000, 253.992187500000, 253.992187500000, 1490762097
-0.288085937500, -1.451416015625, 0.053955078125, 16.671875000000, 253.992187500000, 105.531250000000, 1490762098
-0.288085937500, -1.451416015625, 0.053955078125, 16.671875000000, 253.992187500000, 105.531250000000, 1490762098
-0.288085937500, -1.451416015625, 0.053955078125, 16.671875000000, 253.992187500000, 105.531250000000, 1490762098
-0.235595703125, -1.302246093750, -0.229003906250, -91.179687500000, 210.414062500000, 7.328125000000, 1490762098
-0.235595703125, -1.302246093750, -0.229003906250, -91.179687500000, 210.414062500000, 7.328125000000, 1490762098
-0.235595703125, -1.302246093750, -0.229003906250, -91.179687500000, 210.414062500000, 7.328125000000, 1490762098
-0.329345703125, -1.250000000000, -0.001464843750, 45.750000000000, -256.000000000000, -46.804687500000, 1490762098
-0.329345703125, -1.250000000000, -0.001464843750, 45.750000000000, -256.000000000000, -46.804687500000, 1490762098
-0.329345703125, -1.250000000000, -0.001464843750, 45.750000000000, -256.000000000000, -46.804687500000, 1490762098
-0.329345703125, -1.250000000000, -0.001464843750, 45.750000000000, -256.000000000000, -46.804687500000, 1490762098
-0.157958984375, -1.260253906250, 0.088134765625, 139.257812500000, -256.000000000000, 34.429687500000, 1490762098
-0.157958984375, -1.260253906250, 0.088134765625, 139.257812500000, -256.000000000000, 34.429687500000, 1490762098
-0.157958984375, -1.260253906250, 0.088134765625, 139.257812500000, -256.000000000000, 34.429687500000, 1490762098
-0.089843750000, -0.838134765625, -0.035888671875, 65.156250000000, -256.000000000000, 67.554687500000, 1490762098
-0.089843750000, -0.838134765625, -0.035888671875, 65.156250000000, -256.000000000000, 67.554687500000, 1490762098
-0.089843750000, -0.838134765625, -0.035888671875, 65.156250000000, -256.000000000000, 67.554687500000, 1490762098
0.127441406250, -0.904541015625, 0.081787109375, -110.054687500000, -53.632812500000, 108.585937500000, 1490762098
0.127441406250, -0.904541015625, 0.081787109375, -110.054687500000, -53.632812500000, 108.585937500000, 1490762098
0.127441406250, -0.904541015625, 0.081787109375, -110.054687500000, -53.632812500000, 108.585937500000, 1490762098
0.172851562500, -0.791259765625, 0.035888671875, -9.406250000000, 253.992187500000, 98.367187500000, 1490762098
0.172851562500, -0.791259765625, 0.035888671875, -9.406250000000, 253.992187500000, 98.367187500000, 1490762098
0.172851562500, -0.791259765625, 0.035888671875, -9.406250000000, 253.992187500000, 98.367187500000, 1490762098
0.172851562500, -0.791259765625, 0.035888671875, -9.406250000000, 253.992187500000, 98.367187500000, 1490762098
0.257812500000, -0.813232421875, 0.063476562500, 67.289062500000, 253.992187500000, 70.226562500000, 1490762098
0.257812500000, -0.813232421875, 0.063476562500, 67.289062500000, 253.992187500000, 70.226562500000, 1490762098
0.257812500000, -0.813232421875, 0.063476562500, 67.289062500000, 253.992187500000, 70.226562500000, 1490762098
0.213378906250, -0.860351562500, -0.054199218750, 4.976562500000, 183.562500000000, 20.820312500000, 1490762098
0.213378906250, -0.860351562500, -0.054199218750, 4.976562500000, 183.562500000000, 20.820312500000, 1490762098
0.213378906250, -0.860351562500, -0.054199218750, 4.976562500000, 183.562500000000, 20.820312500000, 1490762098
0.136962890625, -0.857177734375, -0.140380859375, -62.406250000000, -110.500000000000, 55.601562500000, 1490762098
0.136962890625, -0.857177734375, -0.140380859375, -62.406250000000, -110.500000000000, 55.601562500000, 1490762098
0.136962890625, -0.857177734375, -0.140380859375, -62.406250000000, -110.500000000000, 55.601562500000, 1490762098
0.091308593750, -0.833496093750, 0.064208984375, -53.984375000000, -190.679687500000, 21.773437500000, 1490762098
-0.053710937500, -0.555419921875, 0.039062500000, 19.460937500000, -49.570312500000, 8.023437500000, 1490762098
-0.053710937500, -0.555419921875, 0.039062500000, 19.460937500000, -49.570312500000, 8.023437500000, 1490762098
-0.053710937500, -0.555419921875, 0.039062500000, 19.460937500000, -49.570312500000, 8.023437500000, 1490762098
-0.053710937500, -0.555419921875, 0.039062500000, 19.460937500000, -49.570312500000, 8.023437500000, 1490762098
-0.085205078125, -0.591308593750, 0.038574218750, 23.523437500000, 60.523437500000, -9.960937500000, 1490762098
0.001220703125, -0.539794921875, 0.072753906250, 22.062500000000, 121.093750000000, -24.242187500000, 1490762098
0.001220703125, -0.539794921875, 0.072753906250, 22.062500000000, 121.093750000000, -24.242187500000, 1490762098
0.001220703125, -0.539794921875, 0.072753906250, 22.062500000000, 121.093750000000, -24.242187500000, 1490762098
0.397949218750, -0.699707031250, 0.843017578125, 75.906250000000, 232.039062500000, -25.343750000000, 1490762098
0.397949218750, -0.699707031250, 0.843017578125, 75.906250000000, 232.039062500000, -25.343750000000, 1490762098
0.397949218750, -0.699707031250, 0.843017578125, 75.906250000000, 232.039062500000, -25.343750000000, 1490762098
0.397949218750, -0.699707031250, 0.843017578125, 75.906250000000, 232.039062500000, -25.343750000000, 1490762098
0.444091796875, -0.642089843750, 0.455322265625, -233.093750000000, -23.078125000000, 48.164062500000, 1490762098
0.161621093750, -0.677734375000, 0.182128906250, -233.093750000000, -23.078125000000, 48.164062500000, 1490762098
0.161621093750, -0.677734375000, 0.182128906250, -233.093750000000, -23.078125000000, 48.164062500000, 1490762098
0.161621093750, -0.677734375000, 0.182128906250, -233.093750000000, -23.078125000000, 48.164062500000, 1490762098
0.251953125000, -0.767333984375, 0.143066406250, -157.382812500000, 253.992187500000, 48.546875000000, 1490762098
0.251953125000, -0.767333984375, 0.143066406250, -157.382812500000, 253.992187500000, 48.546875000000, 1490762098
0.251953125000, -0.767333984375, 0.143066406250, -157.382812500000, 253.992187500000, 48.546875000000, 1490762098
0.219482421875, -0.739013671875, -0.029296875000, -93.156250000000, 136.273437500000, -5.937500000000, 1490762098
0.219482421875, -0.739013671875, -0.029296875000, -93.156250000000, 136.273437500000, -5.937500000000, 1490762098
0.219482421875, -0.739013671875, -0.029296875000, -93.156250000000, 136.273437500000, -5.937500000000, 1490762098
0.287109375000, -0.723144531250, -0.056884765625, -51.835937500000, -120.343750000000, -1.984375000000, 1490762098
0.287109375000, -0.723144531250, -0.056884765625, -51.835937500000, -120.343750000000, -1.984375000000, 1490762098
0.287109375000, -0.723144531250, -0.056884765625, -51.835937500000, -120.343750000000, -1.984375000000, 1490762098
0.376708984375, -0.960449218750, 0.165039062500, 72.773437500000, 40.609375000000, -24.585937500000, 1490762098
0.376708984375, -0.960449218750, 0.165039062500, 72.773437500000, 40.609375000000, -24.585937500000, 1490762098
0.376708984375, -0.960449218750, 0.165039062500, 72.773437500000, 40.609375000000, -24.585937500000, 1490762098
0.376708984375, -0.960449218750, 0.165039062500, 72.773437500000, 40.609375000000, -24.585937500000, 1490762098
0.254638671875, -0.934570312500, 0.651123046875, 13.507812500000, -129.726562500000, -0.562500000000, 1490762098
0.254638671875, -0.934570312500, 0.651123046875, 13.507812500000, -129.726562500000, -0.562500000000, 1490762098
0.254638671875, -0.934570312500, 0.651123046875, 13.507812500000, -129.726562500000, -0.562500000000, 1490762098
0.161376953125, -0.792236328125, 0.270263671875, -137.398437500000, 156.664062500000, 14.304687500000, 1490762098
0.161376953125, -0.792236328125, 0.270263671875, -137.398437500000, 156.664062500000, 14.304687500000, 1490762098
0.161376953125, -0.792236328125, 0.270263671875, -137.398437500000, 156.664062500000, 14.304687500000, 1490762099
0.204589843750, -0.796630859375, 0.103027343750, -67.078125000000, 157.929687500000, -7.476562500000, 1490762099
0.204589843750, -0.796630859375, 0.103027343750, -67.078125000000, 157.929687500000, -7.476562500000, 1490762099
0.204589843750, -0.796630859375, 0.103027343750, -67.078125000000, 157.929687500000, -7.476562500000, 1490762099
0.188476562500, -0.951904296875, 0.413330078125, 58.875000000000, -114.953125000000, -34.460937500000, 1490762099
0.188476562500, -0.951904296875, 0.413330078125, 58.875000000000, -114.953125000000, -34.460937500000, 1490762099
0.188476562500, -0.951904296875, 0.413330078125, 58.875000000000, -114.953125000000, -34.460937500000, 1490762099
0.188476562500, -0.951904296875, 0.413330078125, 58.875000000000, -114.953125000000, -34.460937500000, 1490762099
0.285888671875, -0.947753906250, 0.647705078125, 17.882812500000, -79.468750000000, -20.375000000000, 1490762099
0.123046875000, -0.895996093750, 0.450439453125, -39.453125000000, 31.687500000000, 1.804687500000, 1490762099
0.123046875000, -0.895996093750, 0.450439453125, -39.453125000000, 31.687500000000, 1.804687500000, 1490762099
0.123046875000, -0.895996093750, 0.450439453125, -39.453125000000, 31.687500000000, 1.804687500000, 1490762099
0.186523437500, -0.922119140625, 0.235107421875, -15.265625000000, -18.765625000000, 2.375000000000, 1490762099
0.186523437500, -0.922119140625, 0.235107421875, -15.265625000000, -18.765625000000, 2.375000000000, 1490762099
0.186523437500, -0.922119140625, 0.235107421875, -15.265625000000, -18.765625000000, 2.375000000000, 1490762099
0.172363281250, -0.984863281250, 0.347412109375, -6.960937500000, -24.703125000000, -4.867187500000, 1490762099
0.172363281250, -0.984863281250, 0.347412109375, -6.960937500000, -24.703125000000, -4.867187500000, 1490762099
0.172363281250, -0.984863281250, 0.347412109375, -6.960937500000, -24.703125000000, -4.867187500000, 1490762099
0.172363281250, -0.984863281250, 0.347412109375, -6.960937500000, -24.703125000000, -4.867187500000, 1490762099
0.172363281250, -0.984863281250, 0.347412109375, -6.960937500000, -24.703125000000, -4.867187500000, 1490762099
0.121826171875, -0.951416015625, 0.529541015625, -4.875000000000, -22.945312500000, -9.289062500000, 1490762099
0.121826171875, -0.951416015625, 0.529541015625, -4.875000000000, -22.945312500000, -9.289062500000, 1490762099
0.259521484375, -0.857910156250, 0.397949218750, -16.031250000000, 1.882812500000, -9.664062500000, 1490762099
0.259521484375, -0.857910156250, 0.397949218750, -16.031250000000, 1.882812500000, -9.664062500000, 1490762099
0.259521484375, -0.857910156250, 0.397949218750, -16.031250000000, 1.882812500000, -9.664062500000, 1490762099
0.259521484375, -0.857910156250, 0.397949218750, -16.031250000000, 1.882812500000, -9.664062500000, 1490762099
0.259521484375, -0.857910156250, 0.397949218750, -16.031250000000, 1.882812500000, -9.664062500000, 1490762099
0.279052734375, -0.810791015625, 0.362548828125, -4.937500000000, -10.695312500000, -5.546875000000, 1490762099
0.279052734375, -0.810791015625, 0.362548828125, -4.937500000000, -10.695312500000, -5.546875000000, 1490762099
0.279052734375, -0.810791015625, 0.362548828125, -4.937500000000, -10.695312500000, -5.546875000000, 1490762099
0.160400390625, -0.883300781250, 0.364746093750, -3.117187500000, -9.882812500000, -4.453125000000, 1490762099
0.160400390625, -0.883300781250, 0.364746093750, -3.117187500000, -9.882812500000, -4.453125000000, 1490762099
0.160400390625, -0.883300781250, 0.364746093750, -3.117187500000, -9.882812500000, -4.453125000000, 1490762099
0.160400390625, -0.883300781250, 0.364746093750, -3.117187500000, -9.882812500000, -4.453125000000, 1490762099
0.235107421875, -0.907470703125, 0.302490234375, -1.703125000000, -10.710937500000, -3.835937500000, 1490762099
0.235107421875, -0.907470703125, 0.302490234375, -1.703125000000, -10.710937500000, -3.835937500000, 1490762099
0.235107421875, -0.907470703125, 0.302490234375, -1.703125000000, -10.710937500000, -3.835937500000, 1490762099
0.256591796875, -0.868164062500, 0.364257812500, -6.257812500000, -7.921875000000, -1.843750000000, 1490762099
0.256591796875, -0.868164062500, 0.364257812500, -6.257812500000, -7.921875000000, -1.843750000000, 1490762099
0.256591796875, -0.868164062500, 0.364257812500, -6.257812500000, -7.921875000000, -1.843750000000, 1490762099
0.173095703125, -0.946533203125, 0.367919921875, 0.906250000000, -2.414062500000, -4.375000000000, 1490762099
0.173095703125, -0.946533203125, 0.367919921875, 0.906250000000, -2.414062500000, -4.375000000000, 1490762099
0.173095703125, -0.946533203125, 0.367919921875, 0.906250000000, -2.414062500000, -4.375000000000, 1490762099
0.201904296875, -0.898437500000, 0.292480468750, 2.820312500000, 1.468750000000, -1.726562500000, 1490762099
0.201904296875, -0.898437500000, 0.292480468750, 2.820312500000, 1.468750000000, -1.726562500000, 1490762099
0.201904296875, -0.898437500000, 0.292480468750, 2.820312500000, 1.468750000000, -1.726562500000, 1490762099
0.201904296875, -0.898437500000, 0.292480468750, 2.820312500000, 1.468750000000, -1.726562500000, 1490762099
0.207763671875, -0.946044921875, 0.293701171875, 4.500000000000, 4.437500000000, -4.085937500000, 1490762099
0.207763671875, -0.946044921875, 0.293701171875, 4.500000000000, 4.437500000000, -4.085937500000, 1490762099
0.207763671875, -0.946044921875, 0.293701171875, 4.500000000000, 4.437500000000, -4.085937500000, 1490762099
0.264648437500, -0.913085937500, 0.354248046875, 4.023437500000, 4.812500000000, -1.468750000000, 1490762099
0.264648437500, -0.913085937500, 0.354248046875, 4.023437500000, 4.812500000000, -1.468750000000, 1490762099
0.264648437500, -0.913085937500, 0.354248046875, 4.023437500000, 4.812500000000, -1.468750000000, 1490762099
0.210693359375, -0.958984375000, 0.402587890625, -2.945312500000, 3.156250000000, -1.523437500000, 1490762099
0.210693359375, -0.958984375000, 0.402587890625, -2.945312500000, 3.156250000000, -1.523437500000, 1490762099
0.210693359375, -0.958984375000, 0.402587890625, -2.945312500000, 3.156250000000, -1.523437500000, 1490762099
0.121093750000, -0.868896484375, 0.454101562500, -5.609375000000, 2.929687500000, 0.304687500000, 1490762099
0.121093750000, -0.868896484375, 0.454101562500, -5.609375000000, 2.929687500000, 0.304687500000, 1490762099
0.121093750000, -0.868896484375, 0.454101562500, -5.609375000000, 2.929687500000, 0.304687500000, 1490762099
0.121093750000, -0.868896484375, 0.454101562500, -5.609375000000, 2.929687500000, 0.304687500000, 1490762099
0.258789062500, -0.855712890625, 0.310058593750, -1.453125000000, 0.718750000000, -0.820312500000, 1490762099
0.258789062500, -0.855712890625, 0.310058593750, -1.453125000000, 0.718750000000, -0.820312500000, 1490762099
0.258789062500, -0.855712890625, 0.310058593750, -1.453125000000, 0.718750000000, -0.820312500000, 1490762099
0.256591796875, -0.940185546875, 0.392578125000, -8.007812500000, -0.179687500000, 1.023437500000, 1490762099
0.256591796875, -0.940185546875, 0.392578125000, -8.007812500000, -0.179687500000, 1.023437500000, 1490762099
0.256591796875, -0.940185546875, 0.392578125000, -8.007812500000, -0.179687500000, 1.023437500000, 1490762099
0.314697265625, -0.932617187500, 0.396240234375, -1.031250000000, -1.875000000000, -2.109375000000, 1490762100
0.314697265625, -0.932617187500, 0.396240234375, -1.031250000000, -1.875000000000, -2.109375000000, 1490762100
0.314697265625, -0.932617187500, 0.396240234375, -1.031250000000, -1.875000000000, -2.109375000000, 1490762100
0.269531250000, -0.914794921875, 0.363281250000, -5.921875000000, -1.398437500000, -1.546875000000, 1490762100
0.269531250000, -0.914794921875, 0.363281250000, -5.921875000000, -1.398437500000, -1.546875000000, 1490762100
0.269531250000, -0.914794921875, 0.363281250000, -5.921875000000, -1.398437500000, -1.546875000000, 1490762100
0.172851562500, -0.949218750000, 0.299804687500, -3.812500000000, -4.890625000000, -1.726562500000, 1490762100
0.260253906250, -0.963623046875, 0.345458984375, -3.812500000000, -4.890625000000, -1.726562500000, 1490762100
0.260253906250, -0.963623046875, 0.345458984375, -3.812500000000, -4.890625000000, -1.726562500000, 1490762100
0.260253906250, -0.963623046875, 0.345458984375, -3.812500000000, -4.890625000000, -1.726562500000, 1490762100
0.105224609375, -1.012207031250, 0.404052734375, -7.421875000000, -4.085937500000, -4.164062500000, 1490762100
0.105224609375, -1.012207031250, 0.404052734375, -7.421875000000, -4.085937500000, -4.164062500000, 1490762100
0.105224609375, -1.012207031250, 0.404052734375, -7.421875000000, -4.085937500000, -4.164062500000, 1490762100
0.266601562500, -0.949462890625, 0.246582031250, -6.914062500000, -1.007812500000, 0.843750000000, 1490762100
0.266601562500, -0.949462890625, 0.246582031250, -6.914062500000, -1.007812500000, 0.843750000000, 1490762100
0.266601562500, -0.949462890625, 0.246582031250, -6.914062500000, -1.007812500000, 0.843750000000, 1490762100
0.324707031250, -0.960937500000, 0.398437500000, -3.421875000000, 2.679687500000, -2.304687500000, 1490762100
0.324707031250, -0.960937500000, 0.398437500000, -3.421875000000, 2.679687500000, -2.304687500000, 1490762100
0.324707031250, -0.960937500000, 0.398437500000, -3.421875000000, 2.679687500000, -2.304687500000, 1490762100
0.324707031250, -0.960937500000, 0.398437500000, -3.421875000000, 2.679687500000, -2.304687500000, 1490762100
0.390380859375, -0.900878906250, 0.339355468750, -2.968750000000, 4.078125000000, -2.257812500000, 1490762100
0.390380859375, -0.900878906250, 0.339355468750, -2.968750000000, 4.078125000000, -2.257812500000, 1490762100
0.390380859375, -0.900878906250, 0.339355468750, -2.968750000000, 4.078125000000, -2.257812500000, 1490762100
0.212402343750, -0.915527343750, 0.458251953125, -2.851562500000, -0.976562500000, 0.210937500000, 1490762100
0.212402343750, -0.915527343750, 0.458251953125, -2.851562500000, -0.976562500000, 0.210937500000, 1490762100
0.212402343750, -0.915527343750, 0.458251953125, -2.851562500000, -0.976562500000, 0.210937500000, 1490762100
0.269287109375, -0.919189453125, 0.353515625000, -4.507812500000, 2.031250000000, -4.640625000000, 1490762100
0.269287109375, -0.919189453125, 0.353515625000, -4.507812500000, 2.031250000000, -4.640625000000, 1490762100
0.269287109375, -0.919189453125, 0.353515625000, -4.507812500000, 2.031250000000, -4.640625000000, 1490762100
0.219482421875, -0.871582031250, 0.356445312500, -4.320312500000, -0.132812500000, -3.679687500000, 1490762100
0.219482421875, -0.871582031250, 0.356445312500, -4.320312500000, -0.132812500000, -3.679687500000, 1490762100
0.219482421875, -0.871582031250, 0.356445312500, -4.320312500000, -0.132812500000, -3.679687500000, 1490762100
0.219482421875, -0.871582031250, 0.356445312500, -4.320312500000, -0.132812500000, -3.679687500000, 1490762100
0.184570312500, -0.946289062500, 0.373291015625, 2.195312500000, 1.789062500000, -6.375000000000, 1490762100
0.184570312500, -0.946289062500, 0.373291015625, 2.195312500000, 1.789062500000, -6.375000000000, 1490762100
0.184570312500, -0.946289062500, 0.373291015625, 2.195312500000, 1.789062500000, -6.375000000000, 1490762100
0.171142578125, -0.873779296875, 0.402343750000, -2.554687500000, 2.320312500000, -3.250000000000, 1490762100
0.171142578125, -0.873779296875, 0.402343750000, -2.554687500000, 2.320312500000, -3.250000000000, 1490762100
0.171142578125, -0.873779296875, 0.402343750000, -2.554687500000, 2.320312500000, -3.250000000000, 1490762100
0.165527343750, -0.849609375000, 0.351074218750, -0.898437500000, -0.507812500000, -8.117187500000, 1490762100
0.165527343750, -0.849609375000, 0.351074218750, -0.898437500000, -0.507812500000, -8.117187500000, 1490762100
0.165527343750, -0.849609375000, 0.351074218750, -0.898437500000, -0.507812500000, -8.117187500000, 1490762100
0.183593750000, -0.968750000000, 0.405517578125, 2.578125000000, -0.437500000000, -5.070312500000, 1490762100
0.183593750000, -0.968750000000, 0.405517578125, 2.578125000000, -0.437500000000, -5.070312500000, 1490762100
0.183593750000, -0.968750000000, 0.405517578125, 2.578125000000, -0.437500000000, -5.070312500000, 1490762100
0.183593750000, -0.968750000000, 0.405517578125, 2.578125000000, -0.437500000000, -5.070312500000, 1490762100
0.275146484375, -0.854736328125, 0.309082031250, -2.671875000000, 0.796875000000, -6.984375000000, 1490762100
0.275146484375, -0.854736328125, 0.309082031250, -2.671875000000, 0.796875000000, -6.984375000000, 1490762100
0.275146484375, -0.854736328125, 0.309082031250, -2.671875000000, 0.796875000000, -6.984375000000, 1490762100
0.244140625000, -0.952148437500, 0.283691406250, -6.546875000000, -0.304687500000, -3.210937500000, 1490762100
0.244140625000, -0.952148437500, 0.283691406250, -6.546875000000, -0.304687500000, -3.210937500000, 1490762100
0.244140625000, -0.952148437500, 0.283691406250, -6.546875000000, -0.304687500000, -3.210937500000, 1490762100
0.235595703125, -0.933593750000, 0.290283203125, -0.484375000000, -2.054687500000, -3.515625000000, 1490762100
0.235595703125, -0.933593750000, 0.290283203125, -0.484375000000, -2.054687500000, -3.515625000000, 1490762100
0.235595703125, -0.933593750000, 0.290283203125, -0.484375000000, -2.054687500000, -3.515625000000, 1490762100
0.172363281250, -0.912109375000, 0.392089843750, -3.781250000000, -0.148437500000, -3.429687500000, 1490762100
0.172363281250, -0.912109375000, 0.392089843750, -3.781250000000, -0.148437500000, -3.429687500000, 1490762100
0.172363281250, -0.912109375000, 0.392089843750, -3.781250000000, -0.148437500000, -3.429687500000, 1490762100
0.172363281250, -0.912109375000, 0.392089843750, -3.781250000000, -0.148437500000, -3.429687500000, 1490762100
0.265380859375, -0.942382812500, 0.404541015625, -6.023437500000, 0.781250000000, -8.726562500000, 1490762100
0.265380859375, -0.942382812500, 0.404541015625, -6.023437500000, 0.781250000000, -8.726562500000, 1490762100
0.265380859375, -0.942382812500, 0.404541015625, -6.023437500000, 0.781250000000, -8.726562500000, 1490762100
0.252685546875, -0.874755859375, 0.299560546875, -4.820312500000, -2.046875000000, -3.476562500000, 1490762100
0.252685546875, -0.874755859375, 0.299560546875, -4.820312500000, -2.046875000000, -3.476562500000, 1490762100
0.252685546875, -0.874755859375, 0.299560546875, -4.820312500000, -2.046875000000, -3.476562500000, 1490762100
0.321044921875, -0.949951171875, 0.284179687500, -6.242187500000, -2.945312500000, -4.562500000000, 1490762100
0.321044921875, -0.949951171875, 0.284179687500, -6.242187500000, -2.945312500000, -4.562500000000, 1490762100
0.321044921875, -0.949951171875, 0.284179687500, -6.242187500000, -2.945312500000, -4.562500000000, 1490762100
0.163818359375, -0.903320312500, 0.364501953125, -3.390625000000, 0.593750000000, -1.703125000000, 1490762101
0.163818359375, -0.903320312500, 0.364501953125, -3.390625000000, 0.593750000000, -1.703125000000, 1490762101
0.163818359375, -0.903320312500, 0.364501953125, -3.390625000000, 0.593750000000, -1.703125000000, 1490762101
0.163818359375, -0.903320312500, 0.364501953125, -3.390625000000, 0.593750000000, -1.703125000000, 1490762101
0.274658203125, -0.959960937500, 0.388427734375, -6.539062500000, 0.093750000000, -4.234375000000, 1490762101
0.274658203125, -0.959960937500, 0.388427734375, -6.539062500000, 0.093750000000, -4.234375000000, 1490762101
0.274658203125, -0.959960937500, 0.388427734375, -6.539062500000, 0.093750000000, -4.234375000000, 1490762101
0.216552734375, -0.957519531250, 0.349121093750, -4.507812500000, -2.960937500000, -3.578125000000, 1490762101
0.216552734375, -0.957519531250, 0.349121093750, -4.507812500000, -2.960937500000, -3.578125000000, 1490762101
0.216552734375, -0.957519531250, 0.349121093750, -4.507812500000, -2.960937500000, -3.578125000000, 1490762101
0.173583984375, -0.960693359375, 0.345214843750, -2.250000000000, 2.312500000000, -6.085937500000, 1490762101
0.173583984375, -0.960693359375, 0.345214843750, -2.250000000000, 2.312500000000, -6.085937500000, 1490762101
0.173583984375, -0.960693359375, 0.345214843750, -2.250000000000, 2.312500000000, -6.085937500000, 1490762101
0.212890625000, -0.939697265625, 0.289306640625, -8.398437500000, 2.429687500000, -4.882812500000, 1490762101
0.212890625000, -0.939697265625, 0.289306640625, -8.398437500000, 2.429687500000, -4.882812500000, 1490762101
0.212890625000, -0.939697265625, 0.289306640625, -8.398437500000, 2.429687500000, -4.882812500000, 1490762101
0.212890625000, -0.939697265625, 0.289306640625, -8.398437500000, 2.429687500000, -4.882812500000, 1490762101
0.253662109375, -1.009765625000, 0.307373046875, -1.804687500000, -2.734375000000, -5.718750000000, 1490762101
0.253662109375, -1.009765625000, 0.307373046875, -1.804687500000, -2.734375000000, -5.718750000000, 1490762101
0.253662109375, -1.009765625000, 0.307373046875, -1.804687500000, -2.734375000000, -5.718750000000, 1490762101
0.223388671875, -0.948730468750, 0.364013671875, -1.812500000000, -2.531250000000, -4.671875000000, 1490762101
0.223388671875, -0.948730468750, 0.364013671875, -1.812500000000, -2.531250000000, -4.671875000000, 1490762101
0.223388671875, -0.948730468750, 0.364013671875, -1.812500000000, -2.531250000000, -4.671875000000, 1490762101
0.215576171875, -0.961425781250, 0.380615234375, -4.492187500000, 1.546875000000, -2.328125000000, 1490762101
0.215576171875, -0.961425781250, 0.380615234375, -4.492187500000, 1.546875000000, -2.328125000000, 1490762101
0.215576171875, -0.961425781250, 0.380615234375, -4.492187500000, 1.546875000000, -2.328125000000, 1490762101
0.239990234375, -0.941162109375, 0.308837890625, 0.570312500000, -0.187500000000, -6.695312500000, 1490762101
0.239990234375, -0.941162109375, 0.308837890625, 0.570312500000, -0.187500000000, -6.695312500000, 1490762101
0.239990234375, -0.941162109375, 0.308837890625, 0.570312500000, -0.187500000000, -6.695312500000, 1490762101
0.239990234375, -0.941162109375, 0.308837890625, 0.570312500000, -0.187500000000, -6.695312500000, 1490762101
0.197509765625, -0.859375000000, 0.336914062500, 0.203125000000, -2.578125000000, -4.546875000000, 1490762101
0.197509765625, -0.859375000000, 0.336914062500, 0.203125000000, -2.578125000000, -4.546875000000, 1490762101
0.197509765625, -0.859375000000, 0.336914062500, 0.203125000000, -2.578125000000, -4.546875000000, 1490762101
0.244628906250, -0.862060546875, 0.306396484375, -2.960937500000, -0.445312500000, -4.742187500000, 1490762101
0.244628906250, -0.862060546875, 0.306396484375, -2.960937500000, -0.445312500000, -4.742187500000, 1490762101
0.244628906250, -0.862060546875, 0.306396484375, -2.960937500000, -0.445312500000, -4.742187500000, 1490762101
0.274658203125, -0.931396484375, 0.460205078125, -4.437500000000, 2.031250000000, -4.835937500000, 1490762101
0.274658203125, -0.931396484375, 0.460205078125, -4.437500000000, 2.031250000000, -4.835937500000, 1490762101
0.274658203125, -0.931396484375, 0.460205078125, -4.437500000000, 2.031250000000, -4.835937500000, 1490762101
0.256835937500, -0.841064453125, 0.302001953125, -4.531250000000, 1.195312500000, -3.070312500000, 1490762101
0.256835937500, -0.841064453125, 0.302001953125, -4.531250000000, 1.195312500000, -3.070312500000, 1490762101
0.256835937500, -0.841064453125, 0.302001953125, -4.531250000000, 1.195312500000, -3.070312500000, 1490762101
0.256835937500, -0.841064453125, 0.302001953125, -4.531250000000, 1.195312500000, -3.070312500000, 1490762101
0.175537109375, -0.907714843750, 0.346679687500, -6.656250000000, 0.148437500000, -1.789062500000, 1490762101
0.175537109375, -0.907714843750, 0.346679687500, -6.656250000000, 0.148437500000, -1.789062500000, 1490762101
0.175537109375, -0.907714843750, 0.346679687500, -6.656250000000, 0.148437500000, -1.789062500000, 1490762101
0.182128906250, -0.945068359375, 0.329101562500, -4.078125000000, 0.382812500000, -1.656250000000, 1490762101
0.182128906250, -0.945068359375, 0.329101562500, -4.078125000000, 0.382812500000, -1.656250000000, 1490762101
0.182128906250, -0.945068359375, 0.329101562500, -4.078125000000, 0.382812500000, -1.656250000000, 1490762101
0.232177734375, -0.937744140625, 0.309326171875, -1.500000000000, 0.421875000000, -3.859375000000, 1490762101
0.232177734375, -0.937744140625, 0.309326171875, -1.500000000000, 0.421875000000, -3.859375000000, 1490762101
0.232177734375, -0.937744140625, 0.309326171875, -1.500000000000, 0.421875000000, -3.859375000000, 1490762101
0.255371093750, -1.029541015625, 0.233398437500, -7.101562500000, 1.812500000000, -2.828125000000, 1490762101
0.255371093750, -1.029541015625, 0.233398437500, -7.101562500000, 1.812500000000, -2.828125000000, 1490762101
0.255371093750, -1.029541015625, 0.233398437500, -7.101562500000, 1.812500000000, -2.828125000000, 1490762101
0.255371093750, -1.029541015625, 0.233398437500, -7.101562500000, 1.812500000000, -2.828125000000, 1490762101
0.198974609375, -0.863525390625, 0.310302734375, 0.085937500000, -2.851562500000, -1.328125000000, 1490762101
0.198974609375, -0.863525390625, 0.310302734375, 0.085937500000, -2.851562500000, -1.328125000000, 1490762101
0.198974609375, -0.863525390625, 0.310302734375, 0.085937500000, -2.851562500000, -1.328125000000, 1490762101
0.272460937500, -0.944824218750, 0.394287109375, -4.304687500000, 0.242187500000, -4.109375000000, 1490762101
0.272460937500, -0.944824218750, 0.394287109375, -4.304687500000, 0.242187500000, -4.109375000000, 1490762101
0.272460937500, -0.944824218750, 0.394287109375, -4.304687500000, 0.242187500000, -4.109375000000, 1490762101
0.242431640625, -0.862548828125, 0.399658203125, -1.578125000000, 4.109375000000, -2.750000000000, 1490762101
0.242431640625, -0.862548828125, 0.399658203125, -1.578125000000, 4.109375000000, -2.750000000000, 1490762101
0.242431640625, -0.862548828125, 0.399658203125, -1.578125000000, 4.109375000000, -2.750000000000, 1490762101
0.208007812500, -0.847412109375, 0.351318359375, -2.695312500000, -0.929687500000, -3.273437500000, 1490762102
0.208007812500, -0.847412109375, 0.351318359375, -2.695312500000, -0.929687500000, -3.273437500000, 1490762102
0.208007812500, -0.847412109375, 0.351318359375, -2.695312500000, -0.929687500000, -3.273437500000, 1490762102
0.208007812500, -0.847412109375, 0.351318359375, -2.695312500000, -0.929687500000, -3.273437500000, 1490762102
0.222412109375, -1.026123046875, 0.447998046875, -3.164062500000, 2.109375000000, -4.710937500000, 1490762102
0.222412109375, -1.026123046875, 0.447998046875, -3.164062500000, 2.109375000000, -4.710937500000, 1490762102
0.222412109375, -1.026123046875, 0.447998046875, -3.164062500000, 2.109375000000, -4.710937500000, 1490762102
0.161621093750, -0.919433593750, 0.286132812500, -2.515625000000, 1.578125000000, -3.234375000000, 1490762102
0.161621093750, -0.919433593750, 0.286132812500, -2.515625000000, 1.578125000000, -3.234375000000, 1490762102
0.161621093750, -0.919433593750, 0.286132812500, -2.515625000000, 1.578125000000, -3.234375000000, 1490762102
0.280761718750, -0.961914062500, 0.383300781250, -4.093750000000, 2.703125000000, -4.804687500000, 1490762102
0.280761718750, -0.961914062500, 0.383300781250, -4.093750000000, 2.703125000000, -4.804687500000, 1490762102
0.280761718750, -0.961914062500, 0.383300781250, -4.093750000000, 2.703125000000, -4.804687500000, 1490762102
0.172119140625, -0.871093750000, 0.330810546875, 0.195312500000, -2.679687500000, 0.218750000000, 1490762102
0.172119140625, -0.871093750000, 0.330810546875, 0.195312500000, -2.679687500000, 0.218750000000, 1490762102
0.172119140625, -0.871093750000, 0.330810546875, 0.195312500000, -2.679687500000, 0.218750000000, 1490762102
0.172119140625, -0.871093750000, 0.330810546875, 0.195312500000, -2.679687500000, 0.218750000000, 1490762102
0.210205078125, -0.970703125000, 0.306152343750, -4.468750000000, 0.906250000000, -1.914062500000, 1490762102
0.210205078125, -0.970703125000, 0.306152343750, -4.468750000000, 0.906250000000, -1.914062500000, 1490762102
0.210205078125, -0.970703125000, 0.306152343750, -4.468750000000, 0.906250000000, -1.914062500000, 1490762102
0.251953125000, -0.856445312500, 0.400146484375, 2.406250000000, -2.640625000000, -4.250000000000, 1490762102
0.251953125000, -0.856445312500, 0.400146484375, 2.406250000000, -2.640625000000, -4.250000000000, 1490762102
0.251953125000, -0.856445312500, 0.400146484375, 2.406250000000, -2.640625000000, -4.250000000000, 1490762102
0.267578125000, -0.925048828125, 0.376220703125, -1.273437500000, -1.031250000000, -4.390625000000, 1490762102
0.268310546875, -0.906250000000, 0.356689453125, -3.187500000000, 2.500000000000, -4.960937500000, 1490762102
0.268310546875, -0.906250000000, 0.356689453125, -3.187500000000, 2.500000000000, -4.960937500000, 1490762102
0.268310546875, -0.906250000000, 0.356689453125, -3.187500000000, 2.500000000000, -4.960937500000, 1490762102
0.268310546875, -0.906250000000, 0.356689453125, -3.187500000000, 2.500000000000, -4.960937500000, 1490762102
0.268310546875, -0.906250000000, 0.356689453125, -3.187500000000, 2.500000000000, -4.960937500000, 1490762102
0.268310546875, -0.906250000000, 0.356689453125, -3.187500000000, 2.500000000000, -4.960937500000, 1490762102
0.160156250000, -0.885498046875, 0.379882812500, -10.070312500000, 4.773437500000, -1.296875000000, 1490762102
0.160156250000, -0.885498046875, 0.379882812500, -10.070312500000, 4.773437500000, -1.296875000000, 1490762102
0.160156250000, -0.885498046875, 0.379882812500, -10.070312500000, 4.773437500000, -1.296875000000, 1490762102
0.164550781250, -0.913818359375, 0.294677734375, -0.851562500000, -4.914062500000, -6.515625000000, 1490762102
0.164550781250, -0.913818359375, 0.294677734375, -0.851562500000, -4.914062500000, -6.515625000000, 1490762102
0.164550781250, -0.913818359375, 0.294677734375, -0.851562500000, -4.914062500000, -6.515625000000, 1490762102
0.233642578125, -0.957519531250, 0.294433593750, 0.281250000000, -3.046875000000, -1.273437500000, 1490762102
0.267089843750, -0.880126953125, 0.282714843750, -4.398437500000, -1.976562500000, -4.328125000000, 1490762102
0.208984375000, -0.924072265625, 0.380371093750, -4.398437500000, -1.976562500000, -4.328125000000, 1490762102
0.208984375000, -0.924072265625, 0.380371093750, -4.398437500000, -1.976562500000, -4.328125000000, 1490762102
0.208984375000, -0.924072265625, 0.380371093750, -4.398437500000, -1.976562500000, -4.328125000000, 1490762102
0.227294921875, -0.952880859375, 0.330322265625, -1.835937500000, -2.617187500000, -6.398437500000, 1490762102
0.227294921875, -0.952880859375, 0.330322265625, -1.835937500000, -2.617187500000, -6.398437500000, 1490762102
0.227294921875, -0.952880859375, 0.330322265625, -1.835937500000, -2.617187500000, -6.398437500000, 1490762102
0.227294921875, -0.952880859375, 0.330322265625, -1.835937500000, -2.617187500000, -6.398437500000, 1490762102
0.122314453125, -0.908203125000, 0.360595703125, -4.117187500000, -1.617187500000, -3.031250000000, 1490762102
0.196044921875, -0.939697265625, 0.383789062500, -8.085937500000, -0.734375000000, -0.843750000000, 1490762102
0.196044921875, -0.939697265625, 0.383789062500, -8.085937500000, -0.734375000000, -0.843750000000, 1490762102
0.196044921875, -0.939697265625, 0.383789062500, -8.085937500000, -0.734375000000, -0.843750000000, 1490762102
0.140380859375, -1.020996093750, 0.334472656250, -3.156250000000, 0.609375000000, -1.156250000000, 1490762102
0.264404296875, -1.025146484375, 0.305175781250, -3.453125000000, -1.281250000000, -3.101562500000, 1490762102
0.184326171875, -0.951171875000, 0.350585937500, -3.421875000000, -1.046875000000, 0.468750000000, 1490762102
0.184326171875, -0.951171875000, 0.350585937500, -3.421875000000, -1.046875000000, 0.468750000000, 1490762102
0.165039062500, -0.926269531250, 0.404785156250, -4.281250000000, -2.367187500000, -6.343750000000, 1490762102
0.165039062500, -0.926269531250, 0.404785156250, -4.281250000000, -2.367187500000, -6.343750000000, 1490762102
0.165039062500, -0.926269531250, 0.404785156250, -4.281250000000, -2.367187500000, -6.343750000000, 1490762102
0.165039062500, -0.926269531250, 0.404785156250, -4.281250000000, -2.367187500000, -6.343750000000, 1490762102
0.165039062500, -0.926269531250, 0.404785156250, -4.281250000000, -2.367187500000, -6.343750000000, 1490762102
0.267333984375, -0.960937500000, 0.352783203125, 0.671875000000, -0.320312500000, -1.046875000000, 1490762102
0.267333984375, -0.960937500000, 0.352783203125, 0.671875000000, -0.320312500000, -1.046875000000, 1490762102
0.267333984375, -0.960937500000, 0.352783203125, 0.671875000000, -0.320312500000, -1.046875000000, 1490762102
0.267333984375, -0.960937500000, 0.352783203125, 0.671875000000, -0.320312500000, -1.046875000000, 1490762102
0.158935546875, -0.929443359375, 0.340332031250, -6.804687500000, 0.828125000000, -1.812500000000, 1490762102
0.158935546875, -0.929443359375, 0.340332031250, -6.804687500000, 0.828125000000, -1.812500000000, 1490762102
0.158935546875, -0.929443359375, 0.340332031250, -6.804687500000, 0.828125000000, -1.812500000000, 1490762102
