ACC_X,ACC_Y,ACC_Z,G_X,G_Y,G_Z,Unix Time
0.049316406250, -0.152587890625, 0.125976562500, -4.960937500000, -27.804687500000, 4.648437500000, 1490760950
0.049316406250, -0.152587890625, 0.125976562500, -4.960937500000, -27.804687500000, 4.648437500000, 1490760950
0.100585937500, -0.245605468750, 0.090087890625, -29.859375000000, -14.273437500000, 36.859375000000, 1490760950
0.672851562500, -1.749267578125, 0.599365234375, 243.812500000000, 253.992187500000, 76.781250000000, 1490760950
0.856445312500, -2.358154296875, 0.109619140625, 253.992187500000, 253.992187500000, 116.460937500000, 1490760950
0.598876953125, -1.318847656250, 3.140136718750, 253.992187500000, -226.570312500000, 40.945312500000, 1490760950
0.598876953125, -1.318847656250, 3.140136718750, 253.992187500000, -226.570312500000, 40.945312500000, 1490760950
0.598876953125, -1.318847656250, 3.140136718750, 253.992187500000, -226.570312500000, 40.945312500000, 1490760950
0.598876953125, -1.318847656250, 3.140136718750, 253.992187500000, -226.570312500000, 40.945312500000, 1490760950
0.598876953125, -1.318847656250, 3.140136718750, 253.992187500000, -226.570312500000, 40.945312500000, 1490760950
0.109130859375, -0.554199218750, 0.061279296875, -79.632812500000, -84.460937500000, 28.289062500000, 1490760950
0.109130859375, -0.554199218750, 0.061279296875, -79.632812500000, -84.460937500000, 28.289062500000, 1490760950
0.026367187500, -0.031982421875, 0.077880859375, -52.835937500000, -63.445312500000, 7.078125000000, 1490760950
0.026367187500, -0.031982421875, 0.077880859375, -52.835937500000, -63.445312500000, 7.078125000000, 1490760950
0.026367187500, -0.031982421875, 0.077880859375, -52.835937500000, -63.445312500000, 7.078125000000, 1490760950
0.026367187500, -0.031982421875, 0.077880859375, -52.835937500000, -63.445312500000, 7.078125000000, 1490760950
0.026367187500, -0.031982421875, 0.077880859375, -52.835937500000, -63.445312500000, 7.078125000000, 1490760950
0.026367187500, -0.031982421875, 0.077880859375, -52.835937500000, -63.445312500000, 7.078125000000, 1490760950
0.026367187500, -0.031982421875, 0.077880859375, -52.835937500000, -63.445312500000, 7.078125000000, 1490760950
0.026367187500, -0.031982421875, 0.077880859375, -52.835937500000, -63.445312500000, 7.078125000000, 1490760950
-0.044189453125, -1.870849609375, 0.376953125000, -134.398437500000, -119.820312500000, 28.281250000000, 1490760950
-0.044189453125, -1.870849609375, 0.376953125000, -134.398437500000, -119.820312500000, 28.281250000000, 1490760950
-0.044189453125, -1.870849609375, 0.376953125000, -134.398437500000, -119.820312500000, 28.281250000000, 1490760950
-0.044189453125, -1.870849609375, 0.376953125000, -134.398437500000, -119.820312500000, 28.281250000000, 1490760950
-0.044189453125, -1.870849609375, 0.376953125000, -134.398437500000, -119.820312500000, 28.281250000000, 1490760950
-0.044189453125, -1.870849609375, 0.376953125000, -134.398437500000, -119.820312500000, 28.281250000000, 1490760950
-0.526611328125, -1.792236328125, 0.365234375000, -256.000000000000, -129.375000000000, -120.023437500000, 1490760950
0.705810546875, -1.280029296875, 1.853759765625, 48.546875000000, -256.000000000000, -93.554687500000, 1490760950
0.705810546875, -1.280029296875, 1.853759765625, 48.546875000000, -256.000000000000, -93.554687500000, 1490760950
0.705810546875, -1.280029296875, 1.853759765625, 48.546875000000, -256.000000000000, -93.554687500000, 1490760950
0.705810546875, -1.280029296875, 1.853759765625, 48.546875000000, -256.000000000000, -93.554687500000, 1490760950
0.392089843750, -0.846679687500, 0.697998046875, -155.656250000000, 31.617187500000, 16.664062500000, 1490760950
0.392089843750, -0.846679687500, 0.697998046875, -155.656250000000, 31.617187500000, 16.664062500000, 1490760950
0.392089843750, -0.846679687500, 0.697998046875, -155.656250000000, 31.617187500000, 16.664062500000, 1490760950
0.392089843750, -0.846679687500, 0.697998046875, -155.656250000000, 31.617187500000, 16.664062500000, 1490760950
0.392089843750, -0.846679687500, 0.697998046875, -155.656250000000, 31.617187500000, 16.664062500000, 1490760950
0.882324218750, -0.142578125000, 0.251220703125, 253.992187500000, 57.796875000000, -3.945312500000, 1490760950
0.882324218750, -0.142578125000, 0.251220703125, 253.992187500000, 57.796875000000, -3.945312500000, 1490760950
0.882324218750, -0.142578125000, 0.251220703125, 253.992187500000, 57.796875000000, -3.945312500000, 1490760950
0.839355468750, 0.137207031250, -0.230957031250, 203.132812500000, -93.929687500000, -42.898437500000, 1490760950
0.839355468750, 0.137207031250, -0.230957031250, 203.132812500000, -93.929687500000, -42.898437500000, 1490760950
0.839355468750, 0.137207031250, -0.230957031250, 203.132812500000, -93.929687500000, -42.898437500000, 1490760950
0.225341796875, 0.268554687500, 0.089355468750, -85.210937500000, 253.945312500000, -19.312500000000, 1490760950
0.225341796875, 0.268554687500, 0.089355468750, -85.210937500000, 253.945312500000, -19.312500000000, 1490760950
0.225341796875, 0.268554687500, 0.089355468750, -85.210937500000, 253.945312500000, -19.312500000000, 1490760950
0.225341796875, 0.268554687500, 0.089355468750, -85.210937500000, 253.945312500000, -19.312500000000, 1490760950
0.100585937500, -3.083007812500, 0.314208984375, -256.000000000000, 253.992187500000, 112.531250000000, 1490760950
0.100585937500, -3.083007812500, 0.314208984375, -256.000000000000, 253.992187500000, 112.531250000000, 1490760950
0.100585937500, -3.083007812500, 0.314208984375, -256.000000000000, 253.992187500000, 112.531250000000, 1490760950
0.855468750000, -1.666992187500, 0.566406250000, 104.695312500000, -256.000000000000, -95.617187500000, 1490760951
0.855468750000, -1.666992187500, 0.566406250000, 104.695312500000, -256.000000000000, -95.617187500000, 1490760951
0.855468750000, -1.666992187500, 0.566406250000, 104.695312500000, -256.000000000000, -95.617187500000, 1490760951
0.999511718750, -1.156982421875, 1.082031250000, -10.640625000000, 253.992187500000, -19.726562500000, 1490760951
0.999511718750, -1.156982421875, 1.082031250000, -10.640625000000, 253.992187500000, -19.726562500000, 1490760951
0.999511718750, -1.156982421875, 1.082031250000, -10.640625000000, 253.992187500000, -19.726562500000, 1490760951
0.450683593750, -0.839111328125, 0.298339843750, 42.632812500000, 148.687500000000, 27.414062500000, 1490760951
0.450683593750, -0.839111328125, 0.298339843750, 42.632812500000, 148.687500000000, 27.414062500000, 1490760951
0.450683593750, -0.839111328125, 0.298339843750, 42.632812500000, 148.687500000000, 27.414062500000, 1490760951
0.450683593750, -0.839111328125, 0.298339843750, 42.632812500000, 148.687500000000, 27.414062500000, 1490760951
0.028320312500, -0.125976562500, 0.036376953125, -49.429687500000, -13.070312500000, 13.218750000000, 1490760951
0.028320312500, -0.125976562500, 0.036376953125, -49.429687500000, -13.070312500000, 13.218750000000, 1490760951
0.028320312500, -0.125976562500, 0.036376953125, -49.429687500000, -13.070312500000, 13.218750000000, 1490760951
0.028320312500, -0.125976562500, 0.036376953125, -49.429687500000, -13.070312500000, 13.218750000000, 1490760951
0.016357421875, 0.129882812500, 0.045654296875, -8.007812500000, -110.984375000000, -28.421875000000, 1490760951
0.016357421875, 0.129882812500, 0.045654296875, -8.007812500000, -110.984375000000, -28.421875000000, 1490760951
0.016357421875, 0.129882812500, 0.045654296875, -8.007812500000, -110.984375000000, -28.421875000000, 1490760951
0.016357421875, 0.129882812500, 0.045654296875, -8.007812500000, -110.984375000000, -28.421875000000, 1490760951
0.016357421875, 0.129882812500, 0.045654296875, -8.007812500000, -110.984375000000, -28.421875000000, 1490760951
-0.338378906250, -2.153808593750, 0.034667968750, -256.000000000000, -162.492187500000, -1.695312500000, 1490760951
-0.338378906250, -2.153808593750, 0.034667968750, -256.000000000000, -162.492187500000, -1.695312500000, 1490760951
-0.338378906250, -2.153808593750, 0.034667968750, -256.000000000000, -162.492187500000, -1.695312500000, 1490760951
-0.338378906250, -2.153808593750, 0.034667968750, -256.000000000000, -162.492187500000, -1.695312500000, 1490760951
1.040771484375, -1.958251953125, 1.586914062500, 253.992187500000, 133.359375000000, -81.125000000000, 1490760951
1.040771484375, -1.958251953125, 1.586914062500, 253.992187500000, 133.359375000000, -81.125000000000, 1490760951
1.040771484375, -1.958251953125, 1.586914062500, 253.992187500000, 133.359375000000, -81.125000000000, 1490760951
0.776123046875, -1.395507812500, 1.612548828125, -111.093750000000, -246.414062500000, -4.789062500000, 1490760951
0.776123046875, -1.395507812500, 1.612548828125, -111.093750000000, -246.414062500000, -4.789062500000, 1490760951
0.776123046875, -1.395507812500, 1.612548828125, -111.093750000000, -246.414062500000, -4.789062500000, 1490760951
0.329589843750, -1.187500000000, 0.682861328125, -119.671875000000, 39.203125000000, 28.359375000000, 1490760951
0.329589843750, -1.187500000000, 0.682861328125, -119.671875000000, 39.203125000000, 28.359375000000, 1490760951
0.065673828125, -0.356933593750, 0.020507812500, -139.765625000000, -109.054687500000, -50.796875000000, 1490760951
0.065673828125, -0.356933593750, 0.020507812500, -139.765625000000, -109.054687500000, -50.796875000000, 1490760951
0.065673828125, -0.356933593750, 0.020507812500, -139.765625000000, -109.054687500000, -50.796875000000, 1490760951
0.065673828125, -0.356933593750, 0.020507812500, -139.765625000000, -109.054687500000, -50.796875000000, 1490760951
0.065673828125, -0.356933593750, 0.020507812500, -139.765625000000, -109.054687500000, -50.796875000000, 1490760951
0.006591796875, 0.031005859375, 0.040039062500, -73.085937500000, -49.929687500000, -46.367187500000, 1490760951
0.006591796875, 0.031005859375, 0.040039062500, -73.085937500000, -49.929687500000, -46.367187500000, 1490760951
0.006591796875, 0.031005859375, 0.040039062500, -73.085937500000, -49.929687500000, -46.367187500000, 1490760951
-0.086669921875, -0.083984375000, 0.035888671875, -30.960937500000, 42.796875000000, -16.765625000000, 1490760951
-0.086669921875, -0.083984375000, 0.035888671875, -30.960937500000, 42.796875000000, -16.765625000000, 1490760951
-0.086669921875, -0.083984375000, 0.035888671875, -30.960937500000, 42.796875000000, -16.765625000000, 1490760951
0.024169921875, -0.620117187500, -0.105957031250, -51.726562500000, 253.992187500000, -28.453125000000, 1490760951
0.024169921875, -0.620117187500, -0.105957031250, -51.726562500000, 253.992187500000, -28.453125000000, 1490760951
0.024169921875, -0.620117187500, -0.105957031250, -51.726562500000, 253.992187500000, -28.453125000000, 1490760951
0.735107421875, -1.625976562500, -0.028320312500, 253.992187500000, -256.000000000000, -28.562500000000, 1490760951
0.735107421875, -1.625976562500, -0.028320312500, 253.992187500000, -256.000000000000, -28.562500000000, 1490760951
0.735107421875, -1.625976562500, -0.028320312500, 253.992187500000, -256.000000000000, -28.562500000000, 1490760951
0.735107421875, -1.625976562500, -0.028320312500, 253.992187500000, -256.000000000000, -28.562500000000, 1490760951
0.784667968750, -3.929687500000, 1.342285156250, 232.289062500000, -256.000000000000, -197.046875000000, 1490760951
0.784667968750, -3.929687500000, 1.342285156250, 232.289062500000, -256.000000000000, -197.046875000000, 1490760951
0.784667968750, -3.929687500000, 1.342285156250, 232.289062500000, -256.000000000000, -197.046875000000, 1490760951
0.147460937500, -0.946777343750, 0.480224609375, -256.000000000000, 201.460937500000, 20.023437500000, 1490760951
0.147460937500, -0.946777343750, 0.480224609375, -256.000000000000, 201.460937500000, 20.023437500000, 1490760951
0.147460937500, -0.946777343750, 0.480224609375, -256.000000000000, 201.460937500000, 20.023437500000, 1490760951
0.148437500000, 0.071044921875, 0.144775390625, -102.093750000000, 155.960937500000, -47.945312500000, 1490760951
0.148437500000, 0.071044921875, 0.144775390625, -102.093750000000, 155.960937500000, -47.945312500000, 1490760951
0.148437500000, 0.071044921875, 0.144775390625, -102.093750000000, 155.960937500000, -47.945312500000, 1490760951
0.148437500000, 0.071044921875, 0.144775390625, -102.093750000000, 155.960937500000, -47.945312500000, 1490760951
0.064697265625, 0.154785156250, -0.066162109375, -44.890625000000, -27.906250000000, 58.625000000000, 1490760951
0.064697265625, 0.154785156250, -0.066162109375, -44.890625000000, -27.906250000000, 58.625000000000, 1490760951
0.064697265625, 0.154785156250, -0.066162109375, -44.890625000000, -27.906250000000, 58.625000000000, 1490760951
-0.029296875000, 0.023681640625, -0.027099609375, -117.906250000000, -202.562500000000, 13.539062500000, 1490760951
-0.029296875000, 0.023681640625, -0.027099609375, -117.906250000000, -202.562500000000, 13.539062500000, 1490760951
-0.029296875000, 0.023681640625, -0.027099609375, -117.906250000000, -202.562500000000, 13.539062500000, 1490760951
-0.075439453125, -0.683837890625, 0.099609375000, -238.351562500000, -256.000000000000, 15.421875000000, 1490760951
-0.075439453125, -0.683837890625, 0.099609375000, -238.351562500000, -256.000000000000, 15.421875000000, 1490760952
-0.075439453125, -0.683837890625, 0.099609375000, -238.351562500000, -256.000000000000, 15.421875000000, 1490760952
-0.532470703125, -2.635498046875, 0.936523437500, -129.023437500000, -256.000000000000, -206.492187500000, 1490760952
-0.532470703125, -2.635498046875, 0.936523437500, -129.023437500000, -256.000000000000, -206.492187500000, 1490760952
-0.532470703125, -2.635498046875, 0.936523437500, -129.023437500000, -256.000000000000, -206.492187500000, 1490760952
0.401855468750, -2.907714843750, 1.254638671875, 253.992187500000, 74.664062500000, 59.257812500000, 1490760952
0.401855468750, -2.907714843750, 1.254638671875, 253.992187500000, 74.664062500000, 59.257812500000, 1490760952
0.401855468750, -2.907714843750, 1.254638671875, 253.992187500000, 74.664062500000, 59.257812500000, 1490760952
0.013183593750, -0.769531250000, 0.851318359375, -243.015625000000, -222.851562500000, -19.757812500000, 1490760952
0.013183593750, -0.769531250000, 0.851318359375, -243.015625000000, -222.851562500000, -19.757812500000, 1490760952
0.013183593750, -0.769531250000, 0.851318359375, -243.015625000000, -222.851562500000, -19.757812500000, 1490760952
0.013183593750, -0.769531250000, 0.851318359375, -243.015625000000, -222.851562500000, -19.757812500000, 1490760952
0.001708984375, -0.336425781250, 0.256591796875, -256.000000000000, -256.000000000000, -87.367187500000, 1490760952
-1.345947265625, -0.564453125000, -1.710693359375, 178.125000000000, 253.992187500000, -147.492187500000, 1490760952
-1.345947265625, -0.564453125000, -1.710693359375, 178.125000000000, 253.992187500000, -147.492187500000, 1490760952
-1.345947265625, -0.564453125000, -1.710693359375, 178.125000000000, 253.992187500000, -147.492187500000, 1490760952
-1.345947265625, -0.564453125000, -1.710693359375, 178.125000000000, 253.992187500000, -147.492187500000, 1490760952
-1.345947265625, -0.564453125000, -1.710693359375, 178.125000000000, 253.992187500000, -147.492187500000, 1490760952
0.476318359375, -0.581298828125, -0.719238281250, 42.578125000000, 253.992187500000, -113.750000000000, 1490760952
0.476318359375, -0.581298828125, -0.719238281250, 42.578125000000, 253.992187500000, -113.750000000000, 1490760952
0.476318359375, -0.581298828125, -0.719238281250, 42.578125000000, 253.992187500000, -113.750000000000, 1490760952
0.476318359375, -0.581298828125, -0.719238281250, 42.578125000000, 253.992187500000, -113.750000000000, 1490760952
0.531250000000, -1.534179687500, -0.075927734375, -4.343750000000, -82.296875000000, 91.281250000000, 1490760952
0.531250000000, -1.534179687500, -0.075927734375, -4.343750000000, -82.296875000000, 91.281250000000, 1490760952
0.531250000000, -1.534179687500, -0.075927734375, -4.343750000000, -82.296875000000, 91.281250000000, 1490760952
1.385742187500, -2.714355468750, 0.196044921875, 195.265625000000, -256.000000000000, 122.742187500000, 1490760952
1.385742187500, -2.714355468750, 0.196044921875, 195.265625000000, -256.000000000000, 122.742187500000, 1490760952
1.385742187500, -2.714355468750, 0.196044921875, 195.265625000000, -256.000000000000, 122.742187500000, 1490760952
4.213134765625, -0.786132812500, 8.000000000000, 253.992187500000, 253.992187500000, -256.000000000000, 1490760952
4.213134765625, -0.786132812500, 8.000000000000, 253.992187500000, 253.992187500000, -256.000000000000, 1490760952
4.213134765625, -0.786132812500, 8.000000000000, 253.992187500000, 253.992187500000, -256.000000000000, 1490760952
0.275390625000, -0.444335937500, 0.073974609375, -256.000000000000, 15.718750000000, -64.445312500000, 1490760952
0.275390625000, -0.444335937500, 0.073974609375, -256.000000000000, 15.718750000000, -64.445312500000, 1490760952
0.275390625000, -0.444335937500, 0.073974609375, -256.000000000000, 15.718750000000, -64.445312500000, 1490760952
0.275390625000, -0.444335937500, 0.073974609375, -256.000000000000, 15.718750000000, -64.445312500000, 1490760952
-0.141601562500, 0.055419921875, 0.206054687500, -256.000000000000, 58.171875000000, -128.210937500000, 1490760952
-0.141601562500, 0.055419921875, 0.206054687500, -256.000000000000, 58.171875000000, -128.210937500000, 1490760952
-0.046630859375, -0.100585937500, 0.031005859375, -19.984375000000, -136.460937500000, 167.484375000000, 1490760952
-0.046630859375, -0.100585937500, 0.031005859375, -19.984375000000, -136.460937500000, 167.484375000000, 1490760952
-0.046630859375, -0.100585937500, 0.031005859375, -19.984375000000, -136.460937500000, 167.484375000000, 1490760952
-0.046630859375, -0.100585937500, 0.031005859375, -19.984375000000, -136.460937500000, 167.484375000000, 1490760952
-0.198242187500, -1.916259765625, -0.017333984375, -184.585937500000, -233.570312500000, -50.500000000000, 1490760952
-0.198242187500, -1.916259765625, -0.017333984375, -184.585937500000, -233.570312500000, -50.500000000000, 1490760952
-0.198242187500, -1.916259765625, -0.017333984375, -184.585937500000, -233.570312500000, -50.500000000000, 1490760952
-0.718505859375, -1.913085937500, 0.382812500000, 253.992187500000, 125.671875000000, 45.601562500000, 1490760952
-0.718505859375, -1.913085937500, 0.382812500000, 253.992187500000, 125.671875000000, 45.601562500000, 1490760952
-0.718505859375, -1.913085937500, 0.382812500000, 253.992187500000, 125.671875000000, 45.601562500000, 1490760952
-0.718505859375, -1.913085937500, 0.382812500000, 253.992187500000, 125.671875000000, 45.601562500000, 1490760952
0.042236328125, -1.794677734375, 3.258056640625, 83.484375000000, 141.304687500000, -108.117187500000, 1490760952
0.042236328125, -1.794677734375, 3.258056640625, 83.484375000000, 141.304687500000, -108.117187500000, 1490760952
0.042236328125, -1.794677734375, 3.258056640625, 83.484375000000, 141.304687500000, -108.117187500000, 1490760952
0.072998046875, -0.307128906250, 0.245361328125, -239.921875000000, -256.000000000000, -34.726562500000, 1490760952
0.072998046875, -0.307128906250, 0.245361328125, -239.921875000000, -256.000000000000, -34.726562500000, 1490760952
0.072998046875, -0.307128906250, 0.245361328125, -239.921875000000, -256.000000000000, -34.726562500000, 1490760952
0.038818359375, -0.025390625000, 0.064453125000, -214.023437500000, -256.000000000000, -17.179687500000, 1490760952
0.038818359375, -0.025390625000, 0.064453125000, -214.023437500000, -256.000000000000, -17.179687500000, 1490760952
0.038818359375, -0.025390625000, 0.064453125000, -214.023437500000, -256.000000000000, -17.179687500000, 1490760952
-0.414062500000, -0.444580078125, -0.873046875000, 177.398437500000, 253.992187500000, -152.500000000000, 1490760952
-0.414062500000, -0.444580078125, -0.873046875000, 177.398437500000, 253.992187500000, -152.500000000000, 1490760952
-0.414062500000, -0.444580078125, -0.873046875000, 177.398437500000, 253.992187500000, -152.500000000000, 1490760952
-0.414062500000, -0.444580078125, -0.873046875000, 177.398437500000, 253.992187500000, -152.500000000000, 1490760952
0.930175781250, -2.588867187500, -0.043457031250, -241.875000000000, 253.992187500000, -172.640625000000, 1490760952
0.930175781250, -2.588867187500, -0.043457031250, -241.875000000000, 253.992187500000, -172.640625000000, 1490760952
0.930175781250, -2.588867187500, -0.043457031250, -241.875000000000, 253.992187500000, -172.640625000000, 1490760952
0.409912109375, -1.476562500000, 0.097900390625, 253.992187500000, -256.000000000000, 243.914062500000, 1490760952
0.409912109375, -1.476562500000, 0.097900390625, 253.992187500000, -256.000000000000, 243.914062500000, 1490760952
0.409912109375, -1.476562500000, 0.097900390625, 253.992187500000, -256.000000000000, 243.914062500000, 1490760952
1.381347656250, -2.800781250000, 1.041503906250, 253.992187500000, -256.000000000000, 116.539062500000, 1490760953
1.381347656250, -2.800781250000, 1.041503906250, 253.992187500000, -256.000000000000, 116.539062500000, 1490760953
1.381347656250, -2.800781250000, 1.041503906250, 253.992187500000, -256.000000000000, 116.539062500000, 1490760953
0.191650390625, -0.213867187500, -0.018310546875, -256.000000000000, 253.992187500000, -145.164062500000, 1490760953
0.191650390625, -0.213867187500, -0.018310546875, -256.000000000000, 253.992187500000, -145.164062500000, 1490760953
0.191650390625, -0.213867187500, -0.018310546875, -256.000000000000, 253.992187500000, -145.164062500000, 1490760953
0.191650390625, -0.213867187500, -0.018310546875, -256.000000000000, 253.992187500000, -145.164062500000, 1490760953
-0.035644531250, 0.058105468750, -0.015869140625, -133.398437500000, 253.992187500000, -73.492187500000, 1490760953
-0.035644531250, 0.058105468750, -0.015869140625, -133.398437500000, 253.992187500000, -73.492187500000, 1490760953
-0.035644531250, 0.058105468750, -0.015869140625, -133.398437500000, 253.992187500000, -73.492187500000, 1490760953
0.017333984375, -0.144287109375, -0.128417968750, -57.093750000000, 248.687500000000, -20.343750000000, 1490760953
0.017333984375, -0.144287109375, -0.128417968750, -57.093750000000, 248.687500000000, -20.343750000000, 1490760953
0.017333984375, -0.144287109375, -0.128417968750, -57.093750000000, 248.687500000000, -20.343750000000, 1490760953
0.998046875000, -2.493164062500, -0.351562500000, -256.000000000000, -256.000000000000, 105.203125000000, 1490760953
0.998046875000, -2.493164062500, -0.351562500000, -256.000000000000, -256.000000000000, 105.203125000000, 1490760953
0.998046875000, -2.493164062500, -0.351562500000, -256.000000000000, -256.000000000000, 105.203125000000, 1490760953
0.914794921875, -0.797119140625, 2.130126953125, 253.992187500000, -256.000000000000, -166.210937500000, 1490760953
0.914794921875, -0.797119140625, 2.130126953125, 253.992187500000, -256.000000000000, -166.210937500000, 1490760953
0.914794921875, -0.797119140625, 2.130126953125, 253.992187500000, -256.000000000000, -166.210937500000, 1490760953
0.914794921875, -0.797119140625, 2.130126953125, 253.992187500000, -256.000000000000, -166.210937500000, 1490760953
0.187500000000, -0.335205078125, 0.344726562500, -173.875000000000, 80.835937500000, 12.414062500000, 1490760953
0.187500000000, -0.335205078125, 0.344726562500, -173.875000000000, 80.835937500000, 12.414062500000, 1490760953
0.187500000000, -0.335205078125, 0.344726562500, -173.875000000000, 80.835937500000, 12.414062500000, 1490760953
-0.008056640625, 0.072021484375, 0.127685546875, -117.234375000000, 133.335937500000, 29.476562500000, 1490760953
-0.008056640625, 0.072021484375, 0.127685546875, -117.234375000000, 133.335937500000, 29.476562500000, 1490760953
-0.008056640625, 0.072021484375, 0.127685546875, -117.234375000000, 133.335937500000, 29.476562500000, 1490760953
0.092285156250, -0.119628906250, 0.015625000000, 34.296875000000, 150.804687500000, 4.601562500000, 1490760953
0.092285156250, -0.119628906250, 0.015625000000, 34.296875000000, 150.804687500000, 4.601562500000, 1490760953
0.092285156250, -0.119628906250, 0.015625000000, 34.296875000000, 150.804687500000, 4.601562500000, 1490760953
0.092285156250, -0.119628906250, 0.015625000000, 34.296875000000, 150.804687500000, 4.601562500000, 1490760953
0.358154296875, -1.553222656250, 0.005371093750, -256.000000000000, 253.992187500000, 71.812500000000, 1490760953
0.358154296875, -1.553222656250, 0.005371093750, -256.000000000000, 253.992187500000, 71.812500000000, 1490760953
0.358154296875, -1.553222656250, 0.005371093750, -256.000000000000, 253.992187500000, 71.812500000000, 1490760953
0.538085937500, -2.387451171875, 0.237792968750, -58.164062500000, 86.765625000000, 36.734375000000, 1490760953
0.538085937500, -2.387451171875, 0.237792968750, -58.164062500000, 86.765625000000, 36.734375000000, 1490760953
0.538085937500, -2.387451171875, 0.237792968750, -58.164062500000, 86.765625000000, 36.734375000000, 1490760953
0.829101562500, -2.395751953125, 0.120361328125, 253.992187500000, -256.000000000000, -123.953125000000, 1490760953
0.829101562500, -2.395751953125, 0.120361328125, 253.992187500000, -256.000000000000, -123.953125000000, 1490760953
0.829101562500, -2.395751953125, 0.120361328125, 253.992187500000, -256.000000000000, -123.953125000000, 1490760953
3.853027343750, 0.091552734375, 5.586181640625, 253.992187500000, -256.000000000000, -256.000000000000, 1490760953
3.853027343750, 0.091552734375, 5.586181640625, 253.992187500000, -256.000000000000, -256.000000000000, 1490760953
3.853027343750, 0.091552734375, 5.586181640625, 253.992187500000, -256.000000000000, -256.000000000000, 1490760953
-0.134033203125, 0.063964843750, 0.174072265625, -256.000000000000, 217.414062500000, 1.109375000000, 1490760953
-0.134033203125, 0.063964843750, 0.174072265625, -256.000000000000, 217.414062500000, 1.109375000000, 1490760953
-0.134033203125, 0.063964843750, 0.174072265625, -256.000000000000, 217.414062500000, 1.109375000000, 1490760953
-0.134033203125, 0.063964843750, 0.174072265625, -256.000000000000, 217.414062500000, 1.109375000000, 1490760953
0.073242187500, -0.026367187500, -0.024658203125, -160.945312500000, 60.429687500000, -19.984375000000, 1490760953
0.073242187500, -0.026367187500, -0.024658203125, -160.945312500000, 60.429687500000, -19.984375000000, 1490760953
0.073242187500, -0.026367187500, -0.024658203125, -160.945312500000, 60.429687500000, -19.984375000000, 1490760953
