ACC_X,ACC_Y,ACC_Z,G_X,G_Y,G_Z,Unix Time
0.198486328125, -1.005615234375, -0.069091796875, 22.125000000000, 12.406250000000, -18.445312500000, 1490761514
0.198486328125, -1.005615234375, -0.069091796875, 22.125000000000, 12.406250000000, -18.445312500000, 1490761514
0.198486328125, -1.005615234375, -0.069091796875, 22.125000000000, 12.406250000000, -18.445312500000, 1490761514
0.146972656250, -1.021972656250, 0.027832031250, 5.703125000000, 20.859375000000, -16.289062500000, 1490761514
0.146972656250, -1.021972656250, 0.027832031250, 5.703125000000, 20.859375000000, -16.289062500000, 1490761514
0.146972656250, -1.021972656250, 0.027832031250, 5.703125000000, 20.859375000000, -16.289062500000, 1490761514
0.059570312500, -0.965087890625, -0.066406250000, -2.664062500000, 15.437500000000, -18.937500000000, 1490761514
0.059570312500, -0.965087890625, -0.066406250000, -2.664062500000, 15.437500000000, -18.937500000000, 1490761514
0.059570312500, -0.965087890625, -0.066406250000, -2.664062500000, 15.437500000000, -18.937500000000, 1490761514
0.059570312500, -0.965087890625, -0.066406250000, -2.664062500000, 15.437500000000, -18.937500000000, 1490761514
0.059570312500, -0.965087890625, -0.066406250000, -2.664062500000, 15.437500000000, -18.937500000000, 1490761514
0.059570312500, -0.965087890625, -0.066406250000, -2.664062500000, 15.437500000000, -18.937500000000, 1490761514
0.059570312500, -0.965087890625, -0.066406250000, -2.664062500000, 15.437500000000, -18.937500000000, 1490761514
0.118896484375, -0.924072265625, -0.088867187500, -3.335937500000, 8.460937500000, -14.671875000000, 1490761514
0.118896484375, -0.924072265625, -0.088867187500, -3.335937500000, 8.460937500000, -14.671875000000, 1490761514
0.118896484375, -0.924072265625, -0.088867187500, -3.335937500000, 8.460937500000, -14.671875000000, 1490761514
0.164794921875, -0.950927734375, -0.037841796875, -1.898437500000, -0.867187500000, -10.953125000000, 1490761514
0.164794921875, -0.950927734375, -0.037841796875, -1.898437500000, -0.867187500000, -10.953125000000, 1490761514
0.164794921875, -0.950927734375, -0.037841796875, -1.898437500000, -0.867187500000, -10.953125000000, 1490761514
0.275878906250, -1.031250000000, 0.014404296875, -15.695312500000, 0.578125000000, 2.101562500000, 1490761514
0.275878906250, -1.031250000000, 0.014404296875, -15.695312500000, 0.578125000000, 2.101562500000, 1490761514
0.275878906250, -1.031250000000, 0.014404296875, -15.695312500000, 0.578125000000, 2.101562500000, 1490761514
0.263183593750, -0.951171875000, 0.009765625000, -9.046875000000, -17.070312500000, 2.484375000000, 1490761514
0.263183593750, -0.951171875000, 0.009765625000, -9.046875000000, -17.070312500000, 2.484375000000, 1490761514
0.263183593750, -0.951171875000, 0.009765625000, -9.046875000000, -17.070312500000, 2.484375000000, 1490761514
0.263183593750, -0.951171875000, 0.009765625000, -9.046875000000, -17.070312500000, 2.484375000000, 1490761514
0.179199218750, -0.934570312500, -0.083496093750, -7.156250000000, -28.578125000000, -0.757812500000, 1490761514
0.179199218750, -0.934570312500, -0.083496093750, -7.156250000000, -28.578125000000, -0.757812500000, 1490761514
0.179199218750, -0.934570312500, -0.083496093750, -7.156250000000, -28.578125000000, -0.757812500000, 1490761514
0.189208984375, -1.075195312500, -0.060791015625, -11.820312500000, -23.539062500000, -4.812500000000, 1490761514
0.189208984375, -1.075195312500, -0.060791015625, -11.820312500000, -23.539062500000, -4.812500000000, 1490761514
0.189208984375, -1.075195312500, -0.060791015625, -11.820312500000, -23.539062500000, -4.812500000000, 1490761514
0.145019531250, -0.910644531250, -0.080810546875, -6.125000000000, -11.546875000000, -5.625000000000, 1490761514
0.145019531250, -0.910644531250, -0.080810546875, -6.125000000000, -11.546875000000, -5.625000000000, 1490761514
0.145019531250, -0.910644531250, -0.080810546875, -6.125000000000, -11.546875000000, -5.625000000000, 1490761514
0.206542968750, -0.913818359375, -0.012207031250, -8.476562500000, 15.687500000000, -1.898437500000, 1490761514
0.206542968750, -0.913818359375, -0.012207031250, -8.476562500000, 15.687500000000, -1.898437500000, 1490761514
0.206542968750, -0.913818359375, -0.012207031250, -8.476562500000, 15.687500000000, -1.898437500000, 1490761514
0.206542968750, -0.913818359375, -0.012207031250, -8.476562500000, 15.687500000000, -1.898437500000, 1490761514
0.161132812500, -1.015380859375, -0.021972656250, 6.046875000000, 17.109375000000, -7.726562500000, 1490761514
0.161132812500, -1.015380859375, -0.021972656250, 6.046875000000, 17.109375000000, -7.726562500000, 1490761514
0.161132812500, -1.015380859375, -0.021972656250, 6.046875000000, 17.109375000000, -7.726562500000, 1490761514
0.197265625000, -0.924072265625, -0.072509765625, 5.976562500000, -4.226562500000, -3.929687500000, 1490761514
0.197265625000, -0.924072265625, -0.072509765625, 5.976562500000, -4.226562500000, -3.929687500000, 1490761514
0.197265625000, -0.924072265625, -0.072509765625, 5.976562500000, -4.226562500000, -3.929687500000, 1490761514
0.040527343750, -0.981201171875, 0.020507812500, 5.554687500000, -15.687500000000, -8.343750000000, 1490761514
0.040527343750, -0.981201171875, 0.020507812500, 5.554687500000, -15.687500000000, -8.343750000000, 1490761514
0.250732421875, -0.973388671875, -0.065673828125, 2.820312500000, 11.453125000000, -8.382812500000, 1490761514
0.250732421875, -0.973388671875, -0.065673828125, 2.820312500000, 11.453125000000, -8.382812500000, 1490761514
0.250732421875, -0.973388671875, -0.065673828125, 2.820312500000, 11.453125000000, -8.382812500000, 1490761514
0.250732421875, -0.973388671875, -0.065673828125, 2.820312500000, 11.453125000000, -8.382812500000, 1490761514
0.203857421875, -0.978759765625, 0.076416015625, 2.757812500000, 26.187500000000, -7.812500000000, 1490761514
0.221191406250, -0.914550781250, 0.024902343750, 8.453125000000, 40.257812500000, -3.921875000000, 1490761514
0.221191406250, -0.914550781250, 0.024902343750, 8.453125000000, 40.257812500000, -3.921875000000, 1490761514
0.221191406250, -0.914550781250, 0.024902343750, 8.453125000000, 40.257812500000, -3.921875000000, 1490761514
0.163574218750, -0.944824218750, -0.025146484375, 12.960937500000, 27.625000000000, -3.187500000000, 1490761515
0.163574218750, -0.944824218750, -0.025146484375, 12.960937500000, 27.625000000000, -3.187500000000, 1490761515
0.163574218750, -0.944824218750, -0.025146484375, 12.960937500000, 27.625000000000, -3.187500000000, 1490761515
0.153808593750, -0.943115234375, -0.078613281250, 9.117187500000, 3.015625000000, -6.578125000000, 1490761515
0.153808593750, -0.943115234375, -0.078613281250, 9.117187500000, 3.015625000000, -6.578125000000, 1490761515
0.075439453125, -0.986816406250, 0.031005859375, 1.210937500000, -25.804687500000, -3.515625000000, 1490761515
0.075439453125, -0.986816406250, 0.031005859375, 1.210937500000, -25.804687500000, -3.515625000000, 1490761515
0.075439453125, -0.986816406250, 0.031005859375, 1.210937500000, -25.804687500000, -3.515625000000, 1490761515
0.075439453125, -0.986816406250, 0.031005859375, 1.210937500000, -25.804687500000, -3.515625000000, 1490761515
0.075439453125, -0.986816406250, 0.031005859375, 1.210937500000, -25.804687500000, -3.515625000000, 1490761515
0.114990234375, -0.922607421875, -0.071533203125, -6.640625000000, -0.968750000000, -4.234375000000, 1490761515
0.114990234375, -0.922607421875, -0.071533203125, -6.640625000000, -0.968750000000, -4.234375000000, 1490761515
0.114990234375, -0.922607421875, -0.071533203125, -6.640625000000, -0.968750000000, -4.234375000000, 1490761515
0.099609375000, -0.969726562500, -0.078125000000, -6.843750000000, 26.460937500000, -3.507812500000, 1490761515
0.099609375000, -0.969726562500, -0.078125000000, -6.843750000000, 26.460937500000, -3.507812500000, 1490761515
0.099609375000, -0.969726562500, -0.078125000000, -6.843750000000, 26.460937500000, -3.507812500000, 1490761515
0.253173828125, -0.977294921875, -0.085205078125, -3.343750000000, 12.304687500000, -3.062500000000, 1490761515
0.253173828125, -0.977294921875, -0.085205078125, -3.343750000000, 12.304687500000, -3.062500000000, 1490761515
0.253173828125, -0.977294921875, -0.085205078125, -3.343750000000, 12.304687500000, -3.062500000000, 1490761515
0.055908203125, -0.976562500000, -0.068115234375, -9.890625000000, -30.578125000000, -2.523437500000, 1490761515
0.055908203125, -0.976562500000, -0.068115234375, -9.890625000000, -30.578125000000, -2.523437500000, 1490761515
0.055908203125, -0.976562500000, -0.068115234375, -9.890625000000, -30.578125000000, -2.523437500000, 1490761515
0.055908203125, -0.976562500000, -0.068115234375, -9.890625000000, -30.578125000000, -2.523437500000, 1490761515
0.122314453125, -0.975830078125, -0.012939453125, -11.007812500000, -27.460937500000, -1.726562500000, 1490761515
0.122314453125, -0.975830078125, -0.012939453125, -11.007812500000, -27.460937500000, -1.726562500000, 1490761515
0.122314453125, -0.975830078125, -0.012939453125, -11.007812500000, -27.460937500000, -1.726562500000, 1490761515
0.189697265625, -1.064208984375, -0.019287109375, -15.812500000000, 7.390625000000, -0.179687500000, 1490761515
0.189697265625, -1.064208984375, -0.019287109375, -15.812500000000, 7.390625000000, -0.179687500000, 1490761515
0.189697265625, -1.064208984375, -0.019287109375, -15.812500000000, 7.390625000000, -0.179687500000, 1490761515
0.259033203125, -0.914550781250, -0.053222656250, -10.132812500000, 27.398437500000, -0.414062500000, 1490761515
0.259033203125, -0.914550781250, -0.053222656250, -10.132812500000, 27.398437500000, -0.414062500000, 1490761515
0.259033203125, -0.914550781250, -0.053222656250, -10.132812500000, 27.398437500000, -0.414062500000, 1490761515
0.115234375000, -0.909423828125, -0.075195312500, -5.351562500000, 23.320312500000, 0.007812500000, 1490761515
0.120849609375, -1.002197265625, -0.035888671875, -3.390625000000, -26.335937500000, -4.335937500000, 1490761515
0.120849609375, -1.002197265625, -0.035888671875, -3.390625000000, -26.335937500000, -4.335937500000, 1490761515
0.120849609375, -1.002197265625, -0.035888671875, -3.390625000000, -26.335937500000, -4.335937500000, 1490761515
0.100341796875, -0.935546875000, -0.062744140625, -2.414062500000, -16.351562500000, -3.500000000000, 1490761515
0.100341796875, -0.935546875000, -0.062744140625, -2.414062500000, -16.351562500000, -3.500000000000, 1490761515
0.100341796875, -0.935546875000, -0.062744140625, -2.414062500000, -16.351562500000, -3.500000000000, 1490761515
0.100341796875, -0.935546875000, -0.062744140625, -2.414062500000, -16.351562500000, -3.500000000000, 1490761515
0.100341796875, -0.935546875000, -0.062744140625, -2.414062500000, -16.351562500000, -3.500000000000, 1490761515
0.100341796875, -0.935546875000, -0.062744140625, -2.414062500000, -16.351562500000, -3.500000000000, 1490761515
0.098632812500, -0.925781250000, -0.042724609375, 4.523437500000, 12.414062500000, -1.203125000000, 1490761515
0.098632812500, -0.925781250000, -0.042724609375, 4.523437500000, 12.414062500000, -1.203125000000, 1490761515
0.098632812500, -0.925781250000, -0.042724609375, 4.523437500000, 12.414062500000, -1.203125000000, 1490761515
0.199462890625, -1.021240234375, -0.073242187500, 6.898437500000, 9.820312500000, -6.523437500000, 1490761515
0.199462890625, -1.021240234375, -0.073242187500, 6.898437500000, 9.820312500000, -6.523437500000, 1490761515
0.199462890625, -1.021240234375, -0.073242187500, 6.898437500000, 9.820312500000, -6.523437500000, 1490761515
0.199462890625, -1.021240234375, -0.073242187500, 6.898437500000, 9.820312500000, -6.523437500000, 1490761515
0.197998046875, -0.933837890625, -0.064453125000, 1.273437500000, -6.328125000000, -7.273437500000, 1490761515
0.197998046875, -0.933837890625, -0.064453125000, 1.273437500000, -6.328125000000, -7.273437500000, 1490761515
0.197998046875, -0.933837890625, -0.064453125000, 1.273437500000, -6.328125000000, -7.273437500000, 1490761515
0.059570312500, -0.961425781250, -0.065429687500, 4.375000000000, -14.796875000000, -4.304687500000, 1490761515
0.059570312500, -0.961425781250, -0.065429687500, 4.375000000000, -14.796875000000, -4.304687500000, 1490761515
0.059570312500, -0.961425781250, -0.065429687500, 4.375000000000, -14.796875000000, -4.304687500000, 1490761515
0.106689453125, -1.008056640625, 0.017333984375, 1.226562500000, -2.804687500000, -3.992187500000, 1490761515
0.106689453125, -1.008056640625, 0.017333984375, 1.226562500000, -2.804687500000, -3.992187500000, 1490761515
0.106689453125, -1.008056640625, 0.017333984375, 1.226562500000, -2.804687500000, -3.992187500000, 1490761515
0.254882812500, -0.921630859375, 0.022460937500, 0.062500000000, 8.718750000000, -8.359375000000, 1490761515
0.254882812500, -0.921630859375, 0.022460937500, 0.062500000000, 8.718750000000, -8.359375000000, 1490761515
0.254882812500, -0.921630859375, 0.022460937500, 0.062500000000, 8.718750000000, -8.359375000000, 1490761515
0.254882812500, -0.921630859375, 0.022460937500, 0.062500000000, 8.718750000000, -8.359375000000, 1490761515
0.090332031250, -1.002441406250, 0.069824218750, -4.859375000000, 3.570312500000, -1.273437500000, 1490761515
0.168212890625, -1.003417968750, -0.016113281250, -3.703125000000, -0.031250000000, -4.679687500000, 1490761515
0.168212890625, -1.003417968750, -0.016113281250, -3.703125000000, -0.031250000000, -4.679687500000, 1490761515
0.165039062500, -0.923583984375, -0.081054687500, -5.195312500000, -5.320312500000, -6.281250000000, 1490761515
0.165039062500, -0.923583984375, -0.081054687500, -5.195312500000, -5.320312500000, -6.281250000000, 1490761515
0.165039062500, -0.923583984375, -0.081054687500, -5.195312500000, -5.320312500000, -6.281250000000, 1490761516
0.213134765625, -0.992675781250, -0.029052734375, -6.101562500000, -5.320312500000, -4.960937500000, 1490761516
0.213134765625, -0.992675781250, -0.029052734375, -6.101562500000, -5.320312500000, -4.960937500000, 1490761516
0.213134765625, -0.992675781250, -0.029052734375, -6.101562500000, -5.320312500000, -4.960937500000, 1490761516
0.191894531250, -1.090332031250, 0.074462890625, -9.382812500000, 4.984375000000, -2.164062500000, 1490761516
0.191894531250, -1.090332031250, 0.074462890625, -9.382812500000, 4.984375000000, -2.164062500000, 1490761516
0.191894531250, -1.090332031250, 0.074462890625, -9.382812500000, 4.984375000000, -2.164062500000, 1490761516
0.191894531250, -1.090332031250, 0.074462890625, -9.382812500000, 4.984375000000, -2.164062500000, 1490761516
0.231201171875, -0.956787109375, 0.082031250000, -9.289062500000, 3.398437500000, -4.007812500000, 1490761516
0.231201171875, -0.956787109375, 0.082031250000, -9.289062500000, 3.398437500000, -4.007812500000, 1490761516
0.231201171875, -0.956787109375, 0.082031250000, -9.289062500000, 3.398437500000, -4.007812500000, 1490761516
0.101806640625, -1.068847656250, -0.021728515625, -12.500000000000, -1.046875000000, 0.343750000000, 1490761516
0.101806640625, -1.068847656250, -0.021728515625, -12.500000000000, -1.046875000000, 0.343750000000, 1490761516
0.101806640625, -1.068847656250, -0.021728515625, -12.500000000000, -1.046875000000, 0.343750000000, 1490761516
0.121093750000, -0.913085937500, -0.012451171875, -7.054687500000, -3.984375000000, -4.093750000000, 1490761516
0.121093750000, -0.913085937500, -0.012451171875, -7.054687500000, -3.984375000000, -4.093750000000, 1490761516
0.121093750000, -0.913085937500, -0.012451171875, -7.054687500000, -3.984375000000, -4.093750000000, 1490761516
0.152099609375, -0.966796875000, -0.020751953125, -8.507812500000, -2.453125000000, -1.000000000000, 1490761516
0.152099609375, -0.966796875000, -0.020751953125, -8.507812500000, -2.453125000000, -1.000000000000, 1490761516
0.152099609375, -0.966796875000, -0.020751953125, -8.507812500000, -2.453125000000, -1.000000000000, 1490761516
0.118896484375, -0.930175781250, 0.002929687500, -1.257812500000, 4.625000000000, -3.539062500000, 1490761516
0.118896484375, -0.930175781250, 0.002929687500, -1.257812500000, 4.625000000000, -3.539062500000, 1490761516
0.118896484375, -0.930175781250, 0.002929687500, -1.257812500000, 4.625000000000, -3.539062500000, 1490761516
0.118896484375, -0.930175781250, 0.002929687500, -1.257812500000, 4.625000000000, -3.539062500000, 1490761516
0.120117187500, -1.081542968750, -0.081054687500, -2.695312500000, -1.070312500000, -4.484375000000, 1490761516
0.120117187500, -1.081542968750, -0.081054687500, -2.695312500000, -1.070312500000, -4.484375000000, 1490761516
0.120117187500, -1.081542968750, -0.081054687500, -2.695312500000, -1.070312500000, -4.484375000000, 1490761516
0.184082031250, -1.027099609375, -0.064208984375, 2.085937500000, -3.164062500000, -1.781250000000, 1490761516
0.184082031250, -1.027099609375, -0.064208984375, 2.085937500000, -3.164062500000, -1.781250000000, 1490761516
0.184082031250, -1.027099609375, -0.064208984375, 2.085937500000, -3.164062500000, -1.781250000000, 1490761516
0.117919921875, -1.026367187500, 0.008300781250, 3.601562500000, 2.242187500000, -8.867187500000, 1490761516
0.117919921875, -1.026367187500, 0.008300781250, 3.601562500000, 2.242187500000, -8.867187500000, 1490761516
0.117919921875, -1.026367187500, 0.008300781250, 3.601562500000, 2.242187500000, -8.867187500000, 1490761516
0.117919921875, -1.026367187500, 0.008300781250, 3.601562500000, 2.242187500000, -8.867187500000, 1490761516
0.175537109375, -0.911376953125, -0.083740234375, 4.257812500000, 1.140625000000, -5.500000000000, 1490761516
0.175537109375, -0.911376953125, -0.083740234375, 4.257812500000, 1.140625000000, -5.500000000000, 1490761516
0.175537109375, -0.911376953125, -0.083740234375, 4.257812500000, 1.140625000000, -5.500000000000, 1490761516
0.100830078125, -1.025390625000, -0.030029296875, 4.234375000000, 0.796875000000, -6.421875000000, 1490761516
0.100830078125, -1.025390625000, -0.030029296875, 4.234375000000, 0.796875000000, -6.421875000000, 1490761516
0.100830078125, -1.025390625000, -0.030029296875, 4.234375000000, 0.796875000000, -6.421875000000, 1490761516
0.155273437500, -1.076904296875, -0.022216796875, 4.609375000000, -1.031250000000, -4.203125000000, 1490761516
0.155273437500, -1.076904296875, -0.022216796875, 4.609375000000, -1.031250000000, -4.203125000000, 1490761516
0.199707031250, -1.010009765625, -0.080078125000, 0.929687500000, 0.648437500000, -1.664062500000, 1490761516
0.199707031250, -1.010009765625, -0.080078125000, 0.929687500000, 0.648437500000, -1.664062500000, 1490761516
0.199707031250, -1.010009765625, -0.080078125000, 0.929687500000, 0.648437500000, -1.664062500000, 1490761516
0.199707031250, -1.010009765625, -0.080078125000, 0.929687500000, 0.648437500000, -1.664062500000, 1490761516
0.199707031250, -1.010009765625, -0.080078125000, 0.929687500000, 0.648437500000, -1.664062500000, 1490761516
0.209228515625, -0.916503906250, 0.001953125000, -4.406250000000, 2.359375000000, -3.320312500000, 1490761516
0.209228515625, -0.916503906250, 0.001953125000, -4.406250000000, 2.359375000000, -3.320312500000, 1490761516
0.209228515625, -0.916503906250, 0.001953125000, -4.406250000000, 2.359375000000, -3.320312500000, 1490761516
0.174072265625, -0.926757812500, -0.010986328125, -3.421875000000, 0.125000000000, 0.703125000000, 1490761516
0.174072265625, -0.926757812500, -0.010986328125, -3.421875000000, 0.125000000000, 0.703125000000, 1490761516
0.174072265625, -0.926757812500, -0.010986328125, -3.421875000000, 0.125000000000, 0.703125000000, 1490761516
0.122802734375, -0.958496093750, 0.029052734375, -10.484375000000, -1.320312500000, -1.140625000000, 1490761516
0.122802734375, -0.958496093750, 0.029052734375, -10.484375000000, -1.320312500000, -1.140625000000, 1490761516
0.122802734375, -0.958496093750, 0.029052734375, -10.484375000000, -1.320312500000, -1.140625000000, 1490761516
0.096679687500, -0.969726562500, -0.073974609375, -9.734375000000, 1.171875000000, 2.765625000000, 1490761516
0.096679687500, -0.969726562500, -0.073974609375, -9.734375000000, 1.171875000000, 2.765625000000, 1490761516
0.096679687500, -0.969726562500, -0.073974609375, -9.734375000000, 1.171875000000, 2.765625000000, 1490761516
0.096679687500, -0.969726562500, -0.073974609375, -9.734375000000, 1.171875000000, 2.765625000000, 1490761516
0.134033203125, -1.072265625000, -0.000976562500, -10.507812500000, 1.117187500000, 0.742187500000, 1490761516
0.134033203125, -1.072265625000, -0.000976562500, -10.507812500000, 1.117187500000, 0.742187500000, 1490761516
0.134033203125, -1.072265625000, -0.000976562500, -10.507812500000, 1.117187500000, 0.742187500000, 1490761516
0.187255859375, -0.931640625000, -0.036132812500, -7.539062500000, -0.820312500000, -4.335937500000, 1490761516
0.187255859375, -0.931640625000, -0.036132812500, -7.539062500000, -0.820312500000, -4.335937500000, 1490761516
0.187255859375, -0.931640625000, -0.036132812500, -7.539062500000, -0.820312500000, -4.335937500000, 1490761516
0.192382812500, -0.976562500000, 0.001708984375, -7.203125000000, -3.554687500000, -3.203125000000, 1490761517
0.192382812500, -0.976562500000, 0.001708984375, -7.203125000000, -3.554687500000, -3.203125000000, 1490761517
0.192382812500, -0.976562500000, 0.001708984375, -7.203125000000, -3.554687500000, -3.203125000000, 1490761517
0.213867187500, -1.005126953125, -0.022949218750, -8.382812500000, 0.953125000000, -4.273437500000, 1490761517
0.109375000000, -1.006347656250, 0.029541015625, -3.500000000000, 4.976562500000, -5.023437500000, 1490761517
0.109375000000, -1.006347656250, 0.029541015625, -3.500000000000, 4.976562500000, -5.023437500000, 1490761517
0.109375000000, -1.006347656250, 0.029541015625, -3.500000000000, 4.976562500000, -5.023437500000, 1490761517
0.196777343750, -0.915039062500, -0.086181640625, -1.000000000000, 2.250000000000, -5.109375000000, 1490761517
0.196777343750, -0.915039062500, -0.086181640625, -1.000000000000, 2.250000000000, -5.109375000000, 1490761517
0.196777343750, -0.915039062500, -0.086181640625, -1.000000000000, 2.250000000000, -5.109375000000, 1490761517
0.196777343750, -0.915039062500, -0.086181640625, -1.000000000000, 2.250000000000, -5.109375000000, 1490761517
0.196777343750, -0.915039062500, -0.086181640625, -1.000000000000, 2.250000000000, -5.109375000000, 1490761517
0.196777343750, -0.915039062500, -0.086181640625, -1.000000000000, 2.250000000000, -5.109375000000, 1490761517
0.157714843750, -0.926269531250, -0.017333984375, 0.804687500000, -4.406250000000, -2.929687500000, 1490761517
0.157714843750, -0.926269531250, -0.017333984375, 0.804687500000, -4.406250000000, -2.929687500000, 1490761517
0.157714843750, -0.926269531250, -0.017333984375, 0.804687500000, -4.406250000000, -2.929687500000, 1490761517
0.110351562500, -1.033935546875, -0.089111328125, -0.304687500000, -4.171875000000, -6.234375000000, 1490761517
0.110351562500, -1.033935546875, -0.089111328125, -0.304687500000, -4.171875000000, -6.234375000000, 1490761517
0.110351562500, -1.033935546875, -0.089111328125, -0.304687500000, -4.171875000000, -6.234375000000, 1490761517
0.110351562500, -1.033935546875, -0.089111328125, -0.304687500000, -4.171875000000, -6.234375000000, 1490761517
0.146240234375, -0.980712890625, -0.081787109375, -0.835937500000, 4.359375000000, -5.445312500000, 1490761517
0.146240234375, -0.980712890625, -0.081787109375, -0.835937500000, 4.359375000000, -5.445312500000, 1490761517
0.146240234375, -0.980712890625, -0.081787109375, -0.835937500000, 4.359375000000, -5.445312500000, 1490761517
0.165771484375, -1.012695312500, -0.041503906250, 0.140625000000, 3.203125000000, -3.382812500000, 1490761517
0.165771484375, -1.012695312500, -0.041503906250, 0.140625000000, 3.203125000000, -3.382812500000, 1490761517
0.165771484375, -1.012695312500, -0.041503906250, 0.140625000000, 3.203125000000, -3.382812500000, 1490761517
0.194580078125, -0.970703125000, 0.020996093750, -3.437500000000, 0.101562500000, -4.476562500000, 1490761517
0.194580078125, -0.970703125000, 0.020996093750, -3.437500000000, 0.101562500000, -4.476562500000, 1490761517
0.194580078125, -0.970703125000, 0.020996093750, -3.437500000000, 0.101562500000, -4.476562500000, 1490761517
0.208984375000, -1.071777343750, -0.066406250000, -21.437500000000, 1.203125000000, -1.234375000000, 1490761517
0.208984375000, -1.071777343750, -0.066406250000, -21.437500000000, 1.203125000000, -1.234375000000, 1490761517
0.208984375000, -1.071777343750, -0.066406250000, -21.437500000000, 1.203125000000, -1.234375000000, 1490761517
0.208984375000, -1.071777343750, -0.066406250000, -21.437500000000, 1.203125000000, -1.234375000000, 1490761517
0.217041015625, -1.002441406250, 0.029785156250, -25.703125000000, 4.867187500000, 2.078125000000, 1490761517
0.167724609375, -1.004394531250, -0.074707031250, -29.250000000000, 4.695312500000, 4.773437500000, 1490761517
0.167724609375, -1.004394531250, -0.074707031250, -29.250000000000, 4.695312500000, 4.773437500000, 1490761517
0.168701171875, -1.029785156250, -0.067382812500, -35.375000000000, -0.226562500000, 3.085937500000, 1490761517
0.168701171875, -1.029785156250, -0.067382812500, -35.375000000000, -0.226562500000, 3.085937500000, 1490761517
0.168701171875, -1.029785156250, -0.067382812500, -35.375000000000, -0.226562500000, 3.085937500000, 1490761517
0.168701171875, -1.029785156250, -0.067382812500, -35.375000000000, -0.226562500000, 3.085937500000, 1490761517
0.255371093750, -1.024169921875, 0.003173828125, -41.828125000000, -4.242187500000, 7.398437500000, 1490761517
0.255371093750, -1.024169921875, 0.003173828125, -41.828125000000, -4.242187500000, 7.398437500000, 1490761517
0.255371093750, -1.024169921875, 0.003173828125, -41.828125000000, -4.242187500000, 7.398437500000, 1490761517
0.255371093750, -1.024169921875, 0.003173828125, -41.828125000000, -4.242187500000, 7.398437500000, 1490761517
0.255371093750, -1.024169921875, 0.003173828125, -41.828125000000, -4.242187500000, 7.398437500000, 1490761517
0.228515625000, -0.925048828125, 0.007812500000, -46.335937500000, -4.273437500000, 10.101562500000, 1490761517
0.228515625000, -0.925048828125, 0.007812500000, -46.335937500000, -4.273437500000, 10.101562500000, 1490761517
0.228515625000, -0.925048828125, 0.007812500000, -46.335937500000, -4.273437500000, 10.101562500000, 1490761517
0.228515625000, -0.925048828125, 0.007812500000, -46.335937500000, -4.273437500000, 10.101562500000, 1490761517
0.094482421875, -0.967529296875, 0.023925781250, -44.453125000000, -3.585937500000, 10.406250000000, 1490761517
0.094482421875, -0.967529296875, 0.023925781250, -44.453125000000, -3.585937500000, 10.406250000000, 1490761517
0.094482421875, -0.967529296875, 0.023925781250, -44.453125000000, -3.585937500000, 10.406250000000, 1490761517
0.269775390625, -0.969970703125, -0.093017578125, -36.539062500000, -1.312500000000, 7.515625000000, 1490761517
0.269775390625, -0.969970703125, -0.093017578125, -36.539062500000, -1.312500000000, 7.515625000000, 1490761517
0.269775390625, -0.969970703125, -0.093017578125, -36.539062500000, -1.312500000000, 7.515625000000, 1490761517
0.172607421875, -0.967529296875, 0.048095703125, 32.554687500000, 36.187500000000, 10.570312500000, 1490761517
0.172607421875, -0.967529296875, 0.048095703125, 32.554687500000, 36.187500000000, 10.570312500000, 1490761517
0.172607421875, -0.967529296875, 0.048095703125, 32.554687500000, 36.187500000000, 10.570312500000, 1490761517
0.158447265625, -0.873779296875, 0.110107421875, 118.500000000000, -23.984375000000, -0.312500000000, 1490761517
0.320556640625, -0.989990234375, 0.428710937500, 118.500000000000, -23.984375000000, -0.312500000000, 1490761517
0.320556640625, -0.989990234375, 0.428710937500, 118.500000000000, -23.984375000000, -0.312500000000, 1490761517
0.320556640625, -0.989990234375, 0.428710937500, 118.500000000000, -23.984375000000, -0.312500000000, 1490761517
0.320556640625, -0.989990234375, 0.428710937500, 118.500000000000, -23.984375000000, -0.312500000000, 1490761517
0.375244140625, -0.949707031250, 0.605468750000, -87.593750000000, -75.445312500000, 5.000000000000, 1490761517
0.375244140625, -0.949707031250, 0.605468750000, -87.593750000000, -75.445312500000, 5.000000000000, 1490761517
0.375244140625, -0.949707031250, 0.605468750000, -87.593750000000, -75.445312500000, 5.000000000000, 1490761518
0.375244140625, -0.949707031250, 0.605468750000, -87.593750000000, -75.445312500000, 5.000000000000, 1490761518
0.283447265625, -0.920898437500, 0.096435546875, -149.750000000000, 72.367187500000, 39.617187500000, 1490761518
0.283447265625, -0.920898437500, 0.096435546875, -149.750000000000, 72.367187500000, 39.617187500000, 1490761518
0.283447265625, -0.920898437500, 0.096435546875, -149.750000000000, 72.367187500000, 39.617187500000, 1490761518
0.374755859375, -0.823974609375, 0.035888671875, -90.984375000000, -15.851562500000, 16.578125000000, 1490761518
0.374755859375, -0.823974609375, 0.035888671875, -90.984375000000, -15.851562500000, 16.578125000000, 1490761518
0.374755859375, -0.823974609375, 0.035888671875, -90.984375000000, -15.851562500000, 16.578125000000, 1490761518
0.374755859375, -0.823974609375, 0.035888671875, -90.984375000000, -15.851562500000, 16.578125000000, 1490761518
0.374755859375, -0.823974609375, 0.035888671875, -70.078125000000, -45.101562500000, 18.023437500000, 1490761518
0.349121093750, -0.733886718750, 0.253417968750, -26.632812500000, -50.296875000000, 21.953125000000, 1490761518
0.349121093750, -0.733886718750, 0.253417968750, -26.632812500000, -50.296875000000, 21.953125000000, 1490761518
0.349121093750, -0.733886718750, 0.253417968750, -26.632812500000, -50.296875000000, 21.953125000000, 1490761518
0.414306640625, -0.944091796875, 0.575195312500, 16.351562500000, -8.484375000000, 9.460937500000, 1490761518
0.414306640625, -0.944091796875, 0.575195312500, 16.351562500000, -8.484375000000, 9.460937500000, 1490761518
0.414306640625, -0.944091796875, 0.575195312500, 16.351562500000, -8.484375000000, 9.460937500000, 1490761518
0.307373046875, -0.948242187500, 0.388671875000, -99.187500000000, 46.906250000000, 20.312500000000, 1490761518
0.307373046875, -0.948242187500, 0.388671875000, -99.187500000000, 46.906250000000, 20.312500000000, 1490761518
0.307373046875, -0.948242187500, 0.388671875000, -99.187500000000, 46.906250000000, 20.312500000000, 1490761518
0.307373046875, -0.948242187500, 0.388671875000, -99.187500000000, 46.906250000000, 20.312500000000, 1490761518
0.341552734375, -0.890136718750, 0.421142578125, -92.382812500000, 49.070312500000, 20.414062500000, 1490761518
0.341552734375, -0.890136718750, 0.421142578125, -92.382812500000, 49.070312500000, 20.414062500000, 1490761518
0.341552734375, -0.890136718750, 0.421142578125, -92.382812500000, 49.070312500000, 20.414062500000, 1490761518
0.464843750000, -0.686035156250, 0.748291015625, -91.242187500000, 74.468750000000, 20.406250000000, 1490761518
0.464843750000, -0.686035156250, 0.748291015625, -91.242187500000, 74.468750000000, 20.406250000000, 1490761518
0.464843750000, -0.686035156250, 0.748291015625, -91.242187500000, 74.468750000000, 20.406250000000, 1490761518
0.227539062500, -0.650878906250, 0.566894531250, -119.140625000000, 49.062500000000, 20.648437500000, 1490761518
0.227539062500, -0.650878906250, 0.566894531250, -119.140625000000, 49.062500000000, 20.648437500000, 1490761518
0.323730468750, -0.517822265625, 0.504150390625, -108.257812500000, 31.367187500000, 6.445312500000, 1490761518
0.323730468750, -0.517822265625, 0.504150390625, -108.257812500000, 31.367187500000, 6.445312500000, 1490761518
0.323730468750, -0.517822265625, 0.504150390625, -108.257812500000, 31.367187500000, 6.445312500000, 1490761518
0.323730468750, -0.517822265625, 0.504150390625, -108.257812500000, 31.367187500000, 6.445312500000, 1490761518
0.502929687500, -0.483886718750, 1.079101562500, -71.976562500000, 70.375000000000, 4.164062500000, 1490761518
0.502929687500, -0.483886718750, 1.079101562500, -71.976562500000, 70.375000000000, 4.164062500000, 1490761518
0.502929687500, -0.483886718750, 1.079101562500, -71.976562500000, 70.375000000000, 4.164062500000, 1490761518
0.502929687500, -0.483886718750, 1.079101562500, -71.976562500000, 70.375000000000, 4.164062500000, 1490761518
0.168701171875, -0.407470703125, 0.605712890625, -77.867187500000, 30.429687500000, 10.445312500000, 1490761518
0.168701171875, -0.407470703125, 0.605712890625, -77.867187500000, 30.429687500000, 10.445312500000, 1490761518
0.168701171875, -0.407470703125, 0.605712890625, -77.867187500000, 30.429687500000, 10.445312500000, 1490761518
0.333251953125, -0.413574218750, 1.212158203125, -78.625000000000, 45.835937500000, 1.226562500000, 1490761518
0.333251953125, -0.413574218750, 1.212158203125, -78.625000000000, 45.835937500000, 1.226562500000, 1490761518
0.358642578125, -0.457519531250, 1.303466796875, -59.765625000000, 25.468750000000, 9.828125000000, 1490761518
0.358642578125, -0.457519531250, 1.303466796875, -59.765625000000, 25.468750000000, 9.828125000000, 1490761518
0.358642578125, -0.457519531250, 1.303466796875, -59.765625000000, 25.468750000000, 9.828125000000, 1490761518
0.358642578125, -0.457519531250, 1.303466796875, -59.765625000000, 25.468750000000, 9.828125000000, 1490761518
0.358642578125, -0.457519531250, 1.303466796875, -59.765625000000, 25.468750000000, 9.828125000000, 1490761518
0.124511718750, -0.299072265625, 0.841308593750, -53.703125000000, 39.867187500000, 18.445312500000, 1490761518
0.124511718750, -0.299072265625, 0.841308593750, -53.703125000000, 39.867187500000, 18.445312500000, 1490761518
0.124511718750, -0.299072265625, 0.841308593750, -53.703125000000, 39.867187500000, 18.445312500000, 1490761518
0.257324218750, -0.282470703125, 1.219482421875, -86.304687500000, 5.539062500000, 13.125000000000, 1490761518
0.257324218750, -0.282470703125, 1.219482421875, -86.304687500000, 5.539062500000, 13.125000000000, 1490761518
0.257324218750, -0.282470703125, 1.219482421875, -86.304687500000, 5.539062500000, 13.125000000000, 1490761518
0.127197265625, -0.178710937500, 0.873046875000, -73.640625000000, 50.601562500000, 1.976562500000, 1490761518
0.127197265625, -0.178710937500, 0.873046875000, -73.640625000000, 50.601562500000, 1.976562500000, 1490761518
0.215820312500, -0.086181640625, 1.053222656250, -100.445312500000, 7.421875000000, -10.585937500000, 1490761518
0.215820312500, -0.086181640625, 1.053222656250, -100.445312500000, 7.421875000000, -10.585937500000, 1490761518
0.215820312500, -0.086181640625, 1.053222656250, -100.445312500000, 7.421875000000, -10.585937500000, 1490761518
0.215820312500, -0.086181640625, 1.053222656250, -100.445312500000, 7.421875000000, -10.585937500000, 1490761518
0.205322265625, -0.185546875000, 1.299804687500, -54.789062500000, -10.648437500000, -5.609375000000, 1490761518
0.205322265625, -0.185546875000, 1.299804687500, -54.789062500000, -10.648437500000, -5.609375000000, 1490761518
0.205322265625, -0.185546875000, 1.299804687500, -54.789062500000, -10.648437500000, -5.609375000000, 1490761518
0.205322265625, -0.185546875000, 1.299804687500, -54.789062500000, -10.648437500000, -5.609375000000, 1490761518
0.214111328125, 0.136718750000, 0.778320312500, -67.539062500000, 3.648437500000, -2.906250000000, 1490761518
0.214111328125, 0.136718750000, 0.778320312500, -67.539062500000, 3.648437500000, -2.906250000000, 1490761518
0.214111328125, 0.136718750000, 0.778320312500, -67.539062500000, 3.648437500000, -2.906250000000, 1490761518
0.254638671875, -0.053222656250, 1.170654296875, -31.554687500000, 6.320312500000, -6.992187500000, 1490761518
0.254638671875, -0.053222656250, 1.170654296875, -31.554687500000, 6.320312500000, -6.992187500000, 1490761518
0.254638671875, -0.053222656250, 1.170654296875, -31.554687500000, 6.320312500000, -6.992187500000, 1490761518
0.114257812500, 0.243896484375, 0.855468750000, -13.609375000000, -27.406250000000, 10.195312500000, 1490761519
0.114257812500, 0.243896484375, 0.855468750000, -13.609375000000, -27.406250000000, 10.195312500000, 1490761519
0.114257812500, 0.243896484375, 0.855468750000, -13.609375000000, -27.406250000000, 10.195312500000, 1490761519
0.114257812500, 0.243896484375, 0.855468750000, -13.609375000000, -27.406250000000, 10.195312500000, 1490761519
0.305908203125, 0.020751953125, 1.174804687500, 116.210937500000, -37.656250000000, -19.750000000000, 1490761519
0.305908203125, 0.020751953125, 1.174804687500, 116.210937500000, -37.656250000000, -19.750000000000, 1490761519
0.305908203125, 0.020751953125, 1.174804687500, 116.210937500000, -37.656250000000, -19.750000000000, 1490761519
0.334960937500, -0.074218750000, 0.919677734375, -43.640625000000, 19.679687500000, -0.531250000000, 1490761519
0.334960937500, -0.074218750000, 0.919677734375, -43.640625000000, 19.679687500000, -0.531250000000, 1490761519
0.334960937500, -0.074218750000, 0.919677734375, -43.640625000000, 19.679687500000, -0.531250000000, 1490761519
0.187255859375, -0.042236328125, 0.890869140625, -26.882812500000, 34.203125000000, 15.789062500000, 1490761519
0.187255859375, -0.042236328125, 0.890869140625, -26.882812500000, 34.203125000000, 15.789062500000, 1490761519
0.187255859375, -0.042236328125, 0.890869140625, -26.882812500000, 34.203125000000, 15.789062500000, 1490761519
0.103759765625, -0.028320312500, 0.972656250000, -31.710937500000, -15.304687500000, 14.835937500000, 1490761519
0.103759765625, -0.028320312500, 0.972656250000, -31.710937500000, -15.304687500000, 14.835937500000, 1490761519
0.103759765625, -0.028320312500, 0.972656250000, -31.710937500000, -15.304687500000, 14.835937500000, 1490761519
0.103759765625, -0.028320312500, 0.972656250000, -31.710937500000, -15.304687500000, 14.835937500000, 1490761519
0.161621093750, 0.049316406250, 1.026123046875, -21.390625000000, -1.968750000000, 13.578125000000, 1490761519
0.161621093750, 0.049316406250, 1.026123046875, -21.390625000000, -1.968750000000, 13.578125000000, 1490761519
0.161621093750, 0.049316406250, 1.026123046875, -21.390625000000, -1.968750000000, 13.578125000000, 1490761519
0.165283203125, 0.047607421875, 1.008056640625, 78.765625000000, -109.695312500000, -3.195312500000, 1490761519
0.165283203125, 0.047607421875, 1.008056640625, 78.765625000000, -109.695312500000, -3.195312500000, 1490761519
0.165283203125, 0.047607421875, 1.008056640625, 78.765625000000, -109.695312500000, -3.195312500000, 1490761519
0.508544921875, -0.021728515625, 1.111328125000, -3.375000000000, 19.601562500000, -16.070312500000, 1490761519
0.508544921875, -0.021728515625, 1.111328125000, -3.375000000000, 19.601562500000, -16.070312500000, 1490761519
0.508544921875, -0.021728515625, 1.111328125000, -3.375000000000, 19.601562500000, -16.070312500000, 1490761519
0.327148437500, -0.032958984375, 1.019287109375, 7.453125000000, 9.468750000000, -7.765625000000, 1490761519
0.327148437500, -0.032958984375, 1.019287109375, 7.453125000000, 9.468750000000, -7.765625000000, 1490761519
0.327148437500, -0.032958984375, 1.019287109375, 7.453125000000, 9.468750000000, -7.765625000000, 1490761519
0.327148437500, -0.032958984375, 1.019287109375, 7.453125000000, 9.468750000000, -7.765625000000, 1490761519
0.230957031250, 0.023193359375, 0.845703125000, -6.984375000000, -1.132812500000, -4.992187500000, 1490761519
0.230957031250, 0.023193359375, 0.845703125000, -6.984375000000, -1.132812500000, -4.992187500000, 1490761519
0.230957031250, 0.023193359375, 0.845703125000, -6.984375000000, -1.132812500000, -4.992187500000, 1490761519
0.318847656250, 0.038330078125, 1.007812500000, -8.562500000000, -11.843750000000, -2.601562500000, 1490761519
0.318847656250, 0.038330078125, 1.007812500000, -8.562500000000, -11.843750000000, -2.601562500000, 1490761519
0.318847656250, 0.038330078125, 1.007812500000, -8.562500000000, -11.843750000000, -2.601562500000, 1490761519
0.336181640625, -0.082519531250, 0.999755859375, -0.718750000000, -3.632812500000, -4.585937500000, 1490761519
0.336181640625, -0.082519531250, 0.999755859375, -0.718750000000, -3.632812500000, -4.585937500000, 1490761519
0.336181640625, -0.082519531250, 0.999755859375, -0.718750000000, -3.632812500000, -4.585937500000, 1490761519
0.343750000000, -0.132080078125, 0.958007812500, -10.234375000000, 22.726562500000, -1.523437500000, 1490761519
0.343750000000, -0.132080078125, 0.958007812500, -10.234375000000, 22.726562500000, -1.523437500000, 1490761519
0.343750000000, -0.132080078125, 0.958007812500, -10.234375000000, 22.726562500000, -1.523437500000, 1490761519
0.287353515625, -0.072509765625, 1.021240234375, -3.468750000000, 19.187500000000, -6.179687500000, 1490761519
0.244140625000, -0.021240234375, 0.915527343750, -1.703125000000, 13.242187500000, -3.945312500000, 1490761519
0.244140625000, -0.021240234375, 0.915527343750, -1.703125000000, 13.242187500000, -3.945312500000, 1490761519
0.244140625000, -0.021240234375, 0.915527343750, -1.703125000000, 13.242187500000, -3.945312500000, 1490761519
0.254150390625, 0.018554687500, 1.038818359375, -2.281250000000, 1.265625000000, 0.054687500000, 1490761519
0.254150390625, 0.018554687500, 1.038818359375, -2.281250000000, 1.265625000000, 0.054687500000, 1490761519
0.254150390625, 0.018554687500, 1.038818359375, -2.281250000000, 1.265625000000, 0.054687500000, 1490761519
0.232177734375, 0.073242187500, 0.982421875000, -11.007812500000, -14.031250000000, -8.750000000000, 1490761519
0.232177734375, 0.073242187500, 0.982421875000, -11.007812500000, -14.031250000000, -8.750000000000, 1490761519
0.232177734375, 0.073242187500, 0.982421875000, -11.007812500000, -14.031250000000, -8.750000000000, 1490761519
0.255859375000, -0.083496093750, 0.987060546875, -9.242187500000, 1.757812500000, -0.640625000000, 1490761519
0.255859375000, -0.083496093750, 0.987060546875, -9.242187500000, 1.757812500000, -0.640625000000, 1490761519
0.255859375000, -0.083496093750, 0.987060546875, -9.242187500000, 1.757812500000, -0.640625000000, 1490761519
0.255859375000, -0.083496093750, 0.987060546875, -9.242187500000, 1.757812500000, -0.640625000000, 1490761519
0.321289062500, -0.024414062500, 1.013916015625, -4.343750000000, -7.000000000000, -2.156250000000, 1490761519
0.321289062500, -0.024414062500, 1.013916015625, -4.343750000000, -7.000000000000, -2.156250000000, 1490761519
0.321289062500, -0.024414062500, 1.013916015625, -4.343750000000, -7.000000000000, -2.156250000000, 1490761519
0.288085937500, -0.040771484375, 0.929199218750, -0.992187500000, -4.679687500000, -8.820312500000, 1490761519
0.288085937500, -0.040771484375, 0.929199218750, -0.992187500000, -4.679687500000, -8.820312500000, 1490761519
0.288085937500, -0.040771484375, 0.929199218750, -0.992187500000, -4.679687500000, -8.820312500000, 1490761519
0.312988281250, -0.068603515625, 0.916503906250, -4.867187500000, 1.421875000000, -3.351562500000, 1490761519
0.312988281250, -0.068603515625, 0.916503906250, -4.867187500000, 1.421875000000, -3.351562500000, 1490761519
0.312988281250, -0.068603515625, 0.916503906250, -4.867187500000, 1.421875000000, -3.351562500000, 1490761519
0.305419921875, 0.004638671875, 0.980224609375, -9.414062500000, 7.882812500000, -5.398437500000, 1490761519
0.305419921875, 0.004638671875, 0.980224609375, -9.414062500000, 7.882812500000, -5.398437500000, 1490761519
0.305419921875, 0.004638671875, 0.980224609375, -9.414062500000, 7.882812500000, -5.398437500000, 1490761519
0.305419921875, 0.004638671875, 0.980224609375, -9.414062500000, 7.882812500000, -5.398437500000, 1490761520
0.222167968750, -0.006347656250, 0.991210937500, -4.648437500000, 4.867187500000, 0.796875000000, 1490761520
0.222167968750, -0.006347656250, 0.991210937500, -4.648437500000, 4.867187500000, 0.796875000000, 1490761520
0.222167968750, -0.006347656250, 0.991210937500, -4.648437500000, 4.867187500000, 0.796875000000, 1490761520
0.200683593750, -0.076171875000, 0.980712890625, 0.398437500000, 4.757812500000, -2.945312500000, 1490761520
0.200683593750, -0.076171875000, 0.980712890625, 0.398437500000, 4.757812500000, -2.945312500000, 1490761520
0.200683593750, -0.076171875000, 0.980712890625, 0.398437500000, 4.757812500000, -2.945312500000, 1490761520
0.185791015625, 0.024658203125, 1.030761718750, -4.882812500000, 2.882812500000, -4.398437500000, 1490761520
0.185791015625, 0.024658203125, 1.030761718750, -4.882812500000, 2.882812500000, -4.398437500000, 1490761520
0.185791015625, 0.024658203125, 1.030761718750, -4.882812500000, 2.882812500000, -4.398437500000, 1490761520
0.287841796875, -0.078369140625, 1.024169921875, -4.492187500000, 2.039062500000, 0.156250000000, 1490761520
0.294189453125, 0.013427734375, 0.994628906250, -4.492187500000, 2.039062500000, 0.156250000000, 1490761520
0.294189453125, 0.013427734375, 0.994628906250, -4.492187500000, 2.039062500000, 0.156250000000, 1490761520
0.294189453125, 0.013427734375, 0.994628906250, -4.492187500000, 2.039062500000, 0.156250000000, 1490761520
0.322998046875, 0.027343750000, 0.923583984375, -4.867187500000, -0.804687500000, -6.531250000000, 1490761520
0.322998046875, 0.027343750000, 0.923583984375, -4.867187500000, -0.804687500000, -6.531250000000, 1490761520
0.322998046875, 0.027343750000, 0.923583984375, -4.867187500000, -0.804687500000, -6.531250000000, 1490761520
0.242919921875, 0.008789062500, 0.991699218750, -8.585937500000, 1.476562500000, -7.234375000000, 1490761520
0.242919921875, 0.008789062500, 0.991699218750, -8.585937500000, 1.476562500000, -7.234375000000, 1490761520
0.242919921875, 0.008789062500, 0.991699218750, -8.585937500000, 1.476562500000, -7.234375000000, 1490761520
0.235839843750, 0.020263671875, 0.980712890625, -6.320312500000, 1.429687500000, -8.445312500000, 1490761520
0.235839843750, 0.020263671875, 0.980712890625, -6.320312500000, 1.429687500000, -8.445312500000, 1490761520
0.235839843750, 0.020263671875, 0.980712890625, -6.320312500000, 1.429687500000, -8.445312500000, 1490761520
0.186279296875, 0.010253906250, 1.018066406250, -1.468750000000, 0.078125000000, -6.250000000000, 1490761520
0.186279296875, 0.010253906250, 1.018066406250, -1.468750000000, 0.078125000000, -6.250000000000, 1490761520
0.186279296875, 0.010253906250, 1.018066406250, -1.468750000000, 0.078125000000, -6.250000000000, 1490761520
0.186279296875, 0.010253906250, 1.018066406250, -1.468750000000, 0.078125000000, -6.250000000000, 1490761520
0.239257812500, 0.021484375000, 1.093017578125, -4.218750000000, -4.164062500000, -6.757812500000, 1490761520
0.239257812500, 0.021484375000, 1.093017578125, -4.218750000000, -4.164062500000, -6.757812500000, 1490761520
0.239257812500, 0.021484375000, 1.093017578125, -4.218750000000, -4.164062500000, -6.757812500000, 1490761520
0.187255859375, 0.000000000000, 1.019042968750, -1.593750000000, -1.968750000000, -5.406250000000, 1490761520
0.187255859375, 0.000000000000, 1.019042968750, -1.593750000000, -1.968750000000, -5.406250000000, 1490761520
0.187255859375, 0.000000000000, 1.019042968750, -1.593750000000, -1.968750000000, -5.406250000000, 1490761520
0.333251953125, -0.013916015625, 1.008300781250, -4.640625000000, -2.187500000000, -1.945312500000, 1490761520
0.333251953125, -0.013916015625, 1.008300781250, -4.640625000000, -2.187500000000, -1.945312500000, 1490761520
0.156982421875, 0.006835937500, 0.926757812500, -3.046875000000, 0.453125000000, -5.531250000000, 1490761520
0.156982421875, 0.006835937500, 0.926757812500, -3.046875000000, 0.453125000000, -5.531250000000, 1490761520
0.156982421875, 0.006835937500, 0.926757812500, -3.046875000000, 0.453125000000, -5.531250000000, 1490761520
0.156982421875, 0.006835937500, 0.926757812500, -3.046875000000, 0.453125000000, -5.531250000000, 1490761520
0.156982421875, 0.006835937500, 0.926757812500, -3.046875000000, 0.453125000000, -5.531250000000, 1490761520
0.263427734375, 0.084228515625, 1.084716796875, -0.335937500000, 2.953125000000, -4.898437500000, 1490761520
0.263427734375, 0.084228515625, 1.084716796875, -0.335937500000, 2.953125000000, -4.898437500000, 1490761520
0.263427734375, 0.084228515625, 1.084716796875, -0.335937500000, 2.953125000000, -4.898437500000, 1490761520
0.316406250000, -0.043701171875, 0.991210937500, -4.445312500000, 2.335937500000, -4.406250000000, 1490761520
0.316406250000, -0.043701171875, 0.991210937500, -4.445312500000, 2.335937500000, -4.406250000000, 1490761520
0.316406250000, -0.043701171875, 0.991210937500, -4.445312500000, 2.335937500000, -4.406250000000, 1490761520
0.180419921875, 0.007324218750, 1.014648437500, -4.906250000000, 0.101562500000, -3.546875000000, 1490761520
0.180419921875, 0.007324218750, 1.014648437500, -4.906250000000, 0.101562500000, -3.546875000000, 1490761520
0.180419921875, 0.007324218750, 1.014648437500, -4.906250000000, 0.101562500000, -3.546875000000, 1490761520
0.103271484375, -0.022949218750, 1.017822265625, -1.468750000000, -1.820312500000, -2.460937500000, 1490761520
0.103271484375, -0.022949218750, 1.017822265625, -1.468750000000, -1.820312500000, -2.460937500000, 1490761520
0.103271484375, -0.022949218750, 1.017822265625, -1.468750000000, -1.820312500000, -2.460937500000, 1490761520
0.103271484375, -0.022949218750, 1.017822265625, -1.468750000000, -1.820312500000, -2.460937500000, 1490761520
0.320312500000, -0.029296875000, 0.995361328125, -4.351562500000, 0.101562500000, -5.242187500000, 1490761520
0.320312500000, -0.029296875000, 0.995361328125, -4.351562500000, 0.101562500000, -5.242187500000, 1490761520
0.320312500000, -0.029296875000, 0.995361328125, -4.351562500000, 0.101562500000, -5.242187500000, 1490761520
0.159423828125, 0.081787109375, 0.958984375000, -3.031250000000, 0.328125000000, -4.562500000000, 1490761520
0.159423828125, 0.081787109375, 0.958984375000, -3.031250000000, 0.328125000000, -4.562500000000, 1490761520
0.159423828125, 0.081787109375, 0.958984375000, -3.031250000000, 0.328125000000, -4.562500000000, 1490761520
0.281250000000, -0.069335937500, 0.971923828125, 0.898437500000, -0.937500000000, -4.304687500000, 1490761520
0.276611328125, 0.002685546875, 0.987548828125, -3.429687500000, 2.750000000000, -3.281250000000, 1490761520
0.276611328125, 0.002685546875, 0.987548828125, -3.429687500000, 2.750000000000, -3.281250000000, 1490761520
0.276611328125, 0.002685546875, 0.987548828125, -3.429687500000, 2.750000000000, -3.281250000000, 1490761520
0.276611328125, 0.002685546875, 0.987548828125, -3.429687500000, 2.750000000000, -3.281250000000, 1490761520
0.276611328125, 0.002685546875, 0.987548828125, -3.429687500000, 2.750000000000, -3.281250000000, 1490761520
0.276611328125, 0.002685546875, 0.987548828125, -3.429687500000, 2.750000000000, -3.281250000000, 1490761520
0.258544921875, -0.044189453125, 0.991210937500, -4.085937500000, 0.679687500000, -6.492187500000, 1490761521
0.258544921875, -0.044189453125, 0.991210937500, -4.085937500000, 0.679687500000, -6.492187500000, 1490761521
0.258544921875, -0.044189453125, 0.991210937500, -4.085937500000, 0.679687500000, -6.492187500000, 1490761521
0.180908203125, -0.081298828125, 1.026611328125, -4.164062500000, 0.320312500000, -4.250000000000, 1490761521
0.180908203125, -0.081298828125, 1.026611328125, -4.164062500000, 0.320312500000, -4.250000000000, 1490761521
0.180908203125, -0.081298828125, 1.026611328125, -4.164062500000, 0.320312500000, -4.250000000000, 1490761521
0.276855468750, -0.004150390625, 0.933593750000, -3.875000000000, -1.054687500000, -1.867187500000, 1490761521
0.276855468750, -0.004150390625, 0.933593750000, -3.875000000000, -1.054687500000, -1.867187500000, 1490761521
0.276855468750, -0.004150390625, 0.933593750000, -3.875000000000, -1.054687500000, -1.867187500000, 1490761521
0.336425781250, -0.055664062500, 0.986083984375, -1.250000000000, -2.320312500000, -3.054687500000, 1490761521
0.336425781250, -0.055664062500, 0.986083984375, -1.250000000000, -2.320312500000, -3.054687500000, 1490761521
0.336425781250, -0.055664062500, 0.986083984375, -1.250000000000, -2.320312500000, -3.054687500000, 1490761521
0.275146484375, -0.088378906250, 0.984130859375, -3.218750000000, 0.937500000000, -8.515625000000, 1490761521
0.275146484375, -0.088378906250, 0.984130859375, -3.218750000000, 0.937500000000, -8.515625000000, 1490761521
0.275146484375, -0.088378906250, 0.984130859375, -3.218750000000, 0.937500000000, -8.515625000000, 1490761521
0.275146484375, -0.088378906250, 0.984130859375, -3.218750000000, 0.937500000000, -8.515625000000, 1490761521
0.221679687500, 0.022460937500, 0.969482421875, -5.265625000000, -4.296875000000, -5.554687500000, 1490761521
0.221679687500, 0.022460937500, 0.969482421875, -5.265625000000, -4.296875000000, -5.554687500000, 1490761521
0.221679687500, 0.022460937500, 0.969482421875, -5.265625000000, -4.296875000000, -5.554687500000, 1490761521
0.166748046875, 0.020019531250, 1.024414062500, -4.937500000000, 0.375000000000, -4.953125000000, 1490761521
0.166748046875, 0.020019531250, 1.024414062500, -4.937500000000, 0.375000000000, -4.953125000000, 1490761521
0.166748046875, 0.020019531250, 1.024414062500, -4.937500000000, 0.375000000000, -4.953125000000, 1490761521
0.278564453125, -0.008544921875, 0.933593750000, -2.593750000000, 0.695312500000, -4.335937500000, 1490761521
0.278564453125, -0.008544921875, 0.933593750000, -2.593750000000, 0.695312500000, -4.335937500000, 1490761521
0.230224609375, -0.088623046875, 1.062988281250, -2.898437500000, 2.648437500000, -3.937500000000, 1490761521
