ACC_X,ACC_Y,ACC_Z,G_X,G_Y,G_Z,Unix Time
0.079345703125, -0.602783203125, 0.320800781250, 1.656250000000, 19.593750000000, 9.585937500000, 1490609687
-0.078369140625, -0.754150390625, 0.391113281250, 4.984375000000, 24.789062500000, 12.203125000000, 1490609687
-0.078369140625, -0.754150390625, 0.391113281250, 4.984375000000, 24.789062500000, 12.203125000000, 1490609687
-0.078369140625, -0.754150390625, 0.391113281250, 4.984375000000, 24.789062500000, 12.203125000000, 1490609687
-0.078369140625, -0.754150390625, 0.391113281250, 4.984375000000, 24.789062500000, 12.203125000000, 1490609687
-0.078369140625, -0.754150390625, 0.391113281250, 4.984375000000, 24.789062500000, 12.203125000000, 1490609687
-0.127929687500, -0.875488281250, 0.371826171875, -4.398437500000, 24.390625000000, 12.789062500000, 1490609687
-0.127929687500, -0.875488281250, 0.371826171875, -4.398437500000, 24.390625000000, 12.789062500000, 1490609687
-0.147705078125, -1.081542968750, 0.459228515625, 3.781250000000, 12.695312500000, 11.585937500000, 1490609687
-0.147705078125, -1.081542968750, 0.459228515625, 3.781250000000, 12.695312500000, 11.585937500000, 1490609687
-0.147705078125, -1.081542968750, 0.459228515625, 3.781250000000, 12.695312500000, 11.585937500000, 1490609687
-0.147705078125, -1.081542968750, 0.459228515625, 3.781250000000, 12.695312500000, 11.585937500000, 1490609687
-0.062011718750, -1.347167968750, 0.514160156250, -10.640625000000, 8.453125000000, 20.640625000000, 1490609687
-0.062011718750, -1.347167968750, 0.514160156250, -10.640625000000, 8.453125000000, 20.640625000000, 1490609687
-0.062011718750, -1.347167968750, 0.514160156250, -10.640625000000, 8.453125000000, 20.640625000000, 1490609687
-0.062011718750, -1.347167968750, 0.514160156250, -10.640625000000, 8.453125000000, 20.640625000000, 1490609687
-0.067138671875, -1.364990234375, 0.306152343750, -5.195312500000, -8.117187500000, 30.171875000000, 1490609687
-0.067138671875, -1.364990234375, 0.306152343750, -5.195312500000, -8.117187500000, 30.171875000000, 1490609687
-0.067138671875, -1.364990234375, 0.306152343750, -5.195312500000, -8.117187500000, 30.171875000000, 1490609687
0.051513671875, -1.296142578125, 0.322265625000, -8.390625000000, -19.164062500000, 31.000000000000, 1490609688
0.187255859375, -0.768310546875, 0.012695312500, -28.062500000000, -14.343750000000, 42.257812500000, 1490609688
0.187255859375, -0.768310546875, 0.012695312500, -28.062500000000, -14.343750000000, 42.257812500000, 1490609688
0.187255859375, -0.768310546875, 0.012695312500, -28.062500000000, -14.343750000000, 42.257812500000, 1490609688
0.187255859375, -0.768310546875, 0.012695312500, -28.062500000000, -14.343750000000, 42.257812500000, 1490609688
0.187255859375, -0.768310546875, 0.012695312500, -28.062500000000, -14.343750000000, 42.257812500000, 1490609688
0.187255859375, -0.768310546875, 0.012695312500, -28.062500000000, -14.343750000000, 42.257812500000, 1490609688
0.070068359375, -0.964843750000, 0.098876953125, 36.468750000000, 62.367187500000, 11.664062500000, 1490609688
0.070068359375, -0.964843750000, 0.098876953125, 36.468750000000, 62.367187500000, 11.664062500000, 1490609688
0.070068359375, -0.964843750000, 0.098876953125, 36.468750000000, 62.367187500000, 11.664062500000, 1490609688
-0.050048828125, -1.106445312500, 0.220458984375, 26.179687500000, 68.382812500000, 0.429687500000, 1490609688
-0.050048828125, -1.106445312500, 0.220458984375, 26.179687500000, 68.382812500000, 0.429687500000, 1490609688
-0.050048828125, -1.106445312500, 0.220458984375, 26.179687500000, 68.382812500000, 0.429687500000, 1490609688
-0.104980468750, -0.975585937500, 0.263916015625, 19.289062500000, 38.085937500000, -16.367187500000, 1490609688
-0.104980468750, -0.975585937500, 0.263916015625, 19.289062500000, 38.085937500000, -16.367187500000, 1490609688
-0.104980468750, -0.975585937500, 0.263916015625, 19.289062500000, 38.085937500000, -16.367187500000, 1490609688
0.074707031250, -0.932861328125, 0.111572265625, -10.164062500000, -31.976562500000, -27.054687500000, 1490609688
0.074707031250, -0.932861328125, 0.111572265625, -10.164062500000, -31.976562500000, -27.054687500000, 1490609688
0.074707031250, -0.932861328125, 0.111572265625, -10.164062500000, -31.976562500000, -27.054687500000, 1490609688
0.117187500000, -0.831787109375, 0.162353515625, 4.484375000000, -52.039062500000, -30.109375000000, 1490609688
0.117187500000, -0.831787109375, 0.162353515625, 4.484375000000, -52.039062500000, -30.109375000000, 1490609688
0.117187500000, -0.831787109375, 0.162353515625, 4.484375000000, -52.039062500000, -30.109375000000, 1490609688
0.117187500000, -0.831787109375, 0.162353515625, 4.484375000000, -52.039062500000, -30.109375000000, 1490609688
0.106933593750, -0.716308593750, 0.152832031250, -4.312500000000, -54.429687500000, -27.507812500000, 1490609688
0.106933593750, -0.716308593750, 0.152832031250, -4.312500000000, -54.429687500000, -27.507812500000, 1490609688
0.106933593750, -0.716308593750, 0.152832031250, -4.312500000000, -54.429687500000, -27.507812500000, 1490609688
0.160400390625, -0.710693359375, 0.176757812500, 18.585937500000, -39.445312500000, -23.054687500000, 1490609688
0.160400390625, -0.710693359375, 0.176757812500, 18.585937500000, -39.445312500000, -23.054687500000, 1490609688
0.160400390625, -0.710693359375, 0.176757812500, 18.585937500000, -39.445312500000, -23.054687500000, 1490609688
0.083007812500, -1.084960937500, 0.405517578125, -36.468750000000, -27.757812500000, -27.117187500000, 1490609688
0.083007812500, -1.084960937500, 0.405517578125, -36.468750000000, -27.757812500000, -27.117187500000, 1490609688
0.083007812500, -1.084960937500, 0.405517578125, -36.468750000000, -27.757812500000, -27.117187500000, 1490609688
0.083007812500, -1.084960937500, 0.405517578125, -36.468750000000, -27.757812500000, -27.117187500000, 1490609688
0.123779296875, -1.370605468750, 0.388427734375, -24.226562500000, -8.570312500000, -24.218750000000, 1490609688
0.123779296875, -1.370605468750, 0.388427734375, -24.226562500000, -8.570312500000, -24.218750000000, 1490609688
0.123779296875, -1.370605468750, 0.388427734375, -24.226562500000, -8.570312500000, -24.218750000000, 1490609688
-0.051269531250, -1.443359375000, 0.442626953125, -46.820312500000, -34.351562500000, -32.148437500000, 1490609688
-0.051269531250, -1.443359375000, 0.442626953125, -46.820312500000, -34.351562500000, -32.148437500000, 1490609688
-0.051269531250, -1.443359375000, 0.442626953125, -46.820312500000, -34.351562500000, -32.148437500000, 1490609688
0.084716796875, -1.112548828125, 0.238525390625, -54.218750000000, -17.937500000000, -18.218750000000, 1490609688
0.084716796875, -1.112548828125, 0.238525390625, -54.218750000000, -17.937500000000, -18.218750000000, 1490609688
-0.312744140625, -0.863525390625, 0.188720703125, -29.945312500000, -54.046875000000, -36.773437500000, 1490609688
-0.312744140625, -0.863525390625, 0.188720703125, -29.945312500000, -54.046875000000, -36.773437500000, 1490609688
-0.312744140625, -0.863525390625, 0.188720703125, -29.945312500000, -54.046875000000, -36.773437500000, 1490609688
-0.312744140625, -0.863525390625, 0.188720703125, -29.945312500000, -54.046875000000, -36.773437500000, 1490609688
0.108398437500, -0.981689453125, 0.256591796875, 6.031250000000, -24.609375000000, -20.843750000000, 1490609688
0.108398437500, -0.981689453125, 0.256591796875, 6.031250000000, -24.609375000000, -20.843750000000, 1490609688
0.108398437500, -0.981689453125, 0.256591796875, 6.031250000000, -24.609375000000, -20.843750000000, 1490609688
0.108398437500, -0.981689453125, 0.256591796875, 6.031250000000, -24.609375000000, -20.843750000000, 1490609688
0.152343750000, -0.871826171875, 0.285644531250, 12.257812500000, -24.773437500000, -5.117187500000, 1490609688
0.152343750000, -0.871826171875, 0.285644531250, 12.257812500000, -24.773437500000, -5.117187500000, 1490609688
0.152343750000, -0.871826171875, 0.285644531250, 12.257812500000, -24.773437500000, -5.117187500000, 1490609688
0.115234375000, -0.794433593750, 0.354736328125, -2.367187500000, 23.242187500000, 13.351562500000, 1490609688
0.115234375000, -0.794433593750, 0.354736328125, -2.367187500000, 23.242187500000, 13.351562500000, 1490609688
0.115234375000, -0.794433593750, 0.354736328125, -2.367187500000, 23.242187500000, 13.351562500000, 1490609688
0.038574218750, -0.616455078125, 0.170410156250, 7.859375000000, 60.765625000000, 17.343750000000, 1490609688
0.038574218750, -0.616455078125, 0.170410156250, 7.859375000000, 60.765625000000, 17.343750000000, 1490609688
0.038574218750, -0.616455078125, 0.170410156250, 7.859375000000, 60.765625000000, 17.343750000000, 1490609688
0.038574218750, -0.616455078125, 0.170410156250, 7.859375000000, 60.765625000000, 17.343750000000, 1490609688
-0.125488281250, -0.658447265625, 0.229492187500, 16.812500000000, 54.593750000000, 15.703125000000, 1490609688
-0.125488281250, -0.658447265625, 0.229492187500, 16.812500000000, 54.593750000000, 15.703125000000, 1490609688
-0.125488281250, -0.658447265625, 0.229492187500, 16.812500000000, 54.593750000000, 15.703125000000, 1490609688
-0.101074218750, -0.691894531250, 0.336181640625, 5.937500000000, 48.156250000000, 13.664062500000, 1490609688
-0.101074218750, -0.691894531250, 0.336181640625, 5.937500000000, 48.156250000000, 13.664062500000, 1490609688
-0.101074218750, -0.691894531250, 0.336181640625, 5.937500000000, 48.156250000000, 13.664062500000, 1490609688
-0.127441406250, -0.739013671875, 0.442138671875, 4.835937500000, 35.742187500000, 16.796875000000, 1490609688
-0.127441406250, -0.739013671875, 0.442138671875, 4.835937500000, 35.742187500000, 16.796875000000, 1490609688
-0.127441406250, -0.739013671875, 0.442138671875, 4.835937500000, 35.742187500000, 16.796875000000, 1490609688
-0.085205078125, -0.904541015625, 0.396484375000, 6.312500000000, 28.390625000000, 22.664062500000, 1490609689
-0.085205078125, -0.904541015625, 0.396484375000, 6.312500000000, 28.390625000000, 22.664062500000, 1490609689
0.005615234375, -1.115722656250, 0.407226562500, -7.148437500000, 3.078125000000, 25.515625000000, 1490609689
0.005615234375, -1.115722656250, 0.407226562500, -7.148437500000, 3.078125000000, 25.515625000000, 1490609689
0.005615234375, -1.115722656250, 0.407226562500, -7.148437500000, 3.078125000000, 25.515625000000, 1490609689
0.005615234375, -1.115722656250, 0.407226562500, -7.148437500000, 3.078125000000, 25.515625000000, 1490609689
0.005615234375, -1.115722656250, 0.407226562500, -7.148437500000, 3.078125000000, 25.515625000000, 1490609689
0.062255859375, -1.431152343750, 0.278564453125, -3.750000000000, 1.992187500000, 37.164062500000, 1490609689
0.062255859375, -1.431152343750, 0.278564453125, -3.750000000000, 1.992187500000, 37.164062500000, 1490609689
0.062255859375, -1.431152343750, 0.278564453125, -3.750000000000, 1.992187500000, 37.164062500000, 1490609689
0.350830078125, -1.253417968750, 0.240966796875, 7.414062500000, -27.820312500000, 34.296875000000, 1490609689
0.350830078125, -1.253417968750, 0.240966796875, 7.414062500000, -27.820312500000, 34.296875000000, 1490609689
0.307128906250, -1.031738281250, 0.063476562500, -37.515625000000, -2.601562500000, 48.312500000000, 1490609689
0.307128906250, -1.031738281250, 0.063476562500, -37.515625000000, -2.601562500000, 48.312500000000, 1490609689
0.307128906250, -1.031738281250, 0.063476562500, -37.515625000000, -2.601562500000, 48.312500000000, 1490609689
0.307128906250, -1.031738281250, 0.063476562500, -37.515625000000, -2.601562500000, 48.312500000000, 1490609689
0.307128906250, -1.031738281250, 0.063476562500, -37.515625000000, -2.601562500000, 48.312500000000, 1490609689
0.202148437500, -0.947509765625, 0.213623046875, 53.968750000000, 83.601562500000, -10.484375000000, 1490609689
0.202148437500, -0.947509765625, 0.213623046875, 53.968750000000, 83.601562500000, -10.484375000000, 1490609689
0.202148437500, -0.947509765625, 0.213623046875, 53.968750000000, 83.601562500000, -10.484375000000, 1490609689
-0.038818359375, -0.908691406250, 0.109375000000, 47.726562500000, 103.281250000000, -22.203125000000, 1490609689
-0.038818359375, -0.908691406250, 0.109375000000, 47.726562500000, 103.281250000000, -22.203125000000, 1490609689
-0.038818359375, -0.908691406250, 0.109375000000, 47.726562500000, 103.281250000000, -22.203125000000, 1490609689
-0.025878906250, -0.880126953125, 0.206787109375, 10.695312500000, 46.046875000000, -15.242187500000, 1490609689
-0.025878906250, -0.880126953125, 0.206787109375, 10.695312500000, 46.046875000000, -15.242187500000, 1490609689
0.168945312500, -0.837402343750, 0.169433593750, 2.265625000000, -7.984375000000, -17.781250000000, 1490609689
0.168945312500, -0.837402343750, 0.169433593750, 2.265625000000, -7.984375000000, -17.781250000000, 1490609689
0.168945312500, -0.837402343750, 0.169433593750, 2.265625000000, -7.984375000000, -17.781250000000, 1490609689
0.168945312500, -0.837402343750, 0.169433593750, 2.265625000000, -7.984375000000, -17.781250000000, 1490609689
0.168945312500, -0.837402343750, 0.169433593750, 2.265625000000, -7.984375000000, -17.781250000000, 1490609689
0.305908203125, -0.834716796875, 0.182373046875, -11.718750000000, -0.156250000000, -10.218750000000, 1490609689
0.305908203125, -0.834716796875, 0.182373046875, -11.718750000000, -0.156250000000, -10.218750000000, 1490609689
0.305908203125, -0.834716796875, 0.182373046875, -11.718750000000, -0.156250000000, -10.218750000000, 1490609689
0.312744140625, -0.966308593750, 0.151855468750, -7.117187500000, 15.507812500000, -1.960937500000, 1490609689
0.312744140625, -0.966308593750, 0.151855468750, -7.117187500000, 15.507812500000, -1.960937500000, 1490609689
0.312744140625, -0.966308593750, 0.151855468750, -7.117187500000, 15.507812500000, -1.960937500000, 1490609689
0.239501953125, -1.034912109375, 0.331787109375, 8.523437500000, 32.914062500000, -1.804687500000, 1490609689
0.239501953125, -1.034912109375, 0.331787109375, 8.523437500000, 32.914062500000, -1.804687500000, 1490609689
0.239501953125, -1.034912109375, 0.331787109375, 8.523437500000, 32.914062500000, -1.804687500000, 1490609689
0.200927734375, -1.175781250000, 0.302734375000, -70.882812500000, 9.109375000000, -0.601562500000, 1490609689
0.200927734375, -1.175781250000, 0.302734375000, -70.882812500000, 9.109375000000, -0.601562500000, 1490609689
0.200927734375, -1.175781250000, 0.302734375000, -70.882812500000, 9.109375000000, -0.601562500000, 1490609689
0.200927734375, -1.175781250000, 0.302734375000, -70.882812500000, 9.109375000000, -0.601562500000, 1490609689
-0.029785156250, -1.451904296875, 0.396972656250, -74.945312500000, 2.640625000000, -36.296875000000, 1490609689
-0.029785156250, -1.451904296875, 0.396972656250, -74.945312500000, 2.640625000000, -36.296875000000, 1490609689
-0.029785156250, -1.451904296875, 0.396972656250, -74.945312500000, 2.640625000000, -36.296875000000, 1490609689
0.075195312500, -0.746582031250, 0.204345703125, -66.765625000000, 54.796875000000, -12.726562500000, 1490609689
0.075195312500, -0.746582031250, 0.204345703125, -66.765625000000, 54.796875000000, -12.726562500000, 1490609689
0.075195312500, -0.746582031250, 0.204345703125, -66.765625000000, 54.796875000000, -12.726562500000, 1490609689
-0.072509765625, -0.604492187500, 0.067626953125, -61.921875000000, 39.156250000000, -10.031250000000, 1490609689
-0.072509765625, -0.604492187500, 0.067626953125, -61.921875000000, 39.156250000000, -10.031250000000, 1490609689
0.416015625000, -0.851318359375, 0.343750000000, 47.492187500000, 95.414062500000, 13.484375000000, 1490609689
0.416015625000, -0.851318359375, 0.343750000000, 47.492187500000, 95.414062500000, 13.484375000000, 1490609689
0.416015625000, -0.851318359375, 0.343750000000, 47.492187500000, 95.414062500000, 13.484375000000, 1490609689
0.416015625000, -0.851318359375, 0.343750000000, 47.492187500000, 95.414062500000, 13.484375000000, 1490609689
0.654296875000, -1.093261718750, 0.132812500000, -43.867187500000, 118.320312500000, 71.851562500000, 1490609689
0.654296875000, -1.093261718750, 0.132812500000, -43.867187500000, 118.320312500000, 71.851562500000, 1490609689
0.654296875000, -1.093261718750, 0.132812500000, -43.867187500000, 118.320312500000, 71.851562500000, 1490609689
0.654296875000, -1.093261718750, 0.132812500000, -43.867187500000, 118.320312500000, 71.851562500000, 1490609689
0.264160156250, -0.859619140625, 0.039306640625, -20.867187500000, 155.960937500000, 98.218750000000, 1490609689
0.264160156250, -0.859619140625, 0.039306640625, -20.867187500000, 155.960937500000, 98.218750000000, 1490609689
0.264160156250, -0.859619140625, 0.039306640625, -20.867187500000, 155.960937500000, 98.218750000000, 1490609689
-0.019775390625, -0.979003906250, -0.005371093750, 2.578125000000, 159.835937500000, 98.476562500000, 1490609689
-0.019775390625, -0.979003906250, -0.005371093750, 2.578125000000, 159.835937500000, 98.476562500000, 1490609689
-0.157714843750, -0.968017578125, 0.065917968750, 74.640625000000, 194.164062500000, 38.835937500000, 1490609690
-0.157714843750, -0.968017578125, 0.065917968750, 74.640625000000, 194.164062500000, 38.835937500000, 1490609690
-0.157714843750, -0.968017578125, 0.065917968750, 74.640625000000, 194.164062500000, 38.835937500000, 1490609690
-0.157714843750, -0.968017578125, 0.065917968750, 74.640625000000, 194.164062500000, 38.835937500000, 1490609690
0.018798828125, -1.036621093750, 0.397216796875, 141.468750000000, 207.875000000000, 21.960937500000, 1490609690
0.018798828125, -1.036621093750, 0.397216796875, 141.468750000000, 207.875000000000, 21.960937500000, 1490609690
0.018798828125, -1.036621093750, 0.397216796875, 141.468750000000, 207.875000000000, 21.960937500000, 1490609690
0.018798828125, -1.036621093750, 0.397216796875, 141.468750000000, 207.875000000000, 21.960937500000, 1490609690
0.045898437500, -0.935058593750, 0.338378906250, -15.179687500000, 94.750000000000, 25.523437500000, 1490609690
0.045898437500, -0.935058593750, 0.338378906250, -15.179687500000, 94.750000000000, 25.523437500000, 1490609690
0.045898437500, -0.935058593750, 0.338378906250, -15.179687500000, 94.750000000000, 25.523437500000, 1490609690
0.074707031250, -1.014892578125, 0.112548828125, 21.265625000000, 84.453125000000, 22.968750000000, 1490609690
0.074707031250, -1.014892578125, 0.112548828125, 21.265625000000, 84.453125000000, 22.968750000000, 1490609690
0.074707031250, -1.014892578125, 0.112548828125, 21.265625000000, 84.453125000000, 22.968750000000, 1490609690
-0.019287109375, -0.917724609375, 0.385742187500, 1.718750000000, 54.343750000000, 15.085937500000, 1490609690
-0.019287109375, -0.917724609375, 0.385742187500, 1.718750000000, 54.343750000000, 15.085937500000, 1490609690
-0.019287109375, -0.917724609375, 0.385742187500, 1.718750000000, 54.343750000000, 15.085937500000, 1490609690
-0.019287109375, -0.917724609375, 0.385742187500, 1.718750000000, 54.343750000000, 15.085937500000, 1490609690
-0.000000000000, -0.899902343750, 0.178710937500, -10.117187500000, 55.351562500000, 13.125000000000, 1490609690
-0.000000000000, -0.899902343750, 0.178710937500, -10.117187500000, 55.351562500000, 13.125000000000, 1490609690
-0.000000000000, -0.899902343750, 0.178710937500, -10.117187500000, 55.351562500000, 13.125000000000, 1490609690
0.102783203125, -1.119873046875, 0.264160156250, -11.093750000000, 78.468750000000, 29.328125000000, 1490609690
0.102783203125, -1.119873046875, 0.264160156250, -11.093750000000, 78.468750000000, 29.328125000000, 1490609690
0.102783203125, -1.119873046875, 0.264160156250, -11.093750000000, 78.468750000000, 29.328125000000, 1490609690
0.480224609375, -1.345458984375, 0.110107421875, -13.453125000000, 101.093750000000, 47.304687500000, 1490609690
0.480224609375, -1.345458984375, 0.110107421875, -13.453125000000, 101.093750000000, 47.304687500000, 1490609690
0.480224609375, -1.345458984375, 0.110107421875, -13.453125000000, 101.093750000000, 47.304687500000, 1490609690
0.625732421875, -1.233398437500, -0.037353515625, -21.710937500000, 68.523437500000, 57.898437500000, 1490609690
0.625732421875, -1.233398437500, -0.037353515625, -21.710937500000, 68.523437500000, 57.898437500000, 1490609690
0.076416015625, -1.113525390625, 0.132080078125, 36.101562500000, 72.828125000000, 8.875000000000, 1490609690
0.076416015625, -1.113525390625, 0.132080078125, 36.101562500000, 72.828125000000, 8.875000000000, 1490609690
0.076416015625, -1.113525390625, 0.132080078125, 36.101562500000, 72.828125000000, 8.875000000000, 1490609690
0.076416015625, -1.113525390625, 0.132080078125, 36.101562500000, 72.828125000000, 8.875000000000, 1490609690
0.322509765625, -0.723632812500, 0.330566406250, 110.195312500000, 125.171875000000, -16.382812500000, 1490609690
0.322509765625, -0.723632812500, 0.330566406250, 110.195312500000, 125.171875000000, -16.382812500000, 1490609690
0.322509765625, -0.723632812500, 0.330566406250, 110.195312500000, 125.171875000000, -16.382812500000, 1490609690
0.322509765625, -0.723632812500, 0.330566406250, 110.195312500000, 125.171875000000, -16.382812500000, 1490609690
0.411621093750, -0.800781250000, 0.094970703125, 18.265625000000, 86.304687500000, 1.179687500000, 1490609690
0.411621093750, -0.800781250000, 0.094970703125, 18.265625000000, 86.304687500000, 1.179687500000, 1490609690
0.411621093750, -0.800781250000, 0.094970703125, 18.265625000000, 86.304687500000, 1.179687500000, 1490609690
0.240478515625, -0.776367187500, 0.121582031250, 16.867187500000, 76.117187500000, -1.882812500000, 1490609690
0.240478515625, -0.776367187500, 0.121582031250, 16.867187500000, 76.117187500000, -1.882812500000, 1490609690
0.240478515625, -0.776367187500, 0.121582031250, 16.867187500000, 76.117187500000, -1.882812500000, 1490609690
0.240478515625, -0.776367187500, 0.121582031250, 16.867187500000, 76.117187500000, -1.882812500000, 1490609690
0.379638671875, -1.012207031250, 0.261962890625, 30.585937500000, 127.898437500000, 0.578125000000, 1490609690
0.379638671875, -1.012207031250, 0.261962890625, 30.585937500000, 127.898437500000, 0.578125000000, 1490609690
0.379638671875, -1.012207031250, 0.261962890625, 30.585937500000, 127.898437500000, 0.578125000000, 1490609690
0.309814453125, -0.940429687500, 0.203613281250, -23.679687500000, 107.546875000000, 6.875000000000, 1490609690
0.309814453125, -0.940429687500, 0.203613281250, -23.679687500000, 107.546875000000, 6.875000000000, 1490609690
0.238769531250, -1.061523437500, 0.025634765625, -79.835937500000, 82.945312500000, 18.820312500000, 1490609690
0.238769531250, -1.061523437500, 0.025634765625, -79.835937500000, 82.945312500000, 18.820312500000, 1490609690
0.238769531250, -1.061523437500, 0.025634765625, -79.835937500000, 82.945312500000, 18.820312500000, 1490609690
0.238769531250, -1.061523437500, 0.025634765625, -79.835937500000, 82.945312500000, 18.820312500000, 1490609690
0.049560546875, -1.256103515625, 0.514892578125, 20.437500000000, 98.484375000000, -37.945312500000, 1490609690
0.049560546875, -1.256103515625, 0.514892578125, 20.437500000000, 98.484375000000, -37.945312500000, 1490609690
0.049560546875, -1.256103515625, 0.514892578125, 20.437500000000, 98.484375000000, -37.945312500000, 1490609690
0.049560546875, -1.256103515625, 0.514892578125, 20.437500000000, 98.484375000000, -37.945312500000, 1490609690
-0.101074218750, -1.269775390625, 0.058349609375, -80.781250000000, 53.343750000000, -6.101562500000, 1490609690
-0.101074218750, -1.269775390625, 0.058349609375, -80.781250000000, 53.343750000000, -6.101562500000, 1490609690
-0.101074218750, -1.269775390625, 0.058349609375, -80.781250000000, 53.343750000000, -6.101562500000, 1490609690
-0.051269531250, -1.346923828125, 0.193359375000, 5.796875000000, 91.390625000000, -32.453125000000, 1490609690
-0.051269531250, -1.346923828125, 0.193359375000, 5.796875000000, 91.390625000000, -32.453125000000, 1490609690
-0.051269531250, -1.346923828125, 0.193359375000, 5.796875000000, 91.390625000000, -32.453125000000, 1490609690
0.449218750000, -1.084960937500, 0.330566406250, 55.828125000000, 96.078125000000, -6.570312500000, 1490609690
0.449218750000, -1.084960937500, 0.330566406250, 55.828125000000, 96.078125000000, -6.570312500000, 1490609690
0.449218750000, -1.084960937500, 0.330566406250, 55.828125000000, 96.078125000000, -6.570312500000, 1490609690
0.325195312500, -0.760986328125, 0.260498046875, -18.320312500000, 53.484375000000, 24.484375000000, 1490609690
0.325195312500, -0.760986328125, 0.260498046875, -18.320312500000, 53.484375000000, 24.484375000000, 1490609690
0.325195312500, -0.760986328125, 0.260498046875, -18.320312500000, 53.484375000000, 24.484375000000, 1490609690
0.325195312500, -0.760986328125, 0.260498046875, -18.320312500000, 53.484375000000, 24.484375000000, 1490609691
-0.017333984375, -0.652832031250, 0.125976562500, 25.398437500000, 85.179687500000, 23.593750000000, 1490609691
-0.017333984375, -0.652832031250, 0.125976562500, 25.398437500000, 85.179687500000, 23.593750000000, 1490609691
-0.017333984375, -0.652832031250, 0.125976562500, 25.398437500000, 85.179687500000, 23.593750000000, 1490609691
0.030029296875, -0.671386718750, 0.152343750000, 34.656250000000, 86.335937500000, 13.835937500000, 1490609691
0.030029296875, -0.671386718750, 0.152343750000, 34.656250000000, 86.335937500000, 13.835937500000, 1490609691
0.030029296875, -0.671386718750, 0.152343750000, 34.656250000000, 86.335937500000, 13.835937500000, 1490609691
0.070312500000, -0.642333984375, 0.087402343750, 27.492187500000, 93.507812500000, 8.765625000000, 1490609691
0.070312500000, -0.642333984375, 0.087402343750, 27.492187500000, 93.507812500000, 8.765625000000, 1490609691
0.070312500000, -0.642333984375, 0.087402343750, 27.492187500000, 93.507812500000, 8.765625000000, 1490609691
-0.071044921875, -1.018798828125, 0.330078125000, 18.648437500000, 86.445312500000, 1.773437500000, 1490609691
-0.071044921875, -1.018798828125, 0.330078125000, 18.648437500000, 86.445312500000, 1.773437500000, 1490609691
-0.071044921875, -1.018798828125, 0.330078125000, 18.648437500000, 86.445312500000, 1.773437500000, 1490609691
-0.071044921875, -1.018798828125, 0.330078125000, 18.648437500000, 86.445312500000, 1.773437500000, 1490609691
-0.218017578125, -1.120361328125, 0.318115234375, -11.859375000000, 80.804687500000, 1.828125000000, 1490609691
-0.218017578125, -1.120361328125, 0.318115234375, -11.859375000000, 80.804687500000, 1.828125000000, 1490609691
-0.218017578125, -1.120361328125, 0.318115234375, -11.859375000000, 80.804687500000, 1.828125000000, 1490609691
-0.036376953125, -1.279785156250, 0.313476562500, -10.773437500000, 46.437500000000, 6.734375000000, 1490609691
-0.036376953125, -1.279785156250, 0.313476562500, -10.773437500000, 46.437500000000, 6.734375000000, 1490609691
-0.036376953125, -1.279785156250, 0.313476562500, -10.773437500000, 46.437500000000, 6.734375000000, 1490609691
-0.095458984375, -1.361816406250, 0.455566406250, -53.851562500000, 57.382812500000, 27.945312500000, 1490609691
-0.095458984375, -1.361816406250, 0.455566406250, -53.851562500000, 57.382812500000, 27.945312500000, 1490609691
-0.095458984375, -1.361816406250, 0.455566406250, -53.851562500000, 57.382812500000, 27.945312500000, 1490609691
0.225585937500, -1.167724609375, 0.280029296875, -53.656250000000, -0.382812500000, 44.328125000000, 1490609691
0.225585937500, -1.167724609375, 0.280029296875, -53.656250000000, -0.382812500000, 44.328125000000, 1490609691
0.225585937500, -1.167724609375, 0.280029296875, -53.656250000000, -0.382812500000, 44.328125000000, 1490609691
0.225585937500, -1.167724609375, 0.280029296875, -53.656250000000, -0.382812500000, 44.328125000000, 1490609691
0.364990234375, -0.837890625000, -0.081787109375, -100.843750000000, 4.476562500000, 51.679687500000, 1490609691
0.364990234375, -0.837890625000, -0.081787109375, -100.843750000000, 4.476562500000, 51.679687500000, 1490609691
0.364990234375, -0.837890625000, -0.081787109375, -100.843750000000, 4.476562500000, 51.679687500000, 1490609691
0.571777343750, -1.149902343750, 0.054687500000, -26.929687500000, -28.296875000000, 52.140625000000, 1490609691
0.571777343750, -1.149902343750, 0.054687500000, -26.929687500000, -28.296875000000, 52.140625000000, 1490609691
0.571777343750, -1.149902343750, 0.054687500000, -26.929687500000, -28.296875000000, 52.140625000000, 1490609691
0.289062500000, -0.977050781250, 0.260986328125, 125.273437500000, 187.476562500000, 8.476562500000, 1490609691
0.289062500000, -0.977050781250, 0.260986328125, 125.273437500000, 187.476562500000, 8.476562500000, 1490609691
0.289062500000, -0.977050781250, 0.260986328125, 125.273437500000, 187.476562500000, 8.476562500000, 1490609691
0.026855468750, -1.077880859375, 0.353759765625, 4.671875000000, 58.726562500000, -5.757812500000, 1490609691
0.026855468750, -1.077880859375, 0.353759765625, 4.671875000000, 58.726562500000, -5.757812500000, 1490609691
0.026855468750, -1.077880859375, 0.353759765625, 4.671875000000, 58.726562500000, -5.757812500000, 1490609691
0.068603515625, -0.781982421875, 0.154052734375, -13.507812500000, 22.250000000000, -12.234375000000, 1490609691
0.068603515625, -0.781982421875, 0.154052734375, -13.507812500000, 22.250000000000, -12.234375000000, 1490609691
0.068603515625, -0.781982421875, 0.154052734375, -13.507812500000, 22.250000000000, -12.234375000000, 1490609691
0.068603515625, -0.781982421875, 0.154052734375, -13.507812500000, 22.250000000000, -12.234375000000, 1490609691
0.052490234375, -0.776367187500, 0.185791015625, 16.859375000000, -22.226562500000, -12.437500000000, 1490609691
0.052490234375, -0.776367187500, 0.185791015625, 16.859375000000, -22.226562500000, -12.437500000000, 1490609691
0.052490234375, -0.776367187500, 0.185791015625, 16.859375000000, -22.226562500000, -12.437500000000, 1490609691
0.094726562500, -0.597412109375, 0.221679687500, -6.335937500000, -34.968750000000, -12.562500000000, 1490609691
0.094726562500, -0.597412109375, 0.221679687500, -6.335937500000, -34.968750000000, -12.562500000000, 1490609691
0.094726562500, -0.597412109375, 0.221679687500, -6.335937500000, -34.968750000000, -12.562500000000, 1490609691
-0.018066406250, -0.719970703125, 0.196533203125, -5.320312500000, -30.015625000000, -17.968750000000, 1490609691
-0.018066406250, -0.719970703125, 0.196533203125, -5.320312500000, -30.015625000000, -17.968750000000, 1490609691
-0.018066406250, -0.719970703125, 0.196533203125, -5.320312500000, -30.015625000000, -17.968750000000, 1490609691
-0.018066406250, -0.719970703125, 0.196533203125, -5.320312500000, -30.015625000000, -17.968750000000, 1490609691
0.178466796875, -0.869140625000, 0.302001953125, -13.914062500000, -40.273437500000, -26.835937500000, 1490609691
0.178466796875, -0.869140625000, 0.302001953125, -13.914062500000, -40.273437500000, -26.835937500000, 1490609691
0.178466796875, -0.869140625000, 0.302001953125, -13.914062500000, -40.273437500000, -26.835937500000, 1490609691
0.193603515625, -1.133789062500, 0.356689453125, -30.023437500000, -26.976562500000, -19.054687500000, 1490609691
0.193603515625, -1.133789062500, 0.356689453125, -30.023437500000, -26.976562500000, -19.054687500000, 1490609691
0.193603515625, -1.133789062500, 0.356689453125, -30.023437500000, -26.976562500000, -19.054687500000, 1490609691
-0.069091796875, -1.615966796875, 0.648681640625, -19.101562500000, -5.289062500000, -34.625000000000, 1490609691
-0.069091796875, -1.615966796875, 0.648681640625, -19.101562500000, -5.289062500000, -34.625000000000, 1490609691
-0.069091796875, -1.615966796875, 0.648681640625, -19.101562500000, -5.289062500000, -34.625000000000, 1490609691
-0.118408203125, -1.114990234375, 0.289550781250, -69.078125000000, -32.125000000000, -30.695312500000, 1490609691
-0.118408203125, -1.114990234375, 0.289550781250, -69.078125000000, -32.125000000000, -30.695312500000, 1490609691
-0.118408203125, -1.114990234375, 0.289550781250, -69.078125000000, -32.125000000000, -30.695312500000, 1490609691
-0.118408203125, -1.114990234375, 0.289550781250, -69.078125000000, -32.125000000000, -30.695312500000, 1490609691
-0.248046875000, -0.731689453125, 0.135009765625, -26.632812500000, -47.242187500000, -36.570312500000, 1490609692
-0.248046875000, -0.731689453125, 0.135009765625, -26.632812500000, -47.242187500000, -36.570312500000, 1490609692
-0.248046875000, -0.731689453125, 0.135009765625, -26.632812500000, -47.242187500000, -36.570312500000, 1490609692
0.209716796875, -0.742919921875, 0.209960937500, 15.343750000000, -49.585937500000, -24.320312500000, 1490609692
0.209716796875, -0.742919921875, 0.209960937500, 15.343750000000, -49.585937500000, -24.320312500000, 1490609692
0.209716796875, -0.742919921875, 0.209960937500, 15.343750000000, -49.585937500000, -24.320312500000, 1490609692
0.165039062500, -1.068359375000, 0.115478515625, 19.664062500000, -49.843750000000, 1.148437500000, 1490609692
0.165039062500, -1.068359375000, 0.115478515625, 19.664062500000, -49.843750000000, 1.148437500000, 1490609692
0.165039062500, -1.068359375000, 0.115478515625, 19.664062500000, -49.843750000000, 1.148437500000, 1490609692
0.186035156250, -0.852539062500, 0.388671875000, 23.375000000000, 25.015625000000, 20.273437500000, 1490609692
0.186035156250, -0.852539062500, 0.388671875000, 23.375000000000, 25.015625000000, 20.273437500000, 1490609692
0.186035156250, -0.852539062500, 0.388671875000, 23.375000000000, 25.015625000000, 20.273437500000, 1490609692
0.186035156250, -0.852539062500, 0.388671875000, 23.375000000000, 25.015625000000, 20.273437500000, 1490609692
0.117187500000, -0.765380859375, 0.259033203125, 1.734375000000, 31.343750000000, 21.765625000000, 1490609692
0.117187500000, -0.765380859375, 0.259033203125, 1.734375000000, 31.343750000000, 21.765625000000, 1490609692
0.002685546875, -0.609863281250, 0.324707031250, 31.539062500000, 67.210937500000, 17.187500000000, 1490609692
0.002685546875, -0.609863281250, 0.324707031250, 31.539062500000, 67.210937500000, 17.187500000000, 1490609692
0.002685546875, -0.609863281250, 0.324707031250, 31.539062500000, 67.210937500000, 17.187500000000, 1490609692
0.002685546875, -0.609863281250, 0.324707031250, 31.539062500000, 67.210937500000, 17.187500000000, 1490609692
-0.034423828125, -0.729980468750, 0.335693359375, 7.937500000000, 56.265625000000, 17.656250000000, 1490609692
-0.034423828125, -0.729980468750, 0.335693359375, 7.937500000000, 56.265625000000, 17.656250000000, 1490609692
-0.034423828125, -0.729980468750, 0.335693359375, 7.937500000000, 56.265625000000, 17.656250000000, 1490609692
-0.050292968750, -0.794677734375, 0.333496093750, -4.539062500000, 51.617187500000, 15.796875000000, 1490609692
-0.050292968750, -0.794677734375, 0.333496093750, -4.539062500000, 51.617187500000, 15.796875000000, 1490609692
-0.050292968750, -0.794677734375, 0.333496093750, -4.539062500000, 51.617187500000, 15.796875000000, 1490609692
-0.050292968750, -0.794677734375, 0.333496093750, -4.539062500000, 51.617187500000, 15.796875000000, 1490609692
-0.150878906250, -0.991699218750, 0.399414062500, -4.648437500000, 21.273437500000, 17.367187500000, 1490609692
-0.150878906250, -0.991699218750, 0.399414062500, -4.648437500000, 21.273437500000, 17.367187500000, 1490609692
-0.150878906250, -0.991699218750, 0.399414062500, -4.648437500000, 21.273437500000, 17.367187500000, 1490609692
-0.106689453125, -1.169433593750, 0.311523437500, -8.593750000000, -0.851562500000, 19.078125000000, 1490609692
-0.106689453125, -1.169433593750, 0.311523437500, -8.593750000000, -0.851562500000, 19.078125000000, 1490609692
-0.106689453125, -1.169433593750, 0.311523437500, -8.593750000000, -0.851562500000, 19.078125000000, 1490609692
0.252197265625, -1.535156250000, 0.636230468750, -18.726562500000, 13.578125000000, 23.031250000000, 1490609692
0.252197265625, -1.535156250000, 0.636230468750, -18.726562500000, 13.578125000000, 23.031250000000, 1490609692
0.437500000000, -1.001708984375, 0.084228515625, -40.968750000000, 0.007812500000, 35.093750000000, 1490609692
0.437500000000, -1.001708984375, 0.084228515625, -40.968750000000, 0.007812500000, 35.093750000000, 1490609692
0.437500000000, -1.001708984375, 0.084228515625, -40.968750000000, 0.007812500000, 35.093750000000, 1490609692
0.437500000000, -1.001708984375, 0.084228515625, -40.968750000000, 0.007812500000, 35.093750000000, 1490609692
0.437500000000, -1.001708984375, 0.084228515625, -40.968750000000, 0.007812500000, 35.093750000000, 1490609692
0.452392578125, -0.781738281250, 0.019775390625, -31.984375000000, 8.320312500000, 52.335937500000, 1490609692
0.452392578125, -0.781738281250, 0.019775390625, -31.984375000000, 8.320312500000, 52.335937500000, 1490609692
0.452392578125, -0.781738281250, 0.019775390625, -31.984375000000, 8.320312500000, 52.335937500000, 1490609692
0.206298828125, -0.934814453125, 0.139404296875, -4.046875000000, -9.671875000000, 32.773437500000, 1490609692
0.206298828125, -0.934814453125, 0.139404296875, -4.046875000000, -9.671875000000, 32.773437500000, 1490609692
-0.002685546875, -1.071044921875, 0.268554687500, 24.492187500000, 63.437500000000, -22.867187500000, 1490609692
-0.002685546875, -1.071044921875, 0.268554687500, 24.492187500000, 63.437500000000, -22.867187500000, 1490609692
-0.002685546875, -1.071044921875, 0.268554687500, 24.492187500000, 63.437500000000, -22.867187500000, 1490609692
-0.003173828125, -1.089599609375, 0.178710937500, -4.828125000000, 19.039062500000, -23.835937500000, 1490609692
0.100341796875, -0.895507812500, 0.094482421875, 6.296875000000, 11.484375000000, -36.406250000000, 1490609692
0.100341796875, -0.895507812500, 0.094482421875, 6.296875000000, 11.484375000000, -36.406250000000, 1490609692
0.100341796875, -0.895507812500, 0.094482421875, 6.296875000000, 11.484375000000, -36.406250000000, 1490609692
0.100341796875, -0.895507812500, 0.094482421875, 6.296875000000, 11.484375000000, -36.406250000000, 1490609692
0.243652343750, -0.763183593750, 0.264892578125, 3.882812500000, 3.203125000000, -31.820312500000, 1490609692
0.243652343750, -0.763183593750, 0.264892578125, 3.882812500000, 3.203125000000, -31.820312500000, 1490609692
0.243652343750, -0.763183593750, 0.264892578125, 3.882812500000, 3.203125000000, -31.820312500000, 1490609692
0.200927734375, -0.667480468750, 0.177978515625, -8.828125000000, -6.242187500000, -28.148437500000, 1490609692
0.200927734375, -0.667480468750, 0.177978515625, -8.828125000000, -6.242187500000, -28.148437500000, 1490609692
0.171142578125, -0.728027343750, 0.312744140625, 1.882812500000, -4.062500000000, -19.976562500000, 1490609692
0.171142578125, -0.728027343750, 0.312744140625, 1.882812500000, -4.062500000000, -19.976562500000, 1490609692
0.171142578125, -0.728027343750, 0.312744140625, 1.882812500000, -4.062500000000, -19.976562500000, 1490609692
0.171142578125, -0.728027343750, 0.312744140625, 1.882812500000, -4.062500000000, -19.976562500000, 1490609692
0.191650390625, -0.989013671875, 0.248291015625, -14.414062500000, -25.445312500000, -24.804687500000, 1490609692
0.191650390625, -0.989013671875, 0.248291015625, -14.414062500000, -25.445312500000, -24.804687500000, 1490609692
0.191650390625, -0.989013671875, 0.248291015625, -14.414062500000, -25.445312500000, -24.804687500000, 1490609692
0.191650390625, -0.989013671875, 0.248291015625, -14.414062500000, -25.445312500000, -24.804687500000, 1490609692
0.233154296875, -1.252685546875, 0.361083984375, -29.140625000000, 1.351562500000, -13.781250000000, 1490609692
0.233154296875, -1.252685546875, 0.361083984375, -29.140625000000, 1.351562500000, -13.781250000000, 1490609692
0.233154296875, -1.252685546875, 0.361083984375, -29.140625000000, 1.351562500000, -13.781250000000, 1490609692
0.219726562500, -1.771728515625, 0.483642578125, -38.289062500000, 27.171875000000, -6.000000000000, 1490609693
0.219726562500, -1.771728515625, 0.483642578125, -38.289062500000, 27.171875000000, -6.000000000000, 1490609693
0.219726562500, -1.771728515625, 0.483642578125, -38.289062500000, 27.171875000000, -6.000000000000, 1490609693
0.095458984375, -1.300292968750, 0.287841796875, -46.695312500000, 37.406250000000, -7.328125000000, 1490609693
0.095458984375, -1.300292968750, 0.287841796875, -46.695312500000, 37.406250000000, -7.328125000000, 1490609693
0.095458984375, -1.300292968750, 0.287841796875, -46.695312500000, 37.406250000000, -7.328125000000, 1490609693
-0.227294921875, -0.879394531250, -0.000976562500, -30.765625000000, 5.898437500000, -5.828125000000, 1490609693
-0.227294921875, -0.879394531250, -0.000976562500, -30.765625000000, 5.898437500000, -5.828125000000, 1490609693
-0.227294921875, -0.879394531250, -0.000976562500, -30.765625000000, 5.898437500000, -5.828125000000, 1490609693
0.098632812500, -0.916015625000, 0.375976562500, 9.648437500000, 32.773437500000, -8.796875000000, 1490609693
0.098632812500, -0.916015625000, 0.375976562500, 9.648437500000, 32.773437500000, -8.796875000000, 1490609693
0.098632812500, -0.916015625000, 0.375976562500, 9.648437500000, 32.773437500000, -8.796875000000, 1490609693
0.098632812500, -0.916015625000, 0.375976562500, 9.648437500000, 32.773437500000, -8.796875000000, 1490609693
0.334228515625, -0.809082031250, 0.125488281250, -24.835937500000, 22.234375000000, 14.437500000000, 1490609693
0.334228515625, -0.809082031250, 0.125488281250, -24.835937500000, 22.234375000000, 14.437500000000, 1490609693
0.334228515625, -0.809082031250, 0.125488281250, -24.835937500000, 22.234375000000, 14.437500000000, 1490609693
0.258544921875, -0.808837890625, 0.108642578125, 28.250000000000, 61.093750000000, 30.289062500000, 1490609693
0.258544921875, -0.808837890625, 0.108642578125, 28.250000000000, 61.093750000000, 30.289062500000, 1490609693
0.258544921875, -0.808837890625, 0.108642578125, 28.250000000000, 61.093750000000, 30.289062500000, 1490609693
0.118652343750, -0.730468750000, 0.221435546875, -1.359375000000, 94.859375000000, 40.687500000000, 1490609693
0.118652343750, -0.730468750000, 0.221435546875, -1.359375000000, 94.859375000000, 40.687500000000, 1490609693
0.118652343750, -0.730468750000, 0.221435546875, -1.359375000000, 94.859375000000, 40.687500000000, 1490609693
0.118652343750, -0.730468750000, 0.221435546875, -1.359375000000, 94.859375000000, 40.687500000000, 1490609693
0.062255859375, -0.819580078125, 0.126464843750, 17.882812500000, 107.203125000000, 34.070312500000, 1490609693
0.062255859375, -0.819580078125, 0.126464843750, 17.882812500000, 107.203125000000, 34.070312500000, 1490609693
0.062255859375, -0.819580078125, 0.126464843750, 17.882812500000, 107.203125000000, 34.070312500000, 1490609693
-0.008544921875, -0.864990234375, 0.302490234375, 39.179687500000, 105.929687500000, 21.703125000000, 1490609693
-0.008544921875, -0.864990234375, 0.302490234375, 39.179687500000, 105.929687500000, 21.703125000000, 1490609693
-0.008544921875, -0.864990234375, 0.302490234375, 39.179687500000, 105.929687500000, 21.703125000000, 1490609693
-0.052001953125, -0.856445312500, 0.240478515625, 9.687500000000, 86.195312500000, 13.914062500000, 1490609693
-0.052001953125, -0.856445312500, 0.240478515625, 9.687500000000, 86.195312500000, 13.914062500000, 1490609693
-0.052001953125, -0.856445312500, 0.240478515625, 9.687500000000, 86.195312500000, 13.914062500000, 1490609693
-0.002441406250, -1.047363281250, 0.437988281250, 4.078125000000, 61.937500000000, 15.929687500000, 1490609693
-0.002441406250, -1.047363281250, 0.437988281250, 4.078125000000, 61.937500000000, 15.929687500000, 1490609693
-0.002441406250, -1.047363281250, 0.437988281250, 4.078125000000, 61.937500000000, 15.929687500000, 1490609693
-0.002441406250, -1.047363281250, 0.437988281250, 4.078125000000, 61.937500000000, 15.929687500000, 1490609693
0.037109375000, -0.993408203125, 0.298095703125, -9.921875000000, 30.125000000000, 17.789062500000, 1490609693
0.037109375000, -0.993408203125, 0.298095703125, -9.921875000000, 30.125000000000, 17.789062500000, 1490609693
0.037109375000, -0.993408203125, 0.298095703125, -9.921875000000, 30.125000000000, 17.789062500000, 1490609693
0.290039062500, -1.374755859375, 0.416503906250, -27.875000000000, 30.320312500000, 25.054687500000, 1490609693
0.290039062500, -1.374755859375, 0.416503906250, -27.875000000000, 30.320312500000, 25.054687500000, 1490609693
0.290039062500, -1.374755859375, 0.416503906250, -27.875000000000, 30.320312500000, 25.054687500000, 1490609693
0.572265625000, -1.132080078125, 0.014404296875, -29.851562500000, 14.898437500000, 34.429687500000, 1490609693
0.572265625000, -1.132080078125, 0.014404296875, -29.851562500000, 14.898437500000, 34.429687500000, 1490609693
0.572265625000, -1.132080078125, 0.014404296875, -29.851562500000, 14.898437500000, 34.429687500000, 1490609693
0.566162109375, -0.891601562500, 0.021728515625, -8.312500000000, 59.710937500000, 52.789062500000, 1490609693
0.566162109375, -0.891601562500, 0.021728515625, -8.312500000000, 59.710937500000, 52.789062500000, 1490609693
0.566162109375, -0.891601562500, 0.021728515625, -8.312500000000, 59.710937500000, 52.789062500000, 1490609693
0.566162109375, -0.891601562500, 0.021728515625, -8.312500000000, 59.710937500000, 52.789062500000, 1490609693
0.118896484375, -1.086669921875, -0.005859375000, 69.359375000000, 132.976562500000, 10.468750000000, 1490609693
0.118896484375, -1.086669921875, -0.005859375000, 69.359375000000, 132.976562500000, 10.468750000000, 1490609693
0.118896484375, -1.086669921875, -0.005859375000, 69.359375000000, 132.976562500000, 10.468750000000, 1490609693
0.275390625000, -0.959716796875, 0.164794921875, 45.960937500000, 152.984375000000, -2.484375000000, 1490609693
0.275390625000, -0.959716796875, 0.164794921875, 45.960937500000, 152.984375000000, -2.484375000000, 1490609693
0.275390625000, -0.959716796875, 0.164794921875, 45.960937500000, 152.984375000000, -2.484375000000, 1490609693
0.326416015625, -0.909912109375, 0.094482421875, 6.890625000000, 99.468750000000, 12.875000000000, 1490609693
0.326416015625, -0.909912109375, 0.094482421875, 6.890625000000, 99.468750000000, 12.875000000000, 1490609693
0.326416015625, -0.909912109375, 0.094482421875, 6.890625000000, 99.468750000000, 12.875000000000, 1490609693
0.321044921875, -0.746337890625, 0.043212890625, 18.976562500000, 85.468750000000, 13.679687500000, 1490609693
0.321044921875, -0.746337890625, 0.043212890625, 18.976562500000, 85.468750000000, 13.679687500000, 1490609693
0.321044921875, -0.746337890625, 0.043212890625, 18.976562500000, 85.468750000000, 13.679687500000, 1490609693
0.321044921875, -0.746337890625, 0.043212890625, 18.976562500000, 85.468750000000, 13.679687500000, 1490609693
0.313720703125, -0.909179687500, 0.238037109375, 17.289062500000, 83.671875000000, 7.398437500000, 1490609693
0.313720703125, -0.909179687500, 0.238037109375, 17.289062500000, 83.671875000000, 7.398437500000, 1490609693
0.313720703125, -0.909179687500, 0.238037109375, 17.289062500000, 83.671875000000, 7.398437500000, 1490609693
0.320556640625, -0.815917968750, 0.173583984375, -1.460937500000, 76.781250000000, 11.843750000000, 1490609694
0.320556640625, -0.815917968750, 0.173583984375, -1.460937500000, 76.781250000000, 11.843750000000, 1490609694
0.164550781250, -0.913818359375, 0.131103515625, -23.250000000000, 30.695312500000, 3.968750000000, 1490609694
0.164550781250, -0.913818359375, 0.131103515625, -23.250000000000, 30.695312500000, 3.968750000000, 1490609694
0.164550781250, -0.913818359375, 0.131103515625, -23.250000000000, 30.695312500000, 3.968750000000, 1490609694
0.164550781250, -0.913818359375, 0.131103515625, -23.250000000000, 30.695312500000, 3.968750000000, 1490609694
0.094238281250, -1.416259765625, 0.483154296875, -50.445312500000, 48.164062500000, -34.148437500000, 1490609694
0.027587890625, -1.099853515625, 0.032714843750, -79.726562500000, 21.218750000000, -13.984375000000, 1490609694
0.027587890625, -1.099853515625, 0.032714843750, -79.726562500000, 21.218750000000, -13.984375000000, 1490609694
0.027587890625, -1.099853515625, 0.032714843750, -79.726562500000, 21.218750000000, -13.984375000000, 1490609694
0.150390625000, -0.894775390625, 0.036376953125, -52.070312500000, 64.203125000000, -5.875000000000, 1490609694
0.150390625000, -0.894775390625, 0.036376953125, -52.070312500000, 64.203125000000, -5.875000000000, 1490609694
0.150390625000, -0.894775390625, 0.036376953125, -52.070312500000, 64.203125000000, -5.875000000000, 1490609694
0.150390625000, -0.894775390625, 0.036376953125, -52.070312500000, 64.203125000000, -5.875000000000, 1490609694
0.150390625000, -0.894775390625, 0.036376953125, -52.070312500000, 64.203125000000, -5.875000000000, 1490609694
-0.143798828125, -0.932861328125, 0.045410156250, 11.054687500000, 83.312500000000, -7.156250000000, 1490609694
-0.143798828125, -0.932861328125, 0.045410156250, 11.054687500000, 83.312500000000, -7.156250000000, 1490609694
-0.143798828125, -0.932861328125, 0.045410156250, 11.054687500000, 83.312500000000, -7.156250000000, 1490609694
-0.143798828125, -0.932861328125, 0.045410156250, 11.054687500000, 83.312500000000, -7.156250000000, 1490609694
0.495361328125, -1.016601562500, 0.419433593750, 51.890625000000, 189.695312500000, 19.507812500000, 1490609694
0.495361328125, -1.016601562500, 0.419433593750, 51.890625000000, 189.695312500000, 19.507812500000, 1490609694
0.495361328125, -1.016601562500, 0.419433593750, 51.890625000000, 189.695312500000, 19.507812500000, 1490609694
0.495361328125, -1.016601562500, 0.419433593750, 51.890625000000, 189.695312500000, 19.507812500000, 1490609694
0.324951171875, -1.012939453125, 0.082031250000, -74.859375000000, 76.539062500000, 59.539062500000, 1490609694
0.324951171875, -1.012939453125, 0.082031250000, -74.859375000000, 76.539062500000, 59.539062500000, 1490609694
0.324951171875, -1.012939453125, 0.082031250000, -74.859375000000, 76.539062500000, 59.539062500000, 1490609694
0.157226562500, -1.008789062500, 0.099853515625, 20.226562500000, 168.179687500000, 52.242187500000, 1490609694
0.157226562500, -1.008789062500, 0.099853515625, 20.226562500000, 168.179687500000, 52.242187500000, 1490609694
0.102294921875, -1.014404296875, 0.042968750000, 40.289062500000, 180.031250000000, 40.765625000000, 1490609694
0.102294921875, -1.014404296875, 0.042968750000, 40.289062500000, 180.031250000000, 40.765625000000, 1490609694
0.102294921875, -1.014404296875, 0.042968750000, 40.289062500000, 180.031250000000, 40.765625000000, 1490609694
0.138916015625, -0.903564453125, 0.144775390625, 22.445312500000, 202.531250000000, 29.265625000000, 1490609694
0.138916015625, -0.903564453125, 0.144775390625, 22.445312500000, 202.531250000000, 29.265625000000, 1490609694
0.138916015625, -0.903564453125, 0.144775390625, 22.445312500000, 202.531250000000, 29.265625000000, 1490609694
0.138916015625, -0.903564453125, 0.144775390625, 22.445312500000, 202.531250000000, 29.265625000000, 1490609694
0.138916015625, -0.903564453125, 0.144775390625, 22.445312500000, 202.531250000000, 29.265625000000, 1490609694
-0.012207031250, -0.972167968750, 0.047851562500, -2.835937500000, 143.218750000000, 36.875000000000, 1490609694
-0.012207031250, -0.972167968750, 0.047851562500, -2.835937500000, 143.218750000000, 36.875000000000, 1490609694
-0.012207031250, -0.972167968750, 0.047851562500, -2.835937500000, 143.218750000000, 36.875000000000, 1490609694
-0.002441406250, -1.022949218750, 0.184570312500, 24.328125000000, 166.078125000000, 28.882812500000, 1490609694
-0.002441406250, -1.022949218750, 0.184570312500, 24.328125000000, 166.078125000000, 28.882812500000, 1490609694
-0.002441406250, -1.022949218750, 0.184570312500, 24.328125000000, 166.078125000000, 28.882812500000, 1490609694
-0.072998046875, -0.999511718750, 0.201171875000, 31.679687500000, 165.171875000000, 25.531250000000, 1490609694
0.156982421875, -1.183837890625, 0.057373046875, 8.203125000000, 126.546875000000, 27.390625000000, 1490609694
0.156982421875, -1.183837890625, 0.057373046875, 8.203125000000, 126.546875000000, 27.390625000000, 1490609694
0.156982421875, -1.183837890625, 0.057373046875, 8.203125000000, 126.546875000000, 27.390625000000, 1490609694
0.156982421875, -1.183837890625, 0.057373046875, 8.203125000000, 126.546875000000, 27.390625000000, 1490609694
0.314697265625, -0.857421875000, 0.063476562500, -11.382812500000, 48.140625000000, 23.906250000000, 1490609694
0.314697265625, -0.857421875000, 0.063476562500, -11.382812500000, 48.140625000000, 23.906250000000, 1490609694
0.314697265625, -0.857421875000, 0.063476562500, -11.382812500000, 48.140625000000, 23.906250000000, 1490609694
0.314697265625, -0.857421875000, 0.063476562500, -11.382812500000, 48.140625000000, 23.906250000000, 1490609694
0.314697265625, -0.857421875000, 0.063476562500, -11.382812500000, 48.140625000000, 23.906250000000, 1490609694
0.183837890625, -1.190429687500, 0.059814453125, 8.203125000000, 60.187500000000, 17.562500000000, 1490609694
0.183837890625, -1.190429687500, 0.059814453125, 8.203125000000, 60.187500000000, 17.562500000000, 1490609694
0.183837890625, -1.190429687500, 0.059814453125, 8.203125000000, 60.187500000000, 17.562500000000, 1490609694
0.104736328125, -0.826904296875, 0.375244140625, 49.046875000000, 117.984375000000, -3.164062500000, 1490609694
0.104736328125, -0.826904296875, 0.375244140625, 49.046875000000, 117.984375000000, -3.164062500000, 1490609694
0.104736328125, -0.826904296875, 0.375244140625, 49.046875000000, 117.984375000000, -3.164062500000, 1490609694
0.116943359375, -0.904541015625, 0.079833984375, -36.968750000000, 11.328125000000, 24.578125000000, 1490609694
0.116943359375, -0.904541015625, 0.079833984375, -36.968750000000, 11.328125000000, 24.578125000000, 1490609694
0.116943359375, -0.904541015625, 0.079833984375, -36.968750000000, 11.328125000000, 24.578125000000, 1490609694
0.116943359375, -0.904541015625, 0.079833984375, -36.968750000000, 11.328125000000, 24.578125000000, 1490609694
0.241943359375, -0.846435546875, -0.030761718750, 9.132812500000, 47.859375000000, 7.312500000000, 1490609694
0.241943359375, -0.846435546875, -0.030761718750, 9.132812500000, 47.859375000000, 7.312500000000, 1490609694
0.241943359375, -0.846435546875, -0.030761718750, 9.132812500000, 47.859375000000, 7.312500000000, 1490609694
0.316162109375, -1.088378906250, 0.083496093750, 11.773437500000, 15.226562500000, 22.195312500000, 1490609694
0.316162109375, -1.088378906250, 0.083496093750, 11.773437500000, 15.226562500000, 22.195312500000, 1490609694
0.316162109375, -1.088378906250, 0.083496093750, 11.773437500000, 15.226562500000, 22.195312500000, 1490609694
0.287597656250, -1.143066406250, 0.196533203125, -0.093750000000, 17.000000000000, 12.984375000000, 1490609695
0.287597656250, -1.143066406250, 0.196533203125, -0.093750000000, 17.000000000000, 12.984375000000, 1490609695
0.287597656250, -1.143066406250, 0.196533203125, -0.093750000000, 17.000000000000, 12.984375000000, 1490609695
-0.007812500000, -1.004150390625, 0.077148437500, -17.593750000000, 10.882812500000, -5.351562500000, 1490609695
-0.007812500000, -1.004150390625, 0.077148437500, -17.593750000000, 10.882812500000, -5.351562500000, 1490609695
-0.007812500000, -1.004150390625, 0.077148437500, -17.593750000000, 10.882812500000, -5.351562500000, 1490609695
-0.007812500000, -1.004150390625, 0.077148437500, -17.593750000000, 10.882812500000, -5.351562500000, 1490609695
0.078857421875, -0.908691406250, 0.191162109375, -17.093750000000, 1.476562500000, -13.039062500000, 1490609695
0.078857421875, -0.908691406250, 0.191162109375, -17.093750000000, 1.476562500000, -13.039062500000, 1490609695
0.078857421875, -0.908691406250, 0.191162109375, -17.093750000000, 1.476562500000, -13.039062500000, 1490609695
0.143554687500, -0.951660156250, 0.258544921875, -22.265625000000, 13.945312500000, -23.851562500000, 1490609695
0.143554687500, -0.951660156250, 0.258544921875, -22.265625000000, 13.945312500000, -23.851562500000, 1490609695
0.143554687500, -0.951660156250, 0.258544921875, -22.265625000000, 13.945312500000, -23.851562500000, 1490609695
0.102050781250, -0.927978515625, 0.252197265625, -8.632812500000, 18.140625000000, -19.328125000000, 1490609695
0.102050781250, -0.927978515625, 0.252197265625, -8.632812500000, 18.140625000000, -19.328125000000, 1490609695
0.102050781250, -0.927978515625, 0.252197265625, -8.632812500000, 18.140625000000, -19.328125000000, 1490609695
0.102050781250, -0.927978515625, 0.252197265625, -8.632812500000, 18.140625000000, -19.328125000000, 1490609695
0.089599609375, -1.000732421875, 0.207519531250, -12.406250000000, 14.218750000000, -12.078125000000, 1490609695
0.089599609375, -1.000732421875, 0.207519531250, -12.406250000000, 14.218750000000, -12.078125000000, 1490609695
0.089599609375, -1.000732421875, 0.207519531250, -12.406250000000, 14.218750000000, -12.078125000000, 1490609695
0.089599609375, -1.000732421875, 0.207519531250, -12.406250000000, 14.218750000000, -12.078125000000, 1490609695
0.089599609375, -1.000732421875, 0.207519531250, -12.406250000000, 14.218750000000, -12.078125000000, 1490609695
0.089599609375, -1.000732421875, 0.207519531250, -12.406250000000, 14.218750000000, -12.078125000000, 1490609695
0.129150390625, -1.005126953125, 0.280761718750, -5.648437500000, 26.265625000000, -14.289062500000, 1490609695
0.129150390625, -1.005126953125, 0.280761718750, -5.648437500000, 26.265625000000, -14.289062500000, 1490609695
0.129150390625, -1.005126953125, 0.280761718750, -5.648437500000, 26.265625000000, -14.289062500000, 1490609695
0.085205078125, -0.982910156250, 0.281250000000, -20.320312500000, 14.140625000000, -10.242187500000, 1490609695
0.085205078125, -0.982910156250, 0.281250000000, -20.320312500000, 14.140625000000, -10.242187500000, 1490609695
0.085205078125, -0.982910156250, 0.281250000000, -20.320312500000, 14.140625000000, -10.242187500000, 1490609695
0.085205078125, -0.982910156250, 0.281250000000, -20.320312500000, 14.140625000000, -10.242187500000, 1490609695
0.085205078125, -0.982910156250, 0.281250000000, -20.320312500000, 14.140625000000, -10.242187500000, 1490609695
0.024902343750, -1.019042968750, 0.168457031250, -17.335937500000, 5.109375000000, -11.585937500000, 1490609695
0.024902343750, -1.019042968750, 0.168457031250, -17.335937500000, 5.109375000000, -11.585937500000, 1490609695
0.024902343750, -1.019042968750, 0.168457031250, -17.335937500000, 5.109375000000, -11.585937500000, 1490609695
0.024902343750, -1.019042968750, 0.168457031250, -17.335937500000, 5.109375000000, -11.585937500000, 1490609695
0.024902343750, -1.019042968750, 0.168457031250, -17.335937500000, 5.109375000000, -11.585937500000, 1490609695
-0.007568359375, -0.914306640625, 0.279052734375, -8.851562500000, -12.945312500000, -16.484375000000, 1490609695
-0.007568359375, -0.914306640625, 0.279052734375, -8.851562500000, -12.945312500000, -16.484375000000, 1490609695
-0.007568359375, -0.914306640625, 0.279052734375, -8.851562500000, -12.945312500000, -16.484375000000, 1490609695
0.137207031250, -1.027099609375, 0.246582031250, -6.000000000000, -5.437500000000, -5.093750000000, 1490609695
0.137207031250, -1.027099609375, 0.246582031250, -6.000000000000, -5.437500000000, -5.093750000000, 1490609695
0.137207031250, -1.027099609375, 0.246582031250, -6.000000000000, -5.437500000000, -5.093750000000, 1490609695
-0.028076171875, -0.900634765625, 0.238281250000, 0.851562500000, 8.375000000000, -1.828125000000, 1490609695
-0.028076171875, -0.900634765625, 0.238281250000, 0.851562500000, 8.375000000000, -1.828125000000, 1490609695
-0.028076171875, -0.900634765625, 0.238281250000, 0.851562500000, 8.375000000000, -1.828125000000, 1490609695
-0.028076171875, -0.900634765625, 0.238281250000, 0.851562500000, 8.375000000000, -1.828125000000, 1490609695
-0.128662109375, -0.850830078125, 0.343505859375, -10.007812500000, -2.585937500000, -4.953125000000, 1490609695
-0.128662109375, -0.850830078125, 0.343505859375, -10.007812500000, -2.585937500000, -4.953125000000, 1490609695
-0.128662109375, -0.850830078125, 0.343505859375, -10.007812500000, -2.585937500000, -4.953125000000, 1490609695
0.065429687500, -1.037841796875, 0.388916015625, 1.070312500000, -8.976562500000, -16.296875000000, 1490609695
0.065429687500, -1.037841796875, 0.388916015625, 1.070312500000, -8.976562500000, -16.296875000000, 1490609695
0.065429687500, -1.037841796875, 0.388916015625, 1.070312500000, -8.976562500000, -16.296875000000, 1490609695
-0.002929687500, -1.002929687500, 0.318359375000, 0.953125000000, -3.828125000000, -8.343750000000, 1490609695
-0.002929687500, -1.002929687500, 0.318359375000, 0.953125000000, -3.828125000000, -8.343750000000, 1490609695
0.145019531250, -0.955322265625, 0.298828125000, 3.773437500000, 15.171875000000, 7.515625000000, 1490609695
0.145019531250, -0.955322265625, 0.298828125000, 3.773437500000, 15.171875000000, 7.515625000000, 1490609695
0.145019531250, -0.955322265625, 0.298828125000, 3.773437500000, 15.171875000000, 7.515625000000, 1490609695
0.145019531250, -0.955322265625, 0.298828125000, 3.773437500000, 15.171875000000, 7.515625000000, 1490609695
0.145019531250, -0.955322265625, 0.298828125000, 3.773437500000, 15.171875000000, 7.515625000000, 1490609695
0.096679687500, -0.974853515625, 0.337158203125, -9.031250000000, 13.171875000000, 14.039062500000, 1490609695
0.096679687500, -0.974853515625, 0.337158203125, -9.031250000000, 13.171875000000, 14.039062500000, 1490609695
0.096679687500, -0.974853515625, 0.337158203125, -9.031250000000, 13.171875000000, 14.039062500000, 1490609695
0.029785156250, -1.009277343750, 0.246337890625, -0.187500000000, 28.476562500000, 6.710937500000, 1490609695
0.029785156250, -1.009277343750, 0.246337890625, -0.187500000000, 28.476562500000, 6.710937500000, 1490609695
0.029785156250, -1.009277343750, 0.246337890625, -0.187500000000, 28.476562500000, 6.710937500000, 1490609695
0.026367187500, -1.028564453125, 0.248291015625, -3.500000000000, 9.429687500000, 0.945312500000, 1490609696
0.026367187500, -1.028564453125, 0.248291015625, -3.500000000000, 9.429687500000, 0.945312500000, 1490609696
0.026367187500, -1.028564453125, 0.248291015625, -3.500000000000, 9.429687500000, 0.945312500000, 1490609696
0.090087890625, -1.005371093750, 0.338623046875, -3.664062500000, 4.554687500000, -0.406250000000, 1490609696
0.090087890625, -1.005371093750, 0.338623046875, -3.664062500000, 4.554687500000, -0.406250000000, 1490609696
0.090087890625, -1.005371093750, 0.338623046875, -3.664062500000, 4.554687500000, -0.406250000000, 1490609696
0.090087890625, -1.005371093750, 0.338623046875, -3.664062500000, 4.554687500000, -0.406250000000, 1490609696
0.145507812500, -1.025878906250, 0.296142578125, -4.585937500000, 9.781250000000, 2.625000000000, 1490609696
0.145507812500, -1.025878906250, 0.296142578125, -4.585937500000, 9.781250000000, 2.625000000000, 1490609696
0.145507812500, -1.025878906250, 0.296142578125, -4.585937500000, 9.781250000000, 2.625000000000, 1490609696
-0.030029296875, -1.011962890625, 0.236328125000, -2.718750000000, 12.242187500000, 4.046875000000, 1490609696
-0.030029296875, -1.011962890625, 0.236328125000, -2.718750000000, 12.242187500000, 4.046875000000, 1490609696
-0.030029296875, -1.011962890625, 0.236328125000, -2.718750000000, 12.242187500000, 4.046875000000, 1490609696
0.135986328125, -0.978027343750, 0.177978515625, 2.937500000000, 7.375000000000, 5.976562500000, 1490609696
0.111328125000, -0.970214843750, 0.263427734375, 1.945312500000, 6.765625000000, 8.609375000000, 1490609696
0.111328125000, -0.970214843750, 0.263427734375, 1.945312500000, 6.765625000000, 8.609375000000, 1490609696
0.111328125000, -0.970214843750, 0.263427734375, 1.945312500000, 6.765625000000, 8.609375000000, 1490609696
0.111328125000, -0.970214843750, 0.263427734375, 1.945312500000, 6.765625000000, 8.609375000000, 1490609696
0.004394531250, -0.946777343750, 0.333740234375, -0.648437500000, -2.812500000000, 4.062500000000, 1490609696
0.004394531250, -0.946777343750, 0.333740234375, -0.648437500000, -2.812500000000, 4.062500000000, 1490609696
0.004394531250, -0.946777343750, 0.333740234375, -0.648437500000, -2.812500000000, 4.062500000000, 1490609696
0.004394531250, -0.946777343750, 0.333740234375, -0.648437500000, -2.812500000000, 4.062500000000, 1490609696
0.004394531250, -0.946777343750, 0.333740234375, -0.648437500000, -2.812500000000, 4.062500000000, 1490609696
0.130126953125, -0.909667968750, 0.249267578125, 4.476562500000, -1.937500000000, 2.359375000000, 1490609696
0.130126953125, -0.909667968750, 0.249267578125, 4.476562500000, -1.937500000000, 2.359375000000, 1490609696
0.130126953125, -0.909667968750, 0.249267578125, 4.476562500000, -1.937500000000, 2.359375000000, 1490609696
0.050292968750, -0.998046875000, 0.235839843750, 0.476562500000, 2.976562500000, -2.179687500000, 1490609696
0.050292968750, -0.998046875000, 0.235839843750, 0.476562500000, 2.976562500000, -2.179687500000, 1490609696
0.050292968750, -0.998046875000, 0.235839843750, 0.476562500000, 2.976562500000, -2.179687500000, 1490609696
0.031738281250, -0.961181640625, 0.263183593750, -3.375000000000, 2.820312500000, -3.054687500000, 1490609696
0.031738281250, -0.961181640625, 0.263183593750, -3.375000000000, 2.820312500000, -3.054687500000, 1490609696
0.031738281250, -0.961181640625, 0.263183593750, -3.375000000000, 2.820312500000, -3.054687500000, 1490609696
0.031738281250, -0.961181640625, 0.263183593750, -3.375000000000, 2.820312500000, -3.054687500000, 1490609696
-0.074707031250, -0.995605468750, 0.266113281250, -11.242187500000, 6.109375000000, -5.562500000000, 1490609696
-0.074707031250, -0.995605468750, 0.266113281250, -11.242187500000, 6.109375000000, -5.562500000000, 1490609696
-0.074707031250, -0.995605468750, 0.266113281250, -11.242187500000, 6.109375000000, -5.562500000000, 1490609696
0.076904296875, -0.909912109375, 0.226074218750, 0.265625000000, 1.859375000000, -7.437500000000, 1490609696
0.076904296875, -0.909912109375, 0.226074218750, 0.265625000000, 1.859375000000, -7.437500000000, 1490609696
0.076904296875, -0.909912109375, 0.226074218750, 0.265625000000, 1.859375000000, -7.437500000000, 1490609696
0.195312500000, -0.959716796875, 0.274169921875, -6.421875000000, -8.054687500000, -6.015625000000, 1490609696
0.195312500000, -0.959716796875, 0.274169921875, -6.421875000000, -8.054687500000, -6.015625000000, 1490609696
0.195312500000, -0.959716796875, 0.274169921875, -6.421875000000, -8.054687500000, -6.015625000000, 1490609696
0.028808593750, -0.863769531250, 0.322265625000, -5.023437500000, -5.281250000000, -8.500000000000, 1490609696
0.028808593750, -0.863769531250, 0.322265625000, -5.023437500000, -5.281250000000, -8.500000000000, 1490609696
0.028808593750, -0.863769531250, 0.322265625000, -5.023437500000, -5.281250000000, -8.500000000000, 1490609696
0.028808593750, -0.863769531250, 0.322265625000, -5.023437500000, -5.281250000000, -8.500000000000, 1490609696
-0.014648437500, -0.936523437500, 0.290527343750, -3.312500000000, -8.187500000000, -8.101562500000, 1490609696
-0.014648437500, -0.936523437500, 0.290527343750, -3.312500000000, -8.187500000000, -8.101562500000, 1490609696
-0.014648437500, -0.936523437500, 0.290527343750, -3.312500000000, -8.187500000000, -8.101562500000, 1490609696
0.081054687500, -0.909423828125, 0.258544921875, -6.765625000000, -6.710937500000, -3.359375000000, 1490609696
0.081054687500, -0.909423828125, 0.258544921875, -6.765625000000, -6.710937500000, -3.359375000000, 1490609696
0.081054687500, -0.909423828125, 0.258544921875, -6.765625000000, -6.710937500000, -3.359375000000, 1490609696
0.148437500000, -0.943359375000, 0.289794921875, -5.148437500000, -1.281250000000, -9.382812500000, 1490609696
0.148437500000, -0.943359375000, 0.289794921875, -5.148437500000, -1.281250000000, -9.382812500000, 1490609696
0.148437500000, -0.943359375000, 0.289794921875, -5.148437500000, -1.281250000000, -9.382812500000, 1490609696
0.104492187500, -0.932861328125, 0.317871093750, -5.101562500000, -1.585937500000, -8.585937500000, 1490609696
0.104492187500, -0.932861328125, 0.317871093750, -5.101562500000, -1.585937500000, -8.585937500000, 1490609696
0.104492187500, -0.932861328125, 0.317871093750, -5.101562500000, -1.585937500000, -8.585937500000, 1490609696
0.104492187500, -0.932861328125, 0.317871093750, -5.101562500000, -1.585937500000, -8.585937500000, 1490609696
0.031982421875, -1.003906250000, 0.282958984375, -9.250000000000, -5.812500000000, -9.343750000000, 1490609696
0.031982421875, -1.003906250000, 0.282958984375, -9.250000000000, -5.812500000000, -9.343750000000, 1490609696
0.031982421875, -1.003906250000, 0.282958984375, -9.250000000000, -5.812500000000, -9.343750000000, 1490609696
0.042724609375, -1.063476562500, 0.239013671875, -12.968750000000, -4.781250000000, -8.554687500000, 1490609696
0.042724609375, -1.063476562500, 0.239013671875, -12.968750000000, -4.781250000000, -8.554687500000, 1490609696
0.042724609375, -1.063476562500, 0.239013671875, -12.968750000000, -4.781250000000, -8.554687500000, 1490609696
0.125000000000, -0.964843750000, 0.330810546875, -12.328125000000, 2.421875000000, -6.906250000000, 1490609696
0.125000000000, -0.964843750000, 0.330810546875, -12.328125000000, 2.421875000000, -6.906250000000, 1490609696
0.125000000000, -0.964843750000, 0.330810546875, -12.328125000000, 2.421875000000, -6.906250000000, 1490609696
-0.014892578125, -0.862792968750, 0.290039062500, -7.578125000000, 6.593750000000, -6.757812500000, 1490609697
-0.014892578125, -0.862792968750, 0.290039062500, -7.578125000000, 6.593750000000, -6.757812500000, 1490609697
-0.014892578125, -0.862792968750, 0.290039062500, -7.578125000000, 6.593750000000, -6.757812500000, 1490609697
-0.014892578125, -0.862792968750, 0.290039062500, -7.578125000000, 6.593750000000, -6.757812500000, 1490609697
0.137695312500, -0.925781250000, 0.238037109375, -5.132812500000, 6.007812500000, -7.984375000000, 1490609697
0.137695312500, -0.925781250000, 0.238037109375, -5.132812500000, 6.007812500000, -7.984375000000, 1490609697
0.137695312500, -0.925781250000, 0.238037109375, -5.132812500000, 6.007812500000, -7.984375000000, 1490609697
0.016357421875, -0.861083984375, 0.287597656250, -5.382812500000, 3.210937500000, -5.718750000000, 1490609697
0.016357421875, -0.861083984375, 0.287597656250, -5.382812500000, 3.210937500000, -5.718750000000, 1490609697
0.016357421875, -0.861083984375, 0.287597656250, -5.382812500000, 3.210937500000, -5.718750000000, 1490609697
-0.083984375000, -0.875000000000, 0.279052734375, -1.632812500000, 6.085937500000, -10.039062500000, 1490609697
-0.083984375000, -0.875000000000, 0.279052734375, -1.632812500000, 6.085937500000, -10.039062500000, 1490609697
-0.083984375000, -0.875000000000, 0.279052734375, -1.632812500000, 6.085937500000, -10.039062500000, 1490609697
0.022949218750, -0.995117187500, 0.244140625000, 0.179687500000, 0.882812500000, -3.164062500000, 1490609697
0.022949218750, -0.995117187500, 0.244140625000, 0.179687500000, 0.882812500000, -3.164062500000, 1490609697
0.022949218750, -0.995117187500, 0.244140625000, 0.179687500000, 0.882812500000, -3.164062500000, 1490609697
0.022949218750, -0.995117187500, 0.244140625000, 0.179687500000, 0.882812500000, -3.164062500000, 1490609697
0.085205078125, -1.004150390625, 0.299804687500, 4.007812500000, 1.468750000000, -1.648437500000, 1490609697
0.085205078125, -1.004150390625, 0.299804687500, 4.007812500000, 1.468750000000, -1.648437500000, 1490609697
0.085205078125, -1.004150390625, 0.299804687500, 4.007812500000, 1.468750000000, -1.648437500000, 1490609697
-0.003173828125, -0.974121093750, 0.244384765625, -3.359375000000, -8.742187500000, -5.609375000000, 1490609697
-0.003173828125, -0.974121093750, 0.244384765625, -3.359375000000, -8.742187500000, -5.609375000000, 1490609697
-0.003173828125, -0.974121093750, 0.244384765625, -3.359375000000, -8.742187500000, -5.609375000000, 1490609697
0.090576171875, -0.893310546875, 0.227294921875, -4.789062500000, -4.796875000000, -4.187500000000, 1490609697
0.090576171875, -0.893310546875, 0.227294921875, -4.789062500000, -4.796875000000, -4.187500000000, 1490609697
0.090576171875, -0.893310546875, 0.227294921875, -4.789062500000, -4.796875000000, -4.187500000000, 1490609697
0.076904296875, -0.978515625000, 0.245849609375, -1.335937500000, -1.679687500000, -5.437500000000, 1490609697
0.076904296875, -0.978515625000, 0.245849609375, -1.335937500000, -1.679687500000, -5.437500000000, 1490609697
0.076904296875, -0.978515625000, 0.245849609375, -1.335937500000, -1.679687500000, -5.437500000000, 1490609697
0.076904296875, -0.978515625000, 0.245849609375, -1.335937500000, -1.679687500000, -5.437500000000, 1490609697
0.029541015625, -0.947021484375, 0.234375000000, -3.500000000000, -4.140625000000, -6.328125000000, 1490609697
0.029541015625, -0.947021484375, 0.234375000000, -3.500000000000, -4.140625000000, -6.328125000000, 1490609697
0.029541015625, -0.947021484375, 0.234375000000, -3.500000000000, -4.140625000000, -6.328125000000, 1490609697
0.051513671875, -0.977294921875, 0.321533203125, -5.281250000000, -5.000000000000, -2.953125000000, 1490609697
0.051513671875, -0.977294921875, 0.321533203125, -5.281250000000, -5.000000000000, -2.953125000000, 1490609697
0.051513671875, -0.977294921875, 0.321533203125, -5.281250000000, -5.000000000000, -2.953125000000, 1490609697
0.038330078125, -1.001220703125, 0.220947265625, -2.273437500000, -1.609375000000, 0.468750000000, 1490609697
0.038330078125, -1.001220703125, 0.220947265625, -2.273437500000, -1.609375000000, 0.468750000000, 1490609697
0.038330078125, -1.001220703125, 0.220947265625, -2.273437500000, -1.609375000000, 0.468750000000, 1490609697
0.077880859375, -0.962158203125, 0.319091796875, -1.429687500000, -1.578125000000, -1.562500000000, 1490609697
0.077880859375, -0.962158203125, 0.319091796875, -1.429687500000, -1.578125000000, -1.562500000000, 1490609697
0.077392578125, -0.924072265625, 0.255371093750, -3.617187500000, -3.390625000000, 0.828125000000, 1490609697
0.077392578125, -0.924072265625, 0.255371093750, -3.617187500000, -3.390625000000, 0.828125000000, 1490609697
0.077392578125, -0.924072265625, 0.255371093750, -3.617187500000, -3.390625000000, 0.828125000000, 1490609697
0.077392578125, -0.924072265625, 0.255371093750, -3.617187500000, -3.390625000000, 0.828125000000, 1490609697
0.077392578125, -0.924072265625, 0.255371093750, -3.617187500000, -3.390625000000, 0.828125000000, 1490609697
0.001220703125, -1.009033203125, 0.336425781250, -6.484375000000, -5.070312500000, -6.359375000000, 1490609697
0.001220703125, -1.009033203125, 0.336425781250, -6.484375000000, -5.070312500000, -6.359375000000, 1490609697
0.001220703125, -1.009033203125, 0.336425781250, -6.484375000000, -5.070312500000, -6.359375000000, 1490609697
-0.018798828125, -1.014892578125, 0.306884765625, -3.398437500000, -6.445312500000, -10.476562500000, 1490609697
-0.018798828125, -1.014892578125, 0.306884765625, -3.398437500000, -6.445312500000, -10.476562500000, 1490609697
-0.018798828125, -1.014892578125, 0.306884765625, -3.398437500000, -6.445312500000, -10.476562500000, 1490609697
-0.018798828125, -1.014892578125, 0.306884765625, -3.398437500000, -6.445312500000, -10.476562500000, 1490609697
0.066406250000, -0.935791015625, 0.272216796875, -6.171875000000, -6.320312500000, -7.023437500000, 1490609697
0.062988281250, -0.925781250000, 0.312744140625, -6.851562500000, -3.445312500000, -7.187500000000, 1490609697
0.062988281250, -0.925781250000, 0.312744140625, -6.851562500000, -3.445312500000, -7.187500000000, 1490609697
0.062988281250, -0.925781250000, 0.312744140625, -6.851562500000, -3.445312500000, -7.187500000000, 1490609697
0.062988281250, -0.925781250000, 0.312744140625, -6.851562500000, -3.445312500000, -7.187500000000, 1490609697
0.037109375000, -0.909912109375, 0.241943359375, -3.671875000000, -1.085937500000, -3.953125000000, 1490609697
0.037109375000, -0.909912109375, 0.241943359375, -3.671875000000, -1.085937500000, -3.953125000000, 1490609697
0.037109375000, -0.909912109375, 0.241943359375, -3.671875000000, -1.085937500000, -3.953125000000, 1490609697
0.037109375000, -0.909912109375, 0.241943359375, -3.671875000000, -1.085937500000, -3.953125000000, 1490609697
0.092529296875, -1.003906250000, 0.318603515625, -1.929687500000, -4.343750000000, -8.984375000000, 1490609697
0.092529296875, -1.003906250000, 0.318603515625, -1.929687500000, -4.343750000000, -8.984375000000, 1490609697
0.092529296875, -1.003906250000, 0.318603515625, -1.929687500000, -4.343750000000, -8.984375000000, 1490609697
-0.049072265625, -0.927490234375, 0.292968750000, 4.148437500000, -5.445312500000, -5.531250000000, 1490609698
-0.049072265625, -0.927490234375, 0.292968750000, 4.148437500000, -5.445312500000, -5.531250000000, 1490609698
-0.049072265625, -0.927490234375, 0.292968750000, 4.148437500000, -5.445312500000, -5.531250000000, 1490609698
-0.049072265625, -0.927490234375, 0.292968750000, 4.148437500000, -5.445312500000, -5.531250000000, 1490609698
-0.065185546875, -1.020507812500, 0.231201171875, -10.703125000000, -16.945312500000, -8.148437500000, 1490609698
-0.065185546875, -1.020507812500, 0.231201171875, -10.703125000000, -16.945312500000, -8.148437500000, 1490609698
-0.065185546875, -1.020507812500, 0.231201171875, -10.703125000000, -16.945312500000, -8.148437500000, 1490609698
-0.150146484375, -0.967041015625, 0.246337890625, 4.695312500000, -15.882812500000, -11.320312500000, 1490609698
-0.150146484375, -0.967041015625, 0.246337890625, 4.695312500000, -15.882812500000, -11.320312500000, 1490609698
-0.150146484375, -0.967041015625, 0.246337890625, 4.695312500000, -15.882812500000, -11.320312500000, 1490609698
-0.040283203125, -0.933105468750, 0.330078125000, 0.078125000000, -30.507812500000, -16.187500000000, 1490609698
-0.040283203125, -0.933105468750, 0.330078125000, 0.078125000000, -30.507812500000, -16.187500000000, 1490609698
-0.040283203125, -0.933105468750, 0.330078125000, 0.078125000000, -30.507812500000, -16.187500000000, 1490609698
-0.046875000000, -0.895019531250, 0.227294921875, 0.398437500000, -37.250000000000, -22.671875000000, 1490609698
-0.046875000000, -0.895019531250, 0.227294921875, 0.398437500000, -37.250000000000, -22.671875000000, 1490609698
-0.046875000000, -0.895019531250, 0.227294921875, 0.398437500000, -37.250000000000, -22.671875000000, 1490609698
-0.046875000000, -0.895019531250, 0.227294921875, 0.398437500000, -37.250000000000, -22.671875000000, 1490609698
0.027343750000, -0.919677734375, 0.228515625000, -4.671875000000, -41.898437500000, -23.117187500000, 1490609698
0.027343750000, -0.919677734375, 0.228515625000, -4.671875000000, -41.898437500000, -23.117187500000, 1490609698
0.027343750000, -0.919677734375, 0.228515625000, -4.671875000000, -41.898437500000, -23.117187500000, 1490609698
-0.072509765625, -1.027343750000, 0.283691406250, -8.257812500000, -42.210937500000, -22.851562500000, 1490609698
-0.072509765625, -1.027343750000, 0.283691406250, -8.257812500000, -42.210937500000, -22.851562500000, 1490609698
-0.072509765625, -1.027343750000, 0.283691406250, -8.257812500000, -42.210937500000, -22.851562500000, 1490609698
-0.001220703125, -1.007568359375, 0.184570312500, -5.453125000000, -35.914062500000, -20.359375000000, 1490609698
-0.001220703125, -1.007568359375, 0.184570312500, -5.453125000000, -35.914062500000, -20.359375000000, 1490609698
-0.001220703125, -1.007568359375, 0.184570312500, -5.453125000000, -35.914062500000, -20.359375000000, 1490609698
-0.022949218750, -0.959716796875, 0.314453125000, -8.390625000000, -28.296875000000, -16.093750000000, 1490609698
-0.022949218750, -0.959716796875, 0.314453125000, -8.390625000000, -28.296875000000, -16.093750000000, 1490609698
-0.022949218750, -0.959716796875, 0.314453125000, -8.390625000000, -28.296875000000, -16.093750000000, 1490609698
-0.022949218750, -0.959716796875, 0.314453125000, -8.390625000000, -28.296875000000, -16.093750000000, 1490609698
-0.013183593750, -1.021484375000, 0.318359375000, -3.953125000000, -22.664062500000, -10.179687500000, 1490609698
-0.013183593750, -1.021484375000, 0.318359375000, -3.953125000000, -22.664062500000, -10.179687500000, 1490609698
-0.013183593750, -1.021484375000, 0.318359375000, -3.953125000000, -22.664062500000, -10.179687500000, 1490609698
-0.034423828125, -0.932128906250, 0.219726562500, -6.179687500000, -16.523437500000, -9.859375000000, 1490609698
-0.034423828125, -0.932128906250, 0.219726562500, -6.179687500000, -16.523437500000, -9.859375000000, 1490609698
-0.034423828125, -0.932128906250, 0.219726562500, -6.179687500000, -16.523437500000, -9.859375000000, 1490609698
-0.063720703125, -0.874267578125, 0.266113281250, -6.867187500000, -11.101562500000, -8.007812500000, 1490609698
-0.000732421875, -1.012207031250, 0.315673828125, -5.101562500000, 5.156250000000, -4.109375000000, 1490609698
-0.000732421875, -1.012207031250, 0.315673828125, -5.101562500000, 5.156250000000, -4.109375000000, 1490609698
-0.000732421875, -1.012207031250, 0.315673828125, -5.101562500000, 5.156250000000, -4.109375000000, 1490609698
0.083251953125, -0.934814453125, 0.259521484375, -5.656250000000, 8.601562500000, 0.796875000000, 1490609698
-0.087890625000, -1.023681640625, 0.320312500000, -6.718750000000, 10.109375000000, -0.687500000000, 1490609698
-0.087890625000, -1.023681640625, 0.320312500000, -6.718750000000, 10.109375000000, -0.687500000000, 1490609698
-0.087890625000, -1.023681640625, 0.320312500000, -6.718750000000, 10.109375000000, -0.687500000000, 1490609698
-0.087890625000, -1.023681640625, 0.320312500000, -6.718750000000, 10.109375000000, -0.687500000000, 1490609698
-0.087890625000, -1.023681640625, 0.320312500000, -6.718750000000, 10.109375000000, -0.687500000000, 1490609698
-0.057373046875, -0.915527343750, 0.341308593750, -2.414062500000, 9.554687500000, 4.671875000000, 1490609698
-0.057373046875, -0.915527343750, 0.341308593750, -2.414062500000, 9.554687500000, 4.671875000000, 1490609698
-0.057373046875, -0.915527343750, 0.341308593750, -2.414062500000, 9.554687500000, 4.671875000000, 1490609698
-0.089111328125, -0.970947265625, 0.277343750000, 1.218750000000, 6.375000000000, 6.500000000000, 1490609698
-0.089111328125, -0.970947265625, 0.277343750000, 1.218750000000, 6.375000000000, 6.500000000000, 1490609698
-0.089111328125, -0.970947265625, 0.277343750000, 1.218750000000, 6.375000000000, 6.500000000000, 1490609698
-0.091796875000, -0.921386718750, 0.292968750000, 1.687500000000, 5.687500000000, 10.062500000000, 1490609698
-0.091796875000, -0.921386718750, 0.292968750000, 1.687500000000, 5.687500000000, 10.062500000000, 1490609698
-0.091796875000, -0.921386718750, 0.292968750000, 1.687500000000, 5.687500000000, 10.062500000000, 1490609698
-0.091796875000, -0.921386718750, 0.292968750000, 1.687500000000, 5.687500000000, 10.062500000000, 1490609698
0.012207031250, -0.934326171875, 0.182861328125, 8.125000000000, 6.257812500000, 8.382812500000, 1490609698
0.012207031250, -0.934326171875, 0.182861328125, 8.125000000000, 6.257812500000, 8.382812500000, 1490609698
0.012207031250, -0.934326171875, 0.182861328125, 8.125000000000, 6.257812500000, 8.382812500000, 1490609698
-0.009765625000, -0.983642578125, 0.296630859375, 4.406250000000, 3.796875000000, 6.359375000000, 1490609698
-0.009765625000, -0.983642578125, 0.296630859375, 4.406250000000, 3.796875000000, 6.359375000000, 1490609698
-0.003662109375, -0.930664062500, 0.262939453125, -0.750000000000, 3.585937500000, 2.429687500000, 1490609698
-0.003662109375, -0.930664062500, 0.262939453125, -0.750000000000, 3.585937500000, 2.429687500000, 1490609698
-0.003662109375, -0.930664062500, 0.262939453125, -0.750000000000, 3.585937500000, 2.429687500000, 1490609698
-0.003662109375, -0.930664062500, 0.262939453125, -0.750000000000, 3.585937500000, 2.429687500000, 1490609698
-0.003662109375, -0.930664062500, 0.262939453125, -0.750000000000, 3.585937500000, 2.429687500000, 1490609698
-0.033203125000, -1.019287109375, 0.244873046875, -2.156250000000, 3.687500000000, -1.554687500000, 1490609698
-0.033203125000, -1.019287109375, 0.244873046875, -2.156250000000, 3.687500000000, -1.554687500000, 1490609698
-0.033203125000, -1.019287109375, 0.244873046875, -2.156250000000, 3.687500000000, -1.554687500000, 1490609699
-0.044189453125, -1.015136718750, 0.273681640625, -1.109375000000, 1.429687500000, -4.257812500000, 1490609699
-0.044189453125, -1.015136718750, 0.273681640625, -1.109375000000, 1.429687500000, -4.257812500000, 1490609699
-0.044189453125, -1.015136718750, 0.273681640625, -1.109375000000, 1.429687500000, -4.257812500000, 1490609699
0.013183593750, -1.029785156250, 0.177978515625, 0.718750000000, 3.812500000000, -8.539062500000, 1490609699
0.013183593750, -1.029785156250, 0.177978515625, 0.718750000000, 3.812500000000, -8.539062500000, 1490609699
0.013183593750, -1.029785156250, 0.177978515625, 0.718750000000, 3.812500000000, -8.539062500000, 1490609699
0.015380859375, -1.004394531250, 0.163818359375, -3.531250000000, 4.929687500000, -5.734375000000, 1490609699
0.015380859375, -1.004394531250, 0.163818359375, -3.531250000000, 4.929687500000, -5.734375000000, 1490609699
0.015380859375, -1.004394531250, 0.163818359375, -3.531250000000, 4.929687500000, -5.734375000000, 1490609699
0.013916015625, -0.976562500000, 0.110107421875, -15.187500000000, 7.046875000000, 2.203125000000, 1490609699
0.013916015625, -0.976562500000, 0.110107421875, -15.187500000000, 7.046875000000, 2.203125000000, 1490609699
0.013916015625, -0.976562500000, 0.110107421875, -15.187500000000, 7.046875000000, 2.203125000000, 1490609699
0.013916015625, -0.976562500000, 0.110107421875, -15.187500000000, 7.046875000000, 2.203125000000, 1490609699
-0.006591796875, -1.093750000000, 0.183105468750, -16.203125000000, 10.906250000000, 0.828125000000, 1490609699
0.195068359375, -0.783935546875, 0.265380859375, 13.023437500000, 21.109375000000, -5.820312500000, 1490609699
0.195068359375, -0.783935546875, 0.265380859375, 13.023437500000, 21.109375000000, -5.820312500000, 1490609699
0.195068359375, -0.783935546875, 0.265380859375, 13.023437500000, 21.109375000000, -5.820312500000, 1490609699
0.195068359375, -0.783935546875, 0.265380859375, 13.023437500000, 21.109375000000, -5.820312500000, 1490609699
0.145996093750, -0.905517578125, 0.272949218750, 39.664062500000, 45.898437500000, -16.304687500000, 1490609699
0.070312500000, -1.069580078125, 0.422607421875, 43.117187500000, 47.679687500000, -20.429687500000, 1490609699
0.070312500000, -1.069580078125, 0.422607421875, 43.117187500000, 47.679687500000, -20.429687500000, 1490609699
0.070312500000, -1.069580078125, 0.422607421875, 43.117187500000, 47.679687500000, -20.429687500000, 1490609699
-0.040283203125, -0.922607421875, 0.182617187500, -9.296875000000, 13.578125000000, -8.296875000000, 1490609699
-0.040283203125, -0.922607421875, 0.182617187500, -9.296875000000, 13.578125000000, -8.296875000000, 1490609699
-0.040283203125, -0.922607421875, 0.182617187500, -9.296875000000, 13.578125000000, -8.296875000000, 1490609699
-0.040283203125, -0.922607421875, 0.182617187500, -9.296875000000, 13.578125000000, -8.296875000000, 1490609699
-0.013183593750, -0.866455078125, 0.093017578125, -12.789062500000, 5.773437500000, 2.898437500000, 1490609699
-0.013183593750, -0.866455078125, 0.093017578125, -12.789062500000, 5.773437500000, 2.898437500000, 1490609699
0.016845703125, -0.946044921875, 0.201416015625, 5.218750000000, 22.148437500000, 7.546875000000, 1490609699
0.016845703125, -0.946044921875, 0.201416015625, 5.218750000000, 22.148437500000, 7.546875000000, 1490609699
0.016845703125, -0.946044921875, 0.201416015625, 5.218750000000, 22.148437500000, 7.546875000000, 1490609699
0.016845703125, -0.946044921875, 0.201416015625, 5.218750000000, 22.148437500000, 7.546875000000, 1490609699
-0.040039062500, -0.976806640625, 0.178710937500, -3.304687500000, 12.820312500000, -0.921875000000, 1490609699
-0.040039062500, -0.976806640625, 0.178710937500, -3.304687500000, 12.820312500000, -0.921875000000, 1490609699
-0.040039062500, -0.976806640625, 0.178710937500, -3.304687500000, 12.820312500000, -0.921875000000, 1490609699
-0.040039062500, -0.976806640625, 0.178710937500, -3.304687500000, 12.820312500000, -0.921875000000, 1490609699
0.021728515625, -1.013427734375, 0.178222656250, -7.828125000000, 2.390625000000, -1.710937500000, 1490609699
0.021728515625, -1.013427734375, 0.178222656250, -7.828125000000, 2.390625000000, -1.710937500000, 1490609699
0.021728515625, -1.013427734375, 0.178222656250, -7.070312500000, 6.015625000000, -2.484375000000, 1490609699
