ACC_X,ACC_Y,ACC_Z,G_X,G_Y,G_Z,Unix Time
0.178466796875, 0.173828125000, 1.069824218750, -6.257812500000, -0.015625000000, -6.101562500000, 1490607101
0.178466796875, 0.173828125000, 1.069824218750, -6.257812500000, -0.015625000000, -6.101562500000, 1490607101
0.178466796875, 0.173828125000, 1.069824218750, -6.257812500000, -0.015625000000, -6.101562500000, 1490607101
0.179931640625, 0.199218750000, 0.974853515625, -6.039062500000, 0.976562500000, -1.265625000000, 1490607101
0.179931640625, 0.199218750000, 0.974853515625, -6.039062500000, 0.976562500000, -1.265625000000, 1490607101
0.179931640625, 0.199218750000, 0.974853515625, -6.039062500000, 0.976562500000, -1.265625000000, 1490607101
0.164062500000, 0.165771484375, 1.011230468750, -6.046875000000, -0.250000000000, -4.289062500000, 1490607101
0.164062500000, 0.165771484375, 1.011230468750, -6.046875000000, -0.250000000000, -4.289062500000, 1490607101
0.164062500000, 0.165771484375, 1.011230468750, -6.046875000000, -0.250000000000, -4.289062500000, 1490607101
0.164062500000, 0.165771484375, 1.011230468750, -6.046875000000, -0.250000000000, -4.289062500000, 1490607101
0.273193359375, 0.226318359375, 0.937011718750, -4.562500000000, 2.382812500000, -4.125000000000, 1490607101
0.273193359375, 0.226318359375, 0.937011718750, -4.562500000000, 2.382812500000, -4.125000000000, 1490607101
0.273193359375, 0.226318359375, 0.937011718750, -4.562500000000, 2.382812500000, -4.125000000000, 1490607101
0.182373046875, 0.147949218750, 1.084472656250, -3.218750000000, 0.781250000000, -2.125000000000, 1490607101
0.182373046875, 0.147949218750, 1.084472656250, -3.218750000000, 0.781250000000, -2.125000000000, 1490607101
0.182373046875, 0.147949218750, 1.084472656250, -3.218750000000, 0.781250000000, -2.125000000000, 1490607101
0.329589843750, 0.258056640625, 1.017822265625, -4.320312500000, -0.789062500000, -1.437500000000, 1490607101
0.329589843750, 0.258056640625, 1.017822265625, -4.320312500000, -0.789062500000, -1.437500000000, 1490607101
0.329589843750, 0.258056640625, 1.017822265625, -4.320312500000, -0.789062500000, -1.437500000000, 1490607102
0.186279296875, 0.102294921875, 0.984375000000, -3.578125000000, 2.031250000000, 0.210937500000, 1490607102
0.186279296875, 0.102294921875, 0.984375000000, -3.578125000000, 2.031250000000, 0.210937500000, 1490607102
0.217041015625, 0.256103515625, 0.934814453125, -3.468750000000, -0.093750000000, -0.859375000000, 1490607102
0.273193359375, 0.180908203125, 0.997558593750, -5.570312500000, -0.265625000000, -1.070312500000, 1490607102
0.273193359375, 0.180908203125, 0.997558593750, -5.570312500000, -0.265625000000, -1.070312500000, 1490607102
0.273193359375, 0.180908203125, 0.997558593750, -5.570312500000, -0.265625000000, -1.070312500000, 1490607102
0.273193359375, 0.180908203125, 0.997558593750, -5.570312500000, -0.265625000000, -1.070312500000, 1490607102
0.207763671875, 0.120605468750, 0.994628906250, -3.953125000000, -0.023437500000, -1.023437500000, 1490607102
0.207763671875, 0.120605468750, 0.994628906250, -3.953125000000, -0.023437500000, -1.023437500000, 1490607102
0.159667968750, 0.206054687500, 1.027587890625, -3.835937500000, -0.039062500000, -3.093750000000, 1490607102
0.159667968750, 0.206054687500, 1.027587890625, -3.835937500000, -0.039062500000, -3.093750000000, 1490607102
0.159667968750, 0.206054687500, 1.027587890625, -3.835937500000, -0.039062500000, -3.093750000000, 1490607102
0.159667968750, 0.206054687500, 1.027587890625, -3.835937500000, -0.039062500000, -3.093750000000, 1490607102
0.179931640625, 0.221191406250, 0.999511718750, -3.265625000000, -0.226562500000, -4.804687500000, 1490607102
0.179931640625, 0.221191406250, 0.999511718750, -3.265625000000, -0.226562500000, -4.804687500000, 1490607102
0.179931640625, 0.221191406250, 0.999511718750, -3.265625000000, -0.226562500000, -4.804687500000, 1490607102
0.179931640625, 0.221191406250, 0.999511718750, -3.265625000000, -0.226562500000, -4.804687500000, 1490607102
0.343750000000, 0.236083984375, 1.013183593750, -6.648437500000, 4.554687500000, -2.117187500000, 1490607102
0.343750000000, 0.236083984375, 1.013183593750, -6.648437500000, 4.554687500000, -2.117187500000, 1490607102
0.343750000000, 0.236083984375, 1.013183593750, -6.648437500000, 4.554687500000, -2.117187500000, 1490607102
0.273193359375, 0.216552734375, 1.016601562500, -1.242187500000, -5.500000000000, -6.242187500000, 1490607102
0.273193359375, 0.216552734375, 1.016601562500, -1.242187500000, -5.500000000000, -6.242187500000, 1490607102
0.181640625000, 0.251220703125, 1.006103515625, -6.414062500000, 1.093750000000, -4.164062500000, 1490607102
0.181640625000, 0.251220703125, 1.006103515625, -6.414062500000, 1.093750000000, -4.164062500000, 1490607102
0.181640625000, 0.251220703125, 1.006103515625, -6.414062500000, 1.093750000000, -4.164062500000, 1490607102
0.181640625000, 0.251220703125, 1.006103515625, -6.414062500000, 1.093750000000, -4.164062500000, 1490607102
0.181640625000, 0.251220703125, 1.006103515625, -6.414062500000, 1.093750000000, -4.164062500000, 1490607102
0.281250000000, 0.268798828125, 1.028076171875, -3.554687500000, 1.789062500000, -4.156250000000, 1490607102
0.281250000000, 0.268798828125, 1.028076171875, -3.554687500000, 1.789062500000, -4.156250000000, 1490607102
0.281250000000, 0.268798828125, 1.028076171875, -3.554687500000, 1.789062500000, -4.156250000000, 1490607102
0.174316406250, 0.120117187500, 0.985107421875, -6.890625000000, 1.656250000000, -2.476562500000, 1490607102
0.174316406250, 0.120117187500, 0.985107421875, -6.890625000000, 1.656250000000, -2.476562500000, 1490607102
0.174316406250, 0.120117187500, 0.985107421875, -6.890625000000, 1.656250000000, -2.476562500000, 1490607102
0.231689453125, 0.322998046875, 0.916748046875, 12.992187500000, 3.453125000000, 2.882812500000, 1490607102
0.231689453125, 0.322998046875, 0.916748046875, 12.992187500000, 3.453125000000, 2.882812500000, 1490607102
0.231689453125, 0.322998046875, 0.916748046875, 12.992187500000, 3.453125000000, 2.882812500000, 1490607102
0.223388671875, 0.103271484375, 1.082275390625, 28.851562500000, -4.765625000000, 0.703125000000, 1490607102
0.223388671875, 0.103271484375, 1.082275390625, 28.851562500000, -4.765625000000, 0.703125000000, 1490607102
0.223388671875, 0.103271484375, 1.082275390625, 28.851562500000, -4.765625000000, 0.703125000000, 1490607102
0.223388671875, 0.103271484375, 1.082275390625, 28.851562500000, -4.765625000000, 0.703125000000, 1490607102
0.258056640625, 0.068847656250, 1.036865234375, 11.578125000000, -10.859375000000, -12.390625000000, 1490607102
0.258056640625, 0.068847656250, 1.036865234375, 11.578125000000, -10.859375000000, -12.390625000000, 1490607102
0.258056640625, 0.068847656250, 1.036865234375, 11.578125000000, -10.859375000000, -12.390625000000, 1490607102
0.306640625000, 0.056152343750, 1.076660156250, -6.937500000000, 5.445312500000, -3.257812500000, 1490607102
0.306640625000, 0.056152343750, 1.076660156250, -6.937500000000, 5.445312500000, -3.257812500000, 1490607102
0.306640625000, 0.056152343750, 1.076660156250, -6.937500000000, 5.445312500000, -3.257812500000, 1490607102
0.221435546875, 0.115478515625, 0.954101562500, 4.023437500000, 16.132812500000, -1.289062500000, 1490607102
0.221435546875, 0.115478515625, 0.954101562500, 4.023437500000, 16.132812500000, -1.289062500000, 1490607102
0.253906250000, 0.055664062500, 1.010986328125, -1.609375000000, 2.593750000000, -3.250000000000, 1490607102
0.253906250000, 0.055664062500, 1.010986328125, -1.609375000000, 2.593750000000, -3.250000000000, 1490607102
0.253906250000, 0.055664062500, 1.010986328125, -1.609375000000, 2.593750000000, -3.250000000000, 1490607102
0.253906250000, 0.055664062500, 1.010986328125, -1.609375000000, 2.593750000000, -3.250000000000, 1490607102
0.332763671875, 0.129394531250, 1.009033203125, -11.132812500000, -17.179687500000, -1.140625000000, 1490607102
0.332763671875, 0.129394531250, 1.009033203125, -11.132812500000, -17.179687500000, -1.140625000000, 1490607102
0.332763671875, 0.129394531250, 1.009033203125, -11.132812500000, -17.179687500000, -1.140625000000, 1490607102
0.332763671875, 0.129394531250, 1.009033203125, -11.132812500000, -17.179687500000, -1.140625000000, 1490607102
0.291503906250, 0.279541015625, 0.978759765625, -11.640625000000, 10.601562500000, -1.539062500000, 1490607102
0.291503906250, 0.279541015625, 0.978759765625, -11.640625000000, 10.601562500000, -1.539062500000, 1490607102
0.291503906250, 0.279541015625, 0.978759765625, -11.640625000000, 10.601562500000, -1.539062500000, 1490607102
0.234863281250, 0.189208984375, 0.993408203125, -14.867187500000, 6.976562500000, -4.171875000000, 1490607102
0.234863281250, 0.189208984375, 0.993408203125, -14.867187500000, 6.976562500000, -4.171875000000, 1490607102
0.234863281250, 0.189208984375, 0.993408203125, -14.867187500000, 6.976562500000, -4.171875000000, 1490607102
0.117675781250, 0.216308593750, 0.981689453125, -5.203125000000, -4.914062500000, -2.804687500000, 1490607102
0.117675781250, 0.216308593750, 0.981689453125, -5.203125000000, -4.914062500000, -2.804687500000, 1490607102
0.117675781250, 0.216308593750, 0.981689453125, -5.203125000000, -4.914062500000, -2.804687500000, 1490607102
0.117675781250, 0.216308593750, 0.981689453125, -5.203125000000, -4.914062500000, -2.804687500000, 1490607102
0.279541015625, 0.251220703125, 1.020507812500, -8.312500000000, -2.546875000000, -1.015625000000, 1490607103
0.297607421875, 0.144531250000, 0.913574218750, -5.812500000000, -1.671875000000, -3.953125000000, 1490607103
0.297607421875, 0.144531250000, 0.913574218750, -5.812500000000, -1.671875000000, -3.953125000000, 1490607103
0.297607421875, 0.144531250000, 0.913574218750, -5.812500000000, -1.671875000000, -3.953125000000, 1490607103
0.297607421875, 0.144531250000, 0.913574218750, -5.812500000000, -1.671875000000, -3.953125000000, 1490607103
0.227539062500, 0.188232421875, 1.009765625000, -9.140625000000, -0.390625000000, -3.242187500000, 1490607103
0.227539062500, 0.188232421875, 1.009765625000, -9.140625000000, -0.390625000000, -3.242187500000, 1490607103
0.227539062500, 0.188232421875, 1.009765625000, -9.140625000000, -0.390625000000, -3.242187500000, 1490607103
0.227539062500, 0.188232421875, 1.009765625000, -9.140625000000, -0.390625000000, -3.242187500000, 1490607103
0.342041015625, 0.269287109375, 1.027099609375, -8.289062500000, 1.539062500000, -1.039062500000, 1490607103
0.342041015625, 0.269287109375, 1.027099609375, -8.289062500000, 1.539062500000, -1.039062500000, 1490607103
0.342041015625, 0.269287109375, 1.027099609375, -8.289062500000, 1.539062500000, -1.039062500000, 1490607103
0.342041015625, 0.269287109375, 1.027099609375, -8.289062500000, 1.539062500000, -1.039062500000, 1490607103
0.230224609375, 0.146728515625, 0.972167968750, -10.031250000000, 4.468750000000, -3.312500000000, 1490607103
0.230224609375, 0.146728515625, 0.972167968750, -10.031250000000, 4.468750000000, -3.312500000000, 1490607103
0.230224609375, 0.146728515625, 0.972167968750, -10.031250000000, 4.468750000000, -3.312500000000, 1490607103
0.168701171875, 0.176757812500, 1.027587890625, -5.015625000000, 2.789062500000, -3.421875000000, 1490607103
0.168701171875, 0.176757812500, 1.027587890625, -5.015625000000, 2.789062500000, -3.421875000000, 1490607103
0.250000000000, 0.206787109375, 0.980957031250, -3.031250000000, 0.476562500000, -6.937500000000, 1490607103
0.250000000000, 0.206787109375, 0.980957031250, -3.031250000000, 0.476562500000, -6.937500000000, 1490607103
0.250000000000, 0.206787109375, 0.980957031250, -3.031250000000, 0.476562500000, -6.937500000000, 1490607103
0.250000000000, 0.206787109375, 0.980957031250, -3.031250000000, 0.476562500000, -6.937500000000, 1490607103
0.279541015625, 0.119140625000, 0.986816406250, -3.015625000000, 1.375000000000, -4.546875000000, 1490607103
0.229980468750, 0.123046875000, 1.014648437500, -3.789062500000, 3.656250000000, -3.296875000000, 1490607103
0.229980468750, 0.123046875000, 1.014648437500, -3.789062500000, 3.656250000000, -3.296875000000, 1490607103
0.233642578125, 0.166259765625, 1.077880859375, -6.437500000000, 2.343750000000, -1.820312500000, 1490607103
0.233642578125, 0.166259765625, 1.077880859375, -6.437500000000, 2.343750000000, -1.820312500000, 1490607103
0.233642578125, 0.166259765625, 1.077880859375, -6.437500000000, 2.343750000000, -1.820312500000, 1490607103
0.233642578125, 0.166259765625, 1.077880859375, -6.437500000000, 2.343750000000, -1.820312500000, 1490607103
0.233642578125, 0.166259765625, 1.077880859375, -6.437500000000, 2.343750000000, -1.820312500000, 1490607103
0.293945312500, 0.148193359375, 1.066894531250, -6.218750000000, -0.460937500000, -2.609375000000, 1490607103
0.293945312500, 0.148193359375, 1.066894531250, -6.218750000000, -0.460937500000, -2.609375000000, 1490607103
0.293945312500, 0.148193359375, 1.066894531250, -6.218750000000, -0.460937500000, -2.609375000000, 1490607103
0.293945312500, 0.148193359375, 1.066894531250, -6.218750000000, -0.460937500000, -2.609375000000, 1490607103
0.293945312500, 0.148193359375, 1.066894531250, -6.218750000000, -0.460937500000, -2.609375000000, 1490607103
0.316162109375, 0.214111328125, 1.071044921875, -3.703125000000, 0.375000000000, -4.593750000000, 1490607103
0.316162109375, 0.214111328125, 1.071044921875, -3.703125000000, 0.375000000000, -4.593750000000, 1490607103
0.181396484375, 0.163574218750, 1.006103515625, -6.148437500000, 1.859375000000, -1.265625000000, 1490607103
0.181396484375, 0.163574218750, 1.006103515625, -6.148437500000, 1.859375000000, -1.265625000000, 1490607103
0.181396484375, 0.163574218750, 1.006103515625, -6.148437500000, 1.859375000000, -1.265625000000, 1490607103
0.181396484375, 0.163574218750, 1.006103515625, -6.148437500000, 1.859375000000, -1.265625000000, 1490607103
0.174072265625, 0.240478515625, 0.933837890625, -3.929687500000, 1.554687500000, -4.531250000000, 1490607103
0.174072265625, 0.240478515625, 0.933837890625, -3.929687500000, 1.554687500000, -4.531250000000, 1490607103
0.174072265625, 0.240478515625, 0.933837890625, -3.929687500000, 1.554687500000, -4.531250000000, 1490607103
0.174072265625, 0.240478515625, 0.933837890625, -3.929687500000, 1.554687500000, -4.531250000000, 1490607103
0.296630859375, 0.207031250000, 0.970458984375, -6.851562500000, -0.093750000000, -6.070312500000, 1490607103
0.296630859375, 0.207031250000, 0.970458984375, -6.851562500000, -0.093750000000, -6.070312500000, 1490607103
0.296630859375, 0.207031250000, 0.970458984375, -6.851562500000, -0.093750000000, -6.070312500000, 1490607103
0.294677734375, 0.060791015625, 0.996093750000, -8.039062500000, -0.867187500000, -2.710937500000, 1490607103
0.294677734375, 0.060791015625, 0.996093750000, -8.039062500000, -0.867187500000, -2.710937500000, 1490607103
0.294677734375, 0.060791015625, 0.996093750000, -8.039062500000, -0.867187500000, -2.710937500000, 1490607103
0.294677734375, 0.060791015625, 0.996093750000, -8.039062500000, -0.867187500000, -2.710937500000, 1490607103
0.159423828125, 0.031494140625, 1.018066406250, -8.414062500000, -0.382812500000, -3.945312500000, 1490607103
0.159423828125, 0.031494140625, 1.018066406250, -8.414062500000, -0.382812500000, -3.945312500000, 1490607103
0.159423828125, 0.031494140625, 1.018066406250, -8.414062500000, -0.382812500000, -3.945312500000, 1490607103
0.211181640625, 0.250732421875, 0.909423828125, -6.750000000000, 0.085937500000, -3.125000000000, 1490607103
0.211181640625, 0.250732421875, 0.909423828125, -6.750000000000, 0.085937500000, -3.125000000000, 1490607103
0.211181640625, 0.250732421875, 0.909423828125, -6.750000000000, 0.085937500000, -3.125000000000, 1490607103
0.247802734375, 0.194091796875, 0.981689453125, -3.992187500000, -0.960937500000, -4.757812500000, 1490607103
0.226806640625, 0.094726562500, 1.017333984375, -3.445312500000, 0.570312500000, -3.085937500000, 1490607103
0.226806640625, 0.094726562500, 1.017333984375, -3.445312500000, 0.570312500000, -3.085937500000, 1490607103
0.226806640625, 0.094726562500, 1.017333984375, -3.445312500000, 0.570312500000, -3.085937500000, 1490607103
0.226806640625, 0.094726562500, 1.017333984375, -3.445312500000, 0.570312500000, -3.085937500000, 1490607103
0.226806640625, 0.094726562500, 1.017333984375, -3.445312500000, 0.570312500000, -3.085937500000, 1490607103
0.226806640625, 0.094726562500, 1.017333984375, -3.445312500000, 0.570312500000, -3.085937500000, 1490607103
0.263671875000, 0.136718750000, 1.029785156250, -3.304687500000, -0.656250000000, -1.625000000000, 1490607103
0.263671875000, 0.136718750000, 1.029785156250, -3.304687500000, -0.656250000000, -1.625000000000, 1490607103
0.263671875000, 0.136718750000, 1.029785156250, -3.304687500000, -0.656250000000, -1.625000000000, 1490607103
0.228271484375, 0.274414062500, 1.074707031250, -6.414062500000, -0.265625000000, -4.109375000000, 1490607104
0.228271484375, 0.274414062500, 1.074707031250, -6.414062500000, -0.265625000000, -4.109375000000, 1490607104
0.228271484375, 0.274414062500, 1.074707031250, -6.414062500000, -0.265625000000, -4.109375000000, 1490607104
0.268554687500, 0.171386718750, 1.080078125000, -4.867187500000, -0.562500000000, -4.015625000000, 1490607104
0.268554687500, 0.171386718750, 1.080078125000, -4.867187500000, -0.562500000000, -4.015625000000, 1490607104
0.268554687500, 0.171386718750, 1.080078125000, -4.867187500000, -0.562500000000, -4.015625000000, 1490607104
0.186523437500, 0.170898437500, 1.045410156250, -5.000000000000, -0.609375000000, -3.562500000000, 1490607104
0.186523437500, 0.170898437500, 1.045410156250, -5.000000000000, -0.609375000000, -3.562500000000, 1490607104
0.186523437500, 0.170898437500, 1.045410156250, -5.000000000000, -0.609375000000, -3.562500000000, 1490607104
0.184814453125, 0.193847656250, 0.979492187500, -3.031250000000, -0.335937500000, -4.140625000000, 1490607104
0.239257812500, 0.199707031250, 1.004882812500, -3.531250000000, 0.710937500000, -1.085937500000, 1490607104
0.239257812500, 0.199707031250, 1.004882812500, -3.531250000000, 0.710937500000, -1.085937500000, 1490607104
0.239257812500, 0.199707031250, 1.004882812500, -3.531250000000, 0.710937500000, -1.085937500000, 1490607104
0.274169921875, 0.242675781250, 1.024902343750, -1.468750000000, 4.523437500000, -1.742187500000, 1490607104
0.274169921875, 0.242675781250, 1.024902343750, -1.468750000000, 4.523437500000, -1.742187500000, 1490607104
0.274169921875, 0.242675781250, 1.024902343750, -1.468750000000, 4.523437500000, -1.742187500000, 1490607104
0.274169921875, 0.242675781250, 1.024902343750, -1.468750000000, 4.523437500000, -1.742187500000, 1490607104
0.274169921875, 0.242675781250, 1.024902343750, -1.468750000000, 4.523437500000, -1.742187500000, 1490607104
0.274169921875, 0.242675781250, 1.024902343750, -1.468750000000, 4.523437500000, -1.742187500000, 1490607104
0.199462890625, 0.182128906250, 1.040527343750, -3.656250000000, 0.867187500000, -6.609375000000, 1490607104
0.199462890625, 0.182128906250, 1.040527343750, -3.656250000000, 0.867187500000, -6.609375000000, 1490607104
0.199462890625, 0.182128906250, 1.040527343750, -3.656250000000, 0.867187500000, -6.609375000000, 1490607104
0.199462890625, 0.182128906250, 1.040527343750, -3.656250000000, 0.867187500000, -6.609375000000, 1490607104
0.229003906250, 0.136230468750, 0.982666015625, -6.335937500000, -0.585937500000, -4.031250000000, 1490607104
0.229003906250, 0.136230468750, 0.982666015625, -6.335937500000, -0.585937500000, -4.031250000000, 1490607104
0.229003906250, 0.136230468750, 0.982666015625, -6.335937500000, -0.585937500000, -4.031250000000, 1490607104
0.229003906250, 0.136230468750, 0.982666015625, -6.335937500000, -0.585937500000, -4.031250000000, 1490607104
0.229003906250, 0.136230468750, 0.982666015625, -6.335937500000, -0.585937500000, -4.031250000000, 1490607104
0.229003906250, 0.136230468750, 0.982666015625, -6.335937500000, -0.585937500000, -4.031250000000, 1490607104
0.262207031250, 0.159912109375, 1.029541015625, -4.984375000000, -0.210937500000, -4.304687500000, 1490607104
0.262207031250, 0.159912109375, 1.029541015625, -4.984375000000, -0.210937500000, -4.304687500000, 1490607104
0.262207031250, 0.159912109375, 1.029541015625, -4.984375000000, -0.210937500000, -4.304687500000, 1490607104
0.322509765625, 0.105468750000, 1.003662109375, -3.843750000000, -2.750000000000, -1.250000000000, 1490607104
0.322509765625, 0.105468750000, 1.003662109375, -3.843750000000, -2.750000000000, -1.250000000000, 1490607104
0.322509765625, 0.105468750000, 1.003662109375, -3.843750000000, -2.750000000000, -1.250000000000, 1490607104
0.322509765625, 0.105468750000, 1.003662109375, -3.843750000000, -2.750000000000, -1.250000000000, 1490607104
0.213134765625, 0.218017578125, 0.971679687500, -3.226562500000, 2.187500000000, -4.437500000000, 1490607104
0.213134765625, 0.218017578125, 0.971679687500, -3.226562500000, 2.187500000000, -4.437500000000, 1490607104
0.213134765625, 0.218017578125, 0.971679687500, -3.226562500000, 2.187500000000, -4.437500000000, 1490607104
0.221679687500, 0.101806640625, 1.085693359375, -3.929687500000, -0.554687500000, -6.445312500000, 1490607104
0.185302734375, 0.205810546875, 0.993408203125, -3.296875000000, -0.421875000000, -4.125000000000, 1490607104
0.185302734375, 0.205810546875, 0.993408203125, -3.296875000000, -0.421875000000, -4.125000000000, 1490607104
0.185302734375, 0.205810546875, 0.993408203125, -3.296875000000, -0.421875000000, -4.125000000000, 1490607104
0.185302734375, 0.205810546875, 0.993408203125, -3.835937500000, 2.195312500000, -4.406250000000, 1490607104
0.252197265625, 0.166503906250, 1.069580078125, -6.210937500000, 0.289062500000, -4.218750000000, 1490607104
0.252197265625, 0.166503906250, 1.069580078125, -6.210937500000, 0.289062500000, -4.218750000000, 1490607104
0.252197265625, 0.166503906250, 1.069580078125, -6.210937500000, 0.289062500000, -4.218750000000, 1490607104
0.252197265625, 0.166503906250, 1.069580078125, -6.210937500000, 0.289062500000, -4.218750000000, 1490607104
0.252197265625, 0.166503906250, 1.069580078125, -6.210937500000, 0.289062500000, -4.218750000000, 1490607104
0.179443359375, 0.206787109375, 1.125976562500, -3.132812500000, 0.640625000000, -4.468750000000, 1490607104
0.179443359375, 0.206787109375, 1.125976562500, -3.132812500000, 0.640625000000, -4.468750000000, 1490607104
0.179443359375, 0.206787109375, 1.125976562500, -3.132812500000, 0.640625000000, -4.468750000000, 1490607104
0.256103515625, 0.122802734375, 0.978027343750, -1.609375000000, -0.093750000000, -4.046875000000, 1490607104
0.256103515625, 0.122802734375, 0.978027343750, -1.609375000000, -0.093750000000, -4.046875000000, 1490607104
0.256103515625, 0.122802734375, 0.978027343750, -1.609375000000, -0.093750000000, -4.046875000000, 1490607104
0.256103515625, 0.122802734375, 0.978027343750, -1.609375000000, -0.093750000000, -4.046875000000, 1490607104
0.292968750000, 0.135253906250, 1.085693359375, -6.195312500000, 2.406250000000, -3.429687500000, 1490607104
0.292968750000, 0.135253906250, 1.085693359375, -6.195312500000, 2.406250000000, -3.429687500000, 1490607104
0.292968750000, 0.135253906250, 1.085693359375, -6.195312500000, 2.406250000000, -3.429687500000, 1490607104
0.292968750000, 0.135253906250, 1.085693359375, -6.195312500000, 2.406250000000, -3.429687500000, 1490607104
0.267089843750, 0.176269531250, 1.087890625000, -3.265625000000, -0.468750000000, -1.507812500000, 1490607104
0.267089843750, 0.176269531250, 1.087890625000, -3.265625000000, -0.468750000000, -1.507812500000, 1490607104
0.267089843750, 0.176269531250, 1.087890625000, -3.265625000000, -0.468750000000, -1.507812500000, 1490607104
0.267089843750, 0.176269531250, 1.087890625000, -3.265625000000, -0.468750000000, -1.507812500000, 1490607104
0.267089843750, 0.176269531250, 1.087890625000, -3.265625000000, -0.468750000000, -1.507812500000, 1490607104
0.257080078125, 0.159179687500, 1.000488281250, -1.820312500000, -0.640625000000, -4.570312500000, 1490607104
0.257080078125, 0.159179687500, 1.000488281250, -1.820312500000, -0.640625000000, -4.570312500000, 1490607105
0.257080078125, 0.159179687500, 1.000488281250, -1.820312500000, -0.640625000000, -4.570312500000, 1490607105
0.249755859375, 0.156982421875, 0.974853515625, -3.757812500000, -0.171875000000, -1.804687500000, 1490607105
0.249755859375, 0.156982421875, 0.974853515625, -3.757812500000, -0.171875000000, -1.804687500000, 1490607105
0.249755859375, 0.156982421875, 0.974853515625, -3.757812500000, -0.171875000000, -1.804687500000, 1490607105
0.262939453125, 0.147460937500, 0.986572265625, -6.195312500000, -0.187500000000, -4.062500000000, 1490607105
0.262939453125, 0.147460937500, 0.986572265625, -6.195312500000, -0.187500000000, -4.062500000000, 1490607105
0.262939453125, 0.147460937500, 0.986572265625, -6.195312500000, -0.187500000000, -4.062500000000, 1490607105
0.262939453125, 0.147460937500, 0.986572265625, -6.195312500000, -0.187500000000, -4.062500000000, 1490607105
0.256103515625, 0.198730468750, 0.990966796875, -6.921875000000, 0.679687500000, -4.734375000000, 1490607105
0.256103515625, 0.198730468750, 0.990966796875, -6.921875000000, 0.679687500000, -4.734375000000, 1490607105
0.256103515625, 0.198730468750, 0.990966796875, -6.921875000000, 0.679687500000, -4.734375000000, 1490607105
0.167968750000, 0.240966796875, 0.934570312500, -3.265625000000, -0.570312500000, -4.437500000000, 1490607105
0.167968750000, 0.240966796875, 0.934570312500, -3.265625000000, -0.570312500000, -4.437500000000, 1490607105
0.167968750000, 0.240966796875, 0.934570312500, -3.265625000000, -0.570312500000, -4.437500000000, 1490607105
0.199951171875, 0.205078125000, 0.992187500000, -2.648437500000, -2.781250000000, -3.929687500000, 1490607105
0.199951171875, 0.205078125000, 0.992187500000, -2.648437500000, -2.781250000000, -3.929687500000, 1490607105
0.199951171875, 0.205078125000, 0.992187500000, -2.648437500000, -2.781250000000, -3.929687500000, 1490607105
0.249023437500, 0.161865234375, 0.988037109375, -4.125000000000, 3.562500000000, -1.835937500000, 1490607105
0.249023437500, 0.161865234375, 0.988037109375, -4.125000000000, 3.562500000000, -1.835937500000, 1490607105
0.249023437500, 0.161865234375, 0.988037109375, -4.125000000000, 3.562500000000, -1.835937500000, 1490607105
0.249023437500, 0.161865234375, 0.988037109375, -4.125000000000, 3.562500000000, -1.835937500000, 1490607105
0.320312500000, 0.197753906250, 1.020019531250, -1.617187500000, 0.687500000000, -6.132812500000, 1490607105
0.320312500000, 0.197753906250, 1.020019531250, -1.617187500000, 0.687500000000, -6.132812500000, 1490607105
0.320312500000, 0.197753906250, 1.020019531250, -1.617187500000, 0.687500000000, -6.132812500000, 1490607105
0.127929687500, 0.123779296875, 0.997314453125, -6.117187500000, 2.750000000000, -1.789062500000, 1490607105
0.127929687500, 0.123779296875, 0.997314453125, -6.117187500000, 2.750000000000, -1.789062500000, 1490607105
0.127929687500, 0.123779296875, 0.997314453125, -6.117187500000, 2.750000000000, -1.789062500000, 1490607105
0.199218750000, 0.251708984375, 1.024169921875, -3.992187500000, -0.265625000000, -4.796875000000, 1490607105
0.199218750000, 0.251708984375, 1.024169921875, -3.992187500000, -0.265625000000, -4.796875000000, 1490607105
0.199218750000, 0.251708984375, 1.024169921875, -3.992187500000, -0.265625000000, -4.796875000000, 1490607105
0.221435546875, 0.212158203125, 0.994384765625, -3.921875000000, 2.234375000000, -6.250000000000, 1490607105
0.221435546875, 0.212158203125, 0.994384765625, -3.921875000000, 2.234375000000, -6.250000000000, 1490607105
0.221435546875, 0.212158203125, 0.994384765625, -3.921875000000, 2.234375000000, -6.250000000000, 1490607105
0.317626953125, 0.140136718750, 1.075439453125, -3.140625000000, 2.671875000000, -3.015625000000, 1490607105
0.317626953125, 0.140136718750, 1.075439453125, -3.140625000000, 2.671875000000, -3.015625000000, 1490607105
0.317626953125, 0.140136718750, 1.075439453125, -3.140625000000, 2.671875000000, -3.015625000000, 1490607105
0.317626953125, 0.140136718750, 1.075439453125, -3.140625000000, 2.671875000000, -3.015625000000, 1490607105
0.218017578125, 0.218017578125, 0.970214843750, -1.562500000000, 2.117187500000, -6.367187500000, 1490607105
0.218017578125, 0.218017578125, 0.970214843750, -1.562500000000, 2.117187500000, -6.367187500000, 1490607105
0.218017578125, 0.218017578125, 0.970214843750, -1.562500000000, 2.117187500000, -6.367187500000, 1490607105
0.227294921875, 0.166015625000, 0.994873046875, -3.890625000000, -2.351562500000, -4.960937500000, 1490607105
0.227294921875, 0.166015625000, 0.994873046875, -3.890625000000, -2.351562500000, -4.960937500000, 1490607105
0.227294921875, 0.166015625000, 0.994873046875, -3.890625000000, -2.351562500000, -4.960937500000, 1490607105
0.198974609375, 0.033935546875, 0.934082031250, -4.695312500000, 2.757812500000, -3.773437500000, 1490607105
0.199462890625, 0.212890625000, 0.936035156250, -6.718750000000, -0.390625000000, -3.820312500000, 1490607105
0.199462890625, 0.212890625000, 0.936035156250, -6.718750000000, -0.390625000000, -3.820312500000, 1490607105
0.199462890625, 0.212890625000, 0.936035156250, -6.718750000000, -0.390625000000, -3.820312500000, 1490607105
0.199462890625, 0.212890625000, 0.936035156250, -6.718750000000, -0.390625000000, -3.820312500000, 1490607105
0.199462890625, 0.212890625000, 0.936035156250, -6.718750000000, -0.390625000000, -3.820312500000, 1490607105
0.199462890625, 0.212890625000, 0.936035156250, -6.718750000000, -0.390625000000, -3.820312500000, 1490607105
0.253173828125, 0.110351562500, 0.994873046875, -5.031250000000, -0.109375000000, -2.039062500000, 1490607105
0.253173828125, 0.110351562500, 0.994873046875, -5.031250000000, -0.109375000000, -2.039062500000, 1490607105
0.219726562500, 0.163574218750, 1.067138671875, -4.390625000000, 0.945312500000, -4.289062500000, 1490607105
0.219726562500, 0.163574218750, 1.067138671875, -4.390625000000, 0.945312500000, -4.289062500000, 1490607105
0.219726562500, 0.163574218750, 1.067138671875, -4.390625000000, 0.945312500000, -4.289062500000, 1490607105
0.219726562500, 0.163574218750, 1.067138671875, -4.390625000000, 0.945312500000, -4.289062500000, 1490607105
0.156738281250, 0.209228515625, 0.991699218750, -3.359375000000, 0.859375000000, -3.265625000000, 1490607105
0.156738281250, 0.209228515625, 0.991699218750, -3.359375000000, 0.859375000000, -3.265625000000, 1490607105
0.156738281250, 0.209228515625, 0.991699218750, -3.359375000000, 0.859375000000, -3.265625000000, 1490607105
0.156738281250, 0.209228515625, 0.991699218750, -3.359375000000, 0.859375000000, -3.265625000000, 1490607105
0.275878906250, 0.202636718750, 1.087646484375, -3.796875000000, -0.664062500000, -1.070312500000, 1490607105
0.228759765625, 0.213378906250, 0.935791015625, -3.578125000000, 2.734375000000, -1.250000000000, 1490607105
0.228759765625, 0.213378906250, 0.935791015625, -3.578125000000, 2.734375000000, -1.250000000000, 1490607105
0.228759765625, 0.213378906250, 0.935791015625, -3.578125000000, 2.734375000000, -1.250000000000, 1490607105
0.228759765625, 0.213378906250, 0.935791015625, -3.578125000000, 2.734375000000, -1.250000000000, 1490607105
0.228759765625, 0.213378906250, 0.935791015625, -3.578125000000, 2.734375000000, -1.250000000000, 1490607106
0.184326171875, 0.261474609375, 1.027832031250, -3.335937500000, 2.242187500000, -4.140625000000, 1490607106
0.184326171875, 0.261474609375, 1.027832031250, -3.335937500000, 2.242187500000, -4.140625000000, 1490607106
0.184326171875, 0.261474609375, 1.027832031250, -3.335937500000, 2.242187500000, -4.140625000000, 1490607106
0.216308593750, 0.120361328125, 0.937011718750, -4.960937500000, -0.539062500000, -3.359375000000, 1490607106
0.187011718750, 0.216308593750, 1.025146484375, -3.171875000000, -0.015625000000, -6.179687500000, 1490607106
0.187011718750, 0.216308593750, 1.025146484375, -3.171875000000, -0.015625000000, -6.179687500000, 1490607106
0.187011718750, 0.216308593750, 1.025146484375, -3.171875000000, -0.015625000000, -6.179687500000, 1490607106
0.187011718750, 0.216308593750, 1.025146484375, -3.171875000000, -0.015625000000, -6.179687500000, 1490607106
0.187011718750, 0.216308593750, 1.025146484375, -3.171875000000, -0.015625000000, -6.179687500000, 1490607106
0.157714843750, 0.196533203125, 0.916259765625, -3.640625000000, -0.156250000000, -6.289062500000, 1490607106
0.157714843750, 0.196533203125, 0.916259765625, -3.640625000000, -0.156250000000, -6.289062500000, 1490607106
0.157714843750, 0.196533203125, 0.916259765625, -3.640625000000, -0.156250000000, -6.289062500000, 1490607106
0.157714843750, 0.196533203125, 0.916259765625, -3.640625000000, -0.156250000000, -6.289062500000, 1490607106
0.157714843750, 0.196533203125, 0.916259765625, -3.640625000000, -0.156250000000, -6.289062500000, 1490607106
0.218017578125, 0.117187500000, 0.922363281250, -1.843750000000, 1.789062500000, -1.718750000000, 1490607106
0.218017578125, 0.117187500000, 0.922363281250, -1.843750000000, 1.789062500000, -1.718750000000, 1490607106
0.218017578125, 0.117187500000, 0.922363281250, -1.843750000000, 1.789062500000, -1.718750000000, 1490607106
0.218017578125, 0.117187500000, 0.922363281250, -1.843750000000, 1.789062500000, -1.718750000000, 1490607106
0.218017578125, 0.117187500000, 0.922363281250, -1.843750000000, 1.789062500000, -1.718750000000, 1490607106
0.218017578125, 0.117187500000, 0.922363281250, -1.843750000000, 1.789062500000, -1.718750000000, 1490607106
0.176757812500, 0.190185546875, 0.971679687500, -6.031250000000, 4.992187500000, -3.617187500000, 1490607106
0.176757812500, 0.190185546875, 0.971679687500, -6.031250000000, 4.992187500000, -3.617187500000, 1490607106
0.176757812500, 0.190185546875, 0.971679687500, -6.031250000000, 4.992187500000, -3.617187500000, 1490607106
0.272705078125, 0.211425781250, 1.088867187500, -6.140625000000, -0.078125000000, -4.890625000000, 1490607106
0.281005859375, 0.178222656250, 0.916992187500, -6.937500000000, -0.945312500000, -1.398437500000, 1490607106
0.281005859375, 0.178222656250, 0.916992187500, -6.937500000000, -0.945312500000, -1.398437500000, 1490607106
0.281005859375, 0.178222656250, 0.916992187500, -6.937500000000, -0.945312500000, -1.398437500000, 1490607106
0.281005859375, 0.178222656250, 0.916992187500, -6.937500000000, -0.945312500000, -1.398437500000, 1490607106
0.153564453125, 0.266113281250, 1.073486328125, -6.031250000000, -0.703125000000, -3.515625000000, 1490607106
0.153564453125, 0.266113281250, 1.073486328125, -6.031250000000, -0.703125000000, -3.515625000000, 1490607106
0.153564453125, 0.266113281250, 1.073486328125, -6.031250000000, -0.703125000000, -3.515625000000, 1490607106
0.153564453125, 0.266113281250, 1.073486328125, -6.031250000000, -0.703125000000, -3.515625000000, 1490607106
0.153564453125, 0.266113281250, 1.073486328125, -6.031250000000, -0.703125000000, -3.515625000000, 1490607106
0.253173828125, 0.264160156250, 1.003662109375, -3.312500000000, 0.281250000000, -4.625000000000, 1490607106
0.253173828125, 0.264160156250, 1.003662109375, -3.312500000000, 0.281250000000, -4.625000000000, 1490607106
0.253173828125, 0.264160156250, 1.003662109375, -3.312500000000, 0.281250000000, -4.625000000000, 1490607106
0.253173828125, 0.264160156250, 1.003662109375, -3.312500000000, 0.281250000000, -4.625000000000, 1490607106
0.253173828125, 0.264160156250, 1.003662109375, -4.664062500000, -2.406250000000, -2.656250000000, 1490607106
0.237304687500, 0.141113281250, 0.974121093750, -4.601562500000, 0.960937500000, -4.070312500000, 1490607106
0.237304687500, 0.141113281250, 0.974121093750, -4.601562500000, 0.960937500000, -4.070312500000, 1490607106
0.237304687500, 0.141113281250, 0.974121093750, -4.601562500000, 0.960937500000, -4.070312500000, 1490607106
0.237304687500, 0.141113281250, 0.974121093750, -4.601562500000, 0.960937500000, -4.070312500000, 1490607106
0.224121093750, 0.155029296875, 1.072265625000, -4.976562500000, -0.421875000000, -2.375000000000, 1490607106
0.224121093750, 0.155029296875, 1.072265625000, -4.976562500000, -0.421875000000, -2.375000000000, 1490607106
0.224121093750, 0.155029296875, 1.072265625000, -4.976562500000, -0.421875000000, -2.375000000000, 1490607106
0.224121093750, 0.155029296875, 1.072265625000, -4.976562500000, -0.421875000000, -2.375000000000, 1490607106
0.220458984375, 0.114257812500, 1.064453125000, -4.335937500000, -0.796875000000, -1.515625000000, 1490607106
0.220458984375, 0.114257812500, 1.064453125000, -4.335937500000, -0.796875000000, -1.515625000000, 1490607106
0.220458984375, 0.114257812500, 1.064453125000, -4.335937500000, -0.796875000000, -1.515625000000, 1490607106
0.235107421875, 0.112304687500, 1.018310546875, -3.273437500000, -0.757812500000, -4.617187500000, 1490607106
0.235107421875, 0.112304687500, 1.018310546875, -3.273437500000, -0.757812500000, -4.617187500000, 1490607106
0.235107421875, 0.112304687500, 1.018310546875, -3.273437500000, -0.757812500000, -4.617187500000, 1490607106
0.272949218750, 0.175781250000, 0.933105468750, -6.757812500000, 0.937500000000, 0.304687500000, 1490607106
0.272949218750, 0.175781250000, 0.933105468750, -6.757812500000, 0.937500000000, 0.304687500000, 1490607106
0.272949218750, 0.175781250000, 0.933105468750, -6.757812500000, 0.937500000000, 0.304687500000, 1490607106
0.197998046875, 0.112060546875, 0.922607421875, -3.148437500000, 0.929687500000, -4.226562500000, 1490607106
0.197998046875, 0.112060546875, 0.922607421875, -3.148437500000, 0.929687500000, -4.226562500000, 1490607106
0.197998046875, 0.112060546875, 0.922607421875, -3.148437500000, 0.929687500000, -4.226562500000, 1490607106
0.197998046875, 0.112060546875, 0.922607421875, -3.148437500000, 0.929687500000, -4.226562500000, 1490607106
0.278564453125, 0.216796875000, 1.038574218750, -4.890625000000, 2.406250000000, -2.718750000000, 1490607106
0.278564453125, 0.216796875000, 1.038574218750, -4.890625000000, 2.406250000000, -2.718750000000, 1490607106
0.278564453125, 0.216796875000, 1.038574218750, -4.890625000000, 2.406250000000, -2.718750000000, 1490607106
0.226074218750, 0.104736328125, 1.045654296875, -6.070312500000, 1.789062500000, -3.953125000000, 1490607106
0.226074218750, 0.104736328125, 1.045654296875, -6.070312500000, 1.789062500000, -3.953125000000, 1490607106
0.226074218750, 0.104736328125, 1.045654296875, -6.070312500000, 1.789062500000, -3.953125000000, 1490607106
0.250244140625, 0.181640625000, 0.968994140625, -4.585937500000, 2.687500000000, -4.171875000000, 1490607106
0.250244140625, 0.181640625000, 0.968994140625, -4.585937500000, 2.687500000000, -4.171875000000, 1490607106
0.250244140625, 0.181640625000, 0.968994140625, -4.585937500000, 2.687500000000, -4.171875000000, 1490607107
0.226074218750, 0.267822265625, 1.018798828125, -3.070312500000, -0.664062500000, -2.718750000000, 1490607107
0.226074218750, 0.267822265625, 1.018798828125, -3.070312500000, -0.664062500000, -2.718750000000, 1490607107
0.226074218750, 0.267822265625, 1.018798828125, -3.070312500000, -0.664062500000, -2.718750000000, 1490607107
0.226074218750, 0.267822265625, 1.018798828125, -3.070312500000, -0.664062500000, -2.718750000000, 1490607107
0.276123046875, 0.208007812500, 1.019287109375, -3.703125000000, 2.437500000000, -4.351562500000, 1490607107
0.276123046875, 0.208007812500, 1.019287109375, -3.703125000000, 2.437500000000, -4.351562500000, 1490607107
0.276123046875, 0.208007812500, 1.019287109375, -3.703125000000, 2.437500000000, -4.351562500000, 1490607107
0.242675781250, 0.112548828125, 1.023437500000, -6.492187500000, -0.632812500000, -1.351562500000, 1490607107
0.242675781250, 0.112548828125, 1.023437500000, -6.492187500000, -0.632812500000, -1.351562500000, 1490607107
0.250244140625, 0.196777343750, 1.000732421875, -3.460937500000, -0.257812500000, -2.875000000000, 1490607107
0.221191406250, 0.191894531250, 0.980224609375, -3.085937500000, -0.367187500000, -4.484375000000, 1490607107
0.221191406250, 0.191894531250, 0.980224609375, -3.085937500000, -0.367187500000, -4.484375000000, 1490607107
0.221191406250, 0.191894531250, 0.980224609375, -3.085937500000, -0.367187500000, -4.484375000000, 1490607107
0.240966796875, 0.211669921875, 1.010498046875, -3.093750000000, 4.015625000000, -4.226562500000, 1490607107
0.227294921875, 0.178222656250, 1.024414062500, -4.937500000000, 2.726562500000, -1.164062500000, 1490607107
0.227294921875, 0.178222656250, 1.024414062500, -4.937500000000, 2.726562500000, -1.164062500000, 1490607107
0.167236328125, 0.149414062500, 1.066650390625, -6.937500000000, 1.000000000000, -1.179687500000, 1490607107
0.167236328125, 0.149414062500, 1.066650390625, -6.937500000000, 1.000000000000, -1.179687500000, 1490607107
0.042968750000, 0.180419921875, 0.921630859375, -3.726562500000, -0.031250000000, -2.812500000000, 1490607107
0.208251953125, 0.121582031250, 0.989990234375, -4.257812500000, 1.945312500000, -1.773437500000, 1490607107
0.208251953125, 0.121582031250, 0.989990234375, -4.257812500000, 1.945312500000, -1.773437500000, 1490607107
0.208251953125, 0.121582031250, 0.989990234375, -4.257812500000, 1.945312500000, -1.773437500000, 1490607107
0.208251953125, 0.121582031250, 0.989990234375, -4.257812500000, 1.945312500000, -1.773437500000, 1490607107
0.208251953125, 0.121582031250, 0.989990234375, -4.257812500000, 1.945312500000, -1.773437500000, 1490607107
0.208251953125, 0.121582031250, 0.989990234375, -4.257812500000, 1.945312500000, -1.773437500000, 1490607107
0.183349609375, 0.166015625000, 0.991210937500, -3.765625000000, 0.062500000000, -3.953125000000, 1490607107
0.183349609375, 0.166015625000, 0.991210937500, -3.765625000000, 0.062500000000, -3.953125000000, 1490607107
0.183349609375, 0.166015625000, 0.991210937500, -3.765625000000, 0.062500000000, -3.953125000000, 1490607107
0.183349609375, 0.166015625000, 0.991210937500, -3.765625000000, 0.062500000000, -3.953125000000, 1490607107
0.276611328125, 0.189941406250, 0.991210937500, -6.515625000000, 1.835937500000, -3.218750000000, 1490607107
0.276611328125, 0.189941406250, 0.991210937500, -6.515625000000, 1.835937500000, -3.218750000000, 1490607107
0.276611328125, 0.189941406250, 0.991210937500, -6.515625000000, 1.835937500000, -3.218750000000, 1490607107
0.276611328125, 0.189941406250, 0.991210937500, -6.515625000000, 1.835937500000, -3.218750000000, 1490607107
0.274414062500, 0.246826171875, 1.086914062500, -5.304687500000, 0.695312500000, -1.195312500000, 1490607107
0.274414062500, 0.246826171875, 1.086914062500, -5.304687500000, 0.695312500000, -1.195312500000, 1490607107
0.274414062500, 0.246826171875, 1.086914062500, -5.304687500000, 0.695312500000, -1.195312500000, 1490607107
0.253662109375, 0.159179687500, 1.034179687500, -5.000000000000, 0.578125000000, -1.664062500000, 1490607107
0.253662109375, 0.159179687500, 1.034179687500, -5.000000000000, 0.578125000000, -1.664062500000, 1490607107
0.340332031250, 0.266357421875, 1.066650390625, -3.218750000000, -4.023437500000, -4.093750000000, 1490607107
0.340332031250, 0.266357421875, 1.066650390625, -3.218750000000, -4.023437500000, -4.093750000000, 1490607107
0.340332031250, 0.266357421875, 1.066650390625, -3.218750000000, -4.023437500000, -4.093750000000, 1490607107
0.340332031250, 0.266357421875, 1.066650390625, -3.218750000000, -4.023437500000, -4.093750000000, 1490607107
0.340332031250, 0.266357421875, 1.066650390625, -3.218750000000, -4.023437500000, -4.093750000000, 1490607107
0.231933593750, 0.214355468750, 0.949951171875, -4.859375000000, -0.320312500000, -4.000000000000, 1490607107
0.231933593750, 0.214355468750, 0.949951171875, -4.859375000000, -0.320312500000, -4.000000000000, 1490607107
0.231933593750, 0.214355468750, 0.949951171875, -4.859375000000, -0.320312500000, -4.000000000000, 1490607107
