ACC_X,ACC_Y,ACC_Z,G_X,G_Y,G_Z,Unix Time
-0.073486328125, -1.026855468750, 0.236328125000, -6.320312500000, -0.828125000000, -5.781250000000, 1490610048
-0.073486328125, -1.026855468750, 0.236328125000, -6.320312500000, -0.828125000000, -5.781250000000, 1490610048
-0.073486328125, -1.026855468750, 0.236328125000, -6.320312500000, -0.828125000000, -5.781250000000, 1490610048
-0.073486328125, -1.026855468750, 0.236328125000, -6.320312500000, -0.828125000000, -5.781250000000, 1490610048
-0.053466796875, -0.968017578125, 0.227050781250, -1.976562500000, -1.484375000000, -4.328125000000, 1490610048
-0.053466796875, -0.968017578125, 0.227050781250, -1.976562500000, -1.484375000000, -4.328125000000, 1490610048
-0.053466796875, -0.968017578125, 0.227050781250, -1.976562500000, -1.484375000000, -4.328125000000, 1490610048
0.019042968750, -0.907470703125, 0.318359375000, -4.773437500000, -2.273437500000, -3.492187500000, 1490610048
0.019042968750, -0.907470703125, 0.318359375000, -4.773437500000, -2.273437500000, -3.492187500000, 1490610048
0.019042968750, -0.907470703125, 0.318359375000, -4.773437500000, -2.273437500000, -3.492187500000, 1490610048
-0.062744140625, -0.919677734375, 0.239013671875, -3.460937500000, -1.468750000000, -2.375000000000, 1490610048
-0.062744140625, -0.919677734375, 0.239013671875, -3.460937500000, -1.468750000000, -2.375000000000, 1490610048
0.003662109375, -1.018554687500, 0.238525390625, -3.640625000000, -2.757812500000, -4.593750000000, 1490610048
0.003662109375, -1.018554687500, 0.238525390625, -3.640625000000, -2.757812500000, -4.593750000000, 1490610048
0.003662109375, -1.018554687500, 0.238525390625, -3.640625000000, -2.757812500000, -4.593750000000, 1490610048
0.003662109375, -1.018554687500, 0.238525390625, -3.640625000000, -2.757812500000, -4.593750000000, 1490610048
0.003662109375, -1.018554687500, 0.238525390625, -3.640625000000, -2.757812500000, -4.593750000000, 1490610048
-0.073730468750, -0.962890625000, 0.324462890625, -3.546875000000, -2.718750000000, -3.500000000000, 1490610048
-0.073730468750, -0.962890625000, 0.324462890625, -3.546875000000, -2.718750000000, -3.500000000000, 1490610048
-0.073730468750, -0.962890625000, 0.324462890625, -3.546875000000, -2.718750000000, -3.500000000000, 1490610048
0.005615234375, -0.926025390625, 0.219482421875, -3.484375000000, 0.687500000000, -3.187500000000, 1490610048
0.005615234375, -0.926025390625, 0.219482421875, -3.484375000000, 0.687500000000, -3.187500000000, 1490610048
0.005615234375, -0.926025390625, 0.219482421875, -3.484375000000, 0.687500000000, -3.187500000000, 1490610048
-0.075439453125, -0.988037109375, 0.277832031250, -5.328125000000, 0.937500000000, -1.695312500000, 1490610048
-0.075439453125, -0.988037109375, 0.277832031250, -5.328125000000, 0.937500000000, -1.695312500000, 1490610048
-0.075439453125, -0.988037109375, 0.277832031250, -5.328125000000, 0.937500000000, -1.695312500000, 1490610048
-0.043945312500, -0.855468750000, 0.232421875000, -6.882812500000, 2.273437500000, -3.039062500000, 1490610048
-0.043945312500, -0.855468750000, 0.232421875000, -6.882812500000, 2.273437500000, -3.039062500000, 1490610048
-0.043945312500, -0.855468750000, 0.232421875000, -6.882812500000, 2.273437500000, -3.039062500000, 1490610048
-0.043945312500, -0.855468750000, 0.232421875000, -6.882812500000, 2.273437500000, -3.039062500000, 1490610048
-0.017089843750, -0.930419921875, 0.305908203125, -5.070312500000, 0.500000000000, -4.226562500000, 1490610048
-0.017089843750, -0.930419921875, 0.305908203125, -5.070312500000, 0.500000000000, -4.226562500000, 1490610048
-0.017089843750, -0.930419921875, 0.305908203125, -5.070312500000, 0.500000000000, -4.226562500000, 1490610048
-0.142578125000, -0.983154296875, 0.232910156250, -6.601562500000, -0.703125000000, -2.820312500000, 1490610048
-0.142578125000, -0.983154296875, 0.232910156250, -6.601562500000, -0.703125000000, -2.820312500000, 1490610048
-0.142578125000, -0.983154296875, 0.232910156250, -6.601562500000, -0.703125000000, -2.820312500000, 1490610048
-0.032226562500, -0.967529296875, 0.274414062500, -8.593750000000, -0.375000000000, -4.851562500000, 1490610048
-0.032226562500, -0.967529296875, 0.274414062500, -8.593750000000, -0.375000000000, -4.851562500000, 1490610048
-0.032226562500, -0.967529296875, 0.274414062500, -8.593750000000, -0.375000000000, -4.851562500000, 1490610048
-0.022705078125, -1.026611328125, 0.316894531250, -9.171875000000, 6.140625000000, -1.289062500000, 1490610049
-0.022705078125, -1.026611328125, 0.316894531250, -9.171875000000, 6.140625000000, -1.289062500000, 1490610049
-0.022705078125, -1.026611328125, 0.316894531250, -9.171875000000, 6.140625000000, -1.289062500000, 1490610049
-0.022705078125, -1.026611328125, 0.316894531250, -9.171875000000, 6.140625000000, -1.289062500000, 1490610049
-0.010253906250, -1.001220703125, 0.338134765625, -2.757812500000, -3.414062500000, -6.976562500000, 1490610049
-0.010253906250, -1.001220703125, 0.338134765625, -2.757812500000, -3.414062500000, -6.976562500000, 1490610049
-0.010253906250, -1.001220703125, 0.338134765625, -2.757812500000, -3.414062500000, -6.976562500000, 1490610049
-0.016357421875, -1.090332031250, 0.276367187500, -3.445312500000, -0.117187500000, -4.851562500000, 1490610049
-0.016357421875, -1.090332031250, 0.276367187500, -3.445312500000, -0.117187500000, -4.851562500000, 1490610049
-0.016357421875, -1.090332031250, 0.276367187500, -3.445312500000, -0.117187500000, -4.851562500000, 1490610049
-0.071777343750, -0.914550781250, 0.183349609375, -5.554687500000, -0.101562500000, -3.531250000000, 1490610049
-0.071777343750, -0.914550781250, 0.183349609375, -5.554687500000, -0.101562500000, -3.531250000000, 1490610049
-0.071777343750, -0.914550781250, 0.183349609375, -5.554687500000, -0.101562500000, -3.531250000000, 1490610049
0.008789062500, -0.926757812500, 0.332519531250, -8.992187500000, -0.203125000000, -3.789062500000, 1490610049
0.008789062500, -0.926757812500, 0.332519531250, -8.992187500000, -0.203125000000, -3.789062500000, 1490610049
0.008789062500, -0.926757812500, 0.332519531250, -8.992187500000, -0.203125000000, -3.789062500000, 1490610049
0.008789062500, -0.926757812500, 0.332519531250, -8.992187500000, -0.203125000000, -3.789062500000, 1490610049
-0.075439453125, -1.070068359375, 0.230468750000, -5.890625000000, -0.796875000000, -4.250000000000, 1490610049
-0.075439453125, -1.070068359375, 0.230468750000, -5.890625000000, -0.796875000000, -4.250000000000, 1490610049
-0.075439453125, -1.070068359375, 0.230468750000, -5.890625000000, -0.796875000000, -4.250000000000, 1490610049
0.010253906250, -1.017578125000, 0.247802734375, -5.570312500000, 0.156250000000, -4.382812500000, 1490610049
0.010253906250, -1.017578125000, 0.247802734375, -5.570312500000, 0.156250000000, -4.382812500000, 1490610049
0.010253906250, -1.017578125000, 0.247802734375, -5.570312500000, 0.156250000000, -4.382812500000, 1490610049
-0.020263671875, -0.932373046875, 0.239746093750, -6.656250000000, 0.367187500000, -2.406250000000, 1490610049
-0.020263671875, -0.932373046875, 0.239746093750, -6.656250000000, 0.367187500000, -2.406250000000, 1490610049
-0.020263671875, -0.932373046875, 0.239746093750, -6.656250000000, 0.367187500000, -2.406250000000, 1490610049
-0.013916015625, -0.999267578125, 0.313720703125, -6.531250000000, 0.875000000000, -1.320312500000, 1490610049
-0.013916015625, -0.999267578125, 0.313720703125, -6.531250000000, 0.875000000000, -1.320312500000, 1490610049
-0.013916015625, -0.999267578125, 0.313720703125, -6.531250000000, 0.875000000000, -1.320312500000, 1490610049
-0.013916015625, -0.999267578125, 0.313720703125, -6.531250000000, 0.875000000000, -1.320312500000, 1490610049
0.012695312500, -0.992675781250, 0.315673828125, -3.085937500000, -0.109375000000, -4.601562500000, 1490610049
0.012695312500, -0.992675781250, 0.315673828125, -3.085937500000, -0.109375000000, -4.601562500000, 1490610049
0.012695312500, -0.992675781250, 0.315673828125, -3.085937500000, -0.109375000000, -4.601562500000, 1490610049
-0.037353515625, -0.922607421875, 0.225830078125, -6.828125000000, -2.273437500000, -3.000000000000, 1490610049
-0.037353515625, -0.922607421875, 0.225830078125, -6.828125000000, -2.273437500000, -3.000000000000, 1490610049
-0.037353515625, -0.922607421875, 0.225830078125, -6.828125000000, -2.273437500000, -3.000000000000, 1490610049
-0.128906250000, -0.921386718750, 0.327148437500, -10.156250000000, 2.375000000000, -2.257812500000, 1490610049
-0.053955078125, -0.980224609375, 0.280273437500, -3.234375000000, -2.281250000000, -3.382812500000, 1490610049
0.070068359375, -0.962402343750, 0.247070312500, -1.515625000000, -2.367187500000, -4.679687500000, 1490610049
0.070068359375, -0.962402343750, 0.247070312500, -1.515625000000, -2.367187500000, -4.679687500000, 1490610049
0.070068359375, -0.962402343750, 0.247070312500, -1.515625000000, -2.367187500000, -4.679687500000, 1490610049
0.070068359375, -0.962402343750, 0.247070312500, -1.515625000000, -2.367187500000, -4.679687500000, 1490610049
0.070068359375, -0.962402343750, 0.247070312500, -1.515625000000, -2.367187500000, -4.679687500000, 1490610049
0.070068359375, -0.962402343750, 0.247070312500, -1.515625000000, -2.367187500000, -4.679687500000, 1490610049
0.007324218750, -0.857910156250, 0.286865234375, -4.828125000000, 2.953125000000, -2.273437500000, 1490610049
0.007324218750, -0.857910156250, 0.286865234375, -4.828125000000, 2.953125000000, -2.273437500000, 1490610049
0.007324218750, -0.857910156250, 0.286865234375, -4.828125000000, 2.953125000000, -2.273437500000, 1490610049
0.017333984375, -1.019287109375, 0.272216796875, -1.078125000000, 0.125000000000, -4.757812500000, 1490610049
0.017333984375, -1.019287109375, 0.272216796875, -1.078125000000, 0.125000000000, -4.757812500000, 1490610049
0.017333984375, -1.019287109375, 0.272216796875, -1.078125000000, 0.125000000000, -4.757812500000, 1490610049
0.068847656250, -0.931152343750, 0.167480468750, -4.976562500000, 3.515625000000, -6.281250000000, 1490610049
0.068847656250, -0.931152343750, 0.167480468750, -4.976562500000, 3.515625000000, -6.281250000000, 1490610049
0.068847656250, -0.931152343750, 0.167480468750, -4.976562500000, 3.515625000000, -6.281250000000, 1490610049
0.068847656250, -0.931152343750, 0.167480468750, -4.976562500000, 3.515625000000, -6.281250000000, 1490610049
0.066162109375, -1.030029296875, 0.312988281250, -1.914062500000, 2.671875000000, -3.320312500000, 1490610049
0.066162109375, -1.030029296875, 0.312988281250, -1.914062500000, 2.671875000000, -3.320312500000, 1490610049
0.066162109375, -1.030029296875, 0.312988281250, -1.914062500000, 2.671875000000, -3.320312500000, 1490610049
0.066162109375, -1.030029296875, 0.312988281250, -1.914062500000, 2.671875000000, -3.320312500000, 1490610049
0.066162109375, -1.030029296875, 0.312988281250, -1.914062500000, 2.671875000000, -3.320312500000, 1490610049
-0.030029296875, -0.992431640625, 0.284423828125, -2.726562500000, -0.625000000000, -1.664062500000, 1490610049
-0.030029296875, -0.992431640625, 0.284423828125, -2.726562500000, -0.625000000000, -1.664062500000, 1490610049
-0.030029296875, -0.992431640625, 0.284423828125, -2.726562500000, -0.625000000000, -1.664062500000, 1490610049
-0.041748046875, -1.030761718750, 0.223388671875, -3.617187500000, 1.539062500000, -3.414062500000, 1490610049
-0.041748046875, -1.030761718750, 0.223388671875, -3.617187500000, 1.539062500000, -3.414062500000, 1490610049
-0.041748046875, -1.030761718750, 0.223388671875, -3.617187500000, 1.539062500000, -3.414062500000, 1490610049
-0.080322265625, -0.989746093750, 0.247558593750, -3.671875000000, 2.773437500000, -1.945312500000, 1490610049
-0.080322265625, -0.989746093750, 0.247558593750, -3.671875000000, 2.773437500000, -1.945312500000, 1490610049
-0.080322265625, -0.989746093750, 0.247558593750, -3.671875000000, 2.773437500000, -1.945312500000, 1490610049
-0.080322265625, -0.989746093750, 0.247558593750, -3.671875000000, 2.773437500000, -1.945312500000, 1490610049
-0.046386718750, -1.016601562500, 0.263671875000, -3.101562500000, 2.671875000000, -4.921875000000, 1490610050
-0.046386718750, -1.016601562500, 0.263671875000, -3.101562500000, 2.671875000000, -4.921875000000, 1490610050
-0.046386718750, -1.016601562500, 0.263671875000, -3.101562500000, 2.671875000000, -4.921875000000, 1490610050
-0.079345703125, -0.977539062500, 0.325683593750, -4.234375000000, -0.546875000000, -4.468750000000, 1490610050
-0.079345703125, -0.977539062500, 0.325683593750, -4.234375000000, -0.546875000000, -4.468750000000, 1490610050
-0.079345703125, -0.977539062500, 0.325683593750, -4.234375000000, -0.546875000000, -4.468750000000, 1490610050
-0.065429687500, -1.013427734375, 0.241455078125, -6.585937500000, 4.695312500000, -4.953125000000, 1490610050
-0.065429687500, -1.013427734375, 0.241455078125, -6.585937500000, 4.695312500000, -4.953125000000, 1490610050
-0.065429687500, -1.013427734375, 0.241455078125, -6.585937500000, 4.695312500000, -4.953125000000, 1490610050
-0.002197265625, -0.977783203125, 0.267089843750, -6.304687500000, 1.164062500000, -4.507812500000, 1490610050
-0.002197265625, -0.977783203125, 0.267089843750, -6.304687500000, 1.164062500000, -4.507812500000, 1490610050
-0.002197265625, -0.977783203125, 0.267089843750, -6.304687500000, 1.164062500000, -4.507812500000, 1490610050
-0.002197265625, -0.977783203125, 0.267089843750, -6.304687500000, 1.164062500000, -4.507812500000, 1490610050
0.017333984375, -0.980957031250, 0.332519531250, -6.250000000000, 4.156250000000, -6.289062500000, 1490610050
0.017333984375, -0.980957031250, 0.332519531250, -6.250000000000, 4.156250000000, -6.289062500000, 1490610050
0.017333984375, -0.980957031250, 0.332519531250, -6.250000000000, 4.156250000000, -6.289062500000, 1490610050
0.020996093750, -1.010742187500, 0.403076171875, -5.765625000000, 2.875000000000, -4.601562500000, 1490610050
0.020996093750, -1.010742187500, 0.403076171875, -5.765625000000, 2.875000000000, -4.601562500000, 1490610050
0.020996093750, -1.010742187500, 0.403076171875, -5.765625000000, 2.875000000000, -4.601562500000, 1490610050
0.008789062500, -0.869628906250, 0.227050781250, -6.250000000000, 2.109375000000, -1.273437500000, 1490610050
0.008789062500, -0.869628906250, 0.227050781250, -6.250000000000, 2.109375000000, -1.273437500000, 1490610050
0.008789062500, -0.869628906250, 0.227050781250, -6.250000000000, 2.109375000000, -1.273437500000, 1490610050
-0.081054687500, -0.932861328125, 0.235595703125, -6.984375000000, 1.296875000000, -4.445312500000, 1490610050
-0.081054687500, -0.932861328125, 0.235595703125, -6.984375000000, 1.296875000000, -4.445312500000, 1490610050
-0.081054687500, -0.932861328125, 0.235595703125, -6.984375000000, 1.296875000000, -4.445312500000, 1490610050
-0.081054687500, -0.932861328125, 0.235595703125, -6.984375000000, 1.296875000000, -4.445312500000, 1490610050
-0.023925781250, -0.865478515625, 0.342529296875, -8.226562500000, 2.664062500000, -3.703125000000, 1490610050
-0.023925781250, -0.865478515625, 0.342529296875, -8.226562500000, 2.664062500000, -3.703125000000, 1490610050
-0.023925781250, -0.865478515625, 0.342529296875, -8.226562500000, 2.664062500000, -3.703125000000, 1490610050
-0.060302734375, -1.010009765625, 0.254394531250, -6.148437500000, 2.375000000000, -1.476562500000, 1490610050
-0.060302734375, -1.010009765625, 0.254394531250, -6.148437500000, 2.375000000000, -1.476562500000, 1490610050
-0.060302734375, -1.010009765625, 0.254394531250, -6.148437500000, 2.375000000000, -1.476562500000, 1490610050
-0.063232421875, -0.849609375000, 0.226074218750, -1.664062500000, -0.765625000000, -1.765625000000, 1490610050
-0.063232421875, -0.849609375000, 0.226074218750, -1.664062500000, -0.765625000000, -1.765625000000, 1490610050
-0.063232421875, -0.849609375000, 0.226074218750, -1.664062500000, -0.765625000000, -1.765625000000, 1490610050
-0.064941406250, -0.915039062500, 0.242675781250, -0.164062500000, -4.359375000000, -4.789062500000, 1490610050
-0.064941406250, -0.915039062500, 0.242675781250, -0.164062500000, -4.359375000000, -4.789062500000, 1490610050
-0.064941406250, -0.915039062500, 0.242675781250, -0.164062500000, -4.359375000000, -4.789062500000, 1490610050
-0.064941406250, -0.915039062500, 0.242675781250, -0.164062500000, -4.359375000000, -4.789062500000, 1490610050
-0.053222656250, -0.928466796875, 0.228515625000, -4.460937500000, 0.757812500000, -3.507812500000, 1490610050
-0.053222656250, -0.928466796875, 0.228515625000, -4.460937500000, 0.757812500000, -3.507812500000, 1490610050
-0.053222656250, -0.928466796875, 0.228515625000, -4.460937500000, 0.757812500000, -3.507812500000, 1490610050
-0.069335937500, -0.973876953125, 0.241210937500, -6.625000000000, -0.531250000000, -5.585937500000, 1490610050
-0.069335937500, -0.973876953125, 0.241210937500, -6.625000000000, -0.531250000000, -5.585937500000, 1490610050
-0.069335937500, -0.973876953125, 0.241210937500, -6.625000000000, -0.531250000000, -5.585937500000, 1490610050
-0.040527343750, -0.961914062500, 0.312744140625, -3.726562500000, 2.250000000000, -4.281250000000, 1490610050
-0.040527343750, -0.961914062500, 0.312744140625, -3.726562500000, 2.250000000000, -4.281250000000, 1490610050
-0.040527343750, -0.961914062500, 0.312744140625, -3.726562500000, 2.250000000000, -4.281250000000, 1490610050
0.020751953125, -0.916259765625, 0.219238281250, -8.406250000000, -0.726562500000, -3.367187500000, 1490610050
0.020751953125, -0.916259765625, 0.219238281250, -8.406250000000, -0.726562500000, -3.367187500000, 1490610050
0.020751953125, -0.916259765625, 0.219238281250, -8.406250000000, -0.726562500000, -3.367187500000, 1490610050
0.020751953125, -0.916259765625, 0.219238281250, -8.406250000000, -0.726562500000, -3.367187500000, 1490610050
0.010742187500, -1.014404296875, 0.322265625000, -3.367187500000, -0.867187500000, -1.414062500000, 1490610050
0.010742187500, -1.014404296875, 0.322265625000, -3.367187500000, -0.867187500000, -1.414062500000, 1490610050
0.010742187500, -1.014404296875, 0.322265625000, -3.367187500000, -0.867187500000, -1.414062500000, 1490610050
0.000244140625, -1.003906250000, 0.287353515625, -6.656250000000, 2.726562500000, -4.507812500000, 1490610050
0.000244140625, -1.003906250000, 0.287353515625, -6.656250000000, 2.726562500000, -4.507812500000, 1490610050
0.000244140625, -1.003906250000, 0.287353515625, -6.656250000000, 2.726562500000, -4.507812500000, 1490610050
-0.038085937500, -0.995605468750, 0.237548828125, -6.406250000000, 1.421875000000, -1.882812500000, 1490610050
-0.038085937500, -0.995605468750, 0.237548828125, -6.406250000000, 1.421875000000, -1.882812500000, 1490610050
-0.038085937500, -0.995605468750, 0.237548828125, -6.406250000000, 1.421875000000, -1.882812500000, 1490610050
-0.065917968750, -0.995605468750, 0.327148437500, -5.000000000000, -0.648437500000, -4.476562500000, 1490610050
-0.065917968750, -0.995605468750, 0.327148437500, -5.000000000000, -0.648437500000, -4.476562500000, 1490610050
-0.065917968750, -0.995605468750, 0.327148437500, -5.000000000000, -0.648437500000, -4.476562500000, 1490610050
-0.065917968750, -0.995605468750, 0.327148437500, -5.000000000000, -0.648437500000, -4.476562500000, 1490610050
-0.014404296875, -1.009521484375, 0.272949218750, -3.445312500000, -0.132812500000, -1.109375000000, 1490610050
-0.014404296875, -1.009521484375, 0.272949218750, -3.445312500000, -0.132812500000, -1.109375000000, 1490610051
-0.014404296875, -1.009521484375, 0.272949218750, -3.445312500000, -0.132812500000, -1.109375000000, 1490610051
-0.143066406250, -0.987304687500, 0.343750000000, -8.507812500000, 2.671875000000, -4.375000000000, 1490610051
-0.143066406250, -0.987304687500, 0.343750000000, -8.507812500000, 2.671875000000, -4.375000000000, 1490610051
-0.143066406250, -0.987304687500, 0.343750000000, -8.507812500000, 2.671875000000, -4.375000000000, 1490610051
0.080078125000, -1.006835937500, 0.246337890625, -4.765625000000, 2.750000000000, -2.781250000000, 1490610051
0.080078125000, -1.006835937500, 0.246337890625, -4.765625000000, 2.750000000000, -2.781250000000, 1490610051
0.080078125000, -1.006835937500, 0.246337890625, -4.765625000000, 2.750000000000, -2.781250000000, 1490610051
-0.015869140625, -1.068603515625, 0.174072265625, -6.468750000000, -0.414062500000, -1.671875000000, 1490610051
-0.015869140625, -1.068603515625, 0.174072265625, -6.468750000000, -0.414062500000, -1.671875000000, 1490610051
-0.015869140625, -1.068603515625, 0.174072265625, -6.468750000000, -0.414062500000, -1.671875000000, 1490610051
-0.015869140625, -1.068603515625, 0.174072265625, -6.468750000000, -0.414062500000, -1.671875000000, 1490610051
-0.042968750000, -0.986328125000, 0.223144531250, -6.625000000000, 1.296875000000, -2.609375000000, 1490610051
-0.042968750000, -0.986328125000, 0.223144531250, -6.625000000000, 1.296875000000, -2.609375000000, 1490610051
-0.042968750000, -0.986328125000, 0.223144531250, -6.625000000000, 1.296875000000, -2.609375000000, 1490610051
0.030273437500, -0.980224609375, 0.241943359375, -4.960937500000, 2.539062500000, -1.890625000000, 1490610051
0.030273437500, -0.980224609375, 0.241943359375, -4.960937500000, 2.539062500000, -1.890625000000, 1490610051
0.030273437500, -0.980224609375, 0.241943359375, -4.960937500000, 2.539062500000, -1.890625000000, 1490610051
-0.153564453125, -0.927001953125, 0.174316406250, -4.757812500000, 2.492187500000, -6.078125000000, 1490610051
-0.153564453125, -0.927001953125, 0.174316406250, -4.757812500000, 2.492187500000, -6.078125000000, 1490610051
-0.153564453125, -0.927001953125, 0.174316406250, -4.757812500000, 2.492187500000, -6.078125000000, 1490610051
-0.146728515625, -0.850585937500, 0.222412109375, 0.093750000000, 0.015625000000, -6.828125000000, 1490610051
-0.146728515625, -0.850585937500, 0.222412109375, 0.093750000000, 0.015625000000, -6.828125000000, 1490610051
-0.146728515625, -0.850585937500, 0.222412109375, 0.093750000000, 0.015625000000, -6.828125000000, 1490610051
-0.146728515625, -0.850585937500, 0.222412109375, 0.093750000000, 0.015625000000, -6.828125000000, 1490610051
0.006103515625, -0.989013671875, 0.239501953125, -6.148437500000, 0.953125000000, -3.140625000000, 1490610051
0.006103515625, -0.989013671875, 0.239501953125, -6.148437500000, 0.953125000000, -3.140625000000, 1490610051
0.006103515625, -0.989013671875, 0.239501953125, -6.148437500000, 0.953125000000, -3.140625000000, 1490610051
-0.065185546875, -0.922607421875, 0.230712890625, -6.539062500000, 2.281250000000, -1.835937500000, 1490610051
-0.065185546875, -0.922607421875, 0.230712890625, -6.539062500000, 2.281250000000, -1.835937500000, 1490610051
-0.065185546875, -0.922607421875, 0.230712890625, -6.539062500000, 2.281250000000, -1.835937500000, 1490610051
-0.022705078125, -0.963623046875, 0.323974609375, -4.960937500000, -0.343750000000, -2.992187500000, 1490610051
-0.022705078125, -0.963623046875, 0.323974609375, -4.960937500000, -0.343750000000, -2.992187500000, 1490610051
-0.022705078125, -0.963623046875, 0.323974609375, -4.960937500000, -0.343750000000, -2.992187500000, 1490610051
0.001708984375, -1.026367187500, 0.263671875000, -3.414062500000, 2.609375000000, -1.351562500000, 1490610051
0.001708984375, -1.026367187500, 0.263671875000, -3.414062500000, 2.609375000000, -1.351562500000, 1490610051
0.001708984375, -1.026367187500, 0.263671875000, -3.414062500000, 2.609375000000, -1.351562500000, 1490610051
0.001708984375, -1.026367187500, 0.263671875000, -3.414062500000, 2.609375000000, -1.351562500000, 1490610051
0.000244140625, -0.983642578125, 0.281738281250, -6.859375000000, 2.539062500000, -3.937500000000, 1490610051
0.000244140625, -0.983642578125, 0.281738281250, -6.859375000000, 2.539062500000, -3.937500000000, 1490610051
0.000244140625, -0.983642578125, 0.281738281250, -6.859375000000, 2.539062500000, -3.937500000000, 1490610051
-0.059326171875, -0.964111328125, 0.328613281250, -8.164062500000, 4.679687500000, -4.796875000000, 1490610051
-0.018066406250, -0.910156250000, 0.333740234375, -10.195312500000, 1.968750000000, -4.804687500000, 1490610051
-0.018066406250, -0.910156250000, 0.333740234375, -10.195312500000, 1.968750000000, -4.804687500000, 1490610051
-0.018066406250, -0.910156250000, 0.333740234375, -10.195312500000, 1.968750000000, -4.804687500000, 1490610051
-0.018066406250, -0.910156250000, 0.333740234375, -10.195312500000, 1.968750000000, -4.804687500000, 1490610051
-0.018066406250, -0.910156250000, 0.333740234375, -10.195312500000, 1.968750000000, -4.804687500000, 1490610051
-0.052246093750, -0.933593750000, 0.234130859375, -10.242187500000, 3.429687500000, -3.585937500000, 1490610051
-0.052246093750, -0.933593750000, 0.234130859375, -10.242187500000, 3.429687500000, -3.585937500000, 1490610051
-0.052246093750, -0.933593750000, 0.234130859375, -10.242187500000, 3.429687500000, -3.585937500000, 1490610051
-0.052246093750, -0.933593750000, 0.234130859375, -10.242187500000, 3.429687500000, -3.585937500000, 1490610051
-0.082031250000, -0.936279296875, 0.272705078125, -8.210937500000, 1.882812500000, -3.320312500000, 1490610051
-0.082031250000, -0.936279296875, 0.272705078125, -8.210937500000, 1.882812500000, -3.320312500000, 1490610051
-0.082031250000, -0.936279296875, 0.272705078125, -8.210937500000, 1.882812500000, -3.320312500000, 1490610051
0.000732421875, -0.864013671875, 0.185791015625, -4.000000000000, 3.632812500000, -3.281250000000, 1490610051
0.000732421875, -0.864013671875, 0.185791015625, -4.000000000000, 3.632812500000, -3.281250000000, 1490610051
0.000732421875, -0.864013671875, 0.185791015625, -4.000000000000, 3.632812500000, -3.281250000000, 1490610051
0.009521484375, -0.916748046875, 0.300292968750, -6.757812500000, 4.015625000000, -1.960937500000, 1490610051
0.009521484375, -0.916748046875, 0.300292968750, -6.757812500000, 4.015625000000, -1.960937500000, 1490610051
0.009521484375, -0.916748046875, 0.300292968750, -6.757812500000, 4.015625000000, -1.960937500000, 1490610051
-0.022705078125, -1.010009765625, 0.246337890625, -6.179687500000, 3.328125000000, -3.148437500000, 1490610051
-0.022705078125, -1.010009765625, 0.246337890625, -6.179687500000, 3.328125000000, -3.148437500000, 1490610051
-0.022705078125, -1.010009765625, 0.246337890625, -6.179687500000, 3.328125000000, -3.148437500000, 1490610051
-0.022705078125, -1.010009765625, 0.246337890625, -6.179687500000, 3.328125000000, -3.148437500000, 1490610051
-0.050292968750, -1.022705078125, 0.298583984375, -1.875000000000, -0.140625000000, -6.546875000000, 1490610051
-0.050292968750, -1.022705078125, 0.298583984375, -1.875000000000, -0.140625000000, -6.546875000000, 1490610051
-0.050292968750, -1.022705078125, 0.298583984375, -1.875000000000, -0.140625000000, -6.546875000000, 1490610051
-0.020507812500, -0.956298828125, 0.236572265625, -4.882812500000, 2.796875000000, -4.281250000000, 1490610052
-0.020507812500, -0.956298828125, 0.236572265625, -4.882812500000, 2.796875000000, -4.281250000000, 1490610052
-0.020507812500, -0.956298828125, 0.236572265625, -4.882812500000, 2.796875000000, -4.281250000000, 1490610052
-0.087646484375, -0.943115234375, 0.343750000000, 0.523437500000, -0.335937500000, -3.453125000000, 1490610052
-0.087646484375, -0.943115234375, 0.343750000000, 0.523437500000, -0.335937500000, -3.453125000000, 1490610052
-0.087646484375, -0.943115234375, 0.343750000000, 0.523437500000, -0.335937500000, -3.453125000000, 1490610052
-0.132080078125, -0.906982421875, 0.251464843750, 3.765625000000, -4.125000000000, -6.906250000000, 1490610052
-0.132080078125, -0.906982421875, 0.251464843750, 3.765625000000, -4.125000000000, -6.906250000000, 1490610052
-0.132080078125, -0.906982421875, 0.251464843750, 3.765625000000, -4.125000000000, -6.906250000000, 1490610052
-0.132080078125, -0.906982421875, 0.251464843750, 3.765625000000, -4.125000000000, -6.906250000000, 1490610052
-0.082275390625, -1.025146484375, 0.278076171875, -4.078125000000, 4.835937500000, -3.328125000000, 1490610052
-0.082275390625, -1.025146484375, 0.278076171875, -4.078125000000, 4.835937500000, -3.328125000000, 1490610052
-0.082275390625, -1.025146484375, 0.278076171875, -4.078125000000, 4.835937500000, -3.328125000000, 1490610052
-0.150146484375, -0.976074218750, 0.343017578125, -1.031250000000, 1.421875000000, -4.007812500000, 1490610052
-0.150146484375, -0.976074218750, 0.343017578125, -1.031250000000, 1.421875000000, -4.007812500000, 1490610052
-0.150146484375, -0.976074218750, 0.343017578125, -1.031250000000, 1.421875000000, -4.007812500000, 1490610052
-0.089355468750, -0.925537109375, 0.336181640625, -2.976562500000, 4.523437500000, -4.187500000000, 1490610052
-0.089355468750, -0.925537109375, 0.336181640625, -2.976562500000, 4.523437500000, -4.187500000000, 1490610052
-0.089355468750, -0.925537109375, 0.336181640625, -2.976562500000, 4.523437500000, -4.187500000000, 1490610052
-0.152832031250, -0.942138671875, 0.233398437500, -6.375000000000, 6.226562500000, -2.101562500000, 1490610052
-0.152832031250, -0.942138671875, 0.233398437500, -6.375000000000, 6.226562500000, -2.101562500000, 1490610052
-0.152832031250, -0.942138671875, 0.233398437500, -6.375000000000, 6.226562500000, -2.101562500000, 1490610052
-0.152832031250, -0.942138671875, 0.233398437500, -6.375000000000, 6.226562500000, -2.101562500000, 1490610052
0.081054687500, -0.992919921875, 0.290039062500, 0.562500000000, 2.648437500000, 0.406250000000, 1490610052
0.081054687500, -0.992919921875, 0.290039062500, 0.562500000000, 2.648437500000, 0.406250000000, 1490610052
0.081054687500, -0.992919921875, 0.290039062500, 0.562500000000, 2.648437500000, 0.406250000000, 1490610052
-0.097900390625, -0.970214843750, 0.232666015625, 2.265625000000, 1.710937500000, -1.250000000000, 1490610052
-0.097900390625, -0.970214843750, 0.232666015625, 2.265625000000, 1.710937500000, -1.250000000000, 1490610052
-0.097900390625, -0.970214843750, 0.232666015625, 2.265625000000, 1.710937500000, -1.250000000000, 1490610052
0.017822265625, -0.915283203125, 0.285644531250, 3.828125000000, 2.890625000000, -4.515625000000, 1490610052
0.017822265625, -0.915283203125, 0.285644531250, 3.828125000000, 2.890625000000, -4.515625000000, 1490610052
0.017822265625, -0.915283203125, 0.285644531250, 3.828125000000, 2.890625000000, -4.515625000000, 1490610052
0.028076171875, -0.830810546875, 0.215332031250, 13.234375000000, 4.796875000000, -8.054687500000, 1490610052
0.028076171875, -0.830810546875, 0.215332031250, 13.234375000000, 4.796875000000, -8.054687500000, 1490610052
0.028076171875, -0.830810546875, 0.215332031250, 13.234375000000, 4.796875000000, -8.054687500000, 1490610052
0.028076171875, -0.830810546875, 0.215332031250, 13.234375000000, 4.796875000000, -8.054687500000, 1490610052
-0.041259765625, -0.429687500000, 0.156494140625, 30.828125000000, -1.179687500000, -14.117187500000, 1490610052
-0.041259765625, -0.429687500000, 0.156494140625, 30.828125000000, -1.179687500000, -14.117187500000, 1490610052
-0.041259765625, -0.429687500000, 0.156494140625, 30.828125000000, -1.179687500000, -14.117187500000, 1490610052
0.076904296875, -0.252685546875, 0.103027343750, 24.531250000000, 6.429687500000, -6.695312500000, 1490610052
0.076904296875, -0.252685546875, 0.103027343750, 24.531250000000, 6.429687500000, -6.695312500000, 1490610052
0.076904296875, -0.252685546875, 0.103027343750, 24.531250000000, 6.429687500000, -6.695312500000, 1490610052
-0.051269531250, -0.565429687500, -0.005126953125, 2.195312500000, 27.695312500000, 12.921875000000, 1490610052
-0.051269531250, -0.565429687500, -0.005126953125, 2.195312500000, 27.695312500000, 12.921875000000, 1490610052
-0.051269531250, -0.565429687500, -0.005126953125, 2.195312500000, 27.695312500000, 12.921875000000, 1490610052
0.038085937500, -1.667236328125, 0.188964843750, 97.664062500000, -8.625000000000, -72.968750000000, 1490610052
0.038085937500, -1.667236328125, 0.188964843750, 97.664062500000, -8.625000000000, -72.968750000000, 1490610052
0.038085937500, -1.667236328125, 0.188964843750, 97.664062500000, -8.625000000000, -72.968750000000, 1490610052
0.038085937500, -1.667236328125, 0.188964843750, 97.664062500000, -8.625000000000, -72.968750000000, 1490610052
-0.083984375000, -1.887939453125, 0.286132812500, -13.257812500000, 18.656250000000, 33.890625000000, 1490610052
-0.083984375000, -1.887939453125, 0.286132812500, -13.257812500000, 18.656250000000, 33.890625000000, 1490610052
-0.083984375000, -1.887939453125, 0.286132812500, -13.257812500000, 18.656250000000, 33.890625000000, 1490610052
-0.242431640625, -2.860595703125, 0.642333984375, -2.351562500000, -66.421875000000, 7.148437500000, 1490610052
-0.242431640625, -2.860595703125, 0.642333984375, -2.351562500000, -66.421875000000, 7.148437500000, 1490610052
-0.242431640625, -2.860595703125, 0.642333984375, -2.351562500000, -66.421875000000, 7.148437500000, 1490610052
0.136474609375, -3.004882812500, 0.734619140625, -99.164062500000, 33.367187500000, 43.734375000000, 1490610052
0.136474609375, -3.004882812500, 0.734619140625, -99.164062500000, 33.367187500000, 43.734375000000, 1490610052
0.136474609375, -3.004882812500, 0.734619140625, -99.164062500000, 33.367187500000, 43.734375000000, 1490610052
0.009521484375, -1.622070312500, 0.117187500000, -34.359375000000, -42.296875000000, -2.484375000000, 1490610052
0.009521484375, -1.622070312500, 0.117187500000, -34.359375000000, -42.296875000000, -2.484375000000, 1490610052
0.009521484375, -1.622070312500, 0.117187500000, -34.359375000000, -42.296875000000, -2.484375000000, 1490610052
0.009521484375, -1.622070312500, 0.117187500000, -34.359375000000, -42.296875000000, -2.484375000000, 1490610052
0.032226562500, -0.112304687500, 0.125488281250, 3.875000000000, -56.992187500000, -47.398437500000, 1490610052
0.032226562500, -0.112304687500, 0.125488281250, 3.875000000000, -56.992187500000, -47.398437500000, 1490610052
0.032226562500, -0.112304687500, 0.125488281250, 3.875000000000, -56.992187500000, -47.398437500000, 1490610052
-0.006835937500, 0.126464843750, 0.086914062500, -5.296875000000, -48.156250000000, 13.109375000000, 1490610052
-0.006835937500, 0.126464843750, 0.086914062500, -5.296875000000, -48.156250000000, 13.109375000000, 1490610053
-0.006835937500, 0.126464843750, 0.086914062500, -5.296875000000, -48.156250000000, 13.109375000000, 1490610053
-0.019287109375, 0.189697265625, 0.108154296875, -31.656250000000, -164.140625000000, 17.304687500000, 1490610053
-0.019287109375, 0.189697265625, 0.108154296875, -31.656250000000, -164.140625000000, 17.304687500000, 1490610053
-0.019287109375, 0.189697265625, 0.108154296875, -31.656250000000, -164.140625000000, 17.304687500000, 1490610053
0.071777343750, 0.128662109375, 0.192871093750, -37.093750000000, -196.585937500000, -2.601562500000, 1490610053
-0.046630859375, 0.099609375000, 0.032470703125, -68.023437500000, -17.625000000000, 12.890625000000, 1490610053
-0.046630859375, 0.099609375000, 0.032470703125, -68.023437500000, -17.625000000000, 12.890625000000, 1490610053
-0.046630859375, 0.099609375000, 0.032470703125, -68.023437500000, -17.625000000000, 12.890625000000, 1490610053
-0.046630859375, 0.099609375000, 0.032470703125, -68.023437500000, -17.625000000000, 12.890625000000, 1490610053
0.099121093750, -0.031494140625, 0.076416015625, -79.398437500000, 25.820312500000, 0.593750000000, 1490610053
0.099121093750, -0.031494140625, 0.076416015625, -79.398437500000, 25.820312500000, 0.593750000000, 1490610053
0.099121093750, -0.031494140625, 0.076416015625, -79.398437500000, 25.820312500000, 0.593750000000, 1490610053
0.099121093750, -0.031494140625, 0.076416015625, -79.398437500000, 25.820312500000, 0.593750000000, 1490610053
-0.023437500000, -0.002441406250, 0.012207031250, -112.914062500000, 30.312500000000, 6.976562500000, 1490610053
-0.023437500000, -0.002441406250, 0.012207031250, -112.914062500000, 30.312500000000, 6.976562500000, 1490610053
-0.023437500000, -0.002441406250, 0.012207031250, -112.914062500000, 30.312500000000, 6.976562500000, 1490610053
-0.023437500000, -0.002441406250, 0.012207031250, -112.914062500000, 30.312500000000, 6.976562500000, 1490610053
0.013183593750, 0.034423828125, -0.038085937500, -77.000000000000, -41.804687500000, 10.250000000000, 1490610053
0.013183593750, 0.034423828125, -0.038085937500, -77.000000000000, -41.804687500000, 10.250000000000, 1490610053
0.013183593750, 0.034423828125, -0.038085937500, -77.000000000000, -41.804687500000, 10.250000000000, 1490610053
0.013183593750, 0.034423828125, -0.038085937500, -77.000000000000, -41.804687500000, 10.250000000000, 1490610053
-0.092773437500, -0.053710937500, -0.024414062500, -51.304687500000, -74.445312500000, -0.445312500000, 1490610053
-0.092773437500, -0.053710937500, -0.024414062500, -51.304687500000, -74.445312500000, -0.445312500000, 1490610053
-0.092773437500, -0.053710937500, -0.024414062500, -51.304687500000, -74.445312500000, -0.445312500000, 1490610053
0.109375000000, -2.847167968750, 0.598632812500, -21.218750000000, 141.960937500000, 137.273437500000, 1490610053
0.109375000000, -2.847167968750, 0.598632812500, -21.218750000000, 141.960937500000, 137.273437500000, 1490610053
0.109375000000, -2.847167968750, 0.598632812500, -21.218750000000, 141.960937500000, 137.273437500000, 1490610053
-0.081298828125, -3.906738281250, 0.599609375000, 253.992187500000, 96.640625000000, -201.125000000000, 1490610053
-0.081298828125, -3.906738281250, 0.599609375000, 253.992187500000, 96.640625000000, -201.125000000000, 1490610053
-0.081298828125, -3.906738281250, 0.599609375000, 253.992187500000, 96.640625000000, -201.125000000000, 1490610053
0.228027343750, -2.011718750000, 0.629394531250, -256.000000000000, 253.992187500000, -49.218750000000, 1490610053
0.228027343750, -2.011718750000, 0.629394531250, -256.000000000000, 253.992187500000, -49.218750000000, 1490610053
0.228027343750, -2.011718750000, 0.629394531250, -256.000000000000, 253.992187500000, -49.218750000000, 1490610053
0.228027343750, -2.011718750000, 0.629394531250, -256.000000000000, 253.992187500000, -49.218750000000, 1490610053
0.219238281250, -0.406738281250, -0.004638671875, 125.523437500000, 96.953125000000, -10.445312500000, 1490610053
0.219238281250, -0.406738281250, -0.004638671875, 125.523437500000, 96.953125000000, -10.445312500000, 1490610053
0.219238281250, -0.406738281250, -0.004638671875, 125.523437500000, 96.953125000000, -10.445312500000, 1490610053
0.024658203125, -0.098876953125, -0.013671875000, -8.687500000000, -4.593750000000, -83.859375000000, 1490610053
0.024658203125, -0.098876953125, -0.013671875000, -8.687500000000, -4.593750000000, -83.859375000000, 1490610053
0.024658203125, -0.098876953125, -0.013671875000, -8.687500000000, -4.593750000000, -83.859375000000, 1490610053
0.020507812500, -0.153808593750, 0.022949218750, -36.203125000000, -58.367187500000, 18.617187500000, 1490610053
0.020507812500, -0.153808593750, 0.022949218750, -36.203125000000, -58.367187500000, 18.617187500000, 1490610053
0.020507812500, -0.153808593750, 0.022949218750, -36.203125000000, -58.367187500000, 18.617187500000, 1490610053
0.013916015625, -0.834228515625, -0.029052734375, -63.820312500000, -60.914062500000, 41.031250000000, 1490610053
0.013916015625, -0.834228515625, -0.029052734375, -63.820312500000, -60.914062500000, 41.031250000000, 1490610053
0.013916015625, -0.834228515625, -0.029052734375, -63.820312500000, -60.914062500000, 41.031250000000, 1490610053
0.013916015625, -0.834228515625, -0.029052734375, -63.820312500000, -60.914062500000, 41.031250000000, 1490610053
0.041503906250, -1.677001953125, 0.210449218750, 103.726562500000, 102.460937500000, 38.601562500000, 1490610053
0.041503906250, -1.677001953125, 0.210449218750, 103.726562500000, 102.460937500000, 38.601562500000, 1490610053
0.041503906250, -1.677001953125, 0.210449218750, 103.726562500000, 102.460937500000, 38.601562500000, 1490610053
-0.223144531250, -1.240966796875, 0.326416015625, 253.992187500000, -256.000000000000, -26.781250000000, 1490610053
-0.223144531250, -1.240966796875, 0.326416015625, 253.992187500000, -256.000000000000, -26.781250000000, 1490610053
-0.223144531250, -1.240966796875, 0.326416015625, 253.992187500000, -256.000000000000, -26.781250000000, 1490610053
-0.039550781250, -0.871093750000, 0.172119140625, -122.515625000000, 69.242187500000, 2.859375000000, 1490610053
-0.039550781250, -0.871093750000, 0.172119140625, -122.515625000000, 69.242187500000, 2.859375000000, 1490610053
-0.039550781250, -0.871093750000, 0.172119140625, -122.515625000000, 69.242187500000, 2.859375000000, 1490610053
0.212158203125, -0.710937500000, 0.073974609375, -7.281250000000, 40.085937500000, 10.929687500000, 1490610053
0.212158203125, -0.710937500000, 0.073974609375, -7.281250000000, 40.085937500000, 10.929687500000, 1490610053
0.212158203125, -0.710937500000, 0.073974609375, -7.281250000000, 40.085937500000, 10.929687500000, 1490610053
0.106201171875, -0.759033203125, 0.059326171875, 31.898437500000, -56.281250000000, 2.234375000000, 1490610053
-0.020507812500, -1.009033203125, 0.190673828125, 29.859375000000, -90.304687500000, 0.953125000000, 1490610053
-0.020507812500, -1.009033203125, 0.190673828125, 29.859375000000, -90.304687500000, 0.953125000000, 1490610053
-0.020507812500, -1.009033203125, 0.190673828125, 29.859375000000, -90.304687500000, 0.953125000000, 1490610053
0.007324218750, -1.066162109375, 0.572998046875, -2.085937500000, 7.507812500000, -12.421875000000, 1490610053
0.007324218750, -1.066162109375, 0.572998046875, -2.085937500000, 7.507812500000, -12.421875000000, 1490610053
0.007324218750, -1.066162109375, 0.572998046875, -2.085937500000, 7.507812500000, -12.421875000000, 1490610053
0.106201171875, -1.010742187500, 0.111572265625, -26.976562500000, 15.750000000000, -8.523437500000, 1490610054
0.106201171875, -1.010742187500, 0.111572265625, -26.976562500000, 15.750000000000, -8.523437500000, 1490610054
0.106201171875, -1.010742187500, 0.111572265625, -26.976562500000, 15.750000000000, -8.523437500000, 1490610054
0.010742187500, -0.958740234375, 0.303222656250, -9.500000000000, -7.500000000000, -7.414062500000, 1490610054
0.010742187500, -0.958740234375, 0.303222656250, -9.500000000000, -7.500000000000, -7.414062500000, 1490610054
0.010742187500, -0.958740234375, 0.303222656250, -9.500000000000, -7.500000000000, -7.414062500000, 1490610054
0.010742187500, -0.958740234375, 0.303222656250, -9.500000000000, -7.500000000000, -7.414062500000, 1490610054
0.083007812500, -0.971923828125, 0.262939453125, -10.171875000000, 6.515625000000, -3.718750000000, 1490610054
0.083007812500, -0.971923828125, 0.262939453125, -10.171875000000, 6.515625000000, -3.718750000000, 1490610054
0.083007812500, -0.971923828125, 0.262939453125, -10.171875000000, 6.515625000000, -3.718750000000, 1490610054
-0.004882812500, -0.969482421875, 0.344482421875, -10.492187500000, 7.148437500000, -5.398437500000, 1490610054
-0.004882812500, -0.969482421875, 0.344482421875, -10.492187500000, 7.148437500000, -5.398437500000, 1490610054
-0.004882812500, -0.969482421875, 0.344482421875, -10.492187500000, 7.148437500000, -5.398437500000, 1490610054
0.015380859375, -0.973388671875, 0.234863281250, -8.875000000000, 3.367187500000, -8.031250000000, 1490610054
0.015380859375, -0.973388671875, 0.234863281250, -8.875000000000, 3.367187500000, -8.031250000000, 1490610054
0.015380859375, -0.973388671875, 0.234863281250, -8.875000000000, 3.367187500000, -8.031250000000, 1490610054
0.064697265625, -1.011230468750, 0.358642578125, -12.843750000000, 1.023437500000, -11.265625000000, 1490610054
0.064697265625, -1.011230468750, 0.358642578125, -12.843750000000, 1.023437500000, -11.265625000000, 1490610054
0.064697265625, -1.011230468750, 0.358642578125, -12.843750000000, 1.023437500000, -11.265625000000, 1490610054
0.064697265625, -1.011230468750, 0.358642578125, -12.843750000000, 1.023437500000, -11.265625000000, 1490610054
0.008544921875, -0.954345703125, 0.340087890625, -10.007812500000, 0.609375000000, -12.710937500000, 1490610054
0.008544921875, -0.954345703125, 0.340087890625, -10.007812500000, 0.609375000000, -12.710937500000, 1490610054
0.090087890625, -1.002441406250, 0.281494140625, -6.898437500000, -0.820312500000, -7.742187500000, 1490610054
0.090087890625, -1.002441406250, 0.281494140625, -6.898437500000, -0.820312500000, -7.742187500000, 1490610054
0.090087890625, -1.002441406250, 0.281494140625, -6.898437500000, -0.820312500000, -7.742187500000, 1490610054
0.090087890625, -1.002441406250, 0.281494140625, -6.898437500000, -0.820312500000, -7.742187500000, 1490610054
0.062988281250, -0.867431640625, 0.355712890625, -10.882812500000, 16.007812500000, -4.648437500000, 1490610054
0.062988281250, -0.867431640625, 0.355712890625, -10.882812500000, 16.007812500000, -4.648437500000, 1490610054
0.062988281250, -0.867431640625, 0.355712890625, -10.882812500000, 16.007812500000, -4.648437500000, 1490610054
-0.028808593750, -0.789550781250, 0.300048828125, -6.429687500000, 15.562500000000, 2.671875000000, 1490610054
-0.028808593750, -0.789550781250, 0.300048828125, -6.429687500000, 15.562500000000, 2.671875000000, 1490610054
-0.028808593750, -0.789550781250, 0.300048828125, -6.429687500000, 15.562500000000, 2.671875000000, 1490610054
-0.028808593750, -0.789550781250, 0.300048828125, -6.429687500000, 15.562500000000, 2.671875000000, 1490610054
-0.033203125000, -0.968261718750, 0.334472656250, -8.859375000000, 15.648437500000, 1.382812500000, 1490610054
-0.033203125000, -0.968261718750, 0.334472656250, -7.187500000000, 15.218750000000, 2.515625000000, 1490610054
-0.020751953125, -1.003417968750, 0.227783203125, -7.257812500000, 11.937500000000, 2.500000000000, 1490610054
-0.020751953125, -1.003417968750, 0.227783203125, -7.257812500000, 11.937500000000, 2.500000000000, 1490610054
-0.020751953125, -1.003417968750, 0.227783203125, -7.257812500000, 11.937500000000, 2.500000000000, 1490610054
-0.020751953125, -1.003417968750, 0.227783203125, -7.257812500000, 11.937500000000, 2.500000000000, 1490610054
0.002929687500, -0.969482421875, 0.339355468750, -6.484375000000, 5.539062500000, -2.242187500000, 1490610054
-0.147705078125, -0.949707031250, 0.339111328125, -3.351562500000, -2.148437500000, -5.570312500000, 1490610054
-0.147705078125, -0.949707031250, 0.339111328125, -3.351562500000, -2.148437500000, -5.570312500000, 1490610054
-0.147705078125, -0.949707031250, 0.339111328125, -3.351562500000, -2.148437500000, -5.570312500000, 1490610054
-0.147705078125, -0.949707031250, 0.339111328125, -3.351562500000, -2.148437500000, -5.570312500000, 1490610054
-0.147705078125, -0.949707031250, 0.339111328125, -3.351562500000, -2.148437500000, -5.570312500000, 1490610054
-0.012939453125, -0.912353515625, 0.268798828125, -4.281250000000, 1.156250000000, -1.250000000000, 1490610054
-0.012939453125, -0.912353515625, 0.268798828125, -4.281250000000, 1.156250000000, -1.250000000000, 1490610054
-0.012939453125, -0.912353515625, 0.268798828125, -4.281250000000, 1.156250000000, -1.250000000000, 1490610054
-0.052246093750, -1.009765625000, 0.343505859375, 0.273437500000, -3.359375000000, -2.382812500000, 1490610054
-0.149902343750, -0.846923828125, 0.281494140625, -5.453125000000, 4.781250000000, -1.078125000000, 1490610054
-0.149902343750, -0.846923828125, 0.281494140625, -5.453125000000, 4.781250000000, -1.078125000000, 1490610054
-0.149902343750, -0.846923828125, 0.281494140625, -5.453125000000, 4.781250000000, -1.078125000000, 1490610054
-0.088378906250, -0.918701171875, 0.343261718750, 6.031250000000, -13.007812500000, -8.031250000000, 1490610054
-0.088378906250, -0.918701171875, 0.343261718750, 6.031250000000, -13.007812500000, -8.031250000000, 1490610054
-0.088378906250, -0.918701171875, 0.343261718750, 6.031250000000, -13.007812500000, -8.031250000000, 1490610054
0.082275390625, -1.072753906250, 0.339111328125, 0.820312500000, -12.671875000000, -14.468750000000, 1490610054
-0.007080078125, -0.936767578125, 0.334472656250, -2.250000000000, -12.257812500000, -9.156250000000, 1490610054
0.005859375000, -0.918212890625, 0.323730468750, -1.546875000000, -10.195312500000, -7.289062500000, 1490610054
0.005859375000, -0.918212890625, 0.323730468750, -1.546875000000, -10.195312500000, -7.289062500000, 1490610054
0.005859375000, -0.918212890625, 0.323730468750, -1.546875000000, -10.195312500000, -7.289062500000, 1490610054
0.005859375000, -0.918212890625, 0.323730468750, -1.546875000000, -10.195312500000, -7.289062500000, 1490610054
0.005859375000, -0.918212890625, 0.323730468750, -1.546875000000, -10.195312500000, -7.289062500000, 1490610054
0.005859375000, -0.918212890625, 0.323730468750, -1.546875000000, -10.195312500000, -7.289062500000, 1490610054
0.063720703125, -0.925781250000, 0.226318359375, -1.210937500000, -7.671875000000, -5.648437500000, 1490610054
0.063720703125, -0.925781250000, 0.226318359375, -1.210937500000, -7.671875000000, -5.648437500000, 1490610055
0.063720703125, -0.925781250000, 0.226318359375, -1.210937500000, -7.671875000000, -5.648437500000, 1490610055
0.063720703125, -0.925781250000, 0.226318359375, -1.210937500000, -7.671875000000, -5.648437500000, 1490610055
0.063720703125, -0.925781250000, 0.226318359375, -1.210937500000, -7.671875000000, -5.648437500000, 1490610055
0.012939453125, -0.969482421875, 0.245361328125, -2.726562500000, -9.062500000000, -4.609375000000, 1490610055
0.012939453125, -0.969482421875, 0.245361328125, -2.726562500000, -9.062500000000, -4.609375000000, 1490610055
0.012939453125, -0.969482421875, 0.245361328125, -2.726562500000, -9.062500000000, -4.609375000000, 1490610055
0.012939453125, -0.969482421875, 0.245361328125, -2.726562500000, -9.062500000000, -4.609375000000, 1490610055
0.003662109375, -0.976074218750, 0.318359375000, -1.421875000000, -10.703125000000, -6.726562500000, 1490610055
0.003662109375, -0.976074218750, 0.318359375000, -1.421875000000, -10.703125000000, -6.726562500000, 1490610055
0.003662109375, -0.976074218750, 0.318359375000, -1.421875000000, -10.703125000000, -6.726562500000, 1490610055
