ACC_X,ACC_Y,ACC_Z,G_X,G_Y,G_Z,Unix Time
0.000488281250, -0.418212890625, -0.001953125000, -49.960937500000, 20.765625000000, -61.726562500000, 1490607996
0.000488281250, -0.418212890625, -0.001953125000, -49.960937500000, 20.765625000000, -61.726562500000, 1490607996
0.061767578125, -0.479736328125, -0.029785156250, -20.695312500000, -20.648437500000, -56.656250000000, 1490607996
0.061767578125, -0.479736328125, -0.029785156250, -20.695312500000, -20.648437500000, -56.656250000000, 1490607996
0.061767578125, -0.479736328125, -0.029785156250, -20.695312500000, -20.648437500000, -56.656250000000, 1490607996
0.061767578125, -0.479736328125, -0.029785156250, -20.695312500000, -20.648437500000, -56.656250000000, 1490607996
0.106689453125, -0.551269531250, -0.022705078125, 66.476562500000, -123.132812500000, -17.117187500000, 1490607996
0.106689453125, -0.551269531250, -0.022705078125, 66.476562500000, -123.132812500000, -17.117187500000, 1490607996
0.106689453125, -0.551269531250, -0.022705078125, 66.476562500000, -123.132812500000, -17.117187500000, 1490607996
0.106689453125, -0.551269531250, -0.022705078125, 66.476562500000, -123.132812500000, -17.117187500000, 1490607996
0.106689453125, -0.551269531250, -0.022705078125, 66.476562500000, -123.132812500000, -17.117187500000, 1490607996
0.106689453125, -0.551269531250, -0.022705078125, 66.476562500000, -123.132812500000, -17.117187500000, 1490607996
0.106689453125, -0.551269531250, -0.022705078125, 66.476562500000, -123.132812500000, -17.117187500000, 1490607996
0.289062500000, -0.942626953125, 0.159423828125, -63.765625000000, 58.242187500000, -0.953125000000, 1490607996
0.232910156250, -0.961914062500, 0.063720703125, -64.500000000000, 38.257812500000, 10.640625000000, 1490607996
-0.027343750000, -1.135009765625, 0.094970703125, -14.500000000000, 16.929687500000, 18.539062500000, 1490607996
-0.027343750000, -1.135009765625, 0.094970703125, -14.500000000000, 16.929687500000, 18.539062500000, 1490607996
-0.027343750000, -1.135009765625, 0.094970703125, -14.500000000000, 16.929687500000, 18.539062500000, 1490607996
-0.027343750000, -1.135009765625, 0.094970703125, -14.500000000000, 16.929687500000, 18.539062500000, 1490607996
-0.027343750000, -1.135009765625, 0.094970703125, -14.500000000000, 16.929687500000, 18.539062500000, 1490607996
0.001953125000, -1.096923828125, 0.205078125000, 43.507812500000, 84.578125000000, -1.507812500000, 1490607996
-0.179199218750, -1.410644531250, 0.214355468750, 48.406250000000, 103.453125000000, 9.523437500000, 1490607996
-0.179199218750, -1.410644531250, 0.214355468750, 48.406250000000, 103.453125000000, 9.523437500000, 1490607996
-0.179199218750, -1.410644531250, 0.214355468750, 48.406250000000, 103.453125000000, 9.523437500000, 1490607996
-0.179199218750, -1.410644531250, 0.214355468750, 48.406250000000, 103.453125000000, 9.523437500000, 1490607996
0.255615234375, -1.304199218750, 0.498291015625, 5.632812500000, 129.414062500000, 41.453125000000, 1490607996
0.255615234375, -1.304199218750, 0.498291015625, 5.632812500000, 129.414062500000, 41.453125000000, 1490607996
0.255615234375, -1.304199218750, 0.498291015625, 5.632812500000, 129.414062500000, 41.453125000000, 1490607996
0.255615234375, -1.304199218750, 0.498291015625, 5.632812500000, 129.414062500000, 41.453125000000, 1490607996
-0.039062500000, -0.662353515625, 0.235839843750, 1.796875000000, 89.203125000000, 27.000000000000, 1490607996
0.020751953125, -0.700195312500, 0.218505859375, 2.492187500000, 106.093750000000, 14.039062500000, 1490607996
0.020751953125, -0.700195312500, 0.218505859375, 2.492187500000, 106.093750000000, 14.039062500000, 1490607996
-0.015625000000, -0.646728515625, -0.011474609375, -5.179687500000, 102.437500000000, 10.953125000000, 1490607996
-0.015625000000, -0.646728515625, -0.011474609375, -5.179687500000, 102.437500000000, 10.953125000000, 1490607996
-0.015625000000, -0.646728515625, -0.011474609375, -5.179687500000, 102.437500000000, 10.953125000000, 1490607996
-0.015625000000, -0.646728515625, -0.011474609375, -5.179687500000, 102.437500000000, 10.953125000000, 1490607996
-0.015625000000, -0.646728515625, -0.011474609375, -5.179687500000, 102.437500000000, 10.953125000000, 1490607996
0.025390625000, -0.649658203125, 0.017822265625, -17.664062500000, 92.664062500000, 7.039062500000, 1490607996
-0.101074218750, -0.788330078125, 0.132812500000, -9.421875000000, 56.226562500000, 10.640625000000, 1490607996
-0.101074218750, -0.788330078125, 0.132812500000, -9.421875000000, 56.226562500000, 10.640625000000, 1490607996
-0.101074218750, -0.788330078125, 0.132812500000, -9.421875000000, 56.226562500000, 10.640625000000, 1490607996
-0.101074218750, -0.788330078125, 0.132812500000, -9.421875000000, 56.226562500000, 10.640625000000, 1490607996
-0.154541015625, -0.627441406250, 0.263427734375, 1.023437500000, 36.500000000000, 29.664062500000, 1490607997
-0.154541015625, -0.627441406250, 0.263427734375, 1.023437500000, 36.500000000000, 29.664062500000, 1490607997
-0.154541015625, -0.627441406250, 0.263427734375, 1.023437500000, 36.500000000000, 29.664062500000, 1490607997
-0.141357421875, -0.790283203125, 0.129638671875, -36.546875000000, 78.578125000000, 18.101562500000, 1490607997
-0.141357421875, -0.790283203125, 0.129638671875, -36.546875000000, 78.578125000000, 18.101562500000, 1490607997
-0.141357421875, -0.790283203125, 0.129638671875, -36.546875000000, 78.578125000000, 18.101562500000, 1490607997
0.121337890625, -1.947021484375, 0.103271484375, 6.148437500000, -2.078125000000, -7.828125000000, 1490607997
0.121337890625, -1.947021484375, 0.103271484375, 6.148437500000, -2.078125000000, -7.828125000000, 1490607997
0.121337890625, -1.947021484375, 0.103271484375, 6.148437500000, -2.078125000000, -7.828125000000, 1490607997
0.121337890625, -1.947021484375, 0.103271484375, 6.148437500000, -2.078125000000, -7.828125000000, 1490607997
0.313964843750, -1.882080078125, 0.447265625000, 32.078125000000, -48.929687500000, -5.414062500000, 1490607997
0.313964843750, -1.882080078125, 0.447265625000, 32.078125000000, -48.929687500000, -5.414062500000, 1490607997
0.313964843750, -1.882080078125, 0.447265625000, 32.078125000000, -48.929687500000, -5.414062500000, 1490607997
0.229003906250, -1.367675781250, 0.466796875000, -11.101562500000, -21.328125000000, -12.054687500000, 1490607997
0.229003906250, -1.367675781250, 0.466796875000, -11.101562500000, -21.328125000000, -12.054687500000, 1490607997
0.229003906250, -1.367675781250, 0.466796875000, -11.101562500000, -21.328125000000, -12.054687500000, 1490607997
0.220947265625, -0.994873046875, 0.519531250000, -37.765625000000, -7.460937500000, -21.054687500000, 1490607997
0.220947265625, -0.994873046875, 0.519531250000, -37.765625000000, -7.460937500000, -21.054687500000, 1490607997
0.220947265625, -0.994873046875, 0.519531250000, -37.765625000000, -7.460937500000, -21.054687500000, 1490607997
0.077148437500, -0.426757812500, 0.213134765625, -48.140625000000, 101.484375000000, -29.929687500000, 1490607997
0.077148437500, -0.426757812500, 0.213134765625, -48.140625000000, 101.484375000000, -29.929687500000, 1490607997
0.077148437500, -0.426757812500, 0.213134765625, -48.140625000000, 101.484375000000, -29.929687500000, 1490607997
0.077148437500, -0.426757812500, 0.213134765625, -48.140625000000, 101.484375000000, -29.929687500000, 1490607997
-0.006835937500, -0.240966796875, 0.128417968750, -23.421875000000, 47.789062500000, -41.929687500000, 1490607997
-0.006835937500, -0.240966796875, 0.128417968750, -23.421875000000, 47.789062500000, -41.929687500000, 1490607997
0.013671875000, -0.332031250000, 0.149658203125, -16.289062500000, -61.031250000000, -42.492187500000, 1490607997
0.013671875000, -0.332031250000, 0.149658203125, -16.289062500000, -61.031250000000, -42.492187500000, 1490607997
0.013671875000, -0.332031250000, 0.149658203125, -16.289062500000, -61.031250000000, -42.492187500000, 1490607997
0.180908203125, -0.596191406250, 0.096435546875, -17.796875000000, 29.507812500000, -42.234375000000, 1490607997
0.369384765625, -0.855468750000, 0.287597656250, -23.578125000000, 56.359375000000, -20.929687500000, 1490607997
0.369384765625, -0.855468750000, 0.287597656250, -23.578125000000, 56.359375000000, -20.929687500000, 1490607997
0.369384765625, -0.855468750000, 0.287597656250, -23.578125000000, 56.359375000000, -20.929687500000, 1490607997
-0.613525390625, -2.277832031250, 0.253906250000, -54.750000000000, 4.406250000000, -6.757812500000, 1490607997
-0.613525390625, -2.277832031250, 0.253906250000, -54.750000000000, 4.406250000000, -6.757812500000, 1490607997
-0.613525390625, -2.277832031250, 0.253906250000, -54.750000000000, 4.406250000000, -6.757812500000, 1490607997
-0.613525390625, -2.277832031250, 0.253906250000, -54.750000000000, 4.406250000000, -6.757812500000, 1490607997
0.045898437500, -2.098388671875, 0.127929687500, 54.125000000000, 227.632812500000, 43.664062500000, 1490607997
0.045898437500, -2.098388671875, 0.127929687500, 54.125000000000, 227.632812500000, 43.664062500000, 1490607997
0.045898437500, -2.098388671875, 0.127929687500, 54.125000000000, 227.632812500000, 43.664062500000, 1490607997
-0.415039062500, -1.450195312500, 0.618652343750, 55.210937500000, 68.117187500000, 58.765625000000, 1490607997
-0.415039062500, -1.450195312500, 0.618652343750, 55.210937500000, 68.117187500000, 58.765625000000, 1490607997
-0.415039062500, -1.450195312500, 0.618652343750, 55.210937500000, 68.117187500000, 58.765625000000, 1490607997
0.385009765625, -0.665039062500, 0.223144531250, -52.984375000000, 249.476562500000, 55.523437500000, 1490607997
0.385009765625, -0.665039062500, 0.223144531250, -52.984375000000, 249.476562500000, 55.523437500000, 1490607997
0.385009765625, -0.665039062500, 0.223144531250, -52.984375000000, 249.476562500000, 55.523437500000, 1490607997
0.138671875000, -0.465087890625, -0.070312500000, -90.585937500000, 254.804687500000, 83.484375000000, 1490607997
0.138671875000, -0.465087890625, -0.070312500000, -90.585937500000, 254.804687500000, 83.484375000000, 1490607997
0.138671875000, -0.465087890625, -0.070312500000, -90.585937500000, 254.804687500000, 83.484375000000, 1490607997
0.138671875000, -0.465087890625, -0.070312500000, -90.585937500000, 254.804687500000, 83.484375000000, 1490607997
0.097900390625, -0.643310546875, 0.004394531250, -82.289062500000, 196.132812500000, 95.703125000000, 1490607997
0.097900390625, -0.643310546875, 0.004394531250, -82.289062500000, 196.132812500000, 95.703125000000, 1490607997
0.097900390625, -0.643310546875, 0.004394531250, -82.289062500000, 196.132812500000, 95.703125000000, 1490607997
0.097900390625, -0.643310546875, 0.004394531250, -82.289062500000, 196.132812500000, 95.703125000000, 1490607997
-0.100585937500, -1.474609375000, -0.091552734375, 43.609375000000, 108.195312500000, 83.273437500000, 1490607997
-0.100585937500, -1.474609375000, -0.091552734375, 43.609375000000, 108.195312500000, 83.273437500000, 1490607997
-0.100585937500, -1.474609375000, -0.091552734375, 43.609375000000, 108.195312500000, 83.273437500000, 1490607997
-0.100585937500, -1.474609375000, -0.091552734375, 43.609375000000, 108.195312500000, 83.273437500000, 1490607997
-0.100585937500, -1.474609375000, -0.091552734375, 43.609375000000, 108.195312500000, 83.273437500000, 1490607997
0.065673828125, -1.042236328125, 0.020019531250, 138.992187500000, 164.210937500000, 87.609375000000, 1490607997
0.065673828125, -1.042236328125, 0.020019531250, 138.992187500000, 164.210937500000, 87.609375000000, 1490607997
0.065673828125, -1.042236328125, 0.020019531250, 138.992187500000, 164.210937500000, 87.609375000000, 1490607997
0.065673828125, -1.042236328125, 0.020019531250, 138.992187500000, 164.210937500000, 87.609375000000, 1490607997
0.064453125000, -1.077392578125, 0.046142578125, 212.601562500000, 87.992187500000, 30.554687500000, 1490607997
0.064453125000, -1.077392578125, 0.046142578125, 212.601562500000, 87.992187500000, 30.554687500000, 1490607997
0.064453125000, -1.077392578125, 0.046142578125, 212.601562500000, 87.992187500000, 30.554687500000, 1490607997
-0.007812500000, -1.017089843750, 1.086181640625, -0.945312500000, 127.835937500000, -12.812500000000, 1490607997
-0.007812500000, -1.017089843750, 1.086181640625, -0.945312500000, 127.835937500000, -12.812500000000, 1490607998
-0.007812500000, -1.017089843750, 1.086181640625, -0.945312500000, 127.835937500000, -12.812500000000, 1490607998
0.239746093750, -1.049316406250, -0.085693359375, -52.718750000000, 142.148437500000, 4.195312500000, 1490607998
0.250732421875, -1.021484375000, -0.070800781250, -7.468750000000, 92.289062500000, 16.179687500000, 1490607998
0.250732421875, -1.021484375000, -0.070800781250, -7.468750000000, 92.289062500000, 16.179687500000, 1490607998
0.270996093750, -1.000976562500, 0.033691406250, 15.734375000000, 76.937500000000, 24.492187500000, 1490607998
0.271240234375, -0.800781250000, 0.186523437500, 31.710937500000, 51.515625000000, 28.835937500000, 1490607998
0.271240234375, -0.800781250000, 0.186523437500, 31.710937500000, 51.515625000000, 28.835937500000, 1490607998
0.271240234375, -0.800781250000, 0.186523437500, 31.710937500000, 51.515625000000, 28.835937500000, 1490607998
0.271240234375, -0.800781250000, 0.186523437500, 31.710937500000, 51.515625000000, 28.835937500000, 1490607998
0.271240234375, -0.800781250000, 0.186523437500, 31.710937500000, 51.515625000000, 28.835937500000, 1490607998
0.271240234375, -0.800781250000, 0.186523437500, 31.710937500000, 51.515625000000, 28.835937500000, 1490607998
0.059814453125, -0.992187500000, 0.433593750000, 4.648437500000, 118.234375000000, 12.570312500000, 1490607998
0.059814453125, -0.992187500000, 0.433593750000, 4.648437500000, 118.234375000000, 12.570312500000, 1490607998
0.059814453125, -0.992187500000, 0.433593750000, 4.648437500000, 118.234375000000, 12.570312500000, 1490607998
0.252929687500, -0.954101562500, 0.115722656250, -48.546875000000, 133.882812500000, 15.601562500000, 1490607998
0.252929687500, -0.954101562500, 0.115722656250, -48.546875000000, 133.882812500000, 15.601562500000, 1490607998
0.252929687500, -0.954101562500, 0.115722656250, -48.546875000000, 133.882812500000, 15.601562500000, 1490607998
0.056640625000, -0.913330078125, -0.020019531250, -9.265625000000, 103.882812500000, 19.164062500000, 1490607998
0.056640625000, -0.913330078125, -0.020019531250, -9.265625000000, 103.882812500000, 19.164062500000, 1490607998
0.056640625000, -0.913330078125, -0.020019531250, -9.265625000000, 103.882812500000, 19.164062500000, 1490607998
0.056640625000, -0.913330078125, -0.020019531250, -9.265625000000, 103.882812500000, 19.164062500000, 1490607998
-0.004150390625, -0.995117187500, 0.294921875000, 23.109375000000, 79.687500000000, 12.156250000000, 1490607998
-0.004150390625, -0.995117187500, 0.294921875000, 23.109375000000, 79.687500000000, 12.156250000000, 1490607998
-0.004150390625, -0.995117187500, 0.294921875000, 23.109375000000, 79.687500000000, 12.156250000000, 1490607998
-0.059570312500, -1.026123046875, 0.161132812500, -6.671875000000, 55.226562500000, 0.695312500000, 1490607998
-0.059570312500, -1.026123046875, 0.161132812500, -6.671875000000, 55.226562500000, 0.695312500000, 1490607998
-0.059570312500, -1.026123046875, 0.161132812500, -6.671875000000, 55.226562500000, 0.695312500000, 1490607998
-0.484375000000, -1.255859375000, 0.102294921875, 2.695312500000, -0.937500000000, -45.781250000000, 1490607998
-0.484375000000, -1.255859375000, 0.102294921875, 2.695312500000, -0.937500000000, -45.781250000000, 1490607998
-0.484375000000, -1.255859375000, 0.102294921875, 2.695312500000, -0.937500000000, -45.781250000000, 1490607998
-0.019042968750, -1.207275390625, 0.381347656250, 63.171875000000, -1.750000000000, -35.773437500000, 1490607998
-0.019042968750, -1.207275390625, 0.381347656250, 63.171875000000, -1.750000000000, -35.773437500000, 1490607998
-0.019042968750, -1.207275390625, 0.381347656250, 63.171875000000, -1.750000000000, -35.773437500000, 1490607998
-0.019042968750, -1.207275390625, 0.381347656250, 63.171875000000, -1.750000000000, -35.773437500000, 1490607998
0.218505859375, -0.746582031250, 0.319824218750, 0.117187500000, -33.203125000000, -10.429687500000, 1490607998
0.218505859375, -0.746582031250, 0.319824218750, 0.117187500000, -33.203125000000, -10.429687500000, 1490607998
0.218505859375, -0.746582031250, 0.319824218750, 0.117187500000, -33.203125000000, -10.429687500000, 1490607998
0.099121093750, -0.427001953125, 0.116210937500, 9.507812500000, 16.500000000000, -8.250000000000, 1490607998
0.099121093750, -0.427001953125, 0.116210937500, 9.507812500000, 16.500000000000, -8.250000000000, 1490607998
0.099121093750, -0.427001953125, 0.116210937500, 9.507812500000, 16.500000000000, -8.250000000000, 1490607998
-0.083496093750, -0.348388671875, 0.058349609375, 14.023437500000, 8.156250000000, -5.531250000000, 1490607998
-0.083496093750, -0.348388671875, 0.058349609375, 14.023437500000, 8.156250000000, -5.531250000000, 1490607998
-0.092773437500, -1.682861328125, 0.057861328125, 24.914062500000, 32.875000000000, 15.882812500000, 1490607998
-0.092773437500, -1.682861328125, 0.057861328125, 24.914062500000, 32.875000000000, 15.882812500000, 1490607998
-0.092773437500, -1.682861328125, 0.057861328125, 24.914062500000, 32.875000000000, 15.882812500000, 1490607998
-0.092773437500, -1.682861328125, 0.057861328125, 24.914062500000, 32.875000000000, 15.882812500000, 1490607998
-0.067626953125, -1.566406250000, 0.291503906250, 13.906250000000, 20.000000000000, 27.507812500000, 1490607998
-0.073730468750, -1.641113281250, 0.397216796875, -14.546875000000, 56.179687500000, 37.695312500000, 1490607998
-0.073730468750, -1.641113281250, 0.397216796875, -14.546875000000, 56.179687500000, 37.695312500000, 1490607998
-0.073730468750, -1.641113281250, 0.397216796875, -14.546875000000, 56.179687500000, 37.695312500000, 1490607998
0.402343750000, -1.498535156250, -0.049072265625, -10.031250000000, 144.125000000000, 20.101562500000, 1490607998
0.511718750000, -1.263427734375, -0.113037109375, -12.546875000000, 165.648437500000, 27.000000000000, 1490607998
0.511718750000, -1.263427734375, -0.113037109375, -12.546875000000, 165.648437500000, 27.000000000000, 1490607998
0.511718750000, -1.263427734375, -0.113037109375, -12.546875000000, 165.648437500000, 27.000000000000, 1490607998
0.129638671875, -1.252441406250, -0.121582031250, -75.867187500000, 69.062500000000, 31.640625000000, 1490607998
0.129638671875, -1.252441406250, -0.121582031250, -75.867187500000, 69.062500000000, 31.640625000000, 1490607998
0.129638671875, -1.252441406250, -0.121582031250, -75.867187500000, 69.062500000000, 31.640625000000, 1490607998
0.129638671875, -1.252441406250, -0.121582031250, -75.867187500000, 69.062500000000, 31.640625000000, 1490607998
0.129638671875, -1.252441406250, -0.121582031250, -75.867187500000, 69.062500000000, 31.640625000000, 1490607998
0.129638671875, -1.252441406250, -0.121582031250, -75.867187500000, 69.062500000000, 31.640625000000, 1490607998
-0.109375000000, -1.011718750000, 0.072753906250, 9.960937500000, 38.859375000000, 17.804687500000, 1490607998
-0.109375000000, -1.011718750000, 0.072753906250, 9.960937500000, 38.859375000000, 17.804687500000, 1490607998
-0.109375000000, -1.011718750000, 0.072753906250, 9.960937500000, 38.859375000000, 17.804687500000, 1490607998
-0.029785156250, -0.609619140625, 0.025390625000, 27.601562500000, 154.101562500000, -10.640625000000, 1490607998
-0.029785156250, -0.609619140625, 0.025390625000, 27.601562500000, 154.101562500000, -10.640625000000, 1490607998
-0.029785156250, -0.609619140625, 0.025390625000, 27.601562500000, 154.101562500000, -10.640625000000, 1490607998
-0.046875000000, -0.240234375000, 0.033203125000, 45.984375000000, -41.101562500000, 1.046875000000, 1490607999
-0.046875000000, -0.240234375000, 0.033203125000, 45.984375000000, -41.101562500000, 1.046875000000, 1490607999
-0.046875000000, -0.240234375000, 0.033203125000, 45.984375000000, -41.101562500000, 1.046875000000, 1490607999
-0.057861328125, 0.014404296875, 0.106445312500, 29.687500000000, 39.937500000000, 19.179687500000, 1490607999
-0.057861328125, 0.014404296875, 0.106445312500, 29.687500000000, 39.937500000000, 19.179687500000, 1490607999
-0.057861328125, 0.014404296875, 0.106445312500, 29.687500000000, 39.937500000000, 19.179687500000, 1490607999
-0.057861328125, 0.014404296875, 0.106445312500, 29.687500000000, 39.937500000000, 19.179687500000, 1490607999
-0.130859375000, -0.009033203125, 0.086669921875, -30.562500000000, -0.593750000000, -4.351562500000, 1490607999
-0.130859375000, -0.009033203125, 0.086669921875, -30.562500000000, -0.593750000000, -4.351562500000, 1490607999
-0.130859375000, -0.009033203125, 0.086669921875, -30.562500000000, -0.593750000000, -4.351562500000, 1490607999
-0.162597656250, -0.322998046875, 0.126708984375, -53.031250000000, -12.843750000000, -51.125000000000, 1490607999
-0.162597656250, -0.322998046875, 0.126708984375, -53.031250000000, -12.843750000000, -51.125000000000, 1490607999
-0.162597656250, -0.322998046875, 0.126708984375, -53.031250000000, -12.843750000000, -51.125000000000, 1490607999
-0.226318359375, -0.558105468750, -0.004638671875, -54.851562500000, 7.328125000000, -76.195312500000, 1490607999
0.544921875000, -2.470703125000, 0.597167968750, 121.984375000000, -234.968750000000, 41.539062500000, 1490607999
0.544921875000, -2.470703125000, 0.597167968750, 121.984375000000, -234.968750000000, 41.539062500000, 1490607999
0.544921875000, -2.470703125000, 0.597167968750, 121.984375000000, -234.968750000000, 41.539062500000, 1490607999
0.035888671875, -2.762207031250, 1.889892578125, 22.257812500000, -118.359375000000, 30.281250000000, 1490607999
0.107177734375, -2.110107421875, 0.157714843750, -161.007812500000, 74.460937500000, -62.812500000000, 1490607999
0.107177734375, -2.110107421875, 0.157714843750, -161.007812500000, 74.460937500000, -62.812500000000, 1490607999
0.107177734375, -2.110107421875, 0.157714843750, -161.007812500000, 74.460937500000, -62.812500000000, 1490607999
0.107177734375, -2.110107421875, 0.157714843750, -161.007812500000, 74.460937500000, -62.812500000000, 1490607999
0.107177734375, -2.110107421875, 0.157714843750, -161.007812500000, 74.460937500000, -62.812500000000, 1490607999
0.077392578125, -1.523681640625, -0.041748046875, -126.023437500000, 78.500000000000, -5.445312500000, 1490607999
0.077392578125, -1.523681640625, -0.041748046875, -126.023437500000, 78.500000000000, -5.445312500000, 1490607999
0.077392578125, -1.523681640625, -0.041748046875, -126.023437500000, 78.500000000000, -5.445312500000, 1490607999
-0.391357421875, -0.681396484375, 0.014648437500, 28.429687500000, -41.351562500000, 15.187500000000, 1490607999
-0.391357421875, -0.681396484375, 0.014648437500, 28.429687500000, -41.351562500000, 15.187500000000, 1490607999
-0.391357421875, -0.681396484375, 0.014648437500, 28.429687500000, -41.351562500000, 15.187500000000, 1490607999
-0.261962890625, -0.445068359375, -0.021484375000, 25.000000000000, -22.828125000000, 30.039062500000, 1490607999
-0.261962890625, -0.445068359375, -0.021484375000, 25.000000000000, -22.828125000000, 30.039062500000, 1490607999
-0.261962890625, -0.445068359375, -0.021484375000, 25.000000000000, -22.828125000000, 30.039062500000, 1490607999
-0.261962890625, -0.445068359375, -0.021484375000, 25.000000000000, -22.828125000000, 30.039062500000, 1490607999
-0.261962890625, -0.445068359375, -0.021484375000, 25.000000000000, -22.828125000000, 30.039062500000, 1490607999
-0.052246093750, -0.238769531250, -0.028808593750, 38.804687500000, -94.695312500000, 3.375000000000, 1490607999
-0.052246093750, -0.238769531250, -0.028808593750, 38.804687500000, -94.695312500000, 3.375000000000, 1490607999
-0.052246093750, -0.238769531250, -0.028808593750, 38.804687500000, -94.695312500000, 3.375000000000, 1490607999
-0.052246093750, -0.238769531250, -0.028808593750, 38.804687500000, -94.695312500000, 3.375000000000, 1490607999
-0.052246093750, -0.238769531250, -0.028808593750, 38.804687500000, -94.695312500000, 3.375000000000, 1490607999
-0.089599609375, -0.052246093750, 0.047119140625, 41.929687500000, -41.421875000000, 3.500000000000, 1490607999
-0.089599609375, -0.052246093750, 0.047119140625, 41.929687500000, -41.421875000000, 3.500000000000, 1490607999
-0.089599609375, -0.052246093750, 0.047119140625, 41.929687500000, -41.421875000000, 3.500000000000, 1490607999
0.113037109375, -0.171142578125, 0.042724609375, 9.882812500000, 42.304687500000, -32.109375000000, 1490607999
0.113037109375, -0.171142578125, 0.042724609375, 9.882812500000, 42.304687500000, -32.109375000000, 1490607999
0.113037109375, -0.171142578125, 0.042724609375, 9.882812500000, 42.304687500000, -32.109375000000, 1490607999
0.113037109375, -0.171142578125, 0.042724609375, 9.882812500000, 42.304687500000, -32.109375000000, 1490607999
0.058837890625, -0.674560546875, -0.050781250000, 23.031250000000, -22.804687500000, -32.687500000000, 1490607999
0.058837890625, -0.674560546875, -0.050781250000, 23.031250000000, -22.804687500000, -32.687500000000, 1490607999
0.058837890625, -0.674560546875, -0.050781250000, 23.031250000000, -22.804687500000, -32.687500000000, 1490607999
-0.098876953125, -1.731689453125, 0.177490234375, 121.429687500000, -137.453125000000, -7.921875000000, 1490607999
-0.098876953125, -1.731689453125, 0.177490234375, 121.429687500000, -137.453125000000, -7.921875000000, 1490607999
-0.098876953125, -1.731689453125, 0.177490234375, 121.429687500000, -137.453125000000, -7.921875000000, 1490607999
0.116210937500, -2.018554687500, 0.557861328125, -86.421875000000, 76.164062500000, 24.523437500000, 1490607999
0.116210937500, -2.018554687500, 0.557861328125, -86.421875000000, 76.164062500000, 24.523437500000, 1490607999
0.116210937500, -2.018554687500, 0.557861328125, -86.421875000000, 76.164062500000, 24.523437500000, 1490607999
0.116210937500, -2.018554687500, 0.557861328125, -86.421875000000, 76.164062500000, 24.523437500000, 1490607999
0.579101562500, -1.143798828125, -0.061279296875, -42.968750000000, 68.906250000000, 25.601562500000, 1490607999
0.579101562500, -1.143798828125, -0.061279296875, -42.968750000000, 68.906250000000, 25.601562500000, 1490607999
0.579101562500, -1.143798828125, -0.061279296875, -42.968750000000, 68.906250000000, 25.601562500000, 1490607999
0.579101562500, -1.143798828125, -0.061279296875, -42.968750000000, 68.906250000000, 25.601562500000, 1490607999
0.579101562500, -1.143798828125, -0.061279296875, -42.968750000000, 68.906250000000, 25.601562500000, 1490607999
0.357177734375, -0.875244140625, -0.042480468750, -49.234375000000, 99.945312500000, 13.171875000000, 1490607999
0.360595703125, -0.887451171875, -0.146484375000, -32.101562500000, 67.976562500000, 12.992187500000, 1490607999
0.360595703125, -0.887451171875, -0.146484375000, -32.101562500000, 67.976562500000, 12.992187500000, 1490607999
0.360595703125, -0.887451171875, -0.146484375000, -32.101562500000, 67.976562500000, 12.992187500000, 1490607999
0.312011718750, -0.770019531250, -0.143798828125, -6.156250000000, 28.968750000000, 7.203125000000, 1490607999
0.312011718750, -0.770019531250, -0.143798828125, -6.156250000000, 28.968750000000, 7.203125000000, 1490608000
0.094726562500, -0.295166015625, 0.066162109375, 45.976562500000, 71.062500000000, 26.726562500000, 1490608000
0.094726562500, -0.295166015625, 0.066162109375, 45.976562500000, 71.062500000000, 26.726562500000, 1490608000
0.094726562500, -0.295166015625, 0.066162109375, 45.976562500000, 71.062500000000, 26.726562500000, 1490608000
0.094726562500, -0.295166015625, 0.066162109375, 45.976562500000, 71.062500000000, 26.726562500000, 1490608000
0.094726562500, -0.295166015625, 0.066162109375, 45.976562500000, 71.062500000000, 26.726562500000, 1490608000
-0.133056640625, -0.459228515625, -0.145996093750, 28.054687500000, 2.390625000000, -8.257812500000, 1490608000
-0.133056640625, -0.459228515625, -0.145996093750, 28.054687500000, 2.390625000000, -8.257812500000, 1490608000
-0.101562500000, -0.323730468750, 0.066406250000, 29.460937500000, -42.968750000000, -6.453125000000, 1490608000
-0.001464843750, -0.104492187500, 0.197265625000, 76.554687500000, 21.617187500000, 16.023437500000, 1490608000
-0.001464843750, -0.104492187500, 0.197265625000, 76.554687500000, 21.617187500000, 16.023437500000, 1490608000
0.028564453125, -0.044677734375, 0.088378906250, 60.000000000000, 27.429687500000, 23.695312500000, 1490608000
0.028564453125, -0.044677734375, 0.088378906250, 60.000000000000, 27.429687500000, 23.695312500000, 1490608000
-0.296142578125, -1.790771484375, 0.353271484375, -75.796875000000, 46.617187500000, -71.000000000000, 1490608000
-0.296142578125, -1.790771484375, 0.353271484375, -75.796875000000, 46.617187500000, -71.000000000000, 1490608000
-0.296142578125, -1.790771484375, 0.353271484375, -75.796875000000, 46.617187500000, -71.000000000000, 1490608000
-0.296142578125, -1.790771484375, 0.353271484375, -75.796875000000, 46.617187500000, -71.000000000000, 1490608000
-0.296142578125, -1.790771484375, 0.353271484375, -75.796875000000, 46.617187500000, -71.000000000000, 1490608000
-0.115234375000, -1.668945312500, -0.015625000000, -153.882812500000, 113.242187500000, -57.335937500000, 1490608000
0.063232421875, -1.266113281250, -0.204833984375, -127.304687500000, -6.890625000000, -57.773437500000, 1490608000
0.063232421875, -1.266113281250, -0.204833984375, -127.304687500000, -6.890625000000, -57.773437500000, 1490608000
0.063232421875, -1.266113281250, -0.204833984375, -127.304687500000, -6.890625000000, -57.773437500000, 1490608000
0.063232421875, -1.266113281250, -0.204833984375, -127.304687500000, -6.890625000000, -57.773437500000, 1490608000
0.063232421875, -1.266113281250, -0.204833984375, -127.304687500000, -6.890625000000, -57.773437500000, 1490608000
-0.146972656250, -1.088867187500, -0.084960937500, -136.460937500000, -62.304687500000, -53.109375000000, 1490608000
-0.146972656250, -1.088867187500, -0.084960937500, -136.460937500000, -62.304687500000, -53.109375000000, 1490608000
-0.146972656250, -1.088867187500, -0.084960937500, -136.460937500000, -62.304687500000, -53.109375000000, 1490608000
-0.281494140625, -0.635253906250, 0.065185546875, -7.171875000000, -35.687500000000, -10.640625000000, 1490608000
-0.281494140625, -0.635253906250, 0.065185546875, -7.171875000000, -35.687500000000, -10.640625000000, 1490608000
-0.281494140625, -0.635253906250, 0.065185546875, -7.171875000000, -35.687500000000, -10.640625000000, 1490608000
-0.281494140625, -0.635253906250, 0.065185546875, -7.171875000000, -35.687500000000, -10.640625000000, 1490608000
-0.281494140625, -0.635253906250, 0.065185546875, -7.171875000000, -35.687500000000, -10.640625000000, 1490608000
-0.281494140625, -0.635253906250, 0.065185546875, -7.171875000000, -35.687500000000, -10.640625000000, 1490608000
0.180664062500, -0.331054687500, 0.264892578125, 190.351562500000, -80.390625000000, 5.468750000000, 1490608000
0.180664062500, -0.331054687500, 0.264892578125, 190.351562500000, -80.390625000000, 5.468750000000, 1490608000
0.180664062500, -0.331054687500, 0.264892578125, 190.351562500000, -80.390625000000, 5.468750000000, 1490608000
0.180664062500, -0.331054687500, 0.264892578125, 190.351562500000, -80.390625000000, 5.468750000000, 1490608000
0.180664062500, -0.331054687500, 0.264892578125, 190.351562500000, -80.390625000000, 5.468750000000, 1490608000
0.180664062500, -0.331054687500, 0.264892578125, 190.351562500000, -80.390625000000, 5.468750000000, 1490608000
0.180664062500, -0.331054687500, 0.264892578125, 190.351562500000, -80.390625000000, 5.468750000000, 1490608000
0.180664062500, -0.331054687500, 0.264892578125, 190.351562500000, -80.390625000000, 5.468750000000, 1490608000
-0.029785156250, -0.195068359375, 0.206298828125, -14.656250000000, 103.523437500000, -3.710937500000, 1490608000
-0.029785156250, -0.195068359375, 0.206298828125, -14.656250000000, 103.523437500000, -3.710937500000, 1490608000
-0.029785156250, -0.195068359375, 0.206298828125, -14.656250000000, 103.523437500000, -3.710937500000, 1490608000
-0.029785156250, -0.195068359375, 0.206298828125, -14.656250000000, 103.523437500000, -3.710937500000, 1490608000
-0.175048828125, -1.115478515625, 0.007324218750, -66.703125000000, -131.742187500000, -18.945312500000, 1490608000
-0.175048828125, -1.115478515625, 0.007324218750, -66.703125000000, -131.742187500000, -18.945312500000, 1490608000
-0.175048828125, -1.115478515625, 0.007324218750, -66.703125000000, -131.742187500000, -18.945312500000, 1490608000
-0.175048828125, -1.115478515625, 0.007324218750, -66.703125000000, -131.742187500000, -18.945312500000, 1490608000
-0.175048828125, -1.115478515625, 0.007324218750, -66.703125000000, -131.742187500000, -18.945312500000, 1490608000
-0.895996093750, -1.911621093750, 0.261230468750, 42.015625000000, -100.703125000000, -20.000000000000, 1490608000
-0.895996093750, -1.911621093750, 0.261230468750, 42.015625000000, -100.703125000000, -20.000000000000, 1490608000
-0.895996093750, -1.911621093750, 0.261230468750, 42.015625000000, -100.703125000000, -20.000000000000, 1490608000
0.486083984375, -2.000244140625, 0.564453125000, -97.257812500000, 58.070312500000, 79.250000000000, 1490608000
0.486083984375, -2.000244140625, 0.564453125000, -97.257812500000, 58.070312500000, 79.250000000000, 1490608000
0.486083984375, -2.000244140625, 0.564453125000, -97.257812500000, 58.070312500000, 79.250000000000, 1490608000
0.486083984375, -2.000244140625, 0.564453125000, -97.257812500000, 58.070312500000, 79.250000000000, 1490608000
-0.013916015625, -1.689208984375, -0.137451171875, -139.820312500000, 16.343750000000, 40.320312500000, 1490608000
-0.013916015625, -1.689208984375, -0.137451171875, -139.820312500000, 16.343750000000, 40.320312500000, 1490608000
-0.013916015625, -1.689208984375, -0.137451171875, -139.820312500000, 16.343750000000, 40.320312500000, 1490608000
-0.157958984375, -1.105468750000, 0.029541015625, -73.695312500000, 16.390625000000, -10.546875000000, 1490608000
-0.157958984375, -1.105468750000, 0.029541015625, -73.695312500000, 16.390625000000, -10.546875000000, 1490608000
-0.157958984375, -1.105468750000, 0.029541015625, -73.695312500000, 16.390625000000, -10.546875000000, 1490608000
-0.120117187500, -0.887207031250, -0.084716796875, -7.476562500000, -3.164062500000, -30.945312500000, 1490608001
-0.120117187500, -0.887207031250, -0.084716796875, -7.476562500000, -3.164062500000, -30.945312500000, 1490608001
-0.120117187500, -0.887207031250, -0.084716796875, -7.476562500000, -3.164062500000, -30.945312500000, 1490608001
-0.120117187500, -0.887207031250, -0.084716796875, -7.476562500000, -3.164062500000, -30.945312500000, 1490608001
0.166015625000, -0.729736328125, -0.070800781250, 40.632812500000, 56.867187500000, -26.234375000000, 1490608001
0.166015625000, -0.729736328125, -0.070800781250, 40.632812500000, 56.867187500000, -26.234375000000, 1490608001
0.166015625000, -0.729736328125, -0.070800781250, 40.632812500000, 56.867187500000, -26.234375000000, 1490608001
0.292236328125, -0.595214843750, 0.140869140625, 172.632812500000, -68.812500000000, -26.992187500000, 1490608001
0.292236328125, -0.595214843750, 0.140869140625, 172.632812500000, -68.812500000000, -26.992187500000, 1490608001
0.292236328125, -0.595214843750, 0.140869140625, 172.632812500000, -68.812500000000, -26.992187500000, 1490608001
0.315429687500, -0.449218750000, 0.543457031250, 68.250000000000, -148.218750000000, 11.140625000000, 1490608001
0.315429687500, -0.449218750000, 0.543457031250, 68.250000000000, -148.218750000000, 11.140625000000, 1490608001
-0.001708984375, -0.398681640625, 0.082763671875, -67.171875000000, 4.843750000000, -21.984375000000, 1490608001
-0.001708984375, -0.398681640625, 0.082763671875, -67.171875000000, 4.843750000000, -21.984375000000, 1490608001
-0.001708984375, -0.398681640625, 0.082763671875, -67.171875000000, 4.843750000000, -21.984375000000, 1490608001
-0.001708984375, -0.398681640625, 0.082763671875, -67.171875000000, 4.843750000000, -21.984375000000, 1490608001
-0.001708984375, -0.398681640625, 0.082763671875, -67.171875000000, 4.843750000000, -21.984375000000, 1490608001
0.199462890625, -0.574707031250, -0.064208984375, -57.085937500000, 20.132812500000, -15.476562500000, 1490608001
0.199462890625, -0.574707031250, -0.064208984375, -57.085937500000, 20.132812500000, -15.476562500000, 1490608001
0.046386718750, -1.311279296875, -0.055908203125, 17.265625000000, -59.601562500000, 21.984375000000, 1490608001
0.046386718750, -1.311279296875, -0.055908203125, 17.265625000000, -59.601562500000, 21.984375000000, 1490608001
0.046386718750, -1.311279296875, -0.055908203125, 17.265625000000, -59.601562500000, 21.984375000000, 1490608001
0.046386718750, -1.311279296875, -0.055908203125, 17.265625000000, -59.601562500000, 21.984375000000, 1490608001
-0.182617187500, -1.757568359375, 0.032226562500, 47.234375000000, -139.554687500000, 22.906250000000, 1490608001
-0.140380859375, -1.156005859375, -0.067626953125, -35.328125000000, 57.046875000000, -1.851562500000, 1490608001
-0.140380859375, -1.156005859375, -0.067626953125, -35.328125000000, 57.046875000000, -1.851562500000, 1490608001
-0.140380859375, -1.156005859375, -0.067626953125, -35.328125000000, 57.046875000000, -1.851562500000, 1490608001
-0.140380859375, -1.156005859375, -0.067626953125, -35.328125000000, 57.046875000000, -1.851562500000, 1490608001
-0.133789062500, -0.765380859375, -0.043212890625, 0.804687500000, -22.890625000000, -40.789062500000, 1490608001
-0.233398437500, -0.730712890625, -0.039062500000, -19.179687500000, -87.742187500000, -48.640625000000, 1490608001
-0.233398437500, -0.730712890625, -0.039062500000, -19.179687500000, -87.742187500000, -48.640625000000, 1490608001
-0.233398437500, -0.730712890625, -0.039062500000, -19.179687500000, -87.742187500000, -48.640625000000, 1490608001
-0.233398437500, -0.730712890625, -0.039062500000, -19.179687500000, -87.742187500000, -48.640625000000, 1490608001
-0.238281250000, -0.629882812500, 0.141601562500, 53.187500000000, -98.500000000000, -18.445312500000, 1490608001
-0.238281250000, -0.629882812500, 0.141601562500, 53.187500000000, -98.500000000000, -18.445312500000, 1490608001
-0.238281250000, -0.629882812500, 0.141601562500, 53.187500000000, -98.500000000000, -18.445312500000, 1490608001
-0.238281250000, -0.629882812500, 0.141601562500, 53.187500000000, -98.500000000000, -18.445312500000, 1490608001
-0.238281250000, -0.629882812500, 0.141601562500, 53.187500000000, -98.500000000000, -18.445312500000, 1490608001
-0.238281250000, -0.629882812500, 0.141601562500, 53.187500000000, -98.500000000000, -18.445312500000, 1490608001
-0.436523437500, -0.885498046875, 0.208007812500, 81.664062500000, -174.093750000000, -46.601562500000, 1490608001
-0.436523437500, -0.885498046875, 0.208007812500, 81.664062500000, -174.093750000000, -46.601562500000, 1490608001
-0.436523437500, -0.885498046875, 0.208007812500, 81.664062500000, -174.093750000000, -46.601562500000, 1490608001
-0.436523437500, -0.885498046875, 0.208007812500, 81.664062500000, -174.093750000000, -46.601562500000, 1490608001
-0.197265625000, -1.004882812500, 0.192138671875, 30.812500000000, -110.468750000000, -8.281250000000, 1490608001
-0.197265625000, -1.004882812500, 0.192138671875, 30.812500000000, -110.468750000000, -8.281250000000, 1490608001
-0.197265625000, -1.004882812500, 0.192138671875, 30.812500000000, -110.468750000000, -8.281250000000, 1490608001
0.189697265625, -0.948242187500, 0.059570312500, 8.179687500000, -9.218750000000, -14.171875000000, 1490608001
0.189697265625, -0.948242187500, 0.059570312500, 8.179687500000, -9.218750000000, -14.171875000000, 1490608001
0.189697265625, -0.948242187500, 0.059570312500, 8.179687500000, -9.218750000000, -14.171875000000, 1490608001
-0.159179687500, -0.938964843750, 0.152343750000, 29.226562500000, -149.187500000000, 3.359375000000, 1490608001
-0.159179687500, -0.938964843750, 0.152343750000, 29.226562500000, -149.187500000000, 3.359375000000, 1490608001
-0.159179687500, -0.938964843750, 0.152343750000, 29.226562500000, -149.187500000000, 3.359375000000, 1490608001
-0.122558593750, -0.873779296875, 0.266601562500, 13.859375000000, -98.796875000000, -8.046875000000, 1490608001
-0.122558593750, -0.873779296875, 0.266601562500, 13.859375000000, -98.796875000000, -8.046875000000, 1490608001
-0.122558593750, -0.873779296875, 0.266601562500, 13.859375000000, -98.796875000000, -8.046875000000, 1490608001
-0.122558593750, -0.873779296875, 0.266601562500, 13.859375000000, -98.796875000000, -8.046875000000, 1490608001
-0.203125000000, -1.055664062500, 0.050781250000, 1.906250000000, -77.265625000000, -19.476562500000, 1490608001
-0.203125000000, -1.055664062500, 0.050781250000, 1.906250000000, -77.265625000000, -19.476562500000, 1490608001
-0.203125000000, -1.055664062500, 0.050781250000, 1.906250000000, -77.265625000000, -19.476562500000, 1490608001
-0.203125000000, -1.055664062500, 0.050781250000, 1.906250000000, -77.265625000000, -19.476562500000, 1490608001
0.020751953125, -1.305908203125, 0.152832031250, 4.140625000000, -41.234375000000, 10.453125000000, 1490608001
0.020751953125, -1.305908203125, 0.152832031250, 4.140625000000, -41.234375000000, 10.453125000000, 1490608001
0.020751953125, -1.305908203125, 0.152832031250, 4.140625000000, -41.234375000000, 10.453125000000, 1490608001
0.020751953125, -1.305908203125, 0.152832031250, 4.140625000000, -41.234375000000, 10.453125000000, 1490608001
0.020751953125, -1.305908203125, 0.152832031250, 4.140625000000, -41.234375000000, 10.453125000000, 1490608001
0.020751953125, -1.305908203125, 0.152832031250, 4.140625000000, -41.234375000000, 10.453125000000, 1490608001
-0.249023437500, -1.698974609375, 0.030273437500, -30.500000000000, -25.500000000000, 20.398437500000, 1490608001
-0.249023437500, -1.698974609375, 0.030273437500, -30.500000000000, -25.500000000000, 20.398437500000, 1490608001
-0.249023437500, -1.698974609375, 0.030273437500, -30.500000000000, -25.500000000000, 20.398437500000, 1490608002
-0.156005859375, -1.385742187500, -0.022949218750, 6.671875000000, -26.750000000000, 1.140625000000, 1490608002
-0.156005859375, -1.385742187500, -0.022949218750, 6.671875000000, -26.750000000000, 1.140625000000, 1490608002
-0.156005859375, -1.385742187500, -0.022949218750, 6.671875000000, -26.750000000000, 1.140625000000, 1490608002
0.091064453125, -0.917968750000, 0.034912109375, -28.414062500000, -54.078125000000, -4.726562500000, 1490608002
0.091064453125, -0.917968750000, 0.034912109375, -28.414062500000, -54.078125000000, -4.726562500000, 1490608002
0.091064453125, -0.917968750000, 0.034912109375, -28.414062500000, -54.078125000000, -4.726562500000, 1490608002
0.153320312500, -0.902099609375, -0.028564453125, -30.968750000000, -33.414062500000, -0.859375000000, 1490608002
0.206298828125, -0.787597656250, 0.034667968750, -39.492187500000, -28.921875000000, -3.156250000000, 1490608002
0.233886718750, -0.993408203125, 0.042480468750, -51.429687500000, 19.210937500000, 17.726562500000, 1490608002
0.233886718750, -0.993408203125, 0.042480468750, -51.429687500000, 19.210937500000, 17.726562500000, 1490608002
0.233886718750, -0.993408203125, 0.042480468750, -51.429687500000, 19.210937500000, 17.726562500000, 1490608002
0.199462890625, -1.037597656250, 0.089843750000, 1.234375000000, -19.281250000000, 24.937500000000, 1490608002
-0.128906250000, -0.989013671875, 0.096679687500, 15.742187500000, -42.828125000000, 20.757812500000, 1490608002
-0.128906250000, -0.989013671875, 0.096679687500, 15.742187500000, -42.828125000000, 20.757812500000, 1490608002
-0.128906250000, -0.989013671875, 0.096679687500, 15.742187500000, -42.828125000000, 20.757812500000, 1490608002
-0.128906250000, -0.989013671875, 0.096679687500, 15.742187500000, -42.828125000000, 20.757812500000, 1490608002
-0.128906250000, -0.989013671875, 0.096679687500, 15.742187500000, -42.828125000000, 20.757812500000, 1490608002
0.007568359375, -0.688476562500, 0.221435546875, 29.156250000000, 48.851562500000, 8.882812500000, 1490608002
0.007568359375, -0.688476562500, 0.221435546875, 29.156250000000, 48.851562500000, 8.882812500000, 1490608002
0.007568359375, -0.688476562500, 0.221435546875, 29.156250000000, 48.851562500000, 8.882812500000, 1490608002
0.007568359375, -0.688476562500, 0.221435546875, 29.156250000000, 48.851562500000, 8.882812500000, 1490608002
-0.103759765625, -0.637451171875, 0.050292968750, -62.531250000000, 51.171875000000, -12.796875000000, 1490608002
-0.103759765625, -0.637451171875, 0.050292968750, -62.531250000000, 51.171875000000, -12.796875000000, 1490608002
-0.103759765625, -0.637451171875, 0.050292968750, -62.531250000000, 51.171875000000, -12.796875000000, 1490608002
-0.103759765625, -0.637451171875, 0.050292968750, -62.531250000000, 51.171875000000, -12.796875000000, 1490608002
-0.265136718750, -0.637695312500, -0.014892578125, -23.218750000000, -4.617187500000, -34.585937500000, 1490608002
-0.265136718750, -0.637695312500, -0.014892578125, -23.218750000000, -4.617187500000, -34.585937500000, 1490608002
-0.265136718750, -0.637695312500, -0.014892578125, -23.218750000000, -4.617187500000, -34.585937500000, 1490608002
-0.265136718750, -0.637695312500, -0.014892578125, -23.218750000000, -4.617187500000, -34.585937500000, 1490608002
0.032226562500, -1.026367187500, 0.117431640625, 16.039062500000, -46.796875000000, -25.312500000000, 1490608002
0.032226562500, -1.026367187500, 0.117431640625, 16.039062500000, -46.796875000000, -25.312500000000, 1490608002
0.032226562500, -1.026367187500, 0.117431640625, 16.039062500000, -46.796875000000, -25.312500000000, 1490608002
0.106201171875, -1.094970703125, 0.388427734375, 30.828125000000, -111.515625000000, -5.250000000000, 1490608002
0.106201171875, -1.094970703125, 0.388427734375, 30.828125000000, -111.515625000000, -5.250000000000, 1490608002
0.106201171875, -1.094970703125, 0.388427734375, 30.828125000000, -111.515625000000, -5.250000000000, 1490608002
0.086425781250, -1.263183593750, 0.171875000000, -61.804687500000, -40.796875000000, -13.406250000000, 1490608002
0.086425781250, -1.263183593750, 0.171875000000, -61.804687500000, -40.796875000000, -13.406250000000, 1490608002
0.086425781250, -1.263183593750, 0.171875000000, -61.804687500000, -40.796875000000, -13.406250000000, 1490608002
0.086425781250, -1.263183593750, 0.171875000000, -61.804687500000, -40.796875000000, -13.406250000000, 1490608002
-0.053955078125, -1.261718750000, 0.376464843750, -9.562500000000, -46.960937500000, -38.656250000000, 1490608002
-0.053955078125, -1.261718750000, 0.376464843750, -9.562500000000, -46.960937500000, -38.656250000000, 1490608002
-0.053955078125, -1.261718750000, 0.376464843750, -9.562500000000, -46.960937500000, -38.656250000000, 1490608002
0.077392578125, -0.927246093750, 0.395019531250, -29.609375000000, -22.476562500000, -31.640625000000, 1490608002
0.077392578125, -0.927246093750, 0.395019531250, -29.609375000000, -22.476562500000, -31.640625000000, 1490608002
0.077392578125, -0.927246093750, 0.395019531250, -29.609375000000, -22.476562500000, -31.640625000000, 1490608002
-0.245849609375, -0.869384765625, 0.113525390625, -28.234375000000, -25.164062500000, -47.710937500000, 1490608002
-0.245849609375, -0.869384765625, 0.113525390625, -28.234375000000, -25.164062500000, -47.710937500000, 1490608002
-0.245849609375, -0.869384765625, 0.113525390625, -28.234375000000, -25.164062500000, -47.710937500000, 1490608002
-0.081054687500, -0.806640625000, 0.166503906250, 8.265625000000, -53.164062500000, -34.929687500000, 1490608002
-0.081054687500, -0.806640625000, 0.166503906250, 8.265625000000, -53.164062500000, -34.929687500000, 1490608002
-0.081054687500, -0.806640625000, 0.166503906250, 8.265625000000, -53.164062500000, -34.929687500000, 1490608002
-0.081054687500, -0.806640625000, 0.166503906250, 8.265625000000, -53.164062500000, -34.929687500000, 1490608002
-0.073974609375, -1.029296875000, 0.192626953125, 2.296875000000, -48.625000000000, -18.195312500000, 1490608002
0.067871093750, -1.007568359375, 0.121582031250, 9.046875000000, -45.703125000000, -14.187500000000, 1490608002
0.067871093750, -1.007568359375, 0.121582031250, 9.046875000000, -45.703125000000, -14.187500000000, 1490608002
0.067871093750, -1.007568359375, 0.121582031250, 9.046875000000, -45.703125000000, -14.187500000000, 1490608002
0.067871093750, -1.007568359375, 0.121582031250, 9.046875000000, -45.703125000000, -14.187500000000, 1490608002
0.073730468750, -1.002685546875, 0.283447265625, 10.828125000000, -47.328125000000, 3.523437500000, 1490608002
0.073730468750, -1.002685546875, 0.283447265625, 10.828125000000, -47.328125000000, 3.523437500000, 1490608002
0.073730468750, -1.002685546875, 0.283447265625, 10.828125000000, -47.328125000000, 3.523437500000, 1490608002
0.073730468750, -1.002685546875, 0.283447265625, 10.828125000000, -47.328125000000, 3.523437500000, 1490608002
0.018798828125, -1.023193359375, 0.319335937500, -14.242187500000, -28.789062500000, 3.437500000000, 1490608002
0.018798828125, -1.023193359375, 0.319335937500, -14.242187500000, -28.789062500000, 3.437500000000, 1490608002
0.018798828125, -1.023193359375, 0.319335937500, -14.242187500000, -28.789062500000, 3.437500000000, 1490608002
-0.277099609375, -0.910888671875, 0.312744140625, 3.679687500000, -60.187500000000, 2.601562500000, 1490608003
-0.277099609375, -0.910888671875, 0.312744140625, 3.679687500000, -60.187500000000, 2.601562500000, 1490608003
-0.277099609375, -0.910888671875, 0.312744140625, 3.679687500000, -60.187500000000, 2.601562500000, 1490608003
-0.277099609375, -0.910888671875, 0.312744140625, 3.679687500000, -60.187500000000, 2.601562500000, 1490608003
0.017578125000, -1.026855468750, 0.245605468750, 12.429687500000, -51.820312500000, -9.500000000000, 1490608003
0.017578125000, -1.026855468750, 0.245605468750, 12.429687500000, -51.820312500000, -9.500000000000, 1490608003
0.017578125000, -1.026855468750, 0.245605468750, 12.429687500000, -51.820312500000, -9.500000000000, 1490608003
-0.076416015625, -0.952880859375, 0.157714843750, 6.109375000000, -37.382812500000, -16.171875000000, 1490608003
0.077636718750, -0.950683593750, 0.159423828125, 12.921875000000, -42.015625000000, -11.507812500000, 1490608003
0.077636718750, -0.950683593750, 0.159423828125, 12.921875000000, -42.015625000000, -11.507812500000, 1490608003
0.077636718750, -0.950683593750, 0.159423828125, 12.921875000000, -42.015625000000, -11.507812500000, 1490608003
0.077636718750, -0.950683593750, 0.159423828125, 12.921875000000, -42.015625000000, -11.507812500000, 1490608003
0.077636718750, -0.950683593750, 0.159423828125, 12.921875000000, -42.015625000000, -11.507812500000, 1490608003
0.070312500000, -0.962646484375, 0.165527343750, 13.906250000000, -43.054687500000, -11.460937500000, 1490608003
0.070312500000, -0.962646484375, 0.165527343750, 13.906250000000, -43.054687500000, -11.460937500000, 1490608003
0.037841796875, -1.027343750000, 0.333251953125, 6.468750000000, -21.476562500000, -7.585937500000, 1490608003
0.037841796875, -1.027343750000, 0.333251953125, 6.468750000000, -21.476562500000, -7.585937500000, 1490608003
0.037841796875, -1.027343750000, 0.333251953125, 6.468750000000, -21.476562500000, -7.585937500000, 1490608003
0.037841796875, -1.027343750000, 0.333251953125, 6.468750000000, -21.476562500000, -7.585937500000, 1490608003
0.037841796875, -1.027343750000, 0.333251953125, 6.468750000000, -21.476562500000, -7.585937500000, 1490608003
