ACC_X,ACC_Y,ACC_Z,G_X,G_Y,G_Z,Unix Time
-0.176025390625, -0.876220703125, 0.640625000000, -3.101562500000, 0.835937500000, -4.703125000000, 1491905031
-0.176025390625, -0.876220703125, 0.640625000000, -3.101562500000, 0.835937500000, -4.703125000000, 1491905031
-0.176025390625, -0.876220703125, 0.640625000000, -3.101562500000, 0.835937500000, -4.703125000000, 1491905031
-0.186767578125, -0.753906250000, 0.697265625000, -4.976562500000, 0.281250000000, -3.445312500000, 1491905031
-0.186767578125, -0.753906250000, 0.697265625000, -4.976562500000, 0.281250000000, -3.445312500000, 1491905031
-0.186767578125, -0.753906250000, 0.697265625000, -4.976562500000, 0.281250000000, -3.445312500000, 1491905031
-0.186767578125, -0.753906250000, 0.697265625000, -4.976562500000, 0.281250000000, -3.445312500000, 1491905031
-0.186767578125, -0.753906250000, 0.697265625000, -4.976562500000, 0.281250000000, -3.445312500000, 1491905031
-0.186767578125, -0.753906250000, 0.697265625000, -4.976562500000, 0.281250000000, -3.445312500000, 1491905031
-0.186767578125, -0.753906250000, 0.697265625000, -4.976562500000, 0.281250000000, -3.445312500000, 1491905031
-0.186767578125, -0.753906250000, 0.697265625000, -4.976562500000, 0.281250000000, -3.445312500000, 1491905031
-0.200439453125, -0.804931640625, 0.694335937500, -3.531250000000, 1.820312500000, -2.914062500000, 1491905031
-0.200439453125, -0.804931640625, 0.694335937500, -3.531250000000, 1.820312500000, -2.914062500000, 1491905031
-0.200439453125, -0.804931640625, 0.694335937500, -3.531250000000, 1.820312500000, -2.914062500000, 1491905031
-0.200439453125, -0.804931640625, 0.694335937500, -3.531250000000, 1.820312500000, -2.914062500000, 1491905031
-0.200439453125, -0.804931640625, 0.694335937500, -3.531250000000, 1.820312500000, -2.914062500000, 1491905031
-0.166992187500, -0.674804687500, 0.697265625000, -5.718750000000, 0.132812500000, -6.343750000000, 1491905031
-0.166992187500, -0.674804687500, 0.697265625000, -5.718750000000, 0.132812500000, -6.343750000000, 1491905031
-0.273193359375, -0.722900390625, 0.629150390625, -9.414062500000, -2.468750000000, 0.648437500000, 1491905031
-0.256591796875, -0.734130859375, 0.651611328125, -6.226562500000, 3.007812500000, -1.390625000000, 1491905031
-0.256591796875, -0.734130859375, 0.651611328125, -6.226562500000, 3.007812500000, -1.390625000000, 1491905031
-0.256591796875, -0.734130859375, 0.651611328125, -6.226562500000, 3.007812500000, -1.390625000000, 1491905031
-0.256591796875, -0.734130859375, 0.651611328125, -6.226562500000, 3.007812500000, -1.390625000000, 1491905031
-0.256591796875, -0.734130859375, 0.651611328125, -6.226562500000, 3.007812500000, -1.390625000000, 1491905031
-0.251464843750, -0.682373046875, 0.604736328125, -3.632812500000, 2.140625000000, -3.039062500000, 1491905031
-0.251464843750, -0.682373046875, 0.604736328125, -3.632812500000, 2.140625000000, -3.039062500000, 1491905031
-0.251464843750, -0.682373046875, 0.604736328125, -3.632812500000, 2.140625000000, -3.039062500000, 1491905031
-0.251464843750, -0.682373046875, 0.604736328125, -3.632812500000, 2.140625000000, -3.039062500000, 1491905031
-0.251464843750, -0.682373046875, 0.604736328125, -3.632812500000, 2.140625000000, -3.039062500000, 1491905031
-0.096679687500, -0.738281250000, 0.656005859375, -4.562500000000, 3.320312500000, -2.242187500000, 1491905031
-0.096679687500, -0.738281250000, 0.656005859375, -4.562500000000, 3.320312500000, -2.242187500000, 1491905031
-0.096679687500, -0.738281250000, 0.656005859375, -4.562500000000, 3.320312500000, -2.242187500000, 1491905031
-0.096679687500, -0.738281250000, 0.656005859375, -4.562500000000, 3.320312500000, -2.242187500000, 1491905031
-0.096679687500, -0.738281250000, 0.656005859375, -4.562500000000, 3.320312500000, -2.242187500000, 1491905031
-0.266113281250, -0.818847656250, 0.649658203125, -6.671875000000, 6.476562500000, -1.828125000000, 1491905031
-0.103027343750, -0.730957031250, 0.620605468750, -3.156250000000, 6.976562500000, -0.523437500000, 1491905031
-0.103027343750, -0.730957031250, 0.620605468750, -3.156250000000, 6.976562500000, -0.523437500000, 1491905031
-0.103027343750, -0.730957031250, 0.620605468750, -3.156250000000, 6.976562500000, -0.523437500000, 1491905031
-0.103027343750, -0.730957031250, 0.620605468750, -3.156250000000, 6.976562500000, -0.523437500000, 1491905031
-0.112792968750, -0.710937500000, 0.638916015625, -4.664062500000, 6.218750000000, -0.656250000000, 1491905031
-0.112792968750, -0.710937500000, 0.638916015625, -4.664062500000, 6.218750000000, -0.656250000000, 1491905031
-0.112792968750, -0.710937500000, 0.638916015625, -4.664062500000, 6.218750000000, -0.656250000000, 1491905031
-0.112792968750, -0.710937500000, 0.638916015625, -4.664062500000, 6.218750000000, -0.656250000000, 1491905031
-0.195556640625, -0.737304687500, 0.702880859375, -5.351562500000, 3.218750000000, 2.828125000000, 1491905031
-0.195556640625, -0.737304687500, 0.702880859375, -5.351562500000, 3.218750000000, 2.828125000000, 1491905031
-0.195556640625, -0.737304687500, 0.702880859375, -5.351562500000, 3.218750000000, 2.828125000000, 1491905032
-0.195556640625, -0.737304687500, 0.702880859375, -5.351562500000, 3.218750000000, 2.828125000000, 1491905032
-0.195556640625, -0.737304687500, 0.702880859375, -5.351562500000, 3.218750000000, 2.828125000000, 1491905032
-0.195556640625, -0.737304687500, 0.702880859375, -5.351562500000, 3.218750000000, 2.828125000000, 1491905032
-0.218750000000, -0.680419921875, 0.619628906250, -4.968750000000, 6.429687500000, 0.632812500000, 1491905032
-0.218750000000, -0.680419921875, 0.619628906250, -4.968750000000, 6.429687500000, 0.632812500000, 1491905032
-0.218750000000, -0.680419921875, 0.619628906250, -4.968750000000, 6.429687500000, 0.632812500000, 1491905032
-0.159912109375, -0.721435546875, 0.614746093750, -5.476562500000, 2.656250000000, 0.406250000000, 1491905032
-0.159912109375, -0.721435546875, 0.614746093750, -5.476562500000, 2.656250000000, 0.406250000000, 1491905032
-0.159912109375, -0.721435546875, 0.614746093750, -5.476562500000, 2.656250000000, 0.406250000000, 1491905032
-0.252929687500, -0.741699218750, 0.611572265625, -4.960937500000, 10.835937500000, -2.062500000000, 1491905032
-0.252929687500, -0.741699218750, 0.611572265625, -4.960937500000, 10.835937500000, -2.062500000000, 1491905032
-0.252929687500, -0.741699218750, 0.611572265625, -4.960937500000, 10.835937500000, -2.062500000000, 1491905032
-0.252929687500, -0.741699218750, 0.611572265625, -4.960937500000, 10.835937500000, -2.062500000000, 1491905032
-0.203125000000, -0.780029296875, 0.650146484375, -6.703125000000, -2.765625000000, 2.140625000000, 1491905032
-0.203125000000, -0.780029296875, 0.650146484375, -6.703125000000, -2.765625000000, 2.140625000000, 1491905032
-0.203125000000, -0.780029296875, 0.650146484375, -6.703125000000, -2.765625000000, 2.140625000000, 1491905032
-0.255371093750, -0.733154296875, 0.616455078125, -3.828125000000, -0.210937500000, -0.421875000000, 1491905032
-0.255371093750, -0.733154296875, 0.616455078125, -3.828125000000, -0.210937500000, -0.421875000000, 1491905032
-0.255371093750, -0.733154296875, 0.616455078125, -3.828125000000, -0.210937500000, -0.421875000000, 1491905032
-0.269775390625, -0.661621093750, 0.594970703125, -1.687500000000, 1.375000000000, 2.023437500000, 1491905032
-0.269775390625, -0.661621093750, 0.594970703125, -1.687500000000, 1.375000000000, 2.023437500000, 1491905032
-0.269775390625, -0.661621093750, 0.594970703125, -1.687500000000, 1.375000000000, 2.023437500000, 1491905032
-0.269775390625, -0.661621093750, 0.594970703125, -1.687500000000, 1.375000000000, 2.023437500000, 1491905032
-0.202636718750, -0.765625000000, 0.613769531250, 0.140625000000, 0.312500000000, -1.015625000000, 1491905032
-0.202636718750, -0.765625000000, 0.613769531250, 0.140625000000, 0.312500000000, -1.015625000000, 1491905032
-0.202636718750, -0.765625000000, 0.613769531250, 0.140625000000, 0.312500000000, -1.015625000000, 1491905032
-0.202636718750, -0.765625000000, 0.613769531250, 0.140625000000, 0.312500000000, -1.015625000000, 1491905032
-0.264892578125, -0.818359375000, 0.655029296875, -2.585937500000, -0.304687500000, -4.640625000000, 1491905032
-0.264892578125, -0.818359375000, 0.655029296875, -2.585937500000, -0.304687500000, -4.640625000000, 1491905032
-0.264892578125, -0.818359375000, 0.655029296875, -2.585937500000, -0.304687500000, -4.640625000000, 1491905032
-0.264892578125, -0.818359375000, 0.655029296875, -2.585937500000, -0.304687500000, -4.640625000000, 1491905032
-0.264892578125, -0.818359375000, 0.655029296875, -2.585937500000, -0.304687500000, -4.640625000000, 1491905032
-0.230468750000, -0.737548828125, 0.595703125000, -1.296875000000, 2.171875000000, -1.171875000000, 1491905032
-0.230468750000, -0.737548828125, 0.595703125000, -1.296875000000, 2.171875000000, -1.171875000000, 1491905032
-0.230468750000, -0.737548828125, 0.595703125000, -1.296875000000, 2.171875000000, -1.171875000000, 1491905032
-0.217041015625, -0.742431640625, 0.655029296875, -3.453125000000, 0.078125000000, -6.132812500000, 1491905032
-0.217041015625, -0.742431640625, 0.655029296875, -3.453125000000, 0.078125000000, -6.132812500000, 1491905032
-0.217041015625, -0.742431640625, 0.655029296875, -3.453125000000, 0.078125000000, -6.132812500000, 1491905032
-0.217041015625, -0.742431640625, 0.655029296875, -3.453125000000, 0.078125000000, -6.132812500000, 1491905032
-0.229248046875, -0.615234375000, 0.698974609375, -2.078125000000, 2.875000000000, -1.476562500000, 1491905032
-0.229248046875, -0.615234375000, 0.698974609375, -2.078125000000, 2.875000000000, -1.476562500000, 1491905032
-0.229248046875, -0.615234375000, 0.698974609375, -2.078125000000, 2.875000000000, -1.476562500000, 1491905032
-0.260986328125, -0.795898437500, 0.664062500000, -1.304687500000, 4.062500000000, -4.156250000000, 1491905032
-0.260986328125, -0.795898437500, 0.664062500000, -1.304687500000, 4.062500000000, -4.156250000000, 1491905032
-0.260986328125, -0.795898437500, 0.664062500000, -1.304687500000, 4.062500000000, -4.156250000000, 1491905032
-0.226074218750, -0.775878906250, 0.635986328125, 2.765625000000, 5.625000000000, 2.773437500000, 1491905032
-0.226074218750, -0.775878906250, 0.635986328125, 2.765625000000, 5.625000000000, 2.773437500000, 1491905032
-0.226074218750, -0.775878906250, 0.635986328125, 2.765625000000, 5.625000000000, 2.773437500000, 1491905032
-0.160644531250, -0.770263671875, 0.641845703125, -1.906250000000, -0.757812500000, -1.085937500000, 1491905032
-0.160644531250, -0.770263671875, 0.641845703125, -1.906250000000, -0.757812500000, -1.085937500000, 1491905032
-0.160644531250, -0.770263671875, 0.641845703125, -1.906250000000, -0.757812500000, -1.085937500000, 1491905032
-0.160644531250, -0.770263671875, 0.641845703125, -1.906250000000, -0.757812500000, -1.085937500000, 1491905032
-0.254638671875, -0.813232421875, 0.614501953125, -5.062500000000, 4.796875000000, -1.796875000000, 1491905032
-0.254638671875, -0.813232421875, 0.614501953125, -5.062500000000, 4.796875000000, -1.796875000000, 1491905032
-0.254638671875, -0.813232421875, 0.614501953125, -5.062500000000, 4.796875000000, -1.796875000000, 1491905032
-0.317871093750, -0.755859375000, 0.629394531250, 0.523437500000, 5.367187500000, -1.703125000000, 1491905032
-0.115234375000, -0.822998046875, 0.621093750000, -6.304687500000, 1.656250000000, -2.476562500000, 1491905032
-0.115234375000, -0.822998046875, 0.621093750000, -6.304687500000, 1.656250000000, -2.476562500000, 1491905032
-0.176269531250, -0.738037109375, 0.646728515625, -3.226562500000, 3.437500000000, -4.156250000000, 1491905032
-0.251464843750, -0.769042968750, 0.623291015625, -4.703125000000, 6.460937500000, -3.093750000000, 1491905032
-0.251464843750, -0.769042968750, 0.623291015625, -4.703125000000, 6.460937500000, -3.093750000000, 1491905032
-0.251464843750, -0.769042968750, 0.623291015625, -4.703125000000, 6.460937500000, -3.093750000000, 1491905032
-0.251464843750, -0.769042968750, 0.623291015625, -4.703125000000, 6.460937500000, -3.093750000000, 1491905032
-0.251464843750, -0.769042968750, 0.623291015625, -4.703125000000, 6.460937500000, -3.093750000000, 1491905032
-0.251464843750, -0.769042968750, 0.623291015625, -4.703125000000, 6.460937500000, -3.093750000000, 1491905032
-0.157714843750, -0.721679687500, 0.611083984375, -5.039062500000, 6.546875000000, -2.320312500000, 1491905032
-0.157714843750, -0.721679687500, 0.611083984375, -5.039062500000, 6.546875000000, -2.320312500000, 1491905032
-0.157714843750, -0.721679687500, 0.611083984375, -5.039062500000, 6.546875000000, -2.320312500000, 1491905032
-0.118408203125, -0.772705078125, 0.626953125000, -4.539062500000, 4.820312500000, -2.859375000000, 1491905033
-0.118408203125, -0.772705078125, 0.626953125000, -4.539062500000, 4.820312500000, -2.859375000000, 1491905033
-0.118408203125, -0.772705078125, 0.626953125000, -4.539062500000, 4.820312500000, -2.859375000000, 1491905033
-0.237792968750, -0.739013671875, 0.615478515625, -3.390625000000, 6.203125000000, -3.484375000000, 1491905033
-0.237792968750, -0.739013671875, 0.615478515625, -3.390625000000, 6.203125000000, -3.484375000000, 1491905033
-0.237792968750, -0.739013671875, 0.615478515625, -3.390625000000, 6.203125000000, -3.484375000000, 1491905033
-0.184082031250, -0.736083984375, 0.556152343750, -3.734375000000, 8.023437500000, -3.187500000000, 1491905033
-0.184082031250, -0.736083984375, 0.556152343750, -3.734375000000, 8.023437500000, -3.187500000000, 1491905033
-0.184082031250, -0.736083984375, 0.556152343750, -3.734375000000, 8.023437500000, -3.187500000000, 1491905033
-0.184082031250, -0.736083984375, 0.556152343750, -3.734375000000, 8.023437500000, -3.187500000000, 1491905033
-0.250244140625, -0.732910156250, 0.601318359375, -2.625000000000, 4.835937500000, -4.328125000000, 1491905033
-0.250244140625, -0.732910156250, 0.601318359375, -2.625000000000, 4.835937500000, -4.328125000000, 1491905033
-0.250244140625, -0.732910156250, 0.601318359375, -2.625000000000, 4.835937500000, -4.328125000000, 1491905033
-0.254394531250, -0.815429687500, 0.581787109375, -1.648437500000, 8.593750000000, 0.429687500000, 1491905033
-0.254394531250, -0.815429687500, 0.581787109375, -1.648437500000, 8.593750000000, 0.429687500000, 1491905033
-0.254394531250, -0.815429687500, 0.581787109375, -1.648437500000, 8.593750000000, 0.429687500000, 1491905033
-0.231201171875, -0.736083984375, 0.593994140625, -10.140625000000, -2.023437500000, -2.914062500000, 1491905033
-0.231201171875, -0.736083984375, 0.593994140625, -10.140625000000, -2.023437500000, -2.914062500000, 1491905033
-0.231201171875, -0.736083984375, 0.593994140625, -10.140625000000, -2.023437500000, -2.914062500000, 1491905033
-0.225585937500, -0.723144531250, 0.638427734375, -2.820312500000, 1.468750000000, -4.304687500000, 1491905033
-0.225585937500, -0.723144531250, 0.638427734375, -2.820312500000, 1.468750000000, -4.304687500000, 1491905033
-0.225585937500, -0.723144531250, 0.638427734375, -2.820312500000, 1.468750000000, -4.304687500000, 1491905033
-0.225585937500, -0.723144531250, 0.638427734375, -2.820312500000, 1.468750000000, -4.304687500000, 1491905033
-0.259521484375, -0.839843750000, 0.626708984375, -5.906250000000, 7.367187500000, -0.554687500000, 1491905033
-0.259521484375, -0.839843750000, 0.626708984375, -5.906250000000, 7.367187500000, -0.554687500000, 1491905033
-0.259521484375, -0.839843750000, 0.626708984375, -5.906250000000, 7.367187500000, -0.554687500000, 1491905033
-0.252929687500, -0.752197265625, 0.641357421875, 2.156250000000, 6.093750000000, 0.242187500000, 1491905033
-0.252929687500, -0.752197265625, 0.641357421875, 2.156250000000, 6.093750000000, 0.242187500000, 1491905033
-0.252929687500, -0.752197265625, 0.641357421875, 2.156250000000, 6.093750000000, 0.242187500000, 1491905033
-0.333496093750, -0.820800781250, 0.540283203125, -4.625000000000, 7.921875000000, 0.937500000000, 1491905033
-0.333496093750, -0.820800781250, 0.540283203125, -4.625000000000, 7.921875000000, 0.937500000000, 1491905033
-0.333496093750, -0.820800781250, 0.540283203125, -4.625000000000, 7.921875000000, 0.937500000000, 1491905033
-0.175781250000, -0.812744140625, 0.618652343750, -4.570312500000, 7.945312500000, -0.476562500000, 1491905033
-0.175781250000, -0.812744140625, 0.618652343750, -4.570312500000, 7.945312500000, -0.476562500000, 1491905033
-0.175781250000, -0.812744140625, 0.618652343750, -4.570312500000, 7.945312500000, -0.476562500000, 1491905033
-0.175781250000, -0.812744140625, 0.618652343750, -4.570312500000, 7.945312500000, -0.476562500000, 1491905033
-0.249267578125, -0.832763671875, 0.632324218750, -1.390625000000, 5.734375000000, -2.242187500000, 1491905033
-0.249267578125, -0.832763671875, 0.632324218750, -1.390625000000, 5.734375000000, -2.242187500000, 1491905033
-0.249267578125, -0.832763671875, 0.632324218750, -1.390625000000, 5.734375000000, -2.242187500000, 1491905033
-0.120605468750, -0.664794921875, 0.589111328125, -1.718750000000, 8.843750000000, -0.773437500000, 1491905033
-0.120605468750, -0.664794921875, 0.589111328125, -1.718750000000, 8.843750000000, -0.773437500000, 1491905033
-0.120605468750, -0.664794921875, 0.589111328125, -1.718750000000, 8.843750000000, -0.773437500000, 1491905033
-0.314697265625, -0.778564453125, 0.555664062500, -1.406250000000, 7.960937500000, 0.250000000000, 1491905033
-0.314697265625, -0.778564453125, 0.555664062500, -1.406250000000, 7.960937500000, 0.250000000000, 1491905033
-0.314697265625, -0.778564453125, 0.555664062500, -1.406250000000, 7.960937500000, 0.250000000000, 1491905033
-0.175537109375, -0.686279296875, 0.632568359375, -3.007812500000, 9.437500000000, 2.453125000000, 1491905033
-0.279296875000, -0.756835937500, 0.580566406250, -0.421875000000, 11.523437500000, 4.812500000000, 1491905033
-0.279296875000, -0.756835937500, 0.580566406250, -0.421875000000, 11.523437500000, 4.812500000000, 1491905033
-0.170898437500, -0.720947265625, 0.602783203125, -9.898437500000, 14.078125000000, 6.554687500000, 1491905033
-0.170898437500, -0.720947265625, 0.602783203125, -9.898437500000, 14.078125000000, 6.554687500000, 1491905033
-0.170898437500, -0.720947265625, 0.602783203125, -9.898437500000, 14.078125000000, 6.554687500000, 1491905033
-0.170898437500, -0.720947265625, 0.602783203125, -9.898437500000, 14.078125000000, 6.554687500000, 1491905033
-0.170898437500, -0.720947265625, 0.602783203125, -9.898437500000, 14.078125000000, 6.554687500000, 1491905033
-0.170898437500, -0.720947265625, 0.602783203125, -9.898437500000, 14.078125000000, 6.554687500000, 1491905033
-0.313964843750, -0.843750000000, 0.650634765625, -0.781250000000, 26.445312500000, 9.109375000000, 1491905033
-0.174804687500, -0.738037109375, 0.693115234375, -0.781250000000, 26.445312500000, 9.109375000000, 1491905033
-0.174804687500, -0.738037109375, 0.693115234375, -0.781250000000, 26.445312500000, 9.109375000000, 1491905033
-0.174804687500, -0.738037109375, 0.693115234375, -0.781250000000, 26.445312500000, 9.109375000000, 1491905033
-0.243164062500, -0.667480468750, 0.638916015625, -15.734375000000, 48.242187500000, 21.835937500000, 1491905033
-0.243164062500, -0.667480468750, 0.638916015625, -15.734375000000, 48.242187500000, 21.835937500000, 1491905033
-0.243164062500, -0.667480468750, 0.638916015625, -15.734375000000, 48.242187500000, 21.835937500000, 1491905033
-0.231445312500, -0.756103515625, 0.575927734375, -23.429687500000, 43.507812500000, 23.312500000000, 1491905033
-0.317626953125, -0.680419921875, 0.580322265625, -26.007812500000, 48.125000000000, 24.851562500000, 1491905034
-0.317626953125, -0.680419921875, 0.580322265625, -26.007812500000, 48.125000000000, 24.851562500000, 1491905034
-0.317626953125, -0.680419921875, 0.580322265625, -26.007812500000, 48.125000000000, 24.851562500000, 1491905034
-0.317626953125, -0.680419921875, 0.580322265625, -26.007812500000, 48.125000000000, 24.851562500000, 1491905034
-0.320068359375, -0.689208984375, 0.549316406250, -20.523437500000, 43.851562500000, 17.531250000000, 1491905034
-0.320068359375, -0.689208984375, 0.549316406250, -20.523437500000, 43.851562500000, 17.531250000000, 1491905034
-0.320068359375, -0.689208984375, 0.549316406250, -20.523437500000, 43.851562500000, 17.531250000000, 1491905034
-0.320068359375, -0.689208984375, 0.549316406250, -20.523437500000, 43.851562500000, 17.531250000000, 1491905034
-0.320068359375, -0.689208984375, 0.549316406250, -20.523437500000, 43.851562500000, 17.531250000000, 1491905034
-0.256835937500, -0.561523437500, 0.377197265625, -9.578125000000, 63.742187500000, 26.640625000000, 1491905034
-0.256835937500, -0.561523437500, 0.377197265625, -9.578125000000, 63.742187500000, 26.640625000000, 1491905034
-0.256835937500, -0.561523437500, 0.377197265625, -9.578125000000, 63.742187500000, 26.640625000000, 1491905034
-0.256835937500, -0.561523437500, 0.377197265625, -9.578125000000, 63.742187500000, 26.640625000000, 1491905034
-0.256835937500, -0.561523437500, 0.377197265625, -9.578125000000, 63.742187500000, 26.640625000000, 1491905034
-0.256835937500, -0.561523437500, 0.377197265625, -9.578125000000, 63.742187500000, 26.640625000000, 1491905034
-0.237060546875, -0.554199218750, 0.378662109375, -0.414062500000, 76.039062500000, 27.070312500000, 1491905034
-0.271972656250, -0.708984375000, 0.421386718750, 5.851562500000, 78.046875000000, 26.750000000000, 1491905034
-0.271972656250, -0.708984375000, 0.421386718750, 5.851562500000, 78.046875000000, 26.750000000000, 1491905034
-0.271972656250, -0.708984375000, 0.421386718750, 5.851562500000, 78.046875000000, 26.750000000000, 1491905034
-0.374267578125, -0.640380859375, 0.486816406250, 9.085937500000, 86.226562500000, 28.195312500000, 1491905034
-0.374267578125, -0.640380859375, 0.486816406250, 9.085937500000, 86.226562500000, 28.195312500000, 1491905034
-0.374267578125, -0.640380859375, 0.486816406250, 9.085937500000, 86.226562500000, 28.195312500000, 1491905034
-0.451171875000, -0.597167968750, 0.515869140625, -15.390625000000, 91.445312500000, 10.492187500000, 1491905034
-0.451171875000, -0.597167968750, 0.515869140625, -15.390625000000, 91.445312500000, 10.492187500000, 1491905034
-0.451171875000, -0.597167968750, 0.515869140625, -15.390625000000, 91.445312500000, 10.492187500000, 1491905034
-0.451171875000, -0.597167968750, 0.515869140625, -15.390625000000, 91.445312500000, 10.492187500000, 1491905034
-0.455810546875, -0.539794921875, 0.439941406250, -8.789062500000, 83.101562500000, 11.015625000000, 1491905034
-0.455810546875, -0.539794921875, 0.439941406250, -8.789062500000, 83.101562500000, 11.015625000000, 1491905034
-0.455810546875, -0.539794921875, 0.439941406250, -8.789062500000, 83.101562500000, 11.015625000000, 1491905034
-0.515136718750, -0.757568359375, 0.333007812500, 17.109375000000, 80.554687500000, 30.906250000000, 1491905034
-0.515136718750, -0.757568359375, 0.333007812500, 17.109375000000, 80.554687500000, 30.906250000000, 1491905034
-0.515136718750, -0.757568359375, 0.333007812500, 17.109375000000, 80.554687500000, 30.906250000000, 1491905034
-0.515136718750, -0.757568359375, 0.333007812500, 17.109375000000, 80.554687500000, 30.906250000000, 1491905034
-0.515136718750, -0.757568359375, 0.333007812500, 17.109375000000, 80.554687500000, 30.906250000000, 1491905034
-0.518798828125, -0.944580078125, 0.257812500000, 54.414062500000, 24.390625000000, 35.984375000000, 1491905034
-0.518798828125, -0.944580078125, 0.257812500000, 54.414062500000, 24.390625000000, 35.984375000000, 1491905034
-0.518798828125, -0.944580078125, 0.257812500000, 54.414062500000, 24.390625000000, 35.984375000000, 1491905034
-0.509521484375, -0.986816406250, 0.194824218750, 83.125000000000, -88.460937500000, 21.921875000000, 1491905034
-0.509521484375, -0.986816406250, 0.194824218750, 83.125000000000, -88.460937500000, 21.921875000000, 1491905034
-0.509521484375, -0.986816406250, 0.194824218750, 83.125000000000, -88.460937500000, 21.921875000000, 1491905034
-0.509521484375, -0.986816406250, 0.194824218750, 83.125000000000, -88.460937500000, 21.921875000000, 1491905034
-0.509521484375, -0.986816406250, 0.194824218750, 83.125000000000, -88.460937500000, 21.921875000000, 1491905034
-0.416015625000, -0.978759765625, 0.199218750000, 89.523437500000, -87.328125000000, 14.093750000000, 1491905034
-0.416015625000, -0.978759765625, 0.199218750000, 89.523437500000, -87.328125000000, 14.093750000000, 1491905034
-0.416015625000, -0.978759765625, 0.199218750000, 89.523437500000, -87.328125000000, 14.093750000000, 1491905034
-0.387451171875, -0.924560546875, 0.166503906250, 42.492187500000, 22.304687500000, 17.945312500000, 1491905034
-0.387451171875, -0.924560546875, 0.166503906250, 42.492187500000, 22.304687500000, 17.945312500000, 1491905034
-0.387451171875, -0.924560546875, 0.166503906250, 42.492187500000, 22.304687500000, 17.945312500000, 1491905034
-0.138427734375, -0.856201171875, 0.110107421875, -44.109375000000, 232.585937500000, 84.812500000000, 1491905034
-0.138427734375, -0.856201171875, 0.110107421875, -44.109375000000, 232.585937500000, 84.812500000000, 1491905034
-0.138427734375, -0.856201171875, 0.110107421875, -44.109375000000, 232.585937500000, 84.812500000000, 1491905034
-0.138427734375, -0.856201171875, 0.110107421875, -44.109375000000, 232.585937500000, 84.812500000000, 1491905034
-0.077636718750, -0.930175781250, 0.199951171875, -43.718750000000, 208.890625000000, 111.476562500000, 1491905034
-0.077636718750, -0.930175781250, 0.199951171875, -43.718750000000, 208.890625000000, 111.476562500000, 1491905034
-0.077636718750, -0.930175781250, 0.199951171875, -43.718750000000, 208.890625000000, 111.476562500000, 1491905034
-0.011474609375, -1.145996093750, 0.197753906250, -76.343750000000, 5.734375000000, 82.375000000000, 1491905034
-0.011474609375, -1.145996093750, 0.197753906250, -76.343750000000, 5.734375000000, 82.375000000000, 1491905034
-0.011474609375, -1.145996093750, 0.197753906250, -76.343750000000, 5.734375000000, 82.375000000000, 1491905034
-0.197998046875, -0.930419921875, 0.172607421875, 16.460937500000, -81.273437500000, 94.828125000000, 1491905034
-0.197998046875, -0.930419921875, 0.172607421875, 16.460937500000, -81.273437500000, 94.828125000000, 1491905034
-0.197998046875, -0.930419921875, 0.172607421875, 16.460937500000, -81.273437500000, 94.828125000000, 1491905034
-0.209472656250, -1.020751953125, 0.214843750000, 18.789062500000, -107.882812500000, 58.929687500000, 1491905034
-0.209472656250, -1.020751953125, 0.214843750000, 18.789062500000, -107.882812500000, 58.929687500000, 1491905034
-0.209472656250, -1.020751953125, 0.214843750000, 18.789062500000, -107.882812500000, 58.929687500000, 1491905034
-0.209472656250, -1.020751953125, 0.214843750000, 18.789062500000, -107.882812500000, 58.929687500000, 1491905034
-0.128662109375, -0.910400390625, 0.215576171875, 8.609375000000, -61.382812500000, 73.710937500000, 1491905034
-0.128662109375, -0.910400390625, 0.215576171875, 8.609375000000, -61.382812500000, 73.710937500000, 1491905034
-0.128662109375, -0.910400390625, 0.215576171875, 8.609375000000, -61.382812500000, 73.710937500000, 1491905034
-0.050781250000, -0.795410156250, 0.209716796875, -18.023437500000, -70.304687500000, 82.343750000000, 1491905035
-0.050781250000, -0.795410156250, 0.209716796875, -18.023437500000, -70.304687500000, 82.343750000000, 1491905035
-0.217773437500, -1.052001953125, 0.157714843750, -53.273437500000, -143.593750000000, 19.117187500000, 1491905035
0.004882812500, -0.770019531250, 0.160644531250, -35.007812500000, -190.679687500000, 39.218750000000, 1491905035
0.004882812500, -0.770019531250, 0.160644531250, -35.007812500000, -190.679687500000, 39.218750000000, 1491905035
0.004882812500, -0.770019531250, 0.160644531250, -35.007812500000, -190.679687500000, 39.218750000000, 1491905035
0.004882812500, -0.770019531250, 0.160644531250, -35.007812500000, -190.679687500000, 39.218750000000, 1491905035
0.289550781250, -0.988037109375, -0.068603515625, -153.625000000000, -239.968750000000, 253.992187500000, 1491905035
0.289550781250, -0.988037109375, -0.068603515625, -153.625000000000, -239.968750000000, 253.992187500000, 1491905035
0.289550781250, -0.988037109375, -0.068603515625, -153.625000000000, -239.968750000000, 253.992187500000, 1491905035
0.289550781250, -0.988037109375, -0.068603515625, -153.625000000000, -239.968750000000, 253.992187500000, 1491905035
0.289550781250, -0.988037109375, -0.068603515625, -153.625000000000, -239.968750000000, 253.992187500000, 1491905035
0.289550781250, -0.988037109375, -0.068603515625, -153.625000000000, -239.968750000000, 253.992187500000, 1491905035
0.652099609375, -0.995361328125, 0.198730468750, -123.937500000000, 250.632812500000, 81.632812500000, 1491905035
0.437011718750, -0.703369140625, 0.145751953125, -98.250000000000, 52.335937500000, 131.375000000000, 1491905035
0.437011718750, -0.703369140625, 0.145751953125, -98.250000000000, 52.335937500000, 131.375000000000, 1491905035
0.437011718750, -0.703369140625, 0.145751953125, -98.250000000000, 52.335937500000, 131.375000000000, 1491905035
0.437011718750, -0.703369140625, 0.145751953125, -98.250000000000, 52.335937500000, 131.375000000000, 1491905035
0.437011718750, -0.703369140625, 0.145751953125, -98.250000000000, 52.335937500000, 131.375000000000, 1491905035
1.103515625000, -1.423095703125, 0.380126953125, -217.664062500000, 12.812500000000, -2.710937500000, 1491905035
1.103515625000, -1.423095703125, 0.380126953125, -217.664062500000, 12.812500000000, -2.710937500000, 1491905035
1.103515625000, -1.423095703125, 0.380126953125, -217.664062500000, 12.812500000000, -2.710937500000, 1491905035
1.103515625000, -1.423095703125, 0.380126953125, -217.664062500000, 12.812500000000, -2.710937500000, 1491905035
0.698242187500, -0.559326171875, 0.181152343750, -116.796875000000, -85.054687500000, -58.726562500000, 1491905035
0.698242187500, -0.559326171875, 0.181152343750, -116.796875000000, -85.054687500000, -58.726562500000, 1491905035
0.698242187500, -0.559326171875, 0.181152343750, -116.796875000000, -85.054687500000, -58.726562500000, 1491905035
4.568359375000, -0.882324218750, 5.785156250000, -115.226562500000, -256.000000000000, -87.906250000000, 1491905035
0.903076171875, -0.516845703125, 0.375732421875, 111.109375000000, -242.250000000000, 170.039062500000, 1491905035
0.903076171875, -0.516845703125, 0.375732421875, 111.109375000000, -242.250000000000, 170.039062500000, 1491905035
0.903076171875, -0.516845703125, 0.375732421875, 111.109375000000, -242.250000000000, 170.039062500000, 1491905035
0.903076171875, -0.516845703125, 0.375732421875, 111.109375000000, -242.250000000000, 170.039062500000, 1491905035
0.903076171875, -0.516845703125, 0.375732421875, 111.109375000000, -242.250000000000, 170.039062500000, 1491905035
0.823242187500, 0.603271484375, 1.330322265625, -256.000000000000, 141.789062500000, 170.781250000000, 1491905035
0.823242187500, 0.603271484375, 1.330322265625, -256.000000000000, 141.789062500000, 170.781250000000, 1491905035
0.823242187500, 0.603271484375, 1.330322265625, -256.000000000000, 141.789062500000, 170.781250000000, 1491905035
0.823242187500, 0.603271484375, 1.330322265625, -256.000000000000, 141.789062500000, 170.781250000000, 1491905035
0.344970703125, -0.002441406250, 0.220214843750, -17.117187500000, 253.992187500000, 57.742187500000, 1491905035
0.344970703125, -0.002441406250, 0.220214843750, -17.117187500000, 253.992187500000, 57.742187500000, 1491905035
0.344970703125, -0.002441406250, 0.220214843750, -17.117187500000, 253.992187500000, 57.742187500000, 1491905035
0.344970703125, -0.002441406250, 0.220214843750, -17.117187500000, 253.992187500000, 57.742187500000, 1491905035
0.344970703125, -0.002441406250, 0.220214843750, -17.117187500000, 253.992187500000, 57.742187500000, 1491905035
0.380126953125, 0.198730468750, 0.120849609375, 165.039062500000, 253.992187500000, 70.195312500000, 1491905035
0.380126953125, 0.198730468750, 0.120849609375, 165.039062500000, 253.992187500000, 70.195312500000, 1491905035
0.380126953125, 0.198730468750, 0.120849609375, 165.039062500000, 253.992187500000, 70.195312500000, 1491905035
0.380126953125, 0.198730468750, 0.120849609375, 165.039062500000, 253.992187500000, 70.195312500000, 1491905035
0.524169921875, 0.341796875000, 1.400390625000, -115.156250000000, -256.000000000000, -213.148437500000, 1491905035
0.524169921875, 0.341796875000, 1.400390625000, -115.156250000000, -256.000000000000, -213.148437500000, 1491905035
0.524169921875, 0.341796875000, 1.400390625000, -115.156250000000, -256.000000000000, -213.148437500000, 1491905035
0.524169921875, 0.341796875000, 1.400390625000, -115.156250000000, -256.000000000000, -213.148437500000, 1491905035
0.815185546875, 0.125244140625, 1.327392578125, -53.960937500000, 93.726562500000, -27.507812500000, 1491905035
0.815185546875, 0.125244140625, 1.327392578125, -53.960937500000, 93.726562500000, -27.507812500000, 1491905035
0.815185546875, 0.125244140625, 1.327392578125, -53.960937500000, 93.726562500000, -27.507812500000, 1491905035
0.519287109375, 0.049072265625, 0.772460937500, -89.976562500000, 167.773437500000, 29.593750000000, 1491905035
0.519287109375, 0.049072265625, 0.772460937500, -89.976562500000, 167.773437500000, 29.593750000000, 1491905035
0.519287109375, 0.049072265625, 0.772460937500, -89.976562500000, 167.773437500000, 29.593750000000, 1491905035
0.452636718750, 0.011962890625, 0.811767578125, 19.109375000000, -104.140625000000, -68.226562500000, 1491905035
0.452636718750, 0.011962890625, 0.811767578125, 19.109375000000, -104.140625000000, -68.226562500000, 1491905035
0.452636718750, 0.011962890625, 0.811767578125, 19.109375000000, -104.140625000000, -68.226562500000, 1491905035
0.023681640625, 0.257568359375, 1.036621093750, -75.070312500000, 67.789062500000, 39.609375000000, 1491905035
0.023681640625, 0.257568359375, 1.036621093750, -75.070312500000, 67.789062500000, 39.609375000000, 1491905035
0.023681640625, 0.257568359375, 1.036621093750, -75.070312500000, 67.789062500000, 39.609375000000, 1491905035
0.023681640625, 0.257568359375, 1.036621093750, -75.070312500000, 67.789062500000, 39.609375000000, 1491905035
0.242675781250, -0.071777343750, 0.902587890625, 43.148437500000, -90.664062500000, 4.617187500000, 1491905035
0.242675781250, -0.071777343750, 0.902587890625, 43.148437500000, -90.664062500000, 4.617187500000, 1491905035
0.242675781250, -0.071777343750, 0.902587890625, 26.859375000000, -91.382812500000, -18.304687500000, 1491905035
0.437255859375, -0.012207031250, 1.091552734375, 36.093750000000, -53.789062500000, -41.929687500000, 1491905035
0.437255859375, -0.012207031250, 1.091552734375, 36.093750000000, -53.789062500000, -41.929687500000, 1491905035
0.437255859375, -0.012207031250, 1.091552734375, 36.093750000000, -53.789062500000, -41.929687500000, 1491905036
0.437255859375, -0.012207031250, 1.091552734375, 36.093750000000, -53.789062500000, -41.929687500000, 1491905036
0.437255859375, -0.012207031250, 1.091552734375, 36.093750000000, -53.789062500000, -41.929687500000, 1491905036
0.437255859375, -0.012207031250, 1.091552734375, 36.093750000000, -53.789062500000, -41.929687500000, 1491905036
0.506103515625, 0.088867187500, 0.943847656250, 9.984375000000, 3.773437500000, 11.882812500000, 1491905036
0.506103515625, 0.088867187500, 0.943847656250, 9.984375000000, 3.773437500000, 11.882812500000, 1491905036
0.506103515625, 0.088867187500, 0.943847656250, 9.984375000000, 3.773437500000, 11.882812500000, 1491905036
0.506103515625, 0.088867187500, 0.943847656250, 9.984375000000, 3.773437500000, 11.882812500000, 1491905036
0.386230468750, -0.026611328125, 0.881835937500, -6.656250000000, -0.726562500000, 16.726562500000, 1491905036
0.386230468750, -0.026611328125, 0.881835937500, -6.656250000000, -0.726562500000, 16.726562500000, 1491905036
0.386230468750, -0.026611328125, 0.881835937500, -6.656250000000, -0.726562500000, 16.726562500000, 1491905036
0.402099609375, -0.147705078125, 0.936767578125, -6.148437500000, -35.820312500000, 4.671875000000, 1491905036
0.402099609375, -0.147705078125, 0.936767578125, -6.148437500000, -35.820312500000, 4.671875000000, 1491905036
0.402099609375, -0.147705078125, 0.936767578125, -6.148437500000, -35.820312500000, 4.671875000000, 1491905036
0.430175781250, -0.129882812500, 1.040039062500, 5.914062500000, -22.734375000000, -13.140625000000, 1491905036
0.430175781250, -0.129882812500, 1.040039062500, 5.914062500000, -22.734375000000, -13.140625000000, 1491905036
0.430175781250, -0.129882812500, 1.040039062500, 5.914062500000, -22.734375000000, -13.140625000000, 1491905036
0.517578125000, -0.062988281250, 1.086669921875, 0.796875000000, -1.179687500000, -5.429687500000, 1491905036
0.449218750000, -0.047851562500, 0.942626953125, -9.476562500000, 18.937500000000, -9.773437500000, 1491905036
0.355712890625, -0.064941406250, 1.000244140625, -12.843750000000, 11.132812500000, -13.445312500000, 1491905036
0.355712890625, -0.064941406250, 1.000244140625, -12.843750000000, 11.132812500000, -13.445312500000, 1491905036
0.355712890625, -0.064941406250, 1.000244140625, -12.843750000000, 11.132812500000, -13.445312500000, 1491905036
0.443359375000, 0.125244140625, 0.989257812500, -8.539062500000, 23.484375000000, -16.906250000000, 1491905036
0.416992187500, 0.084472656250, 0.991455078125, -8.539062500000, 23.484375000000, -16.906250000000, 1491905036
0.416992187500, 0.084472656250, 0.991455078125, -8.539062500000, 23.484375000000, -16.906250000000, 1491905036
0.416992187500, 0.084472656250, 0.991455078125, -8.539062500000, 23.484375000000, -16.906250000000, 1491905036
0.416992187500, 0.084472656250, 0.991455078125, -8.539062500000, 23.484375000000, -16.906250000000, 1491905036
0.416992187500, 0.084472656250, 0.991455078125, -8.539062500000, 23.484375000000, -16.906250000000, 1491905036
0.289306640625, -0.020507812500, 0.923095703125, 10.992187500000, 1.671875000000, -10.867187500000, 1491905036
0.289306640625, -0.020507812500, 0.923095703125, 10.992187500000, 1.671875000000, -10.867187500000, 1491905036
0.289306640625, -0.020507812500, 0.923095703125, 10.992187500000, 1.671875000000, -10.867187500000, 1491905036
0.289306640625, -0.020507812500, 0.923095703125, 10.992187500000, 1.671875000000, -10.867187500000, 1491905036
0.347656250000, 0.066894531250, 0.928466796875, 10.679687500000, -1.039062500000, -10.039062500000, 1491905036
0.303222656250, 0.023925781250, 0.961914062500, -1.210937500000, 2.789062500000, -10.757812500000, 1491905036
0.303222656250, 0.023925781250, 0.961914062500, -1.210937500000, 2.789062500000, -10.757812500000, 1491905036
0.303222656250, 0.023925781250, 0.961914062500, -1.210937500000, 2.789062500000, -10.757812500000, 1491905036
0.303222656250, 0.023925781250, 0.961914062500, -1.210937500000, 2.789062500000, -10.757812500000, 1491905036
0.381347656250, 0.025146484375, 0.874023437500, -6.140625000000, 1.773437500000, -6.796875000000, 1491905036
0.381347656250, 0.025146484375, 0.874023437500, -6.140625000000, 1.773437500000, -6.796875000000, 1491905036
0.381347656250, 0.025146484375, 0.874023437500, -6.140625000000, 1.773437500000, -6.796875000000, 1491905036
0.341308593750, -0.074218750000, 0.986083984375, 0.492187500000, -18.445312500000, -12.710937500000, 1491905036
0.341308593750, -0.074218750000, 0.986083984375, 0.492187500000, -18.445312500000, -12.710937500000, 1491905036
0.341308593750, -0.074218750000, 0.986083984375, 0.492187500000, -18.445312500000, -12.710937500000, 1491905036
0.438720703125, -0.045654296875, 0.930664062500, -4.929687500000, -6.101562500000, -4.000000000000, 1491905036
0.438720703125, -0.045654296875, 0.930664062500, -4.929687500000, -6.101562500000, -4.000000000000, 1491905036
0.438720703125, -0.045654296875, 0.930664062500, -4.929687500000, -6.101562500000, -4.000000000000, 1491905036
0.438720703125, -0.045654296875, 0.930664062500, -4.929687500000, -6.101562500000, -4.000000000000, 1491905036
0.414306640625, -0.042724609375, 1.029296875000, -5.476562500000, 0.000000000000, -3.007812500000, 1491905036
0.467773437500, -0.002441406250, 1.024902343750, -8.375000000000, 1.656250000000, -4.820312500000, 1491905036
0.467773437500, -0.002441406250, 1.024902343750, -8.375000000000, 1.656250000000, -4.820312500000, 1491905036
0.467773437500, -0.002441406250, 1.024902343750, -8.375000000000, 1.656250000000, -4.820312500000, 1491905036
0.459472656250, -0.129882812500, 0.929931640625, -3.281250000000, 1.617187500000, -4.593750000000, 1491905036
0.459472656250, -0.129882812500, 0.929931640625, -3.281250000000, 1.617187500000, -4.593750000000, 1491905036
0.459472656250, -0.129882812500, 0.929931640625, -3.281250000000, 1.617187500000, -4.593750000000, 1491905036
0.459472656250, -0.129882812500, 0.929931640625, -3.281250000000, 1.617187500000, -4.593750000000, 1491905036
0.459472656250, -0.129882812500, 0.929931640625, -3.281250000000, 1.617187500000, -4.593750000000, 1491905036
0.398437500000, -0.082275390625, 0.928710937500, -5.992187500000, 6.601562500000, -4.085937500000, 1491905036
0.398437500000, -0.082275390625, 0.928710937500, -5.992187500000, 6.601562500000, -4.085937500000, 1491905036
0.398437500000, -0.082275390625, 0.928710937500, -5.992187500000, 6.601562500000, -4.085937500000, 1491905036
0.398437500000, -0.082275390625, 0.928710937500, -5.992187500000, 6.601562500000, -4.085937500000, 1491905036
0.298095703125, -0.072021484375, 1.031005859375, -3.750000000000, 3.562500000000, -3.195312500000, 1491905036
0.282714843750, 0.012939453125, 0.938232421875, -2.812500000000, 4.257812500000, -0.867187500000, 1491905036
0.282714843750, 0.012939453125, 0.938232421875, -2.812500000000, 4.257812500000, -0.867187500000, 1491905036
0.282714843750, 0.012939453125, 0.938232421875, -2.812500000000, 4.257812500000, -0.867187500000, 1491905036
0.282714843750, 0.012939453125, 0.938232421875, -2.812500000000, 4.257812500000, -0.867187500000, 1491905036
0.282714843750, 0.012939453125, 0.938232421875, -2.812500000000, 4.257812500000, -0.867187500000, 1491905036
0.406250000000, -0.020996093750, 0.928222656250, -3.515625000000, -2.578125000000, -4.007812500000, 1491905037
0.406250000000, -0.020996093750, 0.928222656250, -3.515625000000, -2.578125000000, -4.007812500000, 1491905037
0.406250000000, -0.020996093750, 0.928222656250, -3.515625000000, -2.578125000000, -4.007812500000, 1491905037
0.383789062500, 0.016845703125, 0.989257812500, -4.976562500000, 2.929687500000, -3.406250000000, 1491905037
0.341796875000, 0.033691406250, 1.007080078125, -2.585937500000, 4.046875000000, -1.203125000000, 1491905037
0.341796875000, 0.033691406250, 1.007080078125, -2.585937500000, 4.046875000000, -1.203125000000, 1491905037
0.341796875000, 0.033691406250, 1.007080078125, -2.585937500000, 4.046875000000, -1.203125000000, 1491905037
0.341796875000, 0.033691406250, 1.007080078125, -2.585937500000, 4.046875000000, -1.203125000000, 1491905037
0.392822265625, 0.002929687500, 0.997802734375, -5.984375000000, 6.765625000000, -8.992187500000, 1491905037
0.392822265625, 0.002929687500, 0.997802734375, -5.984375000000, 6.765625000000, -8.992187500000, 1491905037
0.392822265625, 0.002929687500, 0.997802734375, -5.984375000000, 6.765625000000, -8.992187500000, 1491905037
0.301757812500, 0.016357421875, 1.002685546875, -4.453125000000, -0.187500000000, -6.156250000000, 1491905037
0.301757812500, 0.016357421875, 1.002685546875, -4.453125000000, -0.187500000000, -6.156250000000, 1491905037
0.301757812500, 0.016357421875, 1.002685546875, -4.453125000000, -0.187500000000, -6.156250000000, 1491905037
0.301757812500, 0.016357421875, 1.002685546875, -4.453125000000, -0.187500000000, -6.156250000000, 1491905037
0.301757812500, 0.016357421875, 1.002685546875, -4.453125000000, -0.187500000000, -6.156250000000, 1491905037
0.450195312500, -0.009033203125, 0.947509765625, -2.679687500000, -1.507812500000, -2.710937500000, 1491905037
0.450195312500, -0.009033203125, 0.947509765625, -2.679687500000, -1.507812500000, -2.710937500000, 1491905037
0.450195312500, -0.009033203125, 0.947509765625, -2.679687500000, -1.507812500000, -2.710937500000, 1491905037
0.450195312500, -0.009033203125, 0.947509765625, -2.679687500000, -1.507812500000, -2.710937500000, 1491905037
0.392333984375, -0.083007812500, 0.983886718750, -4.289062500000, -1.171875000000, -1.031250000000, 1491905037
0.392333984375, -0.083007812500, 0.983886718750, -4.289062500000, -1.171875000000, -1.031250000000, 1491905037
0.392333984375, -0.083007812500, 0.983886718750, -4.289062500000, -1.171875000000, -1.031250000000, 1491905037
0.346191406250, 0.014648437500, 0.991210937500, -4.625000000000, -0.171875000000, -2.882812500000, 1491905037
0.305664062500, 0.020751953125, 1.010253906250, -3.257812500000, 2.437500000000, -2.820312500000, 1491905037
0.305664062500, 0.020751953125, 1.010253906250, -3.257812500000, 2.437500000000, -2.820312500000, 1491905037
0.305664062500, 0.020751953125, 1.010253906250, -3.257812500000, 2.437500000000, -2.820312500000, 1491905037
0.328613281250, 0.012939453125, 0.910644531250, -3.601562500000, 2.054687500000, -1.578125000000, 1491905037
0.350830078125, -0.023681640625, 1.000732421875, 0.109375000000, 0.000000000000, -4.351562500000, 1491905037
0.350830078125, -0.023681640625, 1.000732421875, 0.109375000000, 0.000000000000, -4.351562500000, 1491905037
0.350830078125, -0.023681640625, 1.000732421875, 0.109375000000, 0.000000000000, -4.351562500000, 1491905037
0.350830078125, -0.023681640625, 1.000732421875, 0.109375000000, 0.000000000000, -4.351562500000, 1491905037
0.350830078125, -0.023681640625, 1.000732421875, 0.109375000000, 0.000000000000, -4.351562500000, 1491905037
0.462402343750, 0.005371093750, 1.079589843750, -4.523437500000, -2.164062500000, 0.445312500000, 1491905037
0.462402343750, 0.005371093750, 1.079589843750, -4.523437500000, -2.164062500000, 0.445312500000, 1491905037
0.462402343750, 0.005371093750, 1.079589843750, -4.523437500000, -2.164062500000, 0.445312500000, 1491905037
0.350341796875, -0.037841796875, 0.975830078125, -1.109375000000, 0.445312500000, -1.742187500000, 1491905037
0.350341796875, -0.037841796875, 0.975830078125, -1.109375000000, 0.445312500000, -1.742187500000, 1491905037
0.350341796875, -0.037841796875, 0.975830078125, -1.109375000000, 0.445312500000, -1.742187500000, 1491905037
0.385742187500, -0.015136718750, 0.958984375000, -1.953125000000, -1.804687500000, -4.820312500000, 1491905037
0.385742187500, -0.015136718750, 0.958984375000, -1.953125000000, -1.804687500000, -4.820312500000, 1491905037
0.385742187500, -0.015136718750, 0.958984375000, -1.953125000000, -1.804687500000, -4.820312500000, 1491905037
0.398925781250, -0.078613281250, 0.919677734375, -1.031250000000, 2.929687500000, 0.312500000000, 1491905037
0.398925781250, -0.078613281250, 0.919677734375, -1.031250000000, 2.929687500000, 0.312500000000, 1491905037
0.398925781250, -0.078613281250, 0.919677734375, -1.031250000000, 2.929687500000, 0.312500000000, 1491905037
0.398925781250, -0.078613281250, 0.919677734375, -1.031250000000, 2.929687500000, 0.312500000000, 1491905037
0.356445312500, -0.084472656250, 0.909667968750, -4.257812500000, -1.960937500000, -4.867187500000, 1491905037
0.356445312500, -0.084472656250, 0.909667968750, -4.257812500000, -1.960937500000, -4.867187500000, 1491905037
0.356445312500, -0.084472656250, 0.909667968750, -4.257812500000, -1.960937500000, -4.867187500000, 1491905037
0.373535156250, 0.020996093750, 0.929199218750, -4.437500000000, -4.679687500000, -1.304687500000, 1491905037
0.373535156250, 0.020996093750, 0.929199218750, -4.437500000000, -4.679687500000, -1.304687500000, 1491905037
0.373535156250, 0.020996093750, 0.929199218750, -4.437500000000, -4.679687500000, -1.304687500000, 1491905037
0.347412109375, -0.016601562500, 1.003417968750, -1.335937500000, -4.765625000000, -1.976562500000, 1491905037
0.347412109375, -0.016601562500, 1.003417968750, -1.335937500000, -4.765625000000, -1.976562500000, 1491905037
0.347412109375, -0.016601562500, 1.003417968750, -1.335937500000, -4.765625000000, -1.976562500000, 1491905037
0.419921875000, 0.063964843750, 1.025390625000, -1.257812500000, -4.054687500000, -4.179687500000, 1491905037
0.419921875000, 0.063964843750, 1.025390625000, -1.257812500000, -4.054687500000, -4.179687500000, 1491905037
0.419921875000, 0.063964843750, 1.025390625000, -1.257812500000, -4.054687500000, -4.179687500000, 1491905037
0.419921875000, 0.063964843750, 1.025390625000, -1.257812500000, -4.054687500000, -4.179687500000, 1491905037
0.420654296875, 0.009765625000, 0.961181640625, -4.554687500000, -0.437500000000, -2.804687500000, 1491905037
0.420654296875, 0.009765625000, 0.961181640625, -4.554687500000, -0.437500000000, -2.804687500000, 1491905037
0.420654296875, 0.009765625000, 0.961181640625, -4.554687500000, -0.437500000000, -2.804687500000, 1491905037
0.442626953125, -0.128906250000, 0.909423828125, -4.812500000000, 0.476562500000, -3.296875000000, 1491905037
0.442626953125, -0.128906250000, 0.909423828125, -4.812500000000, 0.476562500000, -3.296875000000, 1491905037
0.442626953125, -0.128906250000, 0.909423828125, -4.812500000000, 0.476562500000, -3.296875000000, 1491905037
0.292480468750, 0.028076171875, 0.927734375000, -3.671875000000, -2.656250000000, -1.210937500000, 1491905037
0.292480468750, 0.028076171875, 0.927734375000, -3.671875000000, -2.656250000000, -1.210937500000, 1491905037
0.292480468750, 0.028076171875, 0.927734375000, -3.671875000000, -2.656250000000, -1.210937500000, 1491905037
0.350341796875, 0.007080078125, 0.944335937500, -4.281250000000, -2.390625000000, -3.484375000000, 1491905037
0.350341796875, 0.007080078125, 0.944335937500, -4.281250000000, -2.390625000000, -3.484375000000, 1491905038
0.350341796875, 0.007080078125, 0.944335937500, -4.281250000000, -2.390625000000, -3.484375000000, 1491905038
0.350341796875, 0.007080078125, 0.944335937500, -4.281250000000, -2.390625000000, -3.484375000000, 1491905038
0.389404296875, -0.021240234375, 0.955566406250, -3.328125000000, 2.804687500000, -1.796875000000, 1491905038
0.389404296875, -0.021240234375, 0.955566406250, -3.328125000000, 2.804687500000, -1.796875000000, 1491905038
0.389404296875, -0.021240234375, 0.955566406250, -3.328125000000, 2.804687500000, -1.796875000000, 1491905038
0.364013671875, -0.020263671875, 0.921875000000, -3.812500000000, -2.289062500000, -4.515625000000, 1491905038
0.364013671875, -0.020263671875, 0.921875000000, -3.812500000000, -2.289062500000, -4.515625000000, 1491905038
0.364013671875, -0.020263671875, 0.921875000000, -3.812500000000, -2.289062500000, -4.515625000000, 1491905038
0.334716796875, 0.063720703125, 0.995605468750, -6.242187500000, -2.085937500000, -6.781250000000, 1491905038
0.334716796875, 0.063720703125, 0.995605468750, -6.242187500000, -2.085937500000, -6.781250000000, 1491905038
0.334716796875, 0.063720703125, 0.995605468750, -6.242187500000, -2.085937500000, -6.781250000000, 1491905038
0.425292968750, -0.063232421875, 1.010742187500, -2.351562500000, -0.953125000000, 2.164062500000, 1491905038
0.425292968750, -0.063232421875, 1.010742187500, -2.351562500000, -0.953125000000, 2.164062500000, 1491905038
0.425292968750, -0.063232421875, 1.010742187500, -2.351562500000, -0.953125000000, 2.164062500000, 1491905038
0.425292968750, -0.063232421875, 1.010742187500, -2.351562500000, -0.953125000000, 2.164062500000, 1491905038
0.399658203125, -0.031250000000, 0.917236328125, -3.015625000000, -0.023437500000, -3.265625000000, 1491905038
0.399658203125, -0.031250000000, 0.917236328125, -3.015625000000, -0.023437500000, -3.265625000000, 1491905038
0.399658203125, -0.031250000000, 0.917236328125, -3.015625000000, -0.023437500000, -3.265625000000, 1491905038
0.361572265625, -0.033447265625, 0.975097656250, -4.500000000000, 0.648437500000, -4.539062500000, 1491905038
0.361572265625, -0.033447265625, 0.975097656250, -4.500000000000, 0.648437500000, -4.539062500000, 1491905038
0.361572265625, -0.033447265625, 0.975097656250, -4.500000000000, 0.648437500000, -4.539062500000, 1491905038
0.300292968750, -0.027587890625, 0.972656250000, -3.718750000000, 2.750000000000, -2.171875000000, 1491905038
0.300292968750, -0.027587890625, 0.972656250000, -3.718750000000, 2.750000000000, -2.171875000000, 1491905038
0.300292968750, -0.027587890625, 0.972656250000, -3.718750000000, 2.750000000000, -2.171875000000, 1491905038
0.350830078125, 0.030517578125, 1.029785156250, -4.914062500000, -1.828125000000, -3.210937500000, 1491905038
0.350830078125, 0.030517578125, 1.029785156250, -4.914062500000, -1.828125000000, -3.210937500000, 1491905038
0.350830078125, 0.030517578125, 1.029785156250, -4.914062500000, -1.828125000000, -3.210937500000, 1491905038
0.350830078125, 0.030517578125, 1.029785156250, -4.914062500000, -1.828125000000, -3.210937500000, 1491905038
0.389160156250, 0.000488281250, 0.923583984375, -3.500000000000, 0.789062500000, -3.968750000000, 1491905038
0.389160156250, 0.000488281250, 0.923583984375, -3.500000000000, 0.789062500000, -3.968750000000, 1491905038
0.389160156250, 0.000488281250, 0.923583984375, -3.500000000000, 0.789062500000, -3.968750000000, 1491905038
0.332519531250, -0.028320312500, 0.919677734375, -6.539062500000, 1.710937500000, -1.796875000000, 1491905038
0.332519531250, -0.028320312500, 0.919677734375, -6.539062500000, 1.710937500000, -1.796875000000, 1491905038
0.332519531250, -0.028320312500, 0.919677734375, -6.539062500000, 1.710937500000, -1.796875000000, 1491905038
0.371337890625, -0.062988281250, 0.970458984375, -6.304687500000, 2.531250000000, -5.632812500000, 1491905038
0.371337890625, -0.062988281250, 0.970458984375, -6.304687500000, 2.531250000000, -5.632812500000, 1491905038
0.371337890625, -0.062988281250, 0.970458984375, -6.304687500000, 2.531250000000, -5.632812500000, 1491905038
0.307128906250, 0.019531250000, 1.029296875000, -6.687500000000, 1.617187500000, -4.062500000000, 1491905038
0.307128906250, 0.019531250000, 1.029296875000, -6.687500000000, 1.617187500000, -4.062500000000, 1491905038
0.307128906250, 0.019531250000, 1.029296875000, -6.687500000000, 1.617187500000, -4.062500000000, 1491905038
0.442871093750, 0.006103515625, 0.948486328125, -3.609375000000, 0.500000000000, -6.070312500000, 1491905038
0.395263671875, -0.061767578125, 0.957031250000, -4.046875000000, 0.046875000000, -2.203125000000, 1491905038
0.395263671875, -0.061767578125, 0.957031250000, -4.046875000000, 0.046875000000, -2.203125000000, 1491905038
0.372802734375, -0.070800781250, 0.922607421875, -4.171875000000, -2.031250000000, -4.625000000000, 1491905038
0.310302734375, 0.000000000000, 1.029541015625, -4.476562500000, -1.273437500000, -1.968750000000, 1491905038
0.310302734375, 0.000000000000, 1.029541015625, -4.476562500000, -1.273437500000, -1.968750000000, 1491905038
0.310302734375, 0.000000000000, 1.029541015625, -4.476562500000, -1.273437500000, -1.968750000000, 1491905038
0.404541015625, -0.017578125000, 0.971923828125, -6.656250000000, -2.375000000000, -7.320312500000, 1491905038
0.404541015625, -0.017578125000, 0.971923828125, -6.656250000000, -2.375000000000, -7.320312500000, 1491905038
0.404541015625, -0.017578125000, 0.971923828125, -6.656250000000, -2.375000000000, -7.320312500000, 1491905038
0.366943359375, -0.025146484375, 0.954101562500, -1.375000000000, -1.398437500000, 2.179687500000, 1491905038
0.366943359375, -0.025146484375, 0.954101562500, -1.375000000000, -1.398437500000, 2.179687500000, 1491905038
0.366943359375, -0.025146484375, 0.954101562500, -1.375000000000, -1.398437500000, 2.179687500000, 1491905038
0.366943359375, -0.025146484375, 0.954101562500, -1.375000000000, -1.398437500000, 2.179687500000, 1491905038
0.529785156250, -0.028320312500, 0.928955078125, -1.265625000000, -2.484375000000, 0.164062500000, 1491905038
0.529785156250, -0.028320312500, 0.928955078125, -1.265625000000, -2.484375000000, 0.164062500000, 1491905038
0.529785156250, -0.028320312500, 0.928955078125, -1.265625000000, -2.484375000000, 0.164062500000, 1491905038
0.329589843750, -0.018310546875, 1.000244140625, -4.195312500000, 0.453125000000, -1.250000000000, 1491905038
0.329589843750, -0.018310546875, 1.000244140625, -4.195312500000, 0.453125000000, -1.250000000000, 1491905038
0.329589843750, -0.018310546875, 1.000244140625, -4.195312500000, 0.453125000000, -1.250000000000, 1491905038
0.388183593750, -0.066650390625, 0.925048828125, -6.101562500000, 0.914062500000, -2.695312500000, 1491905038
0.388183593750, -0.066650390625, 0.925048828125, -6.101562500000, 0.914062500000, -2.695312500000, 1491905038
0.388183593750, -0.066650390625, 0.925048828125, -6.101562500000, 0.914062500000, -2.695312500000, 1491905038
0.317626953125, -0.061279296875, 1.030517578125, -3.289062500000, -2.281250000000, -6.820312500000, 1491905038
0.317626953125, -0.061279296875, 1.030517578125, -3.289062500000, -2.281250000000, -6.820312500000, 1491905038
0.317626953125, -0.061279296875, 1.030517578125, -3.289062500000, -2.281250000000, -6.820312500000, 1491905038
0.317626953125, -0.061279296875, 1.030517578125, -3.289062500000, -2.281250000000, -6.820312500000, 1491905038
0.380615234375, 0.082275390625, 1.000244140625, -3.562500000000, 2.742187500000, 0.304687500000, 1491905039
0.380615234375, 0.082275390625, 1.000244140625, -3.562500000000, 2.742187500000, 0.304687500000, 1491905039
0.380615234375, 0.082275390625, 1.000244140625, -3.562500000000, 2.742187500000, 0.304687500000, 1491905039
0.366699218750, -0.040771484375, 0.917236328125, -4.828125000000, 0.281250000000, 0.593750000000, 1491905039
0.366699218750, -0.040771484375, 0.917236328125, -4.828125000000, 0.281250000000, 0.593750000000, 1491905039
0.366699218750, -0.040771484375, 0.917236328125, -4.828125000000, 0.281250000000, 0.593750000000, 1491905039
0.363769531250, 0.072021484375, 0.963378906250, -3.445312500000, 2.367187500000, -1.703125000000, 1491905039
0.364013671875, -0.042236328125, 1.013916015625, -3.445312500000, 2.367187500000, -1.703125000000, 1491905039
0.364013671875, -0.042236328125, 1.013916015625, -3.445312500000, 2.367187500000, -1.703125000000, 1491905039
0.285156250000, 0.021972656250, 0.978759765625, -6.023437500000, -0.187500000000, -3.335937500000, 1491905039
0.375732421875, 0.010498046875, 1.009765625000, -3.382812500000, 2.757812500000, -1.921875000000, 1491905039
0.375732421875, 0.010498046875, 1.009765625000, -3.382812500000, 2.757812500000, -1.921875000000, 1491905039
0.375732421875, 0.010498046875, 1.009765625000, -3.382812500000, 2.757812500000, -1.921875000000, 1491905039
0.375732421875, 0.010498046875, 1.009765625000, -3.382812500000, 2.757812500000, -1.921875000000, 1491905039
0.375732421875, 0.010498046875, 1.009765625000, -3.382812500000, 2.757812500000, -1.921875000000, 1491905039
0.375732421875, 0.010498046875, 1.009765625000, -3.382812500000, 2.757812500000, -1.921875000000, 1491905039
0.395019531250, -0.028076171875, 1.014404296875, -1.671875000000, -0.796875000000, -1.492187500000, 1491905039
0.395019531250, -0.028076171875, 1.014404296875, -1.671875000000, -0.796875000000, -1.492187500000, 1491905039
0.395019531250, -0.028076171875, 1.014404296875, -1.671875000000, -0.796875000000, -1.492187500000, 1491905039
0.298828125000, -0.087646484375, 0.910888671875, -3.062500000000, 2.195312500000, -2.210937500000, 1491905039
0.298828125000, -0.087646484375, 0.910888671875, -3.062500000000, 2.195312500000, -2.210937500000, 1491905039
0.298828125000, -0.087646484375, 0.910888671875, -3.062500000000, 2.195312500000, -2.210937500000, 1491905039
0.298828125000, -0.087646484375, 0.910888671875, -3.062500000000, 2.195312500000, -2.210937500000, 1491905039
0.298828125000, -0.087646484375, 0.910888671875, -3.062500000000, 2.195312500000, -2.210937500000, 1491905039
0.365478515625, -0.030273437500, 1.026855468750, -3.179687500000, -0.757812500000, -1.882812500000, 1491905039
0.365478515625, -0.030273437500, 1.026855468750, -3.179687500000, -0.757812500000, -1.882812500000, 1491905039
0.365478515625, -0.030273437500, 1.026855468750, -3.179687500000, -0.757812500000, -1.882812500000, 1491905039
0.365478515625, -0.030273437500, 1.026855468750, -3.179687500000, -0.757812500000, -1.882812500000, 1491905039
0.294677734375, -0.044677734375, 1.018310546875, -3.429687500000, -0.789062500000, -3.570312500000, 1491905039
0.294677734375, -0.044677734375, 1.018310546875, -3.429687500000, -0.789062500000, -3.570312500000, 1491905039
0.294677734375, -0.044677734375, 1.018310546875, -3.429687500000, -0.789062500000, -3.570312500000, 1491905039
0.294677734375, -0.044677734375, 1.018310546875, -3.429687500000, -0.789062500000, -3.570312500000, 1491905039
0.310058593750, -0.073486328125, 0.953369140625, -4.734375000000, -0.625000000000, 0.156250000000, 1491905039
0.310058593750, -0.073486328125, 0.953369140625, -4.734375000000, -0.625000000000, 0.156250000000, 1491905039
0.310058593750, -0.073486328125, 0.953369140625, -4.734375000000, -0.625000000000, 0.156250000000, 1491905039
0.395507812500, 0.000732421875, 0.931396484375, -6.007812500000, -2.554687500000, -4.234375000000, 1491905039
0.395507812500, 0.000732421875, 0.931396484375, -6.007812500000, -2.554687500000, -4.234375000000, 1491905039
0.395507812500, 0.000732421875, 0.931396484375, -6.007812500000, -2.554687500000, -4.234375000000, 1491905039
0.395507812500, 0.000732421875, 0.931396484375, -6.007812500000, -2.554687500000, -4.234375000000, 1491905039
0.299316406250, -0.066894531250, 0.927246093750, -4.867187500000, -0.562500000000, -4.953125000000, 1491905039
0.299316406250, -0.066894531250, 0.927246093750, -4.867187500000, -0.562500000000, -4.953125000000, 1491905039
0.299316406250, -0.066894531250, 0.927246093750, -4.867187500000, -0.562500000000, -4.953125000000, 1491905039
0.368896484375, 0.014404296875, 0.968750000000, -4.953125000000, 0.343750000000, -2.718750000000, 1491905039
0.368896484375, 0.014404296875, 0.968750000000, -4.953125000000, 0.343750000000, -2.718750000000, 1491905039
0.368896484375, 0.014404296875, 0.968750000000, -4.953125000000, 0.343750000000, -2.718750000000, 1491905039
0.449951171875, 0.012207031250, 1.029541015625, -3.039062500000, 2.625000000000, -4.101562500000, 1491905039
0.449951171875, 0.012207031250, 1.029541015625, -3.039062500000, 2.625000000000, -4.101562500000, 1491905039
0.449951171875, 0.012207031250, 1.029541015625, -3.039062500000, 2.625000000000, -4.101562500000, 1491905039
0.376953125000, -0.070556640625, 0.951660156250, -3.625000000000, 2.859375000000, -3.968750000000, 1491905039
0.376953125000, -0.070556640625, 0.951660156250, -3.625000000000, 2.859375000000, -3.968750000000, 1491905039
0.376953125000, -0.070556640625, 0.951660156250, -3.625000000000, 2.859375000000, -3.968750000000, 1491905039
0.376953125000, -0.070556640625, 0.951660156250, -3.625000000000, 2.859375000000, -3.968750000000, 1491905039
0.354003906250, -0.008056640625, 0.952636718750, -3.828125000000, 2.085937500000, -4.007812500000, 1491905039
0.354003906250, -0.008056640625, 0.952636718750, -3.828125000000, 2.085937500000, -4.007812500000, 1491905039
0.354003906250, -0.008056640625, 0.952636718750, -3.828125000000, 2.085937500000, -4.007812500000, 1491905039
0.356933593750, -0.034179687500, 0.966552734375, -6.179687500000, 0.906250000000, -2.843750000000, 1491905039
0.356933593750, -0.034179687500, 0.966552734375, -6.179687500000, 0.906250000000, -2.843750000000, 1491905039
0.356933593750, -0.034179687500, 0.966552734375, -6.179687500000, 0.906250000000, -2.843750000000, 1491905039
0.288330078125, -0.071777343750, 0.916748046875, -6.093750000000, 1.687500000000, -4.218750000000, 1491905039
0.288330078125, -0.071777343750, 0.916748046875, -6.093750000000, 1.687500000000, -4.218750000000, 1491905039
0.288330078125, -0.071777343750, 0.916748046875, -6.093750000000, 1.687500000000, -4.218750000000, 1491905039
0.438476562500, -0.041259765625, 0.930175781250, -1.156250000000, 6.742187500000, -8.781250000000, 1491905039
0.438476562500, -0.041259765625, 0.930175781250, -1.156250000000, 6.742187500000, -8.781250000000, 1491905039
0.438476562500, -0.041259765625, 0.930175781250, -1.156250000000, 6.742187500000, -8.781250000000, 1491905039
0.438476562500, -0.041259765625, 0.930175781250, -1.156250000000, 6.742187500000, -8.781250000000, 1491905039
