ACC_X,ACC_Y,ACC_Z,G_X,G_Y,G_Z,Unix Time
0.239746093750, -0.904541015625, 0.440673828125, 5.171875000000, -3.046875000000, -10.460937500000, 1491903783
0.286621093750, -0.855224609375, 0.466308593750, 6.187500000000, -2.664062500000, -5.273437500000, 1491903783
0.379882812500, -0.962890625000, 0.465820312500, -4.382812500000, -4.179687500000, -6.210937500000, 1491903783
0.379882812500, -0.962890625000, 0.465820312500, -4.382812500000, -4.179687500000, -6.210937500000, 1491903783
0.379882812500, -0.962890625000, 0.465820312500, -4.382812500000, -4.179687500000, -6.210937500000, 1491903783
0.379882812500, -0.962890625000, 0.465820312500, -4.382812500000, -4.179687500000, -6.210937500000, 1491903783
0.379882812500, -0.962890625000, 0.465820312500, -4.382812500000, -4.179687500000, -6.210937500000, 1491903783
0.379882812500, -0.962890625000, 0.465820312500, -4.382812500000, -4.179687500000, -6.210937500000, 1491903783
0.339843750000, -0.745117187500, 0.528808593750, -21.218750000000, -1.648437500000, -2.867187500000, 1491903783
0.339843750000, -0.745117187500, 0.528808593750, -21.218750000000, -1.648437500000, -2.867187500000, 1491903783
0.339843750000, -0.745117187500, 0.528808593750, -21.218750000000, -1.648437500000, -2.867187500000, 1491903783
0.339843750000, -0.745117187500, 0.528808593750, -21.218750000000, -1.648437500000, -2.867187500000, 1491903783
0.339843750000, -0.745117187500, 0.528808593750, -21.218750000000, -1.648437500000, -2.867187500000, 1491903783
0.339843750000, -0.745117187500, 0.528808593750, -21.218750000000, -1.648437500000, -2.867187500000, 1491903783
0.339843750000, -0.745117187500, 0.528808593750, -21.218750000000, -1.648437500000, -2.867187500000, 1491903783
0.339843750000, -0.745117187500, 0.528808593750, -21.218750000000, -1.648437500000, -2.867187500000, 1491903783
0.339843750000, -0.745117187500, 0.528808593750, -21.218750000000, -1.648437500000, -2.867187500000, 1491903783
0.236572265625, -0.929199218750, 0.362548828125, -22.664062500000, -3.617187500000, -8.531250000000, 1491903783
0.236572265625, -0.929199218750, 0.362548828125, -22.664062500000, -3.617187500000, -8.531250000000, 1491903783
0.236572265625, -0.929199218750, 0.362548828125, -22.664062500000, -3.617187500000, -8.531250000000, 1491903783
0.328125000000, -0.731445312500, 0.356689453125, -12.234375000000, -7.890625000000, -3.742187500000, 1491903783
0.328125000000, -0.731445312500, 0.356689453125, -12.234375000000, -7.890625000000, -3.742187500000, 1491903783
0.328125000000, -0.731445312500, 0.356689453125, -12.234375000000, -7.890625000000, -3.742187500000, 1491903783
0.328125000000, -0.731445312500, 0.356689453125, -12.234375000000, -7.890625000000, -3.742187500000, 1491903783
0.328125000000, -0.731445312500, 0.356689453125, -12.234375000000, -7.890625000000, -3.742187500000, 1491903783
0.328125000000, -0.731445312500, 0.356689453125, -12.234375000000, -7.890625000000, -3.742187500000, 1491903783
0.396240234375, -0.804199218750, 0.519042968750, -6.187500000000, 7.562500000000, -3.093750000000, 1491903783
0.396240234375, -0.804199218750, 0.519042968750, -6.187500000000, 7.562500000000, -3.093750000000, 1491903783
0.396240234375, -0.804199218750, 0.519042968750, -6.187500000000, 7.562500000000, -3.093750000000, 1491903783
0.396240234375, -0.804199218750, 0.519042968750, -6.187500000000, 7.562500000000, -3.093750000000, 1491903783
0.239013671875, -0.875000000000, 0.450439453125, -7.117187500000, 14.867187500000, -4.789062500000, 1491903783
0.239013671875, -0.875000000000, 0.450439453125, -7.117187500000, 14.867187500000, -4.789062500000, 1491903783
0.261474609375, -0.859375000000, 0.501464843750, -4.687500000000, 3.546875000000, -7.710937500000, 1491903784
0.261474609375, -0.859375000000, 0.501464843750, -4.687500000000, 3.546875000000, -7.710937500000, 1491903784
0.261474609375, -0.859375000000, 0.501464843750, -4.687500000000, 3.546875000000, -7.710937500000, 1491903784
0.261474609375, -0.859375000000, 0.501464843750, -4.687500000000, 3.546875000000, -7.710937500000, 1491903784
0.194824218750, -0.898681640625, 0.457275390625, -3.976562500000, -2.695312500000, -7.148437500000, 1491903784
0.194824218750, -0.898681640625, 0.457275390625, -3.976562500000, -2.695312500000, -7.148437500000, 1491903784
0.194824218750, -0.898681640625, 0.457275390625, -3.976562500000, -2.695312500000, -7.148437500000, 1491903784
0.157714843750, -0.808105468750, 0.441894531250, -3.078125000000, -6.703125000000, -7.718750000000, 1491903784
0.157714843750, -0.808105468750, 0.441894531250, -3.078125000000, -6.703125000000, -7.718750000000, 1491903784
0.157714843750, -0.808105468750, 0.441894531250, -3.078125000000, -6.703125000000, -7.718750000000, 1491903784
0.157714843750, -0.808105468750, 0.441894531250, -3.078125000000, -6.703125000000, -7.718750000000, 1491903784
0.324462890625, -0.869628906250, 0.461425781250, -1.203125000000, -9.554687500000, -9.164062500000, 1491903784
0.324462890625, -0.869628906250, 0.461425781250, -1.203125000000, -9.554687500000, -9.164062500000, 1491903784
0.324462890625, -0.869628906250, 0.461425781250, -1.203125000000, -9.554687500000, -9.164062500000, 1491903784
0.224609375000, -0.810058593750, 0.375000000000, -8.031250000000, -8.687500000000, -12.468750000000, 1491903784
0.296142578125, -0.875000000000, 0.434082031250, -6.679687500000, -10.007812500000, -12.070312500000, 1491903784
0.296142578125, -0.875000000000, 0.434082031250, -6.679687500000, -10.007812500000, -12.070312500000, 1491903784
0.296142578125, -0.875000000000, 0.434082031250, -6.679687500000, -10.007812500000, -12.070312500000, 1491903784
0.296142578125, -0.875000000000, 0.434082031250, -6.679687500000, -10.007812500000, -12.070312500000, 1491903784
0.296142578125, -0.875000000000, 0.434082031250, -6.679687500000, -10.007812500000, -12.070312500000, 1491903784
0.266601562500, -0.957519531250, 0.427246093750, -8.375000000000, -5.000000000000, -12.148437500000, 1491903784
0.266601562500, -0.957519531250, 0.427246093750, -8.375000000000, -5.000000000000, -12.148437500000, 1491903784
0.266601562500, -0.957519531250, 0.427246093750, -8.375000000000, -5.000000000000, -12.148437500000, 1491903784
0.266601562500, -0.957519531250, 0.427246093750, -8.375000000000, -5.000000000000, -12.148437500000, 1491903784
0.314453125000, -0.904052734375, 0.373535156250, -1.671875000000, -1.367187500000, -6.398437500000, 1491903784
0.389648437500, -0.868896484375, 0.391357421875, -2.773437500000, -2.609375000000, -6.187500000000, 1491903784
0.389648437500, -0.868896484375, 0.391357421875, -2.773437500000, -2.609375000000, -6.187500000000, 1491903784
0.295410156250, -0.863037109375, 0.428222656250, -2.617187500000, -0.007812500000, -6.390625000000, 1491903784
0.295410156250, -0.863037109375, 0.428222656250, -2.617187500000, -0.007812500000, -6.390625000000, 1491903784
0.295410156250, -0.863037109375, 0.428222656250, -2.617187500000, -0.007812500000, -6.390625000000, 1491903784
0.295410156250, -0.863037109375, 0.428222656250, -2.617187500000, -0.007812500000, -6.390625000000, 1491903784
0.295410156250, -0.863037109375, 0.428222656250, -2.617187500000, -0.007812500000, -6.390625000000, 1491903784
0.295410156250, -0.863037109375, 0.428222656250, -2.617187500000, -0.007812500000, -6.390625000000, 1491903784
0.295410156250, -0.863037109375, 0.428222656250, -2.617187500000, -0.007812500000, -6.390625000000, 1491903784
0.329589843750, -0.963867187500, 0.434814453125, 0.156250000000, -0.835937500000, -8.453125000000, 1491903784
0.274414062500, -0.855468750000, 0.452636718750, -0.500000000000, -4.296875000000, -5.132812500000, 1491903784
0.274414062500, -0.855468750000, 0.452636718750, -0.500000000000, -4.296875000000, -5.132812500000, 1491903784
0.274414062500, -0.855468750000, 0.452636718750, -0.500000000000, -4.296875000000, -5.132812500000, 1491903784
0.274414062500, -0.855468750000, 0.452636718750, -0.500000000000, -4.296875000000, -5.132812500000, 1491903784
0.274414062500, -0.855468750000, 0.452636718750, -0.500000000000, -4.296875000000, -5.132812500000, 1491903784
0.219238281250, -0.795898437500, 0.422119140625, 0.562500000000, -1.703125000000, -7.156250000000, 1491903784
0.166503906250, -0.892578125000, 0.452636718750, -4.023437500000, -2.937500000000, -9.554687500000, 1491903784
0.242675781250, -0.902832031250, 0.526367187500, -4.023437500000, -2.937500000000, -9.554687500000, 1491903784
0.242675781250, -0.902832031250, 0.526367187500, -4.023437500000, -2.937500000000, -9.554687500000, 1491903784
0.242675781250, -0.902832031250, 0.526367187500, -4.023437500000, -2.937500000000, -9.554687500000, 1491903784
0.242675781250, -0.902832031250, 0.526367187500, -4.023437500000, -2.937500000000, -9.554687500000, 1491903784
0.242675781250, -0.902832031250, 0.526367187500, -4.023437500000, -2.937500000000, -9.554687500000, 1491903784
0.164306640625, -0.937988281250, 0.412109375000, -6.187500000000, 0.812500000000, -7.148437500000, 1491903784
0.164306640625, -0.937988281250, 0.412109375000, -6.187500000000, 0.812500000000, -7.148437500000, 1491903784
0.164306640625, -0.937988281250, 0.412109375000, -6.187500000000, 0.812500000000, -7.148437500000, 1491903784
0.316162109375, -0.844970703125, 0.408691406250, -3.281250000000, -0.773437500000, -3.445312500000, 1491903784
0.316162109375, -0.844970703125, 0.408691406250, -3.281250000000, -0.773437500000, -3.445312500000, 1491903784
0.316162109375, -0.844970703125, 0.408691406250, -3.281250000000, -0.773437500000, -3.445312500000, 1491903784
0.243652343750, -0.905761718750, 0.407958984375, -4.867187500000, -0.945312500000, -3.679687500000, 1491903784
0.243652343750, -0.905761718750, 0.407958984375, -4.867187500000, -0.945312500000, -3.679687500000, 1491903784
0.243652343750, -0.905761718750, 0.407958984375, -4.867187500000, -0.945312500000, -3.679687500000, 1491903784
0.270996093750, -0.807861328125, 0.460693359375, -2.882812500000, 0.507812500000, -5.968750000000, 1491903784
0.276367187500, -0.955810546875, 0.349609375000, -2.882812500000, 0.507812500000, -5.968750000000, 1491903784
0.276367187500, -0.955810546875, 0.349609375000, -2.882812500000, 0.507812500000, -5.968750000000, 1491903784
0.276367187500, -0.955810546875, 0.349609375000, -2.882812500000, 0.507812500000, -5.968750000000, 1491903785
0.253906250000, -0.846923828125, 0.468505859375, -3.054687500000, -0.929687500000, -8.203125000000, 1491903785
0.253906250000, -0.846923828125, 0.468505859375, -3.054687500000, -0.929687500000, -8.203125000000, 1491903785
0.253906250000, -0.846923828125, 0.468505859375, -3.054687500000, -0.929687500000, -8.203125000000, 1491903785
0.253906250000, -0.846923828125, 0.468505859375, -3.054687500000, -0.929687500000, -8.203125000000, 1491903785
0.253906250000, -0.846923828125, 0.468505859375, -3.054687500000, -0.929687500000, -8.203125000000, 1491903785
0.253906250000, -0.846923828125, 0.468505859375, -3.054687500000, -0.929687500000, -8.203125000000, 1491903785
0.249511718750, -0.861816406250, 0.356933593750, -3.023437500000, 0.484375000000, -4.468750000000, 1491903785
0.249511718750, -0.861816406250, 0.356933593750, -3.023437500000, 0.484375000000, -4.468750000000, 1491903785
0.249511718750, -0.861816406250, 0.356933593750, -3.023437500000, 0.484375000000, -4.468750000000, 1491903785
0.231689453125, -0.865722656250, 0.459472656250, -3.250000000000, 0.492187500000, -6.226562500000, 1491903785
0.231689453125, -0.865722656250, 0.459472656250, -3.250000000000, 0.492187500000, -6.226562500000, 1491903785
0.327880859375, -0.812011718750, 0.370605468750, -4.335937500000, -0.093750000000, -5.664062500000, 1491903785
0.327880859375, -0.812011718750, 0.370605468750, -4.335937500000, -0.093750000000, -5.664062500000, 1491903785
0.327880859375, -0.812011718750, 0.370605468750, -4.335937500000, -0.093750000000, -5.664062500000, 1491903785
0.327880859375, -0.812011718750, 0.370605468750, -4.335937500000, -0.093750000000, -5.664062500000, 1491903785
0.327880859375, -0.812011718750, 0.370605468750, -4.335937500000, -0.093750000000, -5.664062500000, 1491903785
0.247802734375, -0.889160156250, 0.441894531250, -3.468750000000, 1.601562500000, -7.656250000000, 1491903785
0.247802734375, -0.889160156250, 0.441894531250, -3.468750000000, 1.601562500000, -7.656250000000, 1491903785
0.247802734375, -0.889160156250, 0.441894531250, -3.468750000000, 1.601562500000, -7.656250000000, 1491903785
0.274169921875, -0.806884765625, 0.413085937500, -1.148437500000, -1.242187500000, -6.242187500000, 1491903785
0.274169921875, -0.806884765625, 0.413085937500, -1.148437500000, -1.242187500000, -6.242187500000, 1491903785
0.274169921875, -0.806884765625, 0.413085937500, -1.148437500000, -1.242187500000, -6.242187500000, 1491903785
0.274658203125, -0.891845703125, 0.395263671875, -1.085937500000, -1.976562500000, -4.750000000000, 1491903785
0.274658203125, -0.891845703125, 0.395263671875, -1.085937500000, -1.976562500000, -4.750000000000, 1491903785
0.274658203125, -0.891845703125, 0.395263671875, -1.085937500000, -1.976562500000, -4.750000000000, 1491903785
0.274658203125, -0.891845703125, 0.395263671875, -1.085937500000, -1.976562500000, -4.750000000000, 1491903785
0.250976562500, -0.851806640625, 0.344482421875, 2.007812500000, -3.406250000000, -10.070312500000, 1491903785
0.176757812500, -0.888183593750, 0.374755859375, -0.664062500000, -1.867187500000, -5.406250000000, 1491903785
0.176757812500, -0.888183593750, 0.374755859375, -0.664062500000, -1.867187500000, -5.406250000000, 1491903785
0.176757812500, -0.888183593750, 0.374755859375, -0.664062500000, -1.867187500000, -5.406250000000, 1491903785
0.176757812500, -0.888183593750, 0.374755859375, -0.664062500000, -1.867187500000, -5.406250000000, 1491903785
0.176757812500, -0.888183593750, 0.374755859375, -0.664062500000, -1.867187500000, -5.406250000000, 1491903785
0.320068359375, -0.947265625000, 0.517578125000, -2.625000000000, 0.578125000000, -3.085937500000, 1491903785
0.320068359375, -0.947265625000, 0.517578125000, -2.625000000000, 0.578125000000, -3.085937500000, 1491903785
0.320068359375, -0.947265625000, 0.517578125000, -2.625000000000, 0.578125000000, -3.085937500000, 1491903785
0.279296875000, -0.961669921875, 0.423339843750, -1.835937500000, 0.968750000000, -7.515625000000, 1491903785
0.251220703125, -0.862304687500, 0.437988281250, -1.960937500000, -2.234375000000, -10.156250000000, 1491903785
0.251220703125, -0.862304687500, 0.437988281250, -1.960937500000, -2.234375000000, -10.156250000000, 1491903785
0.251220703125, -0.862304687500, 0.437988281250, -1.960937500000, -2.234375000000, -10.156250000000, 1491903785
0.251220703125, -0.862304687500, 0.437988281250, -1.960937500000, -2.234375000000, -10.156250000000, 1491903785
0.251220703125, -0.862304687500, 0.437988281250, -1.960937500000, -2.234375000000, -10.156250000000, 1491903785
0.251220703125, -0.862304687500, 0.437988281250, -1.960937500000, -2.234375000000, -10.156250000000, 1491903785
0.270751953125, -0.843994140625, 0.443359375000, -4.726562500000, 2.507812500000, -5.750000000000, 1491903785
0.270751953125, -0.843994140625, 0.443359375000, -4.726562500000, 2.507812500000, -5.750000000000, 1491903785
0.270751953125, -0.843994140625, 0.443359375000, -4.726562500000, 2.507812500000, -5.750000000000, 1491903785
0.318847656250, -0.848632812500, 0.349609375000, -4.765625000000, 2.570312500000, -10.554687500000, 1491903785
0.318847656250, -0.848632812500, 0.349609375000, -4.765625000000, 2.570312500000, -10.554687500000, 1491903785
0.318847656250, -0.848632812500, 0.349609375000, -4.765625000000, 2.570312500000, -10.554687500000, 1491903785
0.276123046875, -0.871826171875, 0.453857421875, -2.062500000000, -2.953125000000, -6.375000000000, 1491903785
0.276123046875, -0.871826171875, 0.453857421875, -2.062500000000, -2.953125000000, -6.375000000000, 1491903785
0.276123046875, -0.871826171875, 0.453857421875, -2.062500000000, -2.953125000000, -6.375000000000, 1491903785
0.276123046875, -0.871826171875, 0.453857421875, -2.062500000000, -2.953125000000, -6.375000000000, 1491903785
0.233154296875, -0.949951171875, 0.347656250000, -1.210937500000, -2.812500000000, -6.296875000000, 1491903785
0.233154296875, -0.949951171875, 0.347656250000, -1.210937500000, -2.812500000000, -6.296875000000, 1491903785
0.267089843750, -0.911376953125, 0.367431640625, -2.890625000000, -3.148437500000, -3.515625000000, 1491903785
0.162353515625, -0.788085937500, 0.417724609375, -0.578125000000, 4.289062500000, -5.250000000000, 1491903785
0.162353515625, -0.788085937500, 0.417724609375, -0.578125000000, 4.289062500000, -5.250000000000, 1491903785
0.223144531250, -0.798828125000, 0.362548828125, -2.281250000000, -2.914062500000, -4.156250000000, 1491903785
0.223144531250, -0.798828125000, 0.362548828125, -2.281250000000, -2.914062500000, -4.156250000000, 1491903785
0.223144531250, -0.798828125000, 0.362548828125, -2.281250000000, -2.914062500000, -4.156250000000, 1491903785
0.223144531250, -0.798828125000, 0.362548828125, -2.281250000000, -2.914062500000, -4.156250000000, 1491903785
0.223144531250, -0.798828125000, 0.362548828125, -2.281250000000, -2.914062500000, -4.156250000000, 1491903785
0.240966796875, -1.009277343750, 0.405761718750, -1.851562500000, -2.679687500000, -6.164062500000, 1491903785
0.240966796875, -1.009277343750, 0.405761718750, -1.851562500000, -2.679687500000, -6.164062500000, 1491903785
0.240966796875, -1.009277343750, 0.405761718750, -1.851562500000, -2.679687500000, -6.164062500000, 1491903785
0.240966796875, -1.009277343750, 0.405761718750, -1.851562500000, -2.679687500000, -6.164062500000, 1491903785
0.240966796875, -1.009277343750, 0.405761718750, -1.851562500000, -2.679687500000, -6.164062500000, 1491903785
0.240966796875, -1.009277343750, 0.405761718750, -1.851562500000, -2.679687500000, -6.164062500000, 1491903785
0.187255859375, -0.881591796875, 0.348632812500, 0.335937500000, -3.226562500000, -8.960937500000, 1491903785
0.256103515625, -0.900390625000, 0.367431640625, -1.382812500000, 1.023437500000, -6.679687500000, 1491903786
0.328125000000, -0.961181640625, 0.404052734375, -1.750000000000, 2.085937500000, -7.414062500000, 1491903786
0.328125000000, -0.961181640625, 0.404052734375, -1.750000000000, 2.085937500000, -7.414062500000, 1491903786
0.328125000000, -0.961181640625, 0.404052734375, -1.750000000000, 2.085937500000, -7.414062500000, 1491903786
0.211914062500, -0.923339843750, 0.512695312500, -2.796875000000, 2.343750000000, -11.187500000000, 1491903786
0.211914062500, -0.923339843750, 0.512695312500, -2.796875000000, 2.343750000000, -11.187500000000, 1491903786
0.211914062500, -0.923339843750, 0.512695312500, -2.796875000000, 2.343750000000, -11.187500000000, 1491903786
0.211914062500, -0.923339843750, 0.512695312500, -2.796875000000, 2.343750000000, -11.187500000000, 1491903786
0.211914062500, -0.923339843750, 0.512695312500, -2.796875000000, 2.343750000000, -11.187500000000, 1491903786
0.228271484375, -0.942382812500, 0.451904296875, 0.132812500000, 2.101562500000, -13.468750000000, 1491903786
0.228271484375, -0.942382812500, 0.451904296875, 0.132812500000, 2.101562500000, -13.468750000000, 1491903786
0.228271484375, -0.942382812500, 0.451904296875, 0.132812500000, 2.101562500000, -13.468750000000, 1491903786
0.220458984375, -0.939697265625, 0.509521484375, -0.375000000000, -3.437500000000, -16.398437500000, 1491903786
0.220458984375, -0.939697265625, 0.509521484375, -0.375000000000, -3.437500000000, -16.398437500000, 1491903786
0.220458984375, -0.939697265625, 0.509521484375, -0.375000000000, -3.437500000000, -16.398437500000, 1491903786
0.176025390625, -0.791503906250, 0.398925781250, 2.710937500000, -1.609375000000, -11.960937500000, 1491903786
0.179443359375, -0.871093750000, 0.371337890625, 2.710937500000, -1.609375000000, -11.960937500000, 1491903786
0.179443359375, -0.871093750000, 0.371337890625, 2.710937500000, -1.609375000000, -11.960937500000, 1491903786
0.179443359375, -0.871093750000, 0.371337890625, 2.710937500000, -1.609375000000, -11.960937500000, 1491903786
0.183349609375, -0.867187500000, 0.418701171875, -0.453125000000, -0.671875000000, -10.351562500000, 1491903786
0.187011718750, -0.912597656250, 0.390380859375, -2.312500000000, -0.609375000000, -9.976562500000, 1491903786
0.187011718750, -0.912597656250, 0.390380859375, -2.312500000000, -0.609375000000, -9.976562500000, 1491903786
0.187011718750, -0.912597656250, 0.390380859375, -2.312500000000, -0.609375000000, -9.976562500000, 1491903786
0.187011718750, -0.912597656250, 0.390380859375, -2.312500000000, -0.609375000000, -9.976562500000, 1491903786
0.187011718750, -0.912597656250, 0.390380859375, -2.312500000000, -0.609375000000, -9.976562500000, 1491903786
0.187988281250, -0.877685546875, 0.303466796875, 0.789062500000, -2.304687500000, -10.250000000000, 1491903786
0.187988281250, -0.877685546875, 0.303466796875, 0.789062500000, -2.304687500000, -10.250000000000, 1491903786
0.187988281250, -0.877685546875, 0.303466796875, 0.789062500000, -2.304687500000, -10.250000000000, 1491903786
0.211914062500, -0.884521484375, 0.451171875000, 0.046875000000, 5.273437500000, -3.492187500000, 1491903786
0.211914062500, -0.884521484375, 0.451171875000, 0.046875000000, 5.273437500000, -3.492187500000, 1491903786
0.211914062500, -0.884521484375, 0.451171875000, 0.046875000000, 5.273437500000, -3.492187500000, 1491903786
0.332519531250, -0.900146484375, 0.355712890625, 4.015625000000, 8.531250000000, -2.695312500000, 1491903786
0.104003906250, -0.809326171875, 0.428222656250, 2.281250000000, 6.031250000000, -6.640625000000, 1491903786
0.104003906250, -0.809326171875, 0.428222656250, 2.281250000000, 6.031250000000, -6.640625000000, 1491903786
0.104003906250, -0.809326171875, 0.428222656250, 2.281250000000, 6.031250000000, -6.640625000000, 1491903786
0.115234375000, -0.956542968750, 0.392333984375, 6.734375000000, -2.906250000000, -6.406250000000, 1491903786
0.128662109375, -0.973632812500, 0.450683593750, 10.218750000000, 0.414062500000, -9.226562500000, 1491903786
0.128662109375, -0.973632812500, 0.450683593750, 10.218750000000, 0.414062500000, -9.226562500000, 1491903786
0.128662109375, -0.973632812500, 0.450683593750, 10.218750000000, 0.414062500000, -9.226562500000, 1491903786
0.054687500000, -0.886230468750, 0.351074218750, 13.140625000000, -2.750000000000, -12.351562500000, 1491903786
0.123291015625, -0.863281250000, 0.478271484375, 15.968750000000, -1.203125000000, -13.656250000000, 1491903786
0.123291015625, -0.863281250000, 0.478271484375, 15.968750000000, -1.203125000000, -13.656250000000, 1491903786
0.123291015625, -0.863281250000, 0.478271484375, 15.968750000000, -1.203125000000, -13.656250000000, 1491903786
0.190429687500, -0.787109375000, 0.421142578125, 11.531250000000, -14.960937500000, -8.617187500000, 1491903786
0.190429687500, -0.787109375000, 0.421142578125, 11.531250000000, -14.960937500000, -8.617187500000, 1491903786
0.190429687500, -0.787109375000, 0.421142578125, 11.531250000000, -14.960937500000, -8.617187500000, 1491903786
0.190429687500, -0.787109375000, 0.421142578125, 11.531250000000, -14.960937500000, -8.617187500000, 1491903786
0.190429687500, -0.787109375000, 0.421142578125, 11.531250000000, -14.960937500000, -8.617187500000, 1491903786
0.148925781250, -0.846923828125, 0.361328125000, 14.132812500000, -18.507812500000, -7.867187500000, 1491903786
0.120117187500, -0.796875000000, 0.463867187500, 11.093750000000, -14.117187500000, -7.460937500000, 1491903786
0.120117187500, -0.796875000000, 0.463867187500, 11.093750000000, -14.117187500000, -7.460937500000, 1491903786
0.120117187500, -0.796875000000, 0.463867187500, 11.093750000000, -14.117187500000, -7.460937500000, 1491903786
0.220703125000, -0.871093750000, 0.398193359375, 6.898437500000, -10.992187500000, -8.781250000000, 1491903786
0.220703125000, -0.871093750000, 0.398193359375, 6.898437500000, -10.992187500000, -8.781250000000, 1491903786
0.220703125000, -0.871093750000, 0.398193359375, 6.898437500000, -10.992187500000, -8.781250000000, 1491903786
0.220703125000, -0.871093750000, 0.398193359375, 6.898437500000, -10.992187500000, -8.781250000000, 1491903786
0.220703125000, -0.871093750000, 0.398193359375, 6.898437500000, -10.992187500000, -8.781250000000, 1491903786
0.215087890625, -1.028320312500, 0.362548828125, 6.656250000000, -8.343750000000, -0.515625000000, 1491903786
0.215087890625, -1.028320312500, 0.362548828125, 6.656250000000, -8.343750000000, -0.515625000000, 1491903786
0.215087890625, -1.028320312500, 0.362548828125, 6.656250000000, -8.343750000000, -0.515625000000, 1491903786
0.215087890625, -1.028320312500, 0.362548828125, 6.656250000000, -8.343750000000, -0.515625000000, 1491903786
0.198974609375, -0.790527343750, 0.449218750000, 2.328125000000, 5.062500000000, 0.195312500000, 1491903786
0.198974609375, -0.790527343750, 0.449218750000, 2.328125000000, 5.062500000000, 0.195312500000, 1491903786
0.060302734375, -0.942871093750, 0.418945312500, -1.289062500000, 15.562500000000, 6.640625000000, 1491903786
0.060302734375, -0.942871093750, 0.418945312500, -1.289062500000, 15.562500000000, 6.640625000000, 1491903786
0.060302734375, -0.942871093750, 0.418945312500, -1.289062500000, 15.562500000000, 6.640625000000, 1491903786
0.060302734375, -0.942871093750, 0.418945312500, -1.289062500000, 15.562500000000, 6.640625000000, 1491903787
0.141113281250, -0.975585937500, 0.453369140625, -10.351562500000, 26.914062500000, 12.992187500000, 1491903787
0.141113281250, -0.975585937500, 0.453369140625, -10.351562500000, 26.914062500000, 12.992187500000, 1491903787
0.141113281250, -0.975585937500, 0.453369140625, -10.351562500000, 26.914062500000, 12.992187500000, 1491903787
0.228515625000, -1.125732421875, 0.529785156250, -24.210937500000, 22.554687500000, 7.335937500000, 1491903787
0.228515625000, -1.125732421875, 0.529785156250, -24.210937500000, 22.554687500000, 7.335937500000, 1491903787
0.228515625000, -1.125732421875, 0.529785156250, -24.210937500000, 22.554687500000, 7.335937500000, 1491903787
0.228515625000, -1.125732421875, 0.529785156250, -24.210937500000, 22.554687500000, 7.335937500000, 1491903787
0.145751953125, -1.125000000000, 0.309082031250, -26.250000000000, -26.406250000000, 2.242187500000, 1491903787
0.145751953125, -1.125000000000, 0.309082031250, -26.250000000000, -26.406250000000, 2.242187500000, 1491903787
0.145751953125, -1.125000000000, 0.309082031250, -26.250000000000, -26.406250000000, 2.242187500000, 1491903787
0.318115234375, -0.801757812500, 0.340820312500, -29.968750000000, -12.023437500000, 5.679687500000, 1491903787
0.254150390625, -0.786132812500, 0.095947265625, -31.968750000000, -23.703125000000, -4.398437500000, 1491903787
0.254150390625, -0.786132812500, 0.095947265625, -31.968750000000, -23.703125000000, -4.398437500000, 1491903787
0.254150390625, -0.786132812500, 0.095947265625, -31.968750000000, -23.703125000000, -4.398437500000, 1491903787
0.273681640625, -0.743896484375, 0.162841796875, -36.687500000000, -14.015625000000, -5.859375000000, 1491903787
0.172363281250, -0.804443359375, 0.114990234375, -24.429687500000, 66.976562500000, -10.625000000000, 1491903787
0.172363281250, -0.804443359375, 0.114990234375, -24.429687500000, 66.976562500000, -10.625000000000, 1491903787
0.172363281250, -0.804443359375, 0.114990234375, -24.429687500000, 66.976562500000, -10.625000000000, 1491903787
0.172363281250, -0.804443359375, 0.114990234375, -24.429687500000, 66.976562500000, -10.625000000000, 1491903787
0.172363281250, -0.804443359375, 0.114990234375, -24.429687500000, 66.976562500000, -10.625000000000, 1491903787
0.440429687500, -0.903076171875, 0.408203125000, 23.929687500000, 17.007812500000, -15.335937500000, 1491903787
0.440429687500, -0.903076171875, 0.408203125000, 23.929687500000, 17.007812500000, -15.335937500000, 1491903787
0.440429687500, -0.903076171875, 0.408203125000, 23.929687500000, 17.007812500000, -15.335937500000, 1491903787
0.160644531250, -0.738769531250, 0.393066406250, -5.695312500000, 5.023437500000, -17.367187500000, 1491903787
0.160644531250, -0.738769531250, 0.393066406250, -5.695312500000, 5.023437500000, -17.367187500000, 1491903787
0.160644531250, -0.738769531250, 0.393066406250, -5.695312500000, 5.023437500000, -17.367187500000, 1491903787
0.270751953125, -0.800537109375, 0.360595703125, 0.367187500000, -1.890625000000, -22.851562500000, 1491903787
0.270751953125, -0.800537109375, 0.360595703125, 0.367187500000, -1.890625000000, -22.851562500000, 1491903787
0.270751953125, -0.800537109375, 0.360595703125, 0.367187500000, -1.890625000000, -22.851562500000, 1491903787
0.270751953125, -0.800537109375, 0.360595703125, 0.367187500000, -1.890625000000, -22.851562500000, 1491903787
0.270751953125, -0.800537109375, 0.360595703125, 0.367187500000, -1.890625000000, -22.851562500000, 1491903787
0.254394531250, -0.899902343750, 0.348632812500, 9.945312500000, 6.851562500000, -24.835937500000, 1491903787
0.254394531250, -0.899902343750, 0.348632812500, 9.945312500000, 6.851562500000, -24.835937500000, 1491903787
0.254394531250, -0.899902343750, 0.348632812500, 9.945312500000, 6.851562500000, -24.835937500000, 1491903787
0.254394531250, -0.899902343750, 0.348632812500, 9.945312500000, 6.851562500000, -24.835937500000, 1491903787
0.254394531250, -0.899902343750, 0.348632812500, 9.945312500000, 6.851562500000, -24.835937500000, 1491903787
0.192138671875, -0.954101562500, 0.517333984375, -2.664062500000, -4.671875000000, -16.476562500000, 1491903787
0.192138671875, -0.954101562500, 0.517333984375, -2.664062500000, -4.671875000000, -16.476562500000, 1491903787
0.192138671875, -0.954101562500, 0.517333984375, -2.664062500000, -4.671875000000, -16.476562500000, 1491903787
0.171386718750, -0.798339843750, 0.354003906250, 0.070312500000, 0.835937500000, -12.406250000000, 1491903787
0.171386718750, -0.798339843750, 0.354003906250, 0.070312500000, 0.835937500000, -12.406250000000, 1491903787
0.171386718750, -0.798339843750, 0.354003906250, 0.070312500000, 0.835937500000, -12.406250000000, 1491903787
0.171386718750, -0.798339843750, 0.354003906250, 0.070312500000, 0.835937500000, -12.406250000000, 1491903787
0.255859375000, -0.915039062500, 0.480957031250, -5.570312500000, 20.109375000000, -10.750000000000, 1491903787
0.255859375000, -0.915039062500, 0.480957031250, -5.570312500000, 20.109375000000, -10.750000000000, 1491903787
0.255859375000, -0.915039062500, 0.480957031250, -5.570312500000, 20.109375000000, -10.750000000000, 1491903787
0.255859375000, -0.915039062500, 0.480957031250, -5.570312500000, 20.109375000000, -10.750000000000, 1491903787
0.255859375000, -0.915039062500, 0.480957031250, -5.570312500000, 20.109375000000, -10.750000000000, 1491903787
0.255859375000, -0.915039062500, 0.480957031250, -5.570312500000, 20.109375000000, -10.750000000000, 1491903787
0.319824218750, -1.183349609375, 0.655761718750, -5.796875000000, 4.968750000000, -6.000000000000, 1491903787
0.319824218750, -1.183349609375, 0.655761718750, -5.796875000000, 4.968750000000, -6.000000000000, 1491903787
0.319824218750, -1.183349609375, 0.655761718750, -5.796875000000, 4.968750000000, -6.000000000000, 1491903787
0.046386718750, -1.319824218750, 0.648925781250, -34.359375000000, 6.882812500000, -20.054687500000, 1491903787
0.046386718750, -1.319824218750, 0.648925781250, -34.359375000000, 6.882812500000, -20.054687500000, 1491903787
0.046386718750, -1.319824218750, 0.648925781250, -34.359375000000, 6.882812500000, -20.054687500000, 1491903787
0.021728515625, -0.624755859375, 0.209228515625, -20.328125000000, -26.898437500000, -3.640625000000, 1491903787
0.021728515625, -0.624755859375, 0.209228515625, -20.328125000000, -26.898437500000, -3.640625000000, 1491903787
-0.002929687500, -0.900634765625, 0.120605468750, -14.609375000000, -20.531250000000, -8.671875000000, 1491903787
0.052246093750, -0.967773437500, 0.098876953125, 4.617187500000, -9.281250000000, -7.929687500000, 1491903787
0.052246093750, -0.967773437500, 0.098876953125, 4.617187500000, -9.281250000000, -7.929687500000, 1491903787
0.090332031250, -1.004150390625, 0.273925781250, 54.054687500000, -54.257812500000, -10.195312500000, 1491903787
0.090332031250, -1.004150390625, 0.273925781250, 54.054687500000, -54.257812500000, -10.195312500000, 1491903787
0.090332031250, -1.004150390625, 0.273925781250, 54.054687500000, -54.257812500000, -10.195312500000, 1491903788
0.090332031250, -1.004150390625, 0.273925781250, 54.054687500000, -54.257812500000, -10.195312500000, 1491903788
0.090332031250, -1.004150390625, 0.273925781250, 54.054687500000, -54.257812500000, -10.195312500000, 1491903788
0.090332031250, -1.004150390625, 0.273925781250, 54.054687500000, -54.257812500000, -10.195312500000, 1491903788
-0.025634765625, -0.859375000000, 0.378906250000, -31.523437500000, -16.460937500000, 17.765625000000, 1491903788
-0.025634765625, -0.859375000000, 0.378906250000, -31.523437500000, -16.460937500000, 17.765625000000, 1491903788
-0.025634765625, -0.859375000000, 0.378906250000, -31.523437500000, -16.460937500000, 17.765625000000, 1491903788
-0.025634765625, -0.859375000000, 0.378906250000, -31.523437500000, -16.460937500000, 17.765625000000, 1491903788
-0.025634765625, -0.859375000000, 0.378906250000, -31.523437500000, -16.460937500000, 17.765625000000, 1491903788
-0.025634765625, -0.859375000000, 0.378906250000, -31.523437500000, -16.460937500000, 17.765625000000, 1491903788
0.058105468750, -0.943603515625, 0.289062500000, -3.742187500000, -17.421875000000, 1.773437500000, 1491903788
0.058105468750, -0.943603515625, 0.289062500000, -3.742187500000, -17.421875000000, 1.773437500000, 1491903788
0.058105468750, -0.943603515625, 0.289062500000, -3.742187500000, -17.421875000000, 1.773437500000, 1491903788
0.002441406250, -0.939453125000, 0.365966796875, -2.742187500000, -6.593750000000, 4.617187500000, 1491903788
0.002441406250, -0.939453125000, 0.365966796875, -2.742187500000, -6.593750000000, 4.617187500000, 1491903788
0.002441406250, -0.939453125000, 0.365966796875, -2.742187500000, -6.593750000000, 4.617187500000, 1491903788
0.061035156250, -0.932373046875, 0.391357421875, -5.867187500000, -7.781250000000, 0.164062500000, 1491903788
0.061035156250, -0.932373046875, 0.391357421875, -5.867187500000, -7.781250000000, 0.164062500000, 1491903788
0.061035156250, -0.932373046875, 0.391357421875, -5.867187500000, -7.781250000000, 0.164062500000, 1491903788
0.100341796875, -0.858642578125, 0.432128906250, -11.367187500000, -3.226562500000, 6.812500000000, 1491903788
0.100341796875, -0.858642578125, 0.432128906250, -11.367187500000, -3.226562500000, 6.812500000000, 1491903788
0.100341796875, -0.858642578125, 0.432128906250, -11.367187500000, -3.226562500000, 6.812500000000, 1491903788
0.100341796875, -0.858642578125, 0.432128906250, -11.367187500000, -3.226562500000, 6.812500000000, 1491903788
0.206054687500, -0.733398437500, 0.425048828125, -5.281250000000, -2.781250000000, 16.046875000000, 1491903788
0.206054687500, -0.733398437500, 0.425048828125, -5.281250000000, -2.781250000000, 16.046875000000, 1491903788
0.206054687500, -0.733398437500, 0.425048828125, -5.281250000000, -2.781250000000, 16.046875000000, 1491903788
0.206054687500, -0.733398437500, 0.425048828125, -5.281250000000, -2.781250000000, 16.046875000000, 1491903788
0.100341796875, -0.886962890625, 0.571777343750, -14.218750000000, 26.085937500000, 18.867187500000, 1491903788
0.100341796875, -0.886962890625, 0.571777343750, -14.218750000000, 26.085937500000, 18.867187500000, 1491903788
0.100341796875, -0.886962890625, 0.571777343750, -14.218750000000, 26.085937500000, 18.867187500000, 1491903788
0.100341796875, -0.886962890625, 0.571777343750, -14.218750000000, 26.085937500000, 18.867187500000, 1491903788
0.100341796875, -0.886962890625, 0.571777343750, -14.218750000000, 26.085937500000, 18.867187500000, 1491903788
0.100341796875, -0.886962890625, 0.571777343750, -14.218750000000, 26.085937500000, 18.867187500000, 1491903788
0.190673828125, -1.291503906250, 0.534667968750, -20.429687500000, -2.343750000000, 6.234375000000, 1491903788
0.190673828125, -1.291503906250, 0.534667968750, -20.429687500000, -2.343750000000, 6.234375000000, 1491903788
0.190673828125, -1.291503906250, 0.534667968750, -20.429687500000, -2.343750000000, 6.234375000000, 1491903788
0.113525390625, -1.292480468750, 0.477050781250, -21.570312500000, 7.914062500000, 20.601562500000, 1491903788
0.113525390625, -1.292480468750, 0.477050781250, -21.570312500000, 7.914062500000, 20.601562500000, 1491903788
0.113525390625, -1.292480468750, 0.477050781250, -21.570312500000, 7.914062500000, 20.601562500000, 1491903788
0.123291015625, -0.863037109375, 0.205322265625, 2.781250000000, 22.359375000000, -13.000000000000, 1491903788
0.123291015625, -0.863037109375, 0.205322265625, 2.781250000000, 22.359375000000, -13.000000000000, 1491903788
0.123291015625, -0.863037109375, 0.205322265625, 2.781250000000, 22.359375000000, -13.000000000000, 1491903788
0.123291015625, -0.863037109375, 0.205322265625, 2.781250000000, 22.359375000000, -13.000000000000, 1491903788
0.155029296875, -0.905517578125, 0.280761718750, 35.062500000000, 11.914062500000, -22.796875000000, 1491903788
0.311767578125, -0.908935546875, 0.479492187500, 19.382812500000, 30.054687500000, -17.718750000000, 1491903788
0.311767578125, -0.908935546875, 0.479492187500, 19.382812500000, 30.054687500000, -17.718750000000, 1491903788
0.311767578125, -0.908935546875, 0.479492187500, 19.382812500000, 30.054687500000, -17.718750000000, 1491903788
0.399658203125, -0.967529296875, 0.387939453125, -30.593750000000, -14.164062500000, -18.546875000000, 1491903788
0.399658203125, -0.967529296875, 0.387939453125, -30.593750000000, -14.164062500000, -18.546875000000, 1491903788
0.399658203125, -0.967529296875, 0.387939453125, -30.593750000000, -14.164062500000, -18.546875000000, 1491903788
0.399658203125, -0.967529296875, 0.387939453125, -30.593750000000, -14.164062500000, -18.546875000000, 1491903788
0.399658203125, -0.967529296875, 0.387939453125, -30.593750000000, -14.164062500000, -18.546875000000, 1491903788
0.167236328125, -0.747802734375, 0.361572265625, -13.523437500000, -28.312500000000, -32.031250000000, 1491903788
0.167236328125, -0.747802734375, 0.361572265625, -13.523437500000, -28.312500000000, -32.031250000000, 1491903788
0.167236328125, -0.747802734375, 0.361572265625, -13.523437500000, -28.312500000000, -32.031250000000, 1491903788
0.167236328125, -0.747802734375, 0.361572265625, -13.523437500000, -28.312500000000, -32.031250000000, 1491903788
0.167236328125, -0.747802734375, 0.361572265625, -13.523437500000, -28.312500000000, -32.031250000000, 1491903788
0.167236328125, -0.747802734375, 0.361572265625, -13.523437500000, -28.312500000000, -32.031250000000, 1491903788
0.270751953125, -0.825683593750, 0.522216796875, -1.882812500000, 1.226562500000, -32.562500000000, 1491903788
0.299804687500, -0.842285156250, 0.527343750000, -2.968750000000, 14.750000000000, -25.156250000000, 1491903788
0.299804687500, -0.842285156250, 0.527343750000, -2.968750000000, 14.750000000000, -25.156250000000, 1491903788
0.299804687500, -0.842285156250, 0.527343750000, -2.968750000000, 14.750000000000, -25.156250000000, 1491903788
0.233398437500, -0.827392578125, 0.483886718750, -5.656250000000, -1.546875000000, -21.539062500000, 1491903788
0.233398437500, -0.827392578125, 0.483886718750, -5.656250000000, -1.546875000000, -21.539062500000, 1491903788
0.233398437500, -0.827392578125, 0.483886718750, -5.656250000000, -1.546875000000, -21.539062500000, 1491903788
0.240234375000, -0.756835937500, 0.475585937500, -5.062500000000, 2.328125000000, -13.921875000000, 1491903788
0.240234375000, -0.756835937500, 0.475585937500, -5.062500000000, 2.328125000000, -13.921875000000, 1491903788
0.240234375000, -0.756835937500, 0.475585937500, -5.062500000000, 2.328125000000, -13.921875000000, 1491903788
0.093994140625, -0.824707031250, 0.558105468750, -6.468750000000, 3.070312500000, -16.062500000000, 1491903788
0.093994140625, -0.824707031250, 0.558105468750, -6.468750000000, 3.070312500000, -16.062500000000, 1491903788
0.093994140625, -0.824707031250, 0.558105468750, -6.468750000000, 3.070312500000, -16.062500000000, 1491903788
0.109619140625, -0.828613281250, 0.577392578125, 1.210937500000, 0.312500000000, -20.351562500000, 1491903789
0.109619140625, -0.828613281250, 0.577392578125, 1.210937500000, 0.312500000000, -20.351562500000, 1491903789
0.109619140625, -0.828613281250, 0.577392578125, 1.210937500000, 0.312500000000, -20.351562500000, 1491903789
0.109619140625, -0.828613281250, 0.577392578125, 1.210937500000, 0.312500000000, -20.351562500000, 1491903789
0.206298828125, -0.770263671875, 0.696289062500, 6.531250000000, 0.117187500000, -17.093750000000, 1491903789
0.206298828125, -0.770263671875, 0.696289062500, 6.531250000000, 0.117187500000, -17.093750000000, 1491903789
0.206298828125, -0.770263671875, 0.696289062500, 6.531250000000, 0.117187500000, -17.093750000000, 1491903789
0.166992187500, -0.855224609375, 0.718750000000, 2.437500000000, -18.859375000000, -20.117187500000, 1491903789
0.166992187500, -0.855224609375, 0.718750000000, 2.437500000000, -18.859375000000, -20.117187500000, 1491903789
0.166992187500, -0.855224609375, 0.718750000000, 2.437500000000, -18.859375000000, -20.117187500000, 1491903789
0.190185546875, -0.844482421875, 0.621582031250, 0.968750000000, -28.437500000000, -21.257812500000, 1491903789
0.190185546875, -0.844482421875, 0.621582031250, 0.968750000000, -28.437500000000, -21.257812500000, 1491903789
0.190185546875, -0.844482421875, 0.621582031250, 0.968750000000, -28.437500000000, -21.257812500000, 1491903789
-0.081787109375, -0.979736328125, 0.256835937500, -6.656250000000, -36.812500000000, -10.171875000000, 1491903789
-0.081787109375, -0.979736328125, 0.256835937500, -6.656250000000, -36.812500000000, -10.171875000000, 1491903789
-0.081787109375, -0.979736328125, 0.256835937500, -6.656250000000, -36.812500000000, -10.171875000000, 1491903789
-0.081787109375, -0.979736328125, 0.256835937500, -6.656250000000, -36.812500000000, -10.171875000000, 1491903789
-0.081787109375, -0.979736328125, 0.256835937500, -6.656250000000, -36.812500000000, -10.171875000000, 1491903789
-0.216308593750, -0.985839843750, 0.199707031250, -3.031250000000, -48.078125000000, -16.757812500000, 1491903789
-0.216308593750, -0.985839843750, 0.199707031250, -3.031250000000, -48.078125000000, -16.757812500000, 1491903789
-0.216308593750, -0.985839843750, 0.199707031250, -3.031250000000, -48.078125000000, -16.757812500000, 1491903789
-0.216308593750, -0.985839843750, 0.199707031250, -3.031250000000, -48.078125000000, -16.757812500000, 1491903789
-0.216308593750, -0.985839843750, 0.199707031250, -3.031250000000, -48.078125000000, -16.757812500000, 1491903789
0.202392578125, -0.911865234375, 0.101806640625, 65.656250000000, -31.851562500000, -24.828125000000, 1491903789
0.202392578125, -0.911865234375, 0.101806640625, 65.656250000000, -31.851562500000, -24.828125000000, 1491903789
0.202392578125, -0.911865234375, 0.101806640625, 65.656250000000, -31.851562500000, -24.828125000000, 1491903789
-0.064941406250, -1.010009765625, 0.171142578125, 22.093750000000, -28.398437500000, -8.609375000000, 1491903789
-0.064941406250, -1.010009765625, 0.171142578125, 22.093750000000, -28.398437500000, -8.609375000000, 1491903789
-0.064941406250, -1.010009765625, 0.171142578125, 22.093750000000, -28.398437500000, -8.609375000000, 1491903789
-0.064941406250, -1.010009765625, 0.171142578125, 22.093750000000, -28.398437500000, -8.609375000000, 1491903789
-0.064941406250, -1.010009765625, 0.171142578125, 22.093750000000, -28.398437500000, -8.609375000000, 1491903789
-0.020263671875, -0.913330078125, 0.243896484375, 23.789062500000, -20.187500000000, -16.507812500000, 1491903789
0.103515625000, -0.973632812500, 0.247314453125, 24.335937500000, -15.000000000000, -13.648437500000, 1491903789
0.103515625000, -0.973632812500, 0.247314453125, 24.335937500000, -15.000000000000, -13.648437500000, 1491903789
0.103515625000, -0.973632812500, 0.247314453125, 24.335937500000, -15.000000000000, -13.648437500000, 1491903789
-0.007324218750, -1.030517578125, 0.177490234375, 20.539062500000, -3.257812500000, 0.367187500000, 1491903789
-0.007324218750, -1.030517578125, 0.177490234375, 20.539062500000, -3.257812500000, 0.367187500000, 1491903789
-0.007324218750, -1.030517578125, 0.177490234375, 20.539062500000, -3.257812500000, 0.367187500000, 1491903789
-0.007324218750, -1.030517578125, 0.177490234375, 20.539062500000, -3.257812500000, 0.367187500000, 1491903789
0.131347656250, -0.943847656250, 0.256591796875, 14.039062500000, 4.882812500000, 1.625000000000, 1491903789
0.131347656250, -0.943847656250, 0.256591796875, 14.039062500000, 4.882812500000, 1.625000000000, 1491903789
0.131347656250, -0.943847656250, 0.256591796875, 14.039062500000, 4.882812500000, 1.625000000000, 1491903789
0.131347656250, -0.943847656250, 0.256591796875, 14.039062500000, 4.882812500000, 1.625000000000, 1491903789
0.089843750000, -0.959472656250, 0.311767578125, -2.593750000000, 29.914062500000, 9.359375000000, 1491903789
0.089843750000, -0.959472656250, 0.311767578125, -2.593750000000, 29.914062500000, 9.359375000000, 1491903789
0.089843750000, -0.959472656250, 0.311767578125, -2.593750000000, 29.914062500000, 9.359375000000, 1491903789
0.089843750000, -0.959472656250, 0.311767578125, -2.593750000000, 29.914062500000, 9.359375000000, 1491903789
0.089843750000, -0.959472656250, 0.311767578125, -2.593750000000, 29.914062500000, 9.359375000000, 1491903789
0.089843750000, -0.959472656250, 0.311767578125, -2.593750000000, 29.914062500000, 9.359375000000, 1491903789
0.093750000000, -0.865478515625, 0.248779296875, -4.750000000000, 27.773437500000, 7.085937500000, 1491903789
0.093750000000, -0.865478515625, 0.248779296875, -4.750000000000, 27.773437500000, 7.085937500000, 1491903789
0.093750000000, -0.865478515625, 0.248779296875, -4.750000000000, 27.773437500000, 7.085937500000, 1491903789
-0.023437500000, -0.879394531250, 0.254394531250, 22.179687500000, 8.242187500000, -14.539062500000, 1491903789
-0.023437500000, -0.879394531250, 0.254394531250, 22.179687500000, 8.242187500000, -14.539062500000, 1491903789
-0.023437500000, -0.879394531250, 0.254394531250, 22.179687500000, 8.242187500000, -14.539062500000, 1491903789
-0.023437500000, -0.879394531250, 0.254394531250, 22.179687500000, 8.242187500000, -14.539062500000, 1491903789
0.080322265625, -0.682373046875, 0.089843750000, 65.859375000000, 35.046875000000, -17.726562500000, 1491903789
0.080810546875, -0.818603515625, 0.041992187500, 72.281250000000, 55.484375000000, -13.273437500000, 1491903789
0.080810546875, -0.818603515625, 0.041992187500, 72.281250000000, 55.484375000000, -13.273437500000, 1491903789
0.134765625000, -0.744140625000, 0.065917968750, 49.390625000000, 33.250000000000, 11.648437500000, 1491903789
0.134765625000, -0.744140625000, 0.065917968750, 49.390625000000, 33.250000000000, 11.648437500000, 1491903790
0.134765625000, -0.744140625000, 0.065917968750, 49.390625000000, 33.250000000000, 11.648437500000, 1491903790
0.134765625000, -0.744140625000, 0.065917968750, 49.390625000000, 33.250000000000, 11.648437500000, 1491903790
0.134765625000, -0.744140625000, 0.065917968750, 49.390625000000, 33.250000000000, 11.648437500000, 1491903790
0.060546875000, -0.721679687500, -0.065185546875, 105.265625000000, -15.515625000000, -15.890625000000, 1491903790
0.060546875000, -0.721679687500, -0.065185546875, 105.265625000000, -15.515625000000, -15.890625000000, 1491903790
0.060546875000, -0.721679687500, -0.065185546875, 105.265625000000, -15.515625000000, -15.890625000000, 1491903790
0.060546875000, -0.721679687500, -0.065185546875, 105.265625000000, -15.515625000000, -15.890625000000, 1491903790
0.145263671875, -0.820312500000, 0.064941406250, 104.226562500000, -44.093750000000, -25.703125000000, 1491903790
0.145263671875, -0.820312500000, 0.064941406250, 104.226562500000, -44.093750000000, -25.703125000000, 1491903790
0.145263671875, -0.820312500000, 0.064941406250, 104.226562500000, -44.093750000000, -25.703125000000, 1491903790
0.145263671875, -0.820312500000, 0.064941406250, 104.226562500000, -44.093750000000, -25.703125000000, 1491903790
0.145263671875, -0.820312500000, 0.064941406250, 104.226562500000, -44.093750000000, -25.703125000000, 1491903790
0.086669921875, -0.677490234375, 0.092529296875, 104.554687500000, -67.156250000000, -26.382812500000, 1491903790
0.086669921875, -0.677490234375, 0.092529296875, 104.554687500000, -67.156250000000, -26.382812500000, 1491903790
0.086669921875, -0.677490234375, 0.092529296875, 104.554687500000, -67.156250000000, -26.382812500000, 1491903790
0.086669921875, -0.677490234375, 0.092529296875, 104.554687500000, -67.156250000000, -26.382812500000, 1491903790
0.139160156250, -0.804687500000, 0.039306640625, -16.375000000000, 40.273437500000, 9.257812500000, 1491903790
0.139160156250, -0.804687500000, 0.039306640625, -16.375000000000, 40.273437500000, 9.257812500000, 1491903790
0.139160156250, -0.804687500000, 0.039306640625, -16.375000000000, 40.273437500000, 9.257812500000, 1491903790
0.139160156250, -0.804687500000, 0.039306640625, -16.375000000000, 40.273437500000, 9.257812500000, 1491903790
0.139160156250, -0.804687500000, 0.039306640625, -16.375000000000, 40.273437500000, 9.257812500000, 1491903790
0.216796875000, -1.020507812500, 0.076171875000, 42.039062500000, 21.203125000000, -10.507812500000, 1491903790
0.216796875000, -1.020507812500, 0.076171875000, 42.039062500000, 21.203125000000, -10.507812500000, 1491903790
0.216796875000, -1.020507812500, 0.076171875000, 42.039062500000, 21.203125000000, -10.507812500000, 1491903790
0.055419921875, -0.907714843750, 0.077392578125, -12.968750000000, 25.679687500000, -7.648437500000, 1491903790
0.055419921875, -0.907714843750, 0.077392578125, -12.968750000000, 25.679687500000, -7.648437500000, 1491903790
0.055419921875, -0.907714843750, 0.077392578125, -12.968750000000, 25.679687500000, -7.648437500000, 1491903790
0.203369140625, -1.200439453125, -0.005859375000, -12.226562500000, 60.125000000000, -9.289062500000, 1491903790
0.203369140625, -1.200439453125, -0.005859375000, -12.226562500000, 60.125000000000, -9.289062500000, 1491903790
0.203369140625, -1.200439453125, -0.005859375000, -12.226562500000, 60.125000000000, -9.289062500000, 1491903790
0.203369140625, -1.200439453125, -0.005859375000, -12.226562500000, 60.125000000000, -9.289062500000, 1491903790
0.203369140625, -1.200439453125, -0.005859375000, -12.226562500000, 60.125000000000, -9.289062500000, 1491903790
0.185791015625, -1.100097656250, 0.014160156250, 20.781250000000, 23.171875000000, -48.335937500000, 1491903790
0.185791015625, -1.100097656250, 0.014160156250, 20.781250000000, 23.171875000000, -48.335937500000, 1491903790
0.185791015625, -1.100097656250, 0.014160156250, 20.781250000000, 23.171875000000, -48.335937500000, 1491903790
0.185791015625, -1.100097656250, 0.014160156250, 20.781250000000, 23.171875000000, -48.335937500000, 1491903790
0.185791015625, -1.100097656250, 0.014160156250, 20.781250000000, 23.171875000000, -48.335937500000, 1491903790
0.082519531250, -0.960937500000, -0.068603515625, -43.460937500000, -1.968750000000, -7.757812500000, 1491903790
0.082519531250, -0.960937500000, -0.068603515625, -43.460937500000, -1.968750000000, -7.757812500000, 1491903790
0.082519531250, -0.960937500000, -0.068603515625, -43.460937500000, -1.968750000000, -7.757812500000, 1491903790
-0.069335937500, -0.943847656250, -0.048583984375, -59.164062500000, -26.773437500000, -19.226562500000, 1491903790
-0.025878906250, -0.790039062500, -0.025634765625, 42.242187500000, -12.562500000000, -3.101562500000, 1491903790
-0.025878906250, -0.790039062500, -0.025634765625, 42.242187500000, -12.562500000000, -3.101562500000, 1491903790
-0.025878906250, -0.790039062500, -0.025634765625, 42.242187500000, -12.562500000000, -3.101562500000, 1491903790
-0.028076171875, -0.816894531250, 0.026123046875, 32.289062500000, 0.015625000000, -20.867187500000, 1491903790
0.091552734375, -0.871337890625, -0.068603515625, 35.976562500000, -14.179687500000, -35.640625000000, 1491903790
0.091552734375, -0.871337890625, -0.068603515625, 35.976562500000, -14.179687500000, -35.640625000000, 1491903790
0.091552734375, -0.871337890625, -0.068603515625, 35.976562500000, -14.179687500000, -35.640625000000, 1491903790
0.091552734375, -0.871337890625, -0.068603515625, 35.976562500000, -14.179687500000, -35.640625000000, 1491903790
0.091552734375, -0.871337890625, -0.068603515625, 35.976562500000, -14.179687500000, -35.640625000000, 1491903790
0.072021484375, -0.364501953125, 0.014404296875, 45.531250000000, 2.250000000000, -10.070312500000, 1491903790
0.072021484375, -0.364501953125, 0.014404296875, 45.531250000000, 2.250000000000, -10.070312500000, 1491903790
0.072021484375, -0.364501953125, 0.014404296875, 45.531250000000, 2.250000000000, -10.070312500000, 1491903790
0.880859375000, -1.716308593750, 0.132812500000, 24.859375000000, 78.945312500000, 198.617187500000, 1491903790
0.880859375000, -1.716308593750, 0.132812500000, 24.859375000000, 78.945312500000, 198.617187500000, 1491903790
0.880859375000, -1.716308593750, 0.132812500000, 24.859375000000, 78.945312500000, 198.617187500000, 1491903790
0.818847656250, -1.232421875000, -0.080566406250, -4.398437500000, 184.273437500000, 1.304687500000, 1491903790
0.392089843750, -1.249755859375, 0.001953125000, -256.000000000000, 43.226562500000, -35.898437500000, 1491903790
0.392089843750, -1.249755859375, 0.001953125000, -256.000000000000, 43.226562500000, -35.898437500000, 1491903790
0.392089843750, -1.249755859375, 0.001953125000, -256.000000000000, 43.226562500000, -35.898437500000, 1491903790
0.392089843750, -1.249755859375, 0.001953125000, -256.000000000000, 43.226562500000, -35.898437500000, 1491903790
0.392089843750, -1.249755859375, 0.001953125000, -256.000000000000, 43.226562500000, -35.898437500000, 1491903790
0.253173828125, -1.400878906250, 0.008544921875, -256.000000000000, -121.148437500000, -35.007812500000, 1491903790
0.253173828125, -1.400878906250, 0.008544921875, -256.000000000000, -121.148437500000, -35.007812500000, 1491903790
0.253173828125, -1.400878906250, 0.008544921875, -256.000000000000, -121.148437500000, -35.007812500000, 1491903790
0.253173828125, -1.400878906250, 0.008544921875, -256.000000000000, -121.148437500000, -35.007812500000, 1491903790
0.164062500000, -2.768798828125, -0.195068359375, -197.992187500000, -256.000000000000, -62.921875000000, 1491903790
0.164062500000, -2.768798828125, -0.195068359375, -197.992187500000, -256.000000000000, -62.921875000000, 1491903790
0.164062500000, -2.768798828125, -0.195068359375, -197.992187500000, -256.000000000000, -62.921875000000, 1491903790
0.249755859375, 0.865478515625, 0.191894531250, 253.992187500000, -256.000000000000, 253.992187500000, 1491903790
0.249755859375, 0.865478515625, 0.191894531250, 253.992187500000, -256.000000000000, 253.992187500000, 1491903790
0.249755859375, 0.865478515625, 0.191894531250, 253.992187500000, -256.000000000000, 253.992187500000, 1491903790
0.249755859375, 0.865478515625, 0.191894531250, 253.992187500000, -256.000000000000, 253.992187500000, 1491903790
0.427734375000, -2.086425781250, -2.833740234375, 253.992187500000, -256.000000000000, -30.976562500000, 1491903791
0.427734375000, -2.086425781250, -2.833740234375, 253.992187500000, -256.000000000000, -30.976562500000, 1491903791
0.427734375000, -2.086425781250, -2.833740234375, 253.992187500000, -256.000000000000, -30.976562500000, 1491903791
0.427734375000, -2.086425781250, -2.833740234375, 253.992187500000, -256.000000000000, -30.976562500000, 1491903791
-0.383544921875, 0.123535156250, -0.483398437500, 228.539062500000, 7.609375000000, -198.390625000000, 1491903791
0.584960937500, 0.294921875000, -0.114990234375, 228.539062500000, 7.609375000000, -198.390625000000, 1491903791
0.584960937500, 0.294921875000, -0.114990234375, 228.539062500000, 7.609375000000, -198.390625000000, 1491903791
0.349365234375, 0.293701171875, -2.636474609375, 2.546875000000, -28.164062500000, 2.000000000000, 1491903791
0.158203125000, 0.310546875000, -1.024169921875, 64.539062500000, -65.109375000000, 19.304687500000, 1491903791
0.158203125000, 0.310546875000, -1.024169921875, 64.539062500000, -65.109375000000, 19.304687500000, 1491903791
0.158203125000, 0.310546875000, -1.024169921875, 64.539062500000, -65.109375000000, 19.304687500000, 1491903791
0.091796875000, 0.270019531250, -0.448242187500, -24.679687500000, -93.101562500000, 30.773437500000, 1491903791
0.091796875000, 0.270019531250, -0.448242187500, -24.679687500000, -93.101562500000, 30.773437500000, 1491903791
0.091796875000, 0.270019531250, -0.448242187500, -24.679687500000, -93.101562500000, 30.773437500000, 1491903791
0.009033203125, 0.029052734375, -1.016113281250, -7.125000000000, -23.656250000000, 17.773437500000, 1491903791
0.009033203125, 0.029052734375, -1.016113281250, -7.125000000000, -23.656250000000, 17.773437500000, 1491903791
0.009033203125, 0.029052734375, -1.016113281250, -7.125000000000, -23.656250000000, 17.773437500000, 1491903791
0.009033203125, 0.029052734375, -1.016113281250, -7.125000000000, -23.656250000000, 17.773437500000, 1491903791
0.009033203125, 0.029052734375, -1.016113281250, -7.125000000000, -23.656250000000, 17.773437500000, 1491903791
0.118408203125, 0.241943359375, -0.891357421875, 20.984375000000, 20.562500000000, -6.617187500000, 1491903791
0.118408203125, 0.241943359375, -0.891357421875, 20.984375000000, 20.562500000000, -6.617187500000, 1491903791
0.118408203125, 0.241943359375, -0.891357421875, 20.984375000000, 20.562500000000, -6.617187500000, 1491903791
0.146484375000, 0.209716796875, -0.845703125000, 35.726562500000, 5.585937500000, -14.867187500000, 1491903791
0.223876953125, 0.344482421875, -1.042236328125, 34.796875000000, 56.015625000000, -36.968750000000, 1491903791
0.223876953125, 0.344482421875, -1.042236328125, 34.796875000000, 56.015625000000, -36.968750000000, 1491903791
0.223876953125, 0.344482421875, -1.042236328125, 34.796875000000, 56.015625000000, -36.968750000000, 1491903791
0.223876953125, 0.344482421875, -1.042236328125, 34.796875000000, 56.015625000000, -36.968750000000, 1491903791
0.223876953125, 0.344482421875, -1.042236328125, 34.796875000000, 56.015625000000, -36.968750000000, 1491903791
0.223876953125, 0.344482421875, -1.042236328125, 34.796875000000, 56.015625000000, -36.968750000000, 1491903791
0.217773437500, 0.211181640625, -1.018554687500, -47.898437500000, -52.500000000000, -22.289062500000, 1491903791
0.217773437500, 0.211181640625, -1.018554687500, -47.898437500000, -52.500000000000, -22.289062500000, 1491903791
0.217773437500, 0.211181640625, -1.018554687500, -47.898437500000, -52.500000000000, -22.289062500000, 1491903791
0.217773437500, 0.211181640625, -1.018554687500, -47.898437500000, -52.500000000000, -22.289062500000, 1491903791
0.217773437500, 0.211181640625, -1.018554687500, -47.898437500000, -52.500000000000, -22.289062500000, 1491903791
0.457031250000, 0.244628906250, -0.865234375000, -20.890625000000, -38.109375000000, -19.765625000000, 1491903791
0.457031250000, 0.244628906250, -0.865234375000, -20.890625000000, -38.109375000000, -19.765625000000, 1491903791
0.457031250000, 0.244628906250, -0.865234375000, -20.890625000000, -38.109375000000, -19.765625000000, 1491903791
0.457031250000, 0.244628906250, -0.865234375000, -20.890625000000, -38.109375000000, -19.765625000000, 1491903791
0.457031250000, 0.244628906250, -0.865234375000, -20.890625000000, -38.109375000000, -19.765625000000, 1491903791
0.041259765625, 0.199462890625, -1.010498046875, -20.265625000000, -28.796875000000, -8.453125000000, 1491903791
0.041259765625, 0.199462890625, -1.010498046875, -20.265625000000, -28.796875000000, -8.453125000000, 1491903791
0.041259765625, 0.199462890625, -1.010498046875, -20.265625000000, -28.796875000000, -8.453125000000, 1491903791
0.086181640625, 0.207031250000, -0.945556640625, 1.968750000000, 0.632812500000, -22.523437500000, 1491903791
0.153808593750, 0.236083984375, -0.931640625000, -2.273437500000, 2.578125000000, -14.273437500000, 1491903791
0.153808593750, 0.236083984375, -0.931640625000, -2.273437500000, 2.578125000000, -14.273437500000, 1491903791
0.049316406250, 0.255859375000, -1.015869140625, -15.375000000000, 0.351562500000, -0.726562500000, 1491903791
0.049316406250, 0.255859375000, -1.015869140625, -15.375000000000, 0.351562500000, -0.726562500000, 1491903791
0.049316406250, 0.255859375000, -1.015869140625, -15.375000000000, 0.351562500000, -0.726562500000, 1491903791
0.049316406250, 0.255859375000, -1.015869140625, -15.375000000000, 0.351562500000, -0.726562500000, 1491903791
0.049316406250, 0.255859375000, -1.015869140625, -15.375000000000, 0.351562500000, -0.726562500000, 1491903791
0.049316406250, 0.255859375000, -1.015869140625, -15.375000000000, 0.351562500000, -0.726562500000, 1491903791
0.135498046875, 0.186279296875, -0.906250000000, -26.632812500000, 4.375000000000, 6.554687500000, 1491903791
0.135498046875, 0.186279296875, -0.906250000000, -26.632812500000, 4.375000000000, 6.554687500000, 1491903791
0.135498046875, 0.186279296875, -0.906250000000, -26.632812500000, 4.375000000000, 6.554687500000, 1491903791
0.135498046875, 0.186279296875, -0.906250000000, -26.632812500000, 4.375000000000, 6.554687500000, 1491903791
0.135498046875, 0.186279296875, -0.906250000000, -26.632812500000, 4.375000000000, 6.554687500000, 1491903791
0.135498046875, 0.186279296875, -0.906250000000, -26.632812500000, 4.375000000000, 6.554687500000, 1491903791
0.135498046875, 0.186279296875, -0.906250000000, -26.632812500000, 4.375000000000, 6.554687500000, 1491903791
0.203369140625, 0.146240234375, -0.913330078125, 5.164062500000, 4.500000000000, -5.421875000000, 1491903791
0.203369140625, 0.146240234375, -0.913330078125, 5.164062500000, 4.500000000000, -5.421875000000, 1491903791
0.203369140625, 0.146240234375, -0.913330078125, 5.164062500000, 4.500000000000, -5.421875000000, 1491903791
0.203369140625, 0.146240234375, -0.913330078125, 5.164062500000, 4.500000000000, -5.421875000000, 1491903791
0.133300781250, 0.105957031250, -0.934814453125, 9.296875000000, -2.812500000000, -5.601562500000, 1491903791
0.133300781250, 0.105957031250, -0.934814453125, 9.296875000000, -2.812500000000, -5.601562500000, 1491903791
0.133300781250, 0.105957031250, -0.934814453125, 9.296875000000, -2.812500000000, -5.601562500000, 1491903791
0.133300781250, 0.105957031250, -0.934814453125, 9.296875000000, -2.812500000000, -5.601562500000, 1491903792
0.133300781250, 0.105957031250, -0.934814453125, 9.296875000000, -2.812500000000, -5.601562500000, 1491903792
0.133300781250, 0.105957031250, -0.934814453125, 9.296875000000, -2.812500000000, -5.601562500000, 1491903792
0.075439453125, 0.152343750000, -0.930419921875, 19.531250000000, 4.406250000000, -8.101562500000, 1491903792
0.075439453125, 0.152343750000, -0.930419921875, 19.531250000000, 4.406250000000, -8.101562500000, 1491903792
0.075439453125, 0.152343750000, -0.930419921875, 19.531250000000, 4.406250000000, -8.101562500000, 1491903792
0.099609375000, 0.254150390625, -0.926757812500, 13.375000000000, 3.250000000000, -7.023437500000, 1491903792
0.099609375000, 0.254150390625, -0.926757812500, 13.375000000000, 3.250000000000, -7.023437500000, 1491903792
0.099609375000, 0.254150390625, -0.926757812500, 13.375000000000, 3.250000000000, -7.023437500000, 1491903792
0.054687500000, 0.162353515625, -1.001708984375, -4.312500000000, -2.523437500000, -1.039062500000, 1491903792
0.054687500000, 0.162353515625, -1.001708984375, -4.312500000000, -2.523437500000, -1.039062500000, 1491903792
0.054687500000, 0.162353515625, -1.001708984375, -4.312500000000, -2.523437500000, -1.039062500000, 1491903792
0.054687500000, 0.162353515625, -1.001708984375, -4.312500000000, -2.523437500000, -1.039062500000, 1491903792
0.054687500000, 0.162353515625, -1.001708984375, -4.312500000000, -2.523437500000, -1.039062500000, 1491903792
0.092773437500, 0.182128906250, -1.003173828125, -1.062500000000, -0.585937500000, -4.375000000000, 1491903792
0.060302734375, 0.216552734375, -0.911132812500, 1.281250000000, 1.578125000000, -1.570312500000, 1491903792
0.060302734375, 0.216552734375, -0.911132812500, 1.281250000000, 1.578125000000, -1.570312500000, 1491903792
0.060302734375, 0.216552734375, -0.911132812500, 1.281250000000, 1.578125000000, -1.570312500000, 1491903792
0.060302734375, 0.216552734375, -0.911132812500, 1.281250000000, 1.578125000000, -1.570312500000, 1491903792
-0.027099609375, 0.201416015625, -1.024414062500, -5.757812500000, 12.992187500000, -6.820312500000, 1491903792
-0.027099609375, 0.201416015625, -1.024414062500, -5.757812500000, 12.992187500000, -6.820312500000, 1491903792
-0.027099609375, 0.201416015625, -1.024414062500, -5.757812500000, 12.992187500000, -6.820312500000, 1491903792
0.042236328125, 0.259521484375, -1.020751953125, -18.820312500000, 4.843750000000, 17.968750000000, 1491903792
0.042236328125, 0.259521484375, -1.020751953125, -18.820312500000, 4.843750000000, 17.968750000000, 1491903792
0.042236328125, 0.259521484375, -1.020751953125, -18.820312500000, 4.843750000000, 17.968750000000, 1491903792
0.042236328125, 0.259521484375, -1.020751953125, -18.820312500000, 4.843750000000, 17.968750000000, 1491903792
0.042236328125, 0.259521484375, -1.020751953125, -18.820312500000, 4.843750000000, 17.968750000000, 1491903792
0.042236328125, 0.259521484375, -1.020751953125, -18.820312500000, 4.843750000000, 17.968750000000, 1491903792
0.121337890625, 0.211425781250, -0.980468750000, -26.890625000000, 8.156250000000, 26.031250000000, 1491903792
0.121337890625, 0.211425781250, -0.980468750000, -26.890625000000, 8.156250000000, 26.031250000000, 1491903792
0.121337890625, 0.211425781250, -0.980468750000, -26.890625000000, 8.156250000000, 26.031250000000, 1491903792
0.121337890625, 0.211425781250, -0.980468750000, -26.890625000000, 8.156250000000, 26.031250000000, 1491903792
0.047607421875, 0.037109375000, -1.001220703125, -31.226562500000, 0.117187500000, 14.828125000000, 1491903792
0.047607421875, 0.037109375000, -1.001220703125, -31.226562500000, 0.117187500000, 14.828125000000, 1491903792
0.047607421875, 0.037109375000, -1.001220703125, -31.226562500000, 0.117187500000, 14.828125000000, 1491903792
0.072265625000, 0.063232421875, -0.930175781250, -36.460937500000, -6.039062500000, 5.117187500000, 1491903792
0.072265625000, 0.063232421875, -0.930175781250, -36.460937500000, -6.039062500000, 5.117187500000, 1491903792
0.072265625000, 0.063232421875, -0.930175781250, -36.460937500000, -6.039062500000, 5.117187500000, 1491903792
0.072265625000, 0.063232421875, -0.930175781250, -36.460937500000, -6.039062500000, 5.117187500000, 1491903792
0.060058593750, 0.053466796875, -1.018798828125, -28.492187500000, -6.093750000000, 8.781250000000, 1491903792
0.175537109375, 0.187988281250, -1.015380859375, -10.250000000000, 0.609375000000, 4.843750000000, 1491903792
0.175537109375, 0.187988281250, -1.015380859375, -10.250000000000, 0.609375000000, 4.843750000000, 1491903792
0.175537109375, 0.187988281250, -1.015380859375, -10.250000000000, 0.609375000000, 4.843750000000, 1491903792
0.175537109375, 0.187988281250, -1.015380859375, -10.250000000000, 0.609375000000, 4.843750000000, 1491903792
0.052001953125, 0.046630859375, -0.997314453125, -20.359375000000, 6.257812500000, -2.242187500000, 1491903792
0.052001953125, 0.046630859375, -0.997314453125, -20.359375000000, 6.257812500000, -2.242187500000, 1491903792
0.052001953125, 0.046630859375, -0.997314453125, -26.507812500000, 6.406250000000, -8.445312500000, 1491903792
0.101806640625, -0.002441406250, -1.113281250000, -23.468750000000, -9.039062500000, 13.273437500000, 1491903792
0.101806640625, -0.002441406250, -1.113281250000, -23.468750000000, -9.039062500000, 13.273437500000, 1491903792
0.101806640625, -0.002441406250, -1.113281250000, -23.468750000000, -9.039062500000, 13.273437500000, 1491903792
0.101806640625, -0.002441406250, -1.113281250000, -104.132812500000, -256.000000000000, -170.609375000000, 1491903792
-0.986083984375, -1.215820312500, -0.385498046875, 211.914062500000, 76.687500000000, 179.664062500000, 1491903792
-0.986083984375, -1.215820312500, -0.385498046875, 211.914062500000, 76.687500000000, 179.664062500000, 1491903792
-0.986083984375, -1.215820312500, -0.385498046875, 211.914062500000, 76.687500000000, 179.664062500000, 1491903792
-0.986083984375, -1.215820312500, -0.385498046875, 211.914062500000, 76.687500000000, 179.664062500000, 1491903792
-0.507324218750, 0.406005859375, -1.536865234375, 44.320312500000, 32.882812500000, -48.937500000000, 1491903792
-0.507324218750, 0.406005859375, -1.536865234375, 44.320312500000, 32.882812500000, -48.937500000000, 1491903792
0.014648437500, 0.053222656250, -0.961914062500, 14.000000000000, 79.273437500000, -111.695312500000, 1491903792
0.156005859375, 0.111572265625, -0.762695312500, -26.539062500000, 37.546875000000, -13.312500000000, 1491903792
0.156005859375, 0.111572265625, -0.762695312500, -26.539062500000, 37.546875000000, -13.312500000000, 1491903792
0.156005859375, 0.111572265625, -0.762695312500, -26.539062500000, 37.546875000000, -13.312500000000, 1491903792
0.156005859375, 0.111572265625, -0.762695312500, -26.539062500000, 37.546875000000, -13.312500000000, 1491903793
-0.007568359375, 0.193115234375, -1.083740234375, -11.835937500000, 23.921875000000, -3.476562500000, 1491903793
-0.007568359375, 0.193115234375, -1.083740234375, -11.835937500000, 23.921875000000, -3.476562500000, 1491903793
-0.007568359375, 0.193115234375, -1.083740234375, -11.835937500000, 23.921875000000, -3.476562500000, 1491903793
-0.007568359375, 0.193115234375, -1.083740234375, -11.835937500000, 23.921875000000, -3.476562500000, 1491903793
0.062011718750, 0.229248046875, -0.954833984375, 7.835937500000, -6.609375000000, -2.968750000000, 1491903793
0.142578125000, 0.273925781250, -0.926513671875, 3.460937500000, -0.515625000000, -2.578125000000, 1491903793
0.142578125000, 0.273925781250, -0.926513671875, 3.460937500000, -0.515625000000, -2.578125000000, 1491903793
0.142578125000, 0.273925781250, -0.926513671875, 3.460937500000, -0.515625000000, -2.578125000000, 1491903793
0.142578125000, 0.273925781250, -0.926513671875, 3.460937500000, -0.515625000000, -2.578125000000, 1491903793
0.142578125000, 0.273925781250, -0.926513671875, 3.460937500000, -0.515625000000, -2.578125000000, 1491903793
0.062011718750, 0.180175781250, -1.004150390625, 4.304687500000, -5.031250000000, -2.437500000000, 1491903793
0.062011718750, 0.180175781250, -1.004150390625, 4.304687500000, -5.031250000000, -2.437500000000, 1491903793
0.062011718750, 0.180175781250, -1.004150390625, 4.304687500000, -5.031250000000, -2.437500000000, 1491903793
0.062011718750, 0.180175781250, -1.004150390625, 4.304687500000, -5.031250000000, -2.437500000000, 1491903793
0.062011718750, 0.180175781250, -1.004150390625, 4.304687500000, -5.031250000000, -2.437500000000, 1491903793
0.051513671875, 0.222412109375, -0.911132812500, 6.140625000000, -2.203125000000, -6.382812500000, 1491903793
0.051513671875, 0.222412109375, -0.911132812500, 6.140625000000, -2.203125000000, -6.382812500000, 1491903793
0.051513671875, 0.222412109375, -0.911132812500, 6.140625000000, -2.203125000000, -6.382812500000, 1491903793
0.051513671875, 0.222412109375, -0.911132812500, -0.898437500000, -4.726562500000, -5.445312500000, 1491903793
0.104248046875, 0.314453125000, -1.012939453125, -2.820312500000, -7.015625000000, -6.140625000000, 1491903793
0.104248046875, 0.314453125000, -1.012939453125, -2.820312500000, -7.015625000000, -6.140625000000, 1491903793
0.104248046875, 0.314453125000, -1.012939453125, -2.820312500000, -7.015625000000, -6.140625000000, 1491903793
-0.010253906250, 0.178466796875, -1.027343750000, -0.414062500000, 2.804687500000, -10.000000000000, 1491903793
-0.015380859375, 0.158447265625, -0.910156250000, -0.859375000000, 1.882812500000, -8.312500000000, 1491903793
-0.015380859375, 0.158447265625, -0.910156250000, -0.859375000000, 1.882812500000, -8.312500000000, 1491903793
-0.015380859375, 0.158447265625, -0.910156250000, -0.859375000000, 1.882812500000, -8.312500000000, 1491903793
0.031494140625, 0.266113281250, -0.907470703125, -0.664062500000, 6.671875000000, -7.585937500000, 1491903793
0.031494140625, 0.266113281250, -0.907470703125, -0.664062500000, 6.671875000000, -7.585937500000, 1491903793
0.031494140625, 0.266113281250, -0.907470703125, -0.664062500000, 6.671875000000, -7.585937500000, 1491903793
0.031494140625, 0.266113281250, -0.907470703125, -0.664062500000, 6.671875000000, -7.585937500000, 1491903793
0.031494140625, 0.266113281250, -0.907470703125, -0.664062500000, 6.671875000000, -7.585937500000, 1491903793
-0.021240234375, 0.270996093750, -1.004882812500, 2.273437500000, 4.179687500000, -10.968750000000, 1491903793
-0.021240234375, 0.270996093750, -1.004882812500, 2.273437500000, 4.179687500000, -10.968750000000, 1491903793
-0.021240234375, 0.270996093750, -1.004882812500, 2.273437500000, 4.179687500000, -10.968750000000, 1491903793
-0.021240234375, 0.270996093750, -1.004882812500, 2.273437500000, 4.179687500000, -10.968750000000, 1491903793
0.055175781250, 0.157714843750, -1.025146484375, -4.632812500000, 3.671875000000, -4.523437500000, 1491903793
0.055175781250, 0.157714843750, -1.025146484375, -4.632812500000, 3.671875000000, -4.523437500000, 1491903793
0.055175781250, 0.157714843750, -1.025146484375, -4.632812500000, 3.671875000000, -4.523437500000, 1491903793
0.079345703125, 0.332275390625, -0.930419921875, -2.382812500000, 0.460937500000, -3.531250000000, 1491903793
0.049560546875, 0.288574218750, -0.930175781250, -4.257812500000, -2.101562500000, -8.718750000000, 1491903793
-0.015625000000, 0.324462890625, -0.967529296875, -2.484375000000, -1.578125000000, 0.906250000000, 1491903793
-0.015625000000, 0.324462890625, -0.967529296875, -2.484375000000, -1.578125000000, 0.906250000000, 1491903793
0.066894531250, 0.243408203125, -0.929931640625, -6.507812500000, 1.578125000000, -4.843750000000, 1491903793
-0.012207031250, 0.225830078125, -0.950683593750, -4.703125000000, 3.351562500000, -4.398437500000, 1491903793
-0.012207031250, 0.225830078125, -0.950683593750, -4.703125000000, 3.351562500000, -4.398437500000, 1491903793
-0.012207031250, 0.225830078125, -0.950683593750, -4.703125000000, 3.351562500000, -4.398437500000, 1491903793
-0.012207031250, 0.225830078125, -0.950683593750, -4.703125000000, 3.351562500000, -4.398437500000, 1491903793
-0.012207031250, 0.225830078125, -0.950683593750, -4.703125000000, 3.351562500000, -4.398437500000, 1491903793
-0.071289062500, 0.289794921875, -0.945068359375, -4.546875000000, 3.187500000000, -5.109375000000, 1491903793
-0.071289062500, 0.289794921875, -0.945068359375, -4.546875000000, 3.187500000000, -5.109375000000, 1491903793
-0.071289062500, 0.289794921875, -0.945068359375, -4.546875000000, 3.187500000000, -5.109375000000, 1491903793
0.067138671875, 0.319580078125, -1.011230468750, 0.023437500000, 1.156250000000, -6.398437500000, 1491903793
0.067138671875, 0.319580078125, -1.011230468750, 0.023437500000, 1.156250000000, -6.398437500000, 1491903793
0.067138671875, 0.319580078125, -1.011230468750, 0.023437500000, 1.156250000000, -6.398437500000, 1491903793
0.067138671875, 0.319580078125, -1.011230468750, 0.023437500000, 1.156250000000, -6.398437500000, 1491903793
0.067138671875, 0.319580078125, -1.011230468750, 0.023437500000, 1.156250000000, -6.398437500000, 1491903793
0.032714843750, 0.247802734375, -0.949218750000, -4.171875000000, 3.265625000000, -4.515625000000, 1491903793
0.032714843750, 0.247802734375, -0.949218750000, -4.171875000000, 3.265625000000, -4.515625000000, 1491903793
0.032714843750, 0.247802734375, -0.949218750000, -4.554687500000, 5.125000000000, -6.476562500000, 1491903793
0.088378906250, 0.284667968750, -0.893798828125, -1.257812500000, -0.257812500000, -5.382812500000, 1491903793
0.036865234375, 0.230712890625, -0.874267578125, -2.468750000000, 1.500000000000, -5.531250000000, 1491903793
0.036865234375, 0.230712890625, -0.874267578125, -2.468750000000, 1.500000000000, -5.531250000000, 1491903793
0.140380859375, 0.282714843750, -0.916748046875, -4.421875000000, 1.476562500000, -8.335937500000, 1491903793
0.070068359375, 0.232421875000, -0.918945312500, -2.726562500000, 0.867187500000, -7.960937500000, 1491903793
0.070068359375, 0.232421875000, -0.918945312500, -2.726562500000, 0.867187500000, -7.960937500000, 1491903793
0.070068359375, 0.232421875000, -0.918945312500, -2.726562500000, 0.867187500000, -7.960937500000, 1491903793
0.070068359375, 0.232421875000, -0.918945312500, -2.726562500000, 0.867187500000, -7.960937500000, 1491903793
0.070068359375, 0.232421875000, -0.918945312500, -2.726562500000, 0.867187500000, -7.960937500000, 1491903793
-0.005371093750, 0.250000000000, -0.984619140625, -0.757812500000, -2.148437500000, -3.210937500000, 1491903793
0.063720703125, 0.234130859375, -0.953613281250, 0.023437500000, -0.046875000000, -3.335937500000, 1491903793
0.063720703125, 0.234130859375, -0.953613281250, 0.023437500000, -0.046875000000, -3.335937500000, 1491903793
0.063720703125, 0.234130859375, -0.953613281250, 0.023437500000, -0.046875000000, -3.335937500000, 1491903793
0.063720703125, 0.234130859375, -0.953613281250, 0.023437500000, -0.046875000000, -3.335937500000, 1491903793
0.063720703125, 0.234130859375, -0.953613281250, 0.023437500000, -0.046875000000, -3.335937500000, 1491903794
0.135009765625, 0.401367187500, -0.966796875000, -4.078125000000, -0.609375000000, -4.820312500000, 1491903794
0.135009765625, 0.401367187500, -0.966796875000, -4.078125000000, -0.609375000000, -4.820312500000, 1491903794
0.135009765625, 0.401367187500, -0.966796875000, -4.078125000000, -0.609375000000, -4.820312500000, 1491903794
-0.000000000000, 0.314697265625, -1.004394531250, -4.281250000000, 2.132812500000, -3.632812500000, 1491903794
-0.000000000000, 0.314697265625, -1.004394531250, -4.281250000000, 2.132812500000, -3.632812500000, 1491903794
-0.000000000000, 0.314697265625, -1.004394531250, -4.281250000000, 2.132812500000, -3.632812500000, 1491903794
-0.000000000000, 0.314697265625, -1.004394531250, -4.281250000000, 2.132812500000, -3.632812500000, 1491903794
-0.011718750000, 0.289062500000, -0.894042968750, -8.382812500000, -2.562500000000, -3.304687500000, 1491903794
0.137451171875, 0.248046875000, -0.953613281250, -4.703125000000, 1.734375000000, -1.218750000000, 1491903794
0.137451171875, 0.248046875000, -0.953613281250, -4.703125000000, 1.734375000000, -1.218750000000, 1491903794
0.137451171875, 0.248046875000, -0.953613281250, -4.703125000000, 1.734375000000, -1.218750000000, 1491903794
0.137451171875, 0.248046875000, -0.953613281250, -2.562500000000, 0.921875000000, -6.093750000000, 1491903794
0.059326171875, 0.242675781250, -0.962402343750, -1.781250000000, -0.882812500000, -5.257812500000, 1491903794
0.059326171875, 0.242675781250, -0.962402343750, -1.781250000000, -0.882812500000, -5.257812500000, 1491903794
0.059326171875, 0.242675781250, -0.962402343750, -1.781250000000, -0.882812500000, -5.257812500000, 1491903794
0.036132812500, 0.333007812500, -0.922363281250, -1.976562500000, 0.296875000000, -3.109375000000, 1491903794
0.058349609375, 0.325927734375, -0.874511718750, -1.945312500000, 2.367187500000, -3.414062500000, 1491903794
0.058349609375, 0.325927734375, -0.874511718750, -1.945312500000, 2.367187500000, -3.414062500000, 1491903794
0.058349609375, 0.325927734375, -0.874511718750, -1.945312500000, 2.367187500000, -3.414062500000, 1491903794
-0.006835937500, 0.278564453125, -0.870361328125, -2.750000000000, 2.484375000000, -3.375000000000, 1491903794
-0.006835937500, 0.278564453125, -0.870361328125, -2.750000000000, 2.484375000000, -3.375000000000, 1491903794
-0.006835937500, 0.278564453125, -0.870361328125, -2.750000000000, 2.484375000000, -3.375000000000, 1491903794
-0.006835937500, 0.278564453125, -0.870361328125, -2.750000000000, 2.484375000000, -3.375000000000, 1491903794
0.093017578125, 0.259033203125, -0.952392578125, -1.281250000000, 2.328125000000, -1.062500000000, 1491903794
0.093017578125, 0.259033203125, -0.952392578125, -1.281250000000, 2.328125000000, -1.062500000000, 1491903794
0.093017578125, 0.259033203125, -0.952392578125, -1.281250000000, 2.328125000000, -1.062500000000, 1491903794
0.093017578125, 0.259033203125, -0.952392578125, -1.281250000000, 2.328125000000, -1.062500000000, 1491903794
0.093017578125, 0.259033203125, -0.952392578125, -1.281250000000, 2.328125000000, -1.062500000000, 1491903794
0.047851562500, 0.319824218750, -0.982910156250, -1.242187500000, 2.460937500000, -3.921875000000, 1491903794
0.047851562500, 0.319824218750, -0.982910156250, -1.242187500000, 2.460937500000, -3.921875000000, 1491903794
0.047851562500, 0.319824218750, -0.982910156250, -1.242187500000, 2.460937500000, -3.921875000000, 1491903794
0.047851562500, 0.319824218750, -0.982910156250, -1.242187500000, 2.460937500000, -3.921875000000, 1491903794
0.047851562500, 0.319824218750, -0.982910156250, -1.242187500000, 2.460937500000, -3.921875000000, 1491903794
-0.017089843750, 0.386718750000, -0.958251953125, -4.640625000000, 2.750000000000, -8.328125000000, 1491903794
-0.017089843750, 0.386718750000, -0.958251953125, -4.640625000000, 2.750000000000, -8.328125000000, 1491903794
-0.017089843750, 0.386718750000, -0.958251953125, -4.640625000000, 2.750000000000, -8.328125000000, 1491903794
-0.017089843750, 0.386718750000, -0.958251953125, -4.640625000000, 2.750000000000, -8.328125000000, 1491903794
-0.017089843750, 0.386718750000, -0.958251953125, -4.640625000000, 2.750000000000, -8.328125000000, 1491903794
-0.017089843750, 0.386718750000, -0.958251953125, -4.640625000000, 2.750000000000, -8.328125000000, 1491903794
0.146728515625, 0.325683593750, -1.000000000000, -3.742187500000, -0.460937500000, -3.718750000000, 1491903794
0.146728515625, 0.325683593750, -1.000000000000, -3.742187500000, -0.460937500000, -3.718750000000, 1491903794
0.146728515625, 0.325683593750, -1.000000000000, -3.742187500000, -0.460937500000, -3.718750000000, 1491903794
0.077148437500, 0.321044921875, -0.941162109375, -1.781250000000, 0.687500000000, -6.210937500000, 1491903794
0.077148437500, 0.321044921875, -0.941162109375, -1.781250000000, 0.687500000000, -6.210937500000, 1491903794
0.077148437500, 0.321044921875, -0.941162109375, -1.781250000000, 0.687500000000, -6.210937500000, 1491903794
0.077148437500, 0.321044921875, -0.941162109375, -1.781250000000, 0.687500000000, -6.210937500000, 1491903794
0.150146484375, 0.247802734375, -0.963867187500, -4.546875000000, 2.070312500000, -6.523437500000, 1491903794
0.150146484375, 0.247802734375, -0.963867187500, -4.546875000000, 2.070312500000, -6.523437500000, 1491903794
0.150146484375, 0.247802734375, -0.963867187500, -4.546875000000, 2.070312500000, -6.523437500000, 1491903794
0.096923828125, 0.340087890625, -0.945068359375, -3.156250000000, 0.757812500000, -6.093750000000, 1491903794
0.096923828125, 0.340087890625, -0.945068359375, -3.156250000000, 0.757812500000, -6.093750000000, 1491903794
0.096923828125, 0.340087890625, -0.945068359375, -3.156250000000, 0.757812500000, -6.093750000000, 1491903794
0.067382812500, 0.223632812500, -0.939941406250, -6.148437500000, -0.171875000000, -5.937500000000, 1491903794
0.067382812500, 0.223632812500, -0.939941406250, -6.148437500000, -0.171875000000, -5.937500000000, 1491903794
0.067382812500, 0.223632812500, -0.939941406250, -6.148437500000, -0.171875000000, -5.937500000000, 1491903794
-0.012695312500, 0.321289062500, -0.940185546875, -3.796875000000, 0.179687500000, -2.867187500000, 1491903794
-0.012695312500, 0.321289062500, -0.940185546875, -3.796875000000, 0.179687500000, -2.867187500000, 1491903794
0.133056640625, 0.341796875000, -0.979736328125, -2.968750000000, 0.445312500000, 0.007812500000, 1491903794
0.133056640625, 0.341796875000, -0.979736328125, -2.968750000000, 0.445312500000, 0.007812500000, 1491903794
0.133056640625, 0.341796875000, -0.979736328125, -2.968750000000, 0.445312500000, 0.007812500000, 1491903794
0.133056640625, 0.341796875000, -0.979736328125, -2.968750000000, 0.445312500000, 0.007812500000, 1491903794
0.060302734375, 0.300537109375, -0.929199218750, -2.281250000000, -0.500000000000, -6.531250000000, 1491903794
0.060302734375, 0.300537109375, -0.929199218750, -2.281250000000, -0.500000000000, -6.531250000000, 1491903794
0.060302734375, 0.300537109375, -0.929199218750, -2.281250000000, -0.500000000000, -6.531250000000, 1491903794
0.060302734375, 0.300537109375, -0.929199218750, -2.281250000000, -0.500000000000, -6.531250000000, 1491903794
0.066894531250, 0.293701171875, -0.924804687500, -4.132812500000, 4.234375000000, -6.343750000000, 1491903795
0.066894531250, 0.293701171875, -0.924804687500, -4.132812500000, 4.234375000000, -6.343750000000, 1491903795
-0.003417968750, 0.239013671875, -0.864990234375, -4.578125000000, 1.078125000000, -8.039062500000, 1491903795
0.142333984375, 0.347167968750, -0.936035156250, -3.023437500000, 0.968750000000, 0.296875000000, 1491903795
0.142333984375, 0.347167968750, -0.936035156250, -3.023437500000, 0.968750000000, 0.296875000000, 1491903795
0.032714843750, 0.320556640625, -0.963867187500, -4.328125000000, -0.367187500000, -4.843750000000, 1491903795
-0.006835937500, 0.311035156250, -0.919921875000, -6.484375000000, 2.445312500000, -1.929687500000, 1491903795
-0.006835937500, 0.311035156250, -0.919921875000, -6.484375000000, 2.445312500000, -1.929687500000, 1491903795
-0.006835937500, 0.311035156250, -0.919921875000, -6.484375000000, 2.445312500000, -1.929687500000, 1491903795
-0.006835937500, 0.311035156250, -0.919921875000, -6.484375000000, 2.445312500000, -1.929687500000, 1491903795
0.091308593750, 0.317871093750, -0.942382812500, -2.851562500000, -1.343750000000, -6.343750000000, 1491903795
0.138427734375, 0.236083984375, -0.928222656250, -2.851562500000, -1.343750000000, -6.343750000000, 1491903795
0.138427734375, 0.236083984375, -0.928222656250, -2.851562500000, -1.343750000000, -6.343750000000, 1491903795
0.138427734375, 0.236083984375, -0.928222656250, -2.851562500000, -1.343750000000, -6.343750000000, 1491903795
0.138427734375, 0.236083984375, -0.928222656250, -2.851562500000, -1.343750000000, -6.343750000000, 1491903795
0.132568359375, 0.249267578125, -0.864501953125, -1.882812500000, 2.812500000000, -4.031250000000, 1491903795
0.089843750000, 0.340576171875, -0.856933593750, -4.679687500000, 2.250000000000, -6.890625000000, 1491903795
0.126220703125, 0.216796875000, -0.953857421875, -3.359375000000, -0.539062500000, -5.023437500000, 1491903795
0.029785156250, 0.229003906250, -0.896728515625, -4.281250000000, -0.281250000000, -4.960937500000, 1491903795
0.029785156250, 0.229003906250, -0.896728515625, -4.281250000000, -0.281250000000, -4.960937500000, 1491903795
0.029785156250, 0.229003906250, -0.896728515625, -4.281250000000, -0.281250000000, -4.960937500000, 1491903795
0.029785156250, 0.229003906250, -0.896728515625, -4.281250000000, -0.281250000000, -4.960937500000, 1491903795
0.029785156250, 0.229003906250, -0.896728515625, -4.281250000000, -0.281250000000, -4.960937500000, 1491903795
0.029785156250, 0.229003906250, -0.896728515625, -4.281250000000, -0.281250000000, -4.960937500000, 1491903795
0.029785156250, 0.229003906250, -0.896728515625, -4.281250000000, -0.281250000000, -4.960937500000, 1491903795
0.029785156250, 0.229003906250, -0.896728515625, -4.281250000000, -0.281250000000, -4.960937500000, 1491903795
0.029785156250, 0.229003906250, -0.896728515625, -4.281250000000, -0.281250000000, -4.960937500000, 1491903795
0.115234375000, 0.290527343750, -0.928710937500, -4.539062500000, 0.671875000000, -5.164062500000, 1491903795
0.115234375000, 0.290527343750, -0.928710937500, -4.539062500000, 0.671875000000, -5.164062500000, 1491903795
0.115234375000, 0.290527343750, -0.928710937500, -4.539062500000, 0.671875000000, -5.164062500000, 1491903795
0.115234375000, 0.290527343750, -0.928710937500, -4.539062500000, 0.671875000000, -5.164062500000, 1491903795
0.115234375000, 0.290527343750, -0.928710937500, -4.539062500000, 0.671875000000, -5.164062500000, 1491903795
0.115234375000, 0.290527343750, -0.928710937500, -4.539062500000, 0.671875000000, -5.164062500000, 1491903795
0.079101562500, 0.396484375000, -1.017822265625, -4.742187500000, -2.109375000000, -8.593750000000, 1491903795
0.079101562500, 0.396484375000, -1.017822265625, -4.742187500000, -2.109375000000, -8.593750000000, 1491903795
0.049804687500, 0.304687500000, -0.855957031250, -4.226562500000, 1.429687500000, -4.757812500000, 1491903795
0.049804687500, 0.304687500000, -0.855957031250, -4.226562500000, 1.429687500000, -4.757812500000, 1491903795
0.049804687500, 0.304687500000, -0.855957031250, -4.226562500000, 1.429687500000, -4.757812500000, 1491903795
0.049804687500, 0.304687500000, -0.855957031250, -4.226562500000, 1.429687500000, -4.757812500000, 1491903795
0.104003906250, 0.287597656250, -0.961669921875, -6.054687500000, 1.929687500000, -6.195312500000, 1491903795
0.104003906250, 0.287597656250, -0.961669921875, -6.054687500000, 1.929687500000, -6.195312500000, 1491903795
0.104003906250, 0.287597656250, -0.961669921875, -6.054687500000, 1.929687500000, -6.195312500000, 1491903795
0.125488281250, 0.305664062500, -0.954101562500, -3.039062500000, -0.914062500000, -4.718750000000, 1491903795
0.125488281250, 0.305664062500, -0.954101562500, -3.039062500000, -0.914062500000, -4.718750000000, 1491903795
0.125488281250, 0.305664062500, -0.954101562500, -3.039062500000, -0.914062500000, -4.718750000000, 1491903795
0.125488281250, 0.305664062500, -0.954101562500, -3.039062500000, -0.914062500000, -4.718750000000, 1491903795
0.090332031250, 0.224853515625, -0.933349609375, -4.320312500000, -0.507812500000, -6.664062500000, 1491903795
0.090332031250, 0.224853515625, -0.933349609375, -4.320312500000, -0.507812500000, -6.664062500000, 1491903795
0.090332031250, 0.224853515625, -0.933349609375, -4.320312500000, -0.507812500000, -6.664062500000, 1491903795
0.065673828125, 0.343017578125, -0.917480468750, -4.851562500000, 2.789062500000, -4.523437500000, 1491903795
0.065673828125, 0.343017578125, -0.917480468750, -4.851562500000, 2.789062500000, -4.523437500000, 1491903795
0.065673828125, 0.343017578125, -0.917480468750, -4.851562500000, 2.789062500000, -4.523437500000, 1491903795
0.087646484375, 0.338623046875, -0.920654296875, -1.414062500000, 0.328125000000, -6.218750000000, 1491903795
0.087646484375, 0.338623046875, -0.920654296875, -1.414062500000, 0.328125000000, -6.218750000000, 1491903795
0.087646484375, 0.338623046875, -0.920654296875, -1.414062500000, 0.328125000000, -6.218750000000, 1491903795
-0.012939453125, 0.286865234375, -0.925537109375, -4.289062500000, -0.335937500000, -3.492187500000, 1491903795
-0.012939453125, 0.286865234375, -0.925537109375, -4.289062500000, -0.335937500000, -3.492187500000, 1491903795
-0.012939453125, 0.286865234375, -0.925537109375, -4.289062500000, -0.335937500000, -3.492187500000, 1491903795
-0.012939453125, 0.286865234375, -0.925537109375, -4.289062500000, -0.335937500000, -3.492187500000, 1491903795
0.210693359375, 0.313232421875, -0.958496093750, -4.171875000000, 1.601562500000, -2.843750000000, 1491903795
0.210693359375, 0.313232421875, -0.958496093750, -4.171875000000, 1.601562500000, -2.843750000000, 1491903795
0.210693359375, 0.313232421875, -0.958496093750, -4.171875000000, 1.601562500000, -2.843750000000, 1491903795
0.083007812500, 0.274169921875, -0.921142578125, -4.460937500000, -0.468750000000, -2.000000000000, 1491903795
0.083007812500, 0.274169921875, -0.921142578125, -4.460937500000, -0.468750000000, -2.000000000000, 1491903795
0.083007812500, 0.274169921875, -0.921142578125, -4.460937500000, -0.468750000000, -2.000000000000, 1491903795
-0.002441406250, 0.321289062500, -0.958007812500, 0.750000000000, 0.804687500000, -3.382812500000, 1491903795
-0.002441406250, 0.321289062500, -0.958007812500, 0.750000000000, 0.804687500000, -3.382812500000, 1491903795
-0.002441406250, 0.321289062500, -0.958007812500, 0.750000000000, 0.804687500000, -3.382812500000, 1491903796
0.141357421875, 0.315185546875, -1.001464843750, -3.000000000000, 4.289062500000, -3.421875000000, 1491903796
0.141357421875, 0.315185546875, -1.001464843750, -3.000000000000, 4.289062500000, -3.421875000000, 1491903796
0.141357421875, 0.315185546875, -1.001464843750, -3.000000000000, 4.289062500000, -3.421875000000, 1491903796
0.141357421875, 0.315185546875, -1.001464843750, -3.000000000000, 4.289062500000, -3.421875000000, 1491903796
0.153320312500, 0.322021484375, -0.931884765625, -1.406250000000, 2.265625000000, -4.921875000000, 1491903796
0.153320312500, 0.322021484375, -0.931884765625, -1.406250000000, 2.265625000000, -4.921875000000, 1491903796
0.153320312500, 0.322021484375, -0.931884765625, -1.406250000000, 2.265625000000, -4.921875000000, 1491903796
