ACC_X,ACC_Y,ACC_Z,G_X,G_Y,G_Z,Unix Time
-0.085205078125, -0.915039062500, 0.413574218750, -3.328125000000, 0.257812500000, -4.976562500000, 1491904276
-0.085205078125, -0.915039062500, 0.413574218750, -3.328125000000, 0.257812500000, -4.976562500000, 1491904276
-0.108154296875, -0.952392578125, 0.522949218750, -3.445312500000, 0.882812500000, -3.359375000000, 1491904276
-0.108154296875, -0.952392578125, 0.522949218750, -3.445312500000, 0.882812500000, -3.359375000000, 1491904276
-0.108154296875, -0.952392578125, 0.522949218750, -3.445312500000, 0.882812500000, -3.359375000000, 1491904276
-0.108154296875, -0.952392578125, 0.522949218750, -3.445312500000, 0.882812500000, -3.359375000000, 1491904276
-0.128417968750, -0.898193359375, 0.433349609375, -1.679687500000, 0.289062500000, -1.054687500000, 1491904276
-0.128417968750, -0.898193359375, 0.433349609375, -1.679687500000, 0.289062500000, -1.054687500000, 1491904276
-0.128417968750, -0.898193359375, 0.433349609375, -1.679687500000, 0.289062500000, -1.054687500000, 1491904276
-0.128417968750, -0.898193359375, 0.433349609375, -1.679687500000, 0.289062500000, -1.054687500000, 1491904276
-0.110107421875, -0.951660156250, 0.433105468750, -1.367187500000, -1.062500000000, -5.101562500000, 1491904276
-0.110107421875, -0.951660156250, 0.433105468750, -1.367187500000, -1.062500000000, -5.101562500000, 1491904276
-0.110107421875, -0.951660156250, 0.433105468750, -1.367187500000, -1.062500000000, -5.101562500000, 1491904276
-0.147949218750, -0.908935546875, 0.472412109375, -2.492187500000, -2.257812500000, -5.632812500000, 1491904276
-0.147949218750, -0.908935546875, 0.472412109375, -2.492187500000, -2.257812500000, -5.632812500000, 1491904276
-0.147949218750, -0.908935546875, 0.472412109375, -2.492187500000, -2.257812500000, -5.632812500000, 1491904276
-0.108886718750, -0.856689453125, 0.459960937500, -4.851562500000, -2.648437500000, -6.093750000000, 1491904276
-0.108886718750, -0.856689453125, 0.459960937500, -4.851562500000, -2.648437500000, -6.093750000000, 1491904276
-0.108886718750, -0.856689453125, 0.459960937500, -4.851562500000, -2.648437500000, -6.093750000000, 1491904276
-0.070556640625, -0.934814453125, 0.420898437500, -1.648437500000, -0.406250000000, -6.492187500000, 1491904277
-0.070556640625, -0.934814453125, 0.420898437500, -1.648437500000, -0.406250000000, -6.492187500000, 1491904277
-0.062255859375, -0.863769531250, 0.409423828125, -4.046875000000, 0.507812500000, -3.242187500000, 1491904277
-0.062255859375, -0.863769531250, 0.409423828125, -4.046875000000, 0.507812500000, -3.242187500000, 1491904277
-0.062255859375, -0.863769531250, 0.409423828125, -4.046875000000, 0.507812500000, -3.242187500000, 1491904277
-0.062255859375, -0.863769531250, 0.409423828125, -4.046875000000, 0.507812500000, -3.242187500000, 1491904277
-0.080078125000, -0.852539062500, 0.406738281250, -4.585937500000, -2.218750000000, -5.773437500000, 1491904277
-0.080078125000, -0.852539062500, 0.406738281250, -4.585937500000, -2.218750000000, -5.773437500000, 1491904277
-0.080078125000, -0.852539062500, 0.406738281250, -4.585937500000, -2.218750000000, -5.773437500000, 1491904277
-0.080078125000, -0.852539062500, 0.406738281250, -4.585937500000, -2.218750000000, -5.773437500000, 1491904277
-0.057128906250, -0.902099609375, 0.583007812500, -4.546875000000, 7.164062500000, -6.085937500000, 1491904277
-0.057128906250, -0.902099609375, 0.583007812500, -4.546875000000, 7.164062500000, -6.085937500000, 1491904277
-0.057128906250, -0.902099609375, 0.583007812500, -4.546875000000, 7.164062500000, -6.085937500000, 1491904277
-0.091064453125, -0.833984375000, 0.518798828125, -3.242187500000, 4.179687500000, -3.398437500000, 1491904277
-0.091064453125, -0.833984375000, 0.518798828125, -3.242187500000, 4.179687500000, -3.398437500000, 1491904277
-0.091064453125, -0.833984375000, 0.518798828125, -3.242187500000, 4.179687500000, -3.398437500000, 1491904277
-0.091064453125, -0.833984375000, 0.518798828125, -3.242187500000, 4.179687500000, -3.398437500000, 1491904277
-0.053955078125, -0.961669921875, 0.483154296875, -1.226562500000, -0.921875000000, -4.679687500000, 1491904277
-0.053955078125, -0.961669921875, 0.483154296875, -1.226562500000, -0.921875000000, -4.679687500000, 1491904277
-0.053955078125, -0.961669921875, 0.483154296875, -1.226562500000, -0.921875000000, -4.679687500000, 1491904277
-0.137451171875, -0.966796875000, 0.409423828125, -4.648437500000, -0.945312500000, -5.984375000000, 1491904277
-0.137451171875, -0.966796875000, 0.409423828125, -4.648437500000, -0.945312500000, -5.984375000000, 1491904277
-0.137451171875, -0.966796875000, 0.409423828125, -4.648437500000, -0.945312500000, -5.984375000000, 1491904277
-0.071533203125, -0.868652343750, 0.428955078125, -4.976562500000, 2.171875000000, -8.671875000000, 1491904277
-0.071533203125, -0.868652343750, 0.428955078125, -4.976562500000, 2.171875000000, -8.671875000000, 1491904277
-0.145263671875, -0.878662109375, 0.486816406250, -4.710937500000, 2.992187500000, -8.070312500000, 1491904277
-0.145263671875, -0.878662109375, 0.486816406250, -4.710937500000, 2.992187500000, -8.070312500000, 1491904277
-0.145263671875, -0.878662109375, 0.486816406250, -4.710937500000, 2.992187500000, -8.070312500000, 1491904277
-0.145263671875, -0.878662109375, 0.486816406250, -4.710937500000, 2.992187500000, -8.070312500000, 1491904277
-0.145263671875, -0.878662109375, 0.486816406250, -4.710937500000, 2.992187500000, -8.070312500000, 1491904277
-0.125488281250, -0.940673828125, 0.521484375000, -1.570312500000, -0.226562500000, -2.000000000000, 1491904277
-0.125488281250, -0.940673828125, 0.521484375000, -1.570312500000, -0.226562500000, -2.000000000000, 1491904277
-0.125488281250, -0.940673828125, 0.521484375000, -1.570312500000, -0.226562500000, -2.000000000000, 1491904277
-0.097167968750, -0.854736328125, 0.523437500000, -3.023437500000, -0.789062500000, -1.562500000000, 1491904277
-0.097167968750, -0.854736328125, 0.523437500000, -3.023437500000, -0.789062500000, -1.562500000000, 1491904277
-0.097167968750, -0.854736328125, 0.523437500000, -3.023437500000, -0.789062500000, -1.562500000000, 1491904277
-0.058349609375, -0.881835937500, 0.429687500000, -3.046875000000, 2.453125000000, -5.156250000000, 1491904277
-0.058349609375, -0.881835937500, 0.429687500000, -3.046875000000, 2.453125000000, -5.156250000000, 1491904277
-0.058349609375, -0.881835937500, 0.429687500000, -3.046875000000, 2.453125000000, -5.156250000000, 1491904277
0.029541015625, -0.866210937500, 0.469482421875, -4.453125000000, -0.828125000000, -6.531250000000, 1491904277
0.029541015625, -0.866210937500, 0.469482421875, -4.453125000000, -0.828125000000, -6.531250000000, 1491904277
0.029541015625, -0.866210937500, 0.469482421875, -4.453125000000, -0.828125000000, -6.531250000000, 1491904277
0.009277343750, -0.920898437500, 0.523437500000, -1.789062500000, -0.890625000000, -5.382812500000, 1491904277
0.009277343750, -0.920898437500, 0.523437500000, -1.789062500000, -0.890625000000, -5.382812500000, 1491904277
0.009277343750, -0.920898437500, 0.523437500000, -1.789062500000, -0.890625000000, -5.382812500000, 1491904277
0.009277343750, -0.920898437500, 0.523437500000, -1.789062500000, -0.890625000000, -5.382812500000, 1491904277
-0.099853515625, -0.847900390625, 0.509277343750, -1.914062500000, 2.062500000000, -3.507812500000, 1491904277
-0.099853515625, -0.847900390625, 0.509277343750, -1.914062500000, 2.062500000000, -3.507812500000, 1491904277
-0.099853515625, -0.847900390625, 0.509277343750, -1.914062500000, 2.062500000000, -3.507812500000, 1491904277
-0.152587890625, -0.829101562500, 0.462646484375, -6.585937500000, 2.812500000000, -6.117187500000, 1491904277
-0.152587890625, -0.829101562500, 0.462646484375, -6.585937500000, 2.812500000000, -6.117187500000, 1491904277
-0.152587890625, -0.829101562500, 0.462646484375, -6.585937500000, 2.812500000000, -6.117187500000, 1491904277
-0.090087890625, -0.846191406250, 0.513183593750, -4.351562500000, -2.734375000000, -2.187500000000, 1491904277
-0.090087890625, -0.846191406250, 0.513183593750, -4.351562500000, -2.734375000000, -2.187500000000, 1491904277
-0.090087890625, -0.846191406250, 0.513183593750, -4.351562500000, -2.734375000000, -2.187500000000, 1491904277
-0.090087890625, -0.846191406250, 0.513183593750, -4.351562500000, -2.734375000000, -2.187500000000, 1491904277
-0.149169921875, -0.845214843750, 0.493652343750, -4.257812500000, -0.765625000000, -6.359375000000, 1491904277
-0.149169921875, -0.845214843750, 0.493652343750, -4.257812500000, -0.765625000000, -6.359375000000, 1491904277
-0.149169921875, -0.845214843750, 0.493652343750, -4.257812500000, -0.765625000000, -6.359375000000, 1491904277
-0.070312500000, -0.951171875000, 0.417480468750, -4.273437500000, 2.187500000000, -5.375000000000, 1491904277
-0.070312500000, -0.951171875000, 0.417480468750, -4.273437500000, 2.187500000000, -5.375000000000, 1491904277
-0.070312500000, -0.951171875000, 0.417480468750, -4.273437500000, 2.187500000000, -5.375000000000, 1491904277
-0.033935546875, -0.965820312500, 0.512451171875, -4.390625000000, 0.906250000000, -5.945312500000, 1491904277
-0.033935546875, -0.965820312500, 0.512451171875, -4.390625000000, 0.906250000000, -5.945312500000, 1491904277
-0.033935546875, -0.965820312500, 0.512451171875, -4.390625000000, 0.906250000000, -5.945312500000, 1491904277
-0.064941406250, -0.945312500000, 0.438476562500, -2.070312500000, 0.109375000000, -4.539062500000, 1491904277
-0.064941406250, -0.945312500000, 0.438476562500, -2.070312500000, 0.109375000000, -4.539062500000, 1491904277
-0.064941406250, -0.945312500000, 0.438476562500, -2.070312500000, 0.109375000000, -4.539062500000, 1491904277
-0.064941406250, -0.945312500000, 0.438476562500, -2.070312500000, 0.109375000000, -4.539062500000, 1491904278
-0.135253906250, -0.933593750000, 0.482666015625, -1.546875000000, 2.382812500000, -4.109375000000, 1491904278
-0.135253906250, -0.933593750000, 0.482666015625, -1.546875000000, 2.382812500000, -4.109375000000, 1491904278
-0.135253906250, -0.933593750000, 0.482666015625, -1.546875000000, 2.382812500000, -4.109375000000, 1491904278
-0.087158203125, -0.857177734375, 0.412353515625, -1.593750000000, 2.234375000000, -1.421875000000, 1491904278
-0.087158203125, -0.857177734375, 0.412353515625, -1.593750000000, 2.234375000000, -1.421875000000, 1491904278
-0.087158203125, -0.857177734375, 0.412353515625, -1.593750000000, 2.234375000000, -1.421875000000, 1491904278
-0.127685546875, -0.858886718750, 0.406738281250, -4.515625000000, -0.437500000000, -7.640625000000, 1491904278
-0.127685546875, -0.858886718750, 0.406738281250, -4.515625000000, -0.437500000000, -7.640625000000, 1491904278
-0.127685546875, -0.858886718750, 0.406738281250, -4.515625000000, -0.437500000000, -7.640625000000, 1491904278
0.005859375000, -0.879150390625, 0.433349609375, -1.828125000000, -0.640625000000, -3.007812500000, 1491904278
0.005859375000, -0.879150390625, 0.433349609375, -1.828125000000, -0.640625000000, -3.007812500000, 1491904278
0.005859375000, -0.879150390625, 0.433349609375, -1.828125000000, -0.640625000000, -3.007812500000, 1491904278
0.005859375000, -0.879150390625, 0.433349609375, -1.828125000000, -0.640625000000, -3.007812500000, 1491904278
-0.087646484375, -0.851806640625, 0.412109375000, -1.851562500000, 1.539062500000, -7.335937500000, 1491904278
-0.087646484375, -0.851806640625, 0.412109375000, -1.851562500000, 1.539062500000, -7.335937500000, 1491904278
-0.087646484375, -0.851806640625, 0.412109375000, -1.851562500000, 1.539062500000, -7.335937500000, 1491904278
-0.140869140625, -0.861328125000, 0.485595703125, 0.101562500000, 2.820312500000, -8.476562500000, 1491904278
-0.140869140625, -0.861328125000, 0.485595703125, 0.101562500000, 2.820312500000, -8.476562500000, 1491904278
-0.140869140625, -0.861328125000, 0.485595703125, 0.101562500000, 2.820312500000, -8.476562500000, 1491904278
-0.034912109375, -0.867431640625, 0.448730468750, -1.703125000000, -3.617187500000, -5.156250000000, 1491904278
-0.034912109375, -0.867431640625, 0.448730468750, -1.703125000000, -3.617187500000, -5.156250000000, 1491904278
-0.034912109375, -0.867431640625, 0.448730468750, -1.703125000000, -3.617187500000, -5.156250000000, 1491904278
-0.054931640625, -0.906250000000, 0.474121093750, 0.093750000000, -1.093750000000, -3.984375000000, 1491904278
-0.054931640625, -0.906250000000, 0.474121093750, 0.093750000000, -1.093750000000, -3.984375000000, 1491904278
-0.054931640625, -0.906250000000, 0.474121093750, 0.093750000000, -1.093750000000, -3.984375000000, 1491904278
-0.075439453125, -0.928466796875, 0.467285156250, -1.281250000000, 0.640625000000, -5.250000000000, 1491904278
-0.075439453125, -0.928466796875, 0.467285156250, -1.281250000000, 0.640625000000, -5.250000000000, 1491904278
-0.075439453125, -0.928466796875, 0.467285156250, -1.281250000000, 0.640625000000, -5.250000000000, 1491904278
-0.075439453125, -0.928466796875, 0.467285156250, -1.281250000000, 0.640625000000, -5.250000000000, 1491904278
-0.077148437500, -1.010253906250, 0.432861328125, 0.796875000000, -0.656250000000, 0.156250000000, 1491904278
-0.077148437500, -1.010253906250, 0.432861328125, 0.796875000000, -0.656250000000, 0.156250000000, 1491904278
-0.077148437500, -1.010253906250, 0.432861328125, 0.796875000000, -0.656250000000, 0.156250000000, 1491904278
-0.141357421875, -0.875976562500, 0.409912109375, -1.632812500000, 0.187500000000, -4.585937500000, 1491904278
-0.141357421875, -0.875976562500, 0.409912109375, -1.632812500000, 0.187500000000, -4.585937500000, 1491904278
-0.141357421875, -0.875976562500, 0.409912109375, -1.632812500000, 0.187500000000, -4.585937500000, 1491904278
-0.083740234375, -0.844970703125, 0.428955078125, -2.640625000000, -2.882812500000, -3.859375000000, 1491904278
-0.083740234375, -0.844970703125, 0.428955078125, -2.640625000000, -2.882812500000, -3.859375000000, 1491904278
-0.083740234375, -0.844970703125, 0.428955078125, -2.640625000000, -2.882812500000, -3.859375000000, 1491904278
-0.083740234375, -0.844970703125, 0.428955078125, -2.640625000000, -2.882812500000, -3.859375000000, 1491904278
-0.118896484375, -0.916992187500, 0.473144531250, -1.367187500000, -2.250000000000, -8.984375000000, 1491904278
-0.118896484375, -0.916992187500, 0.473144531250, -1.367187500000, -2.250000000000, -8.984375000000, 1491904278
-0.118896484375, -0.916992187500, 0.473144531250, -1.367187500000, -2.250000000000, -8.984375000000, 1491904278
-0.080078125000, -0.800048828125, 0.374755859375, -4.343750000000, 0.695312500000, -8.062500000000, 1491904278
-0.080078125000, -0.800048828125, 0.374755859375, -4.343750000000, 0.695312500000, -8.062500000000, 1491904278
-0.080078125000, -0.800048828125, 0.374755859375, -4.343750000000, 0.695312500000, -8.062500000000, 1491904278
-0.061279296875, -0.875732421875, 0.463623046875, -2.273437500000, 0.937500000000, -6.687500000000, 1491904278
-0.061279296875, -0.875732421875, 0.463623046875, -2.273437500000, 0.937500000000, -6.687500000000, 1491904278
-0.061279296875, -0.875732421875, 0.463623046875, -2.273437500000, 0.937500000000, -6.687500000000, 1491904278
-0.088867187500, -0.846191406250, 0.343994140625, -4.187500000000, -2.351562500000, -7.140625000000, 1491904278
-0.088867187500, -0.846191406250, 0.343994140625, -4.187500000000, -2.351562500000, -7.140625000000, 1491904278
-0.088867187500, -0.846191406250, 0.343994140625, -4.187500000000, -2.351562500000, -7.140625000000, 1491904278
-0.088867187500, -0.846191406250, 0.343994140625, -4.187500000000, -2.351562500000, -7.140625000000, 1491904278
-0.056152343750, -1.007324218750, 0.436035156250, -2.867187500000, -4.273437500000, -4.546875000000, 1491904278
-0.056152343750, -1.007324218750, 0.436035156250, -2.867187500000, -4.273437500000, -4.546875000000, 1491904278
-0.056152343750, -1.007324218750, 0.436035156250, -2.867187500000, -4.273437500000, -4.546875000000, 1491904278
-0.061279296875, -0.865478515625, 0.487060546875, -0.640625000000, 6.734375000000, -1.679687500000, 1491904278
-0.061279296875, -0.865478515625, 0.487060546875, -0.640625000000, 6.734375000000, -1.679687500000, 1491904278
-0.061279296875, -0.865478515625, 0.487060546875, -0.640625000000, 6.734375000000, -1.679687500000, 1491904278
0.020263671875, -0.919921875000, 0.480468750000, 0.164062500000, -4.226562500000, -5.390625000000, 1491904278
0.020263671875, -0.919921875000, 0.480468750000, 0.164062500000, -4.226562500000, -5.390625000000, 1491904278
0.020263671875, -0.919921875000, 0.480468750000, 0.164062500000, -4.226562500000, -5.390625000000, 1491904278
-0.077880859375, -0.921630859375, 0.419921875000, -2.453125000000, 0.531250000000, -3.921875000000, 1491904278
-0.077880859375, -0.921630859375, 0.419921875000, -2.453125000000, 0.531250000000, -3.921875000000, 1491904278
-0.077880859375, -0.921630859375, 0.419921875000, -2.453125000000, 0.531250000000, -3.921875000000, 1491904278
-0.077880859375, -0.921630859375, 0.419921875000, -2.453125000000, 0.531250000000, -3.921875000000, 1491904278
-0.081787109375, -0.808593750000, 0.462402343750, -0.210937500000, 0.820312500000, -3.851562500000, 1491904279
-0.081787109375, -0.808593750000, 0.462402343750, -0.210937500000, 0.820312500000, -3.851562500000, 1491904279
-0.081787109375, -0.808593750000, 0.462402343750, -0.210937500000, 0.820312500000, -3.851562500000, 1491904279
0.032226562500, -0.953857421875, 0.463867187500, 0.468750000000, 0.710937500000, -4.640625000000, 1491904279
0.032226562500, -0.953857421875, 0.463867187500, 0.468750000000, 0.710937500000, -4.640625000000, 1491904279
0.032226562500, -0.953857421875, 0.463867187500, 0.468750000000, 0.710937500000, -4.640625000000, 1491904279
-0.144287109375, -0.866943359375, 0.460449218750, 1.226562500000, 0.765625000000, -5.875000000000, 1491904279
-0.144287109375, -0.866943359375, 0.460449218750, 1.226562500000, 0.765625000000, -5.875000000000, 1491904279
-0.144287109375, -0.866943359375, 0.460449218750, 1.226562500000, 0.765625000000, -5.875000000000, 1491904279
-0.129150390625, -0.908935546875, 0.444335937500, 4.000000000000, 0.460937500000, -3.367187500000, 1491904279
-0.129150390625, -0.908935546875, 0.444335937500, 4.000000000000, 0.460937500000, -3.367187500000, 1491904279
-0.129150390625, -0.908935546875, 0.444335937500, 4.000000000000, 0.460937500000, -3.367187500000, 1491904279
-0.129150390625, -0.908935546875, 0.444335937500, 4.000000000000, 0.460937500000, -3.367187500000, 1491904279
-0.049072265625, -0.868652343750, 0.458740234375, 3.585937500000, -2.742187500000, 0.585937500000, 1491904279
-0.049072265625, -0.868652343750, 0.458740234375, 3.585937500000, -2.742187500000, 0.585937500000, 1491904279
-0.049072265625, -0.868652343750, 0.458740234375, 3.585937500000, -2.742187500000, 0.585937500000, 1491904279
0.007080078125, -0.952392578125, 0.447021484375, 8.992187500000, -1.218750000000, -4.375000000000, 1491904279
0.007080078125, -0.952392578125, 0.447021484375, 8.992187500000, -1.218750000000, -4.375000000000, 1491904279
0.007080078125, -0.952392578125, 0.447021484375, 8.992187500000, -1.218750000000, -4.375000000000, 1491904279
-0.006103515625, -0.905761718750, 0.288818359375, 13.171875000000, -1.679687500000, -2.703125000000, 1491904279
-0.006103515625, -0.905761718750, 0.288818359375, 13.171875000000, -1.679687500000, -2.703125000000, 1491904279
-0.006103515625, -0.905761718750, 0.288818359375, 13.171875000000, -1.679687500000, -2.703125000000, 1491904279
0.001464843750, -0.939208984375, 0.391601562500, 22.671875000000, -1.851562500000, 4.570312500000, 1491904279
0.001464843750, -0.939208984375, 0.391601562500, 22.671875000000, -1.851562500000, 4.570312500000, 1491904279
0.001464843750, -0.939208984375, 0.391601562500, 22.671875000000, -1.851562500000, 4.570312500000, 1491904279
0.001464843750, -0.939208984375, 0.391601562500, 22.671875000000, -1.851562500000, 4.570312500000, 1491904279
0.059570312500, -0.887451171875, 0.229492187500, 27.773437500000, -8.085937500000, 8.546875000000, 1491904279
0.059570312500, -0.887451171875, 0.229492187500, 27.773437500000, -8.085937500000, 8.546875000000, 1491904279
0.059570312500, -0.887451171875, 0.229492187500, 27.773437500000, -8.085937500000, 8.546875000000, 1491904279
0.084716796875, -0.799072265625, 0.264648437500, 43.195312500000, 1.562500000000, 8.554687500000, 1491904279
0.084716796875, -0.799072265625, 0.264648437500, 43.195312500000, 1.562500000000, 8.554687500000, 1491904279
0.084716796875, -0.799072265625, 0.264648437500, 43.195312500000, 1.562500000000, 8.554687500000, 1491904279
-0.020263671875, -0.879150390625, 0.167236328125, 56.406250000000, -9.304687500000, 20.445312500000, 1491904279
-0.020263671875, -0.879150390625, 0.167236328125, 56.406250000000, -9.304687500000, 20.445312500000, 1491904279
-0.020263671875, -0.879150390625, 0.167236328125, 56.406250000000, -9.304687500000, 20.445312500000, 1491904279
0.079345703125, -0.866455078125, 0.157470703125, 62.078125000000, -12.468750000000, 22.625000000000, 1491904279
0.079345703125, -0.866455078125, 0.157470703125, 62.078125000000, -12.468750000000, 22.625000000000, 1491904279
0.079345703125, -0.866455078125, 0.157470703125, 62.078125000000, -12.468750000000, 22.625000000000, 1491904279
0.079345703125, -0.866455078125, 0.157470703125, 62.078125000000, -12.468750000000, 22.625000000000, 1491904279
0.128906250000, -0.738525390625, 0.051269531250, 63.718750000000, -33.062500000000, 21.273437500000, 1491904279
0.128906250000, -0.738525390625, 0.051269531250, 63.718750000000, -33.062500000000, 21.273437500000, 1491904279
0.128906250000, -0.738525390625, 0.051269531250, 63.718750000000, -33.062500000000, 21.273437500000, 1491904279
0.131347656250, -0.814697265625, 0.053466796875, 62.492187500000, -60.085937500000, 25.335937500000, 1491904279
0.131347656250, -0.814697265625, 0.053466796875, 62.492187500000, -60.085937500000, 25.335937500000, 1491904279
0.131347656250, -0.814697265625, 0.053466796875, 62.492187500000, -60.085937500000, 25.335937500000, 1491904279
0.131591796875, -0.645996093750, 0.148681640625, 82.656250000000, -55.539062500000, 11.734375000000, 1491904279
0.131591796875, -0.645996093750, 0.148681640625, 82.656250000000, -55.539062500000, 11.734375000000, 1491904279
0.131591796875, -0.645996093750, 0.148681640625, 82.656250000000, -55.539062500000, 11.734375000000, 1491904279
0.083984375000, -0.840332031250, -0.018554687500, 46.968750000000, -27.648437500000, 13.507812500000, 1491904279
0.083984375000, -0.840332031250, -0.018554687500, 46.968750000000, -27.648437500000, 13.507812500000, 1491904279
0.083984375000, -0.840332031250, -0.018554687500, 46.968750000000, -27.648437500000, 13.507812500000, 1491904279
0.083984375000, -0.840332031250, -0.018554687500, 46.968750000000, -27.648437500000, 13.507812500000, 1491904279
-0.026367187500, -0.607910156250, -0.024169921875, 60.398437500000, -17.773437500000, -14.640625000000, 1491904279
-0.026367187500, -0.607910156250, -0.024169921875, 60.398437500000, -17.773437500000, -14.640625000000, 1491904279
-0.026367187500, -0.607910156250, -0.024169921875, 60.398437500000, -17.773437500000, -14.640625000000, 1491904279
0.041503906250, -0.668945312500, 0.008789062500, 44.953125000000, -15.601562500000, -22.773437500000, 1491904279
0.041503906250, -0.668945312500, 0.008789062500, 44.953125000000, -15.601562500000, -22.773437500000, 1491904279
0.041503906250, -0.668945312500, 0.008789062500, 44.953125000000, -15.601562500000, -22.773437500000, 1491904279
0.075927734375, -0.701660156250, -0.041992187500, -57.195312500000, -12.539062500000, 7.765625000000, 1491904279
0.075927734375, -0.701660156250, -0.041992187500, -57.195312500000, -12.539062500000, 7.765625000000, 1491904279
0.075927734375, -0.701660156250, -0.041992187500, -57.195312500000, -12.539062500000, 7.765625000000, 1491904279
0.166259765625, -0.736572265625, 0.077148437500, -49.718750000000, -80.812500000000, -6.335937500000, 1491904279
0.038818359375, -0.850097656250, 0.075927734375, -12.281250000000, -52.593750000000, 30.085937500000, 1491904279
0.038818359375, -0.850097656250, 0.075927734375, -12.281250000000, -52.593750000000, 30.085937500000, 1491904280
0.038818359375, -0.850097656250, 0.075927734375, -12.281250000000, -52.593750000000, 30.085937500000, 1491904280
0.038818359375, -0.850097656250, 0.075927734375, -12.281250000000, -52.593750000000, 30.085937500000, 1491904280
0.038818359375, -0.850097656250, 0.075927734375, -12.281250000000, -52.593750000000, 30.085937500000, 1491904280
0.038818359375, -0.850097656250, 0.075927734375, -12.281250000000, -52.593750000000, 30.085937500000, 1491904280
0.328125000000, -1.250488281250, -0.012207031250, -117.515625000000, 0.976562500000, 23.710937500000, 1491904280
0.328125000000, -1.250488281250, -0.012207031250, -117.515625000000, 0.976562500000, 23.710937500000, 1491904280
0.328125000000, -1.250488281250, -0.012207031250, -117.515625000000, 0.976562500000, 23.710937500000, 1491904280
0.339355468750, -1.629638671875, 0.044921875000, -35.906250000000, 8.429687500000, -7.570312500000, 1491904280
0.339355468750, -1.629638671875, 0.044921875000, -35.906250000000, 8.429687500000, -7.570312500000, 1491904280
0.339355468750, -1.629638671875, 0.044921875000, -35.906250000000, 8.429687500000, -7.570312500000, 1491904280
0.339355468750, -1.629638671875, 0.044921875000, -35.906250000000, 8.429687500000, -7.570312500000, 1491904280
0.339355468750, -1.629638671875, 0.044921875000, -35.906250000000, 8.429687500000, -7.570312500000, 1491904280
0.339355468750, -1.629638671875, 0.044921875000, -35.906250000000, 8.429687500000, -7.570312500000, 1491904280
0.121337890625, -1.764892578125, -0.093017578125, -104.296875000000, 28.195312500000, -39.554687500000, 1491904280
0.121337890625, -1.764892578125, -0.093017578125, -104.296875000000, 28.195312500000, -39.554687500000, 1491904280
0.121337890625, -1.764892578125, -0.093017578125, -104.296875000000, 28.195312500000, -39.554687500000, 1491904280
0.121337890625, -1.764892578125, -0.093017578125, -104.296875000000, 28.195312500000, -39.554687500000, 1491904280
0.209472656250, -1.853027343750, -0.051269531250, -161.257812500000, 41.914062500000, -10.937500000000, 1491904280
0.228271484375, -1.628173828125, 0.040527343750, -39.937500000000, -106.898437500000, 53.671875000000, 1491904280
0.228271484375, -1.628173828125, 0.040527343750, -39.937500000000, -106.898437500000, 53.671875000000, 1491904280
0.228271484375, -1.628173828125, 0.040527343750, -39.937500000000, -106.898437500000, 53.671875000000, 1491904280
0.228271484375, -1.628173828125, 0.040527343750, -39.937500000000, -106.898437500000, 53.671875000000, 1491904280
0.228271484375, -1.628173828125, 0.040527343750, -39.937500000000, -106.898437500000, 53.671875000000, 1491904280
0.177978515625, -1.284912109375, 0.067871093750, -63.875000000000, -20.570312500000, 36.484375000000, 1491904280
0.177978515625, -1.284912109375, 0.067871093750, -63.875000000000, -20.570312500000, 36.484375000000, 1491904280
0.177978515625, -1.284912109375, 0.067871093750, -63.875000000000, -20.570312500000, 36.484375000000, 1491904280
0.177978515625, -1.284912109375, 0.067871093750, -63.875000000000, -20.570312500000, 36.484375000000, 1491904280
0.111328125000, -1.080810546875, 0.062500000000, -61.976562500000, -4.031250000000, 4.328125000000, 1491904280
0.111328125000, -1.080810546875, 0.062500000000, -61.976562500000, -4.031250000000, 4.328125000000, 1491904280
0.012451171875, -0.846435546875, 0.004394531250, -77.320312500000, 91.070312500000, 20.382812500000, 1491904280
0.012451171875, -0.846435546875, 0.004394531250, -77.320312500000, 91.070312500000, 20.382812500000, 1491904280
0.012451171875, -0.846435546875, 0.004394531250, -77.320312500000, 91.070312500000, 20.382812500000, 1491904280
0.012451171875, -0.846435546875, 0.004394531250, -77.320312500000, 91.070312500000, 20.382812500000, 1491904280
0.012451171875, -0.846435546875, 0.004394531250, -77.320312500000, 91.070312500000, 20.382812500000, 1491904280
0.012451171875, -0.846435546875, 0.004394531250, -77.320312500000, 91.070312500000, 20.382812500000, 1491904280
0.012451171875, -0.846435546875, 0.004394531250, -77.320312500000, 91.070312500000, 20.382812500000, 1491904280
0.012451171875, -0.846435546875, 0.004394531250, -77.320312500000, 91.070312500000, 20.382812500000, 1491904280
-1.789062500000, -1.446777343750, 5.164794921875, 253.992187500000, 253.992187500000, 61.195312500000, 1491904280
-1.789062500000, -1.446777343750, 5.164794921875, 253.992187500000, 253.992187500000, 61.195312500000, 1491904280
-1.789062500000, -1.446777343750, 5.164794921875, 253.992187500000, 253.992187500000, 61.195312500000, 1491904280
-1.789062500000, -1.446777343750, 5.164794921875, 253.992187500000, 253.992187500000, 61.195312500000, 1491904280
-1.789062500000, -1.446777343750, 5.164794921875, 253.992187500000, 253.992187500000, 61.195312500000, 1491904280
-1.789062500000, -1.446777343750, 5.164794921875, 253.992187500000, 253.992187500000, 61.195312500000, 1491904280
0.049804687500, 0.022949218750, -0.085693359375, -256.000000000000, -256.000000000000, -236.132812500000, 1491904280
0.049804687500, 0.022949218750, -0.085693359375, -256.000000000000, -256.000000000000, -236.132812500000, 1491904280
0.049804687500, 0.022949218750, -0.085693359375, -256.000000000000, -256.000000000000, -236.132812500000, 1491904280
-0.131835937500, -0.379882812500, 0.137451171875, -256.000000000000, -208.281250000000, -5.718750000000, 1491904280
-0.131835937500, -0.379882812500, 0.137451171875, -256.000000000000, -208.281250000000, -5.718750000000, 1491904280
-0.131835937500, -0.379882812500, 0.137451171875, -256.000000000000, -208.281250000000, -5.718750000000, 1491904280
0.067138671875, 0.209228515625, 0.051513671875, -3.796875000000, -53.234375000000, 17.296875000000, 1491904280
0.067138671875, 0.209228515625, 0.051513671875, -3.796875000000, -53.234375000000, 17.296875000000, 1491904280
0.067138671875, 0.209228515625, 0.051513671875, -3.796875000000, -53.234375000000, 17.296875000000, 1491904280
0.067138671875, 0.209228515625, 0.051513671875, -3.796875000000, -53.234375000000, 17.296875000000, 1491904280
0.196044921875, -0.265380859375, 0.900390625000, -31.984375000000, 253.992187500000, -32.312500000000, 1491904280
0.196044921875, -0.265380859375, 0.900390625000, -31.984375000000, 253.992187500000, -32.312500000000, 1491904280
0.196044921875, -0.265380859375, 0.900390625000, -31.984375000000, 253.992187500000, -32.312500000000, 1491904280
-0.532226562500, -0.001708984375, 1.069580078125, -176.171875000000, -173.546875000000, -42.640625000000, 1491904280
-0.532226562500, -0.001708984375, 1.069580078125, -176.171875000000, -173.546875000000, -42.640625000000, 1491904280
-0.532226562500, -0.001708984375, 1.069580078125, -176.171875000000, -173.546875000000, -42.640625000000, 1491904280
-0.512695312500, 0.076904296875, 1.365966796875, -163.859375000000, -7.015625000000, -62.046875000000, 1491904280
-0.512695312500, 0.076904296875, 1.365966796875, -163.859375000000, -7.015625000000, -62.046875000000, 1491904280
-0.512695312500, 0.076904296875, 1.365966796875, -163.859375000000, -7.015625000000, -62.046875000000, 1491904280
-0.414062500000, 0.213867187500, 2.064697265625, -94.023437500000, -128.257812500000, -5.328125000000, 1491904280
-0.414062500000, 0.213867187500, 2.064697265625, -94.023437500000, -128.257812500000, -5.328125000000, 1491904280
-0.414062500000, 0.213867187500, 2.064697265625, -94.023437500000, -128.257812500000, -5.328125000000, 1491904280
-0.414062500000, 0.213867187500, 2.064697265625, -94.023437500000, -128.257812500000, -5.328125000000, 1491904280
-0.643798828125, 0.604248046875, 2.126220703125, -150.632812500000, -102.765625000000, 2.156250000000, 1491904280
-0.643798828125, 0.604248046875, 2.126220703125, -150.632812500000, -102.765625000000, 2.156250000000, 1491904280
-0.643798828125, 0.604248046875, 2.126220703125, -150.632812500000, -102.765625000000, 2.156250000000, 1491904280
-0.063720703125, 0.708496093750, 1.200195312500, -86.046875000000, 8.968750000000, -31.507812500000, 1491904280
-0.063720703125, 0.708496093750, 1.200195312500, -86.046875000000, 8.968750000000, -31.507812500000, 1491904281
-0.063720703125, 0.708496093750, 1.200195312500, -86.046875000000, 8.968750000000, -31.507812500000, 1491904281
-0.020507812500, 0.501464843750, 0.471923828125, 39.109375000000, -33.882812500000, -24.820312500000, 1491904281
-0.020507812500, 0.501464843750, 0.471923828125, 39.109375000000, -33.882812500000, -24.820312500000, 1491904281
-0.020507812500, 0.501464843750, 0.471923828125, 39.109375000000, -33.882812500000, -24.820312500000, 1491904281
-0.077636718750, 0.516357421875, 0.545410156250, -10.679687500000, 87.375000000000, 0.054687500000, 1491904281
-0.077636718750, 0.516357421875, 0.545410156250, -10.679687500000, 87.375000000000, 0.054687500000, 1491904281
-0.077636718750, 0.516357421875, 0.545410156250, -10.679687500000, 87.375000000000, 0.054687500000, 1491904281
-0.077636718750, 0.516357421875, 0.545410156250, -10.679687500000, 87.375000000000, 0.054687500000, 1491904281
-0.138427734375, 0.444335937500, 0.739501953125, 36.656250000000, 62.539062500000, -15.750000000000, 1491904281
-0.138427734375, 0.444335937500, 0.739501953125, 36.656250000000, 62.539062500000, -15.750000000000, 1491904281
-0.138427734375, 0.444335937500, 0.739501953125, 36.656250000000, 62.539062500000, -15.750000000000, 1491904281
-0.295410156250, 0.166503906250, 0.859130859375, 57.718750000000, 39.820312500000, -10.140625000000, 1491904281
-0.295410156250, 0.166503906250, 0.859130859375, 57.718750000000, 39.820312500000, -10.140625000000, 1491904281
-0.295410156250, 0.166503906250, 0.859130859375, 57.718750000000, 39.820312500000, -10.140625000000, 1491904281
-0.260986328125, -0.132324218750, 1.176025390625, 3.921875000000, -70.976562500000, 7.335937500000, 1491904281
-0.260986328125, -0.132324218750, 1.176025390625, 3.921875000000, -70.976562500000, 7.335937500000, 1491904281
-0.260986328125, -0.132324218750, 1.176025390625, 3.921875000000, -70.976562500000, 7.335937500000, 1491904281
0.011718750000, 0.049316406250, 1.312011718750, 0.578125000000, 8.460937500000, -1.273437500000, 1491904281
-0.041748046875, 0.006103515625, 1.112548828125, -10.367187500000, -1.468750000000, -7.570312500000, 1491904281
-0.041748046875, 0.006103515625, 1.112548828125, -10.367187500000, -1.468750000000, -7.570312500000, 1491904281
-0.041748046875, 0.006103515625, 1.112548828125, -10.367187500000, -1.468750000000, -7.570312500000, 1491904281
0.013916015625, -0.083740234375, 1.143310546875, -14.460937500000, -10.734375000000, -5.226562500000, 1491904281
-0.092041015625, 0.031494140625, 0.895507812500, -22.492187500000, 42.898437500000, -0.492187500000, 1491904281
-0.092041015625, 0.031494140625, 0.895507812500, -22.492187500000, 42.898437500000, -0.492187500000, 1491904281
-0.092041015625, 0.031494140625, 0.895507812500, -22.492187500000, 42.898437500000, -0.492187500000, 1491904281
-0.092041015625, 0.031494140625, 0.895507812500, -22.492187500000, 42.898437500000, -0.492187500000, 1491904281
-0.092041015625, 0.031494140625, 0.895507812500, -22.492187500000, 42.898437500000, -0.492187500000, 1491904281
-0.189208984375, 0.055419921875, 0.791259765625, -11.210937500000, -39.609375000000, -12.664062500000, 1491904281
-0.189208984375, 0.055419921875, 0.791259765625, -11.210937500000, -39.609375000000, -12.664062500000, 1491904281
-0.189208984375, 0.055419921875, 0.791259765625, -11.210937500000, -39.609375000000, -12.664062500000, 1491904281
-0.189208984375, 0.055419921875, 0.791259765625, -11.210937500000, -39.609375000000, -12.664062500000, 1491904281
-0.095703125000, -0.167236328125, 1.036376953125, 16.476562500000, -11.812500000000, -5.171875000000, 1491904281
-0.095703125000, -0.167236328125, 1.036376953125, 16.476562500000, -11.812500000000, -5.171875000000, 1491904281
-0.095703125000, -0.167236328125, 1.036376953125, 16.476562500000, -11.812500000000, -5.171875000000, 1491904281
-0.095703125000, -0.167236328125, 1.036376953125, 16.476562500000, -11.812500000000, -5.171875000000, 1491904281
-0.095703125000, -0.167236328125, 1.036376953125, 16.476562500000, -11.812500000000, -5.171875000000, 1491904281
-0.095703125000, -0.167236328125, 1.036376953125, 16.476562500000, -11.812500000000, -5.171875000000, 1491904281
-0.066650390625, 0.032958984375, 1.212890625000, -28.789062500000, 45.242187500000, 12.000000000000, 1491904281
-0.066650390625, 0.032958984375, 1.212890625000, -28.789062500000, 45.242187500000, 12.000000000000, 1491904281
-0.066650390625, 0.032958984375, 1.212890625000, -28.789062500000, 45.242187500000, 12.000000000000, 1491904281
-0.066650390625, 0.032958984375, 1.212890625000, -28.789062500000, 45.242187500000, 12.000000000000, 1491904281
-0.066650390625, 0.032958984375, 1.212890625000, -28.789062500000, 45.242187500000, 12.000000000000, 1491904281
-0.129638671875, -0.006591796875, 1.035888671875, -19.156250000000, 58.265625000000, 1.289062500000, 1491904281
-0.198242187500, 0.135498046875, 0.916015625000, -4.835937500000, 3.968750000000, -0.515625000000, 1491904281
-0.198242187500, 0.135498046875, 0.916015625000, -4.835937500000, 3.968750000000, -0.515625000000, 1491904281
-0.198242187500, 0.135498046875, 0.916015625000, -4.835937500000, 3.968750000000, -0.515625000000, 1491904281
-0.198242187500, 0.135498046875, 0.916015625000, -4.835937500000, 3.968750000000, -0.515625000000, 1491904281
-0.145996093750, 0.189453125000, 1.007812500000, -34.648437500000, -0.539062500000, -3.234375000000, 1491904281
-0.105712890625, 0.331298828125, 1.078613281250, -21.742187500000, -0.945312500000, 0.007812500000, 1491904281
-0.105712890625, 0.331298828125, 1.078613281250, -21.742187500000, -0.945312500000, 0.007812500000, 1491904281
-0.105712890625, 0.331298828125, 1.078613281250, -21.742187500000, -0.945312500000, 0.007812500000, 1491904281
-0.105712890625, 0.331298828125, 1.078613281250, -21.742187500000, -0.945312500000, 0.007812500000, 1491904281
-0.105712890625, 0.331298828125, 1.078613281250, -21.742187500000, -0.945312500000, 0.007812500000, 1491904281
-0.150146484375, 0.158935546875, 1.144287109375, 4.265625000000, 16.007812500000, -3.093750000000, 1491904281
-0.180908203125, 0.191650390625, 1.068359375000, 5.132812500000, 15.070312500000, -0.054687500000, 1491904281
-0.180908203125, 0.191650390625, 1.068359375000, 5.132812500000, 15.070312500000, -0.054687500000, 1491904281
-0.180908203125, 0.191650390625, 1.068359375000, 5.132812500000, 15.070312500000, -0.054687500000, 1491904281
-0.107910156250, 0.199462890625, 0.927490234375, 6.304687500000, -1.812500000000, -2.062500000000, 1491904281
-0.203857421875, 0.150390625000, 0.961914062500, 9.625000000000, -2.906250000000, -1.242187500000, 1491904281
-0.203857421875, 0.150390625000, 0.961914062500, 9.625000000000, -2.906250000000, -1.242187500000, 1491904281
-0.203857421875, 0.150390625000, 0.961914062500, 9.625000000000, -2.906250000000, -1.242187500000, 1491904281
-0.203857421875, 0.150390625000, 0.961914062500, 9.625000000000, -2.906250000000, -1.242187500000, 1491904281
-0.203857421875, 0.150390625000, 0.961914062500, 9.625000000000, -2.906250000000, -1.242187500000, 1491904282
-0.203857421875, 0.150390625000, 0.961914062500, 9.625000000000, -2.906250000000, -1.242187500000, 1491904282
-0.203857421875, 0.150390625000, 0.961914062500, 9.625000000000, -2.906250000000, -1.242187500000, 1491904282
-0.203857421875, 0.150390625000, 0.961914062500, 9.625000000000, -2.906250000000, -1.242187500000, 1491904282
-0.154541015625, 0.069335937500, 1.131835937500, -9.250000000000, 7.039062500000, -5.734375000000, 1491904282
-0.154541015625, 0.069335937500, 1.131835937500, -9.250000000000, 7.039062500000, -5.734375000000, 1491904282
-0.154541015625, 0.069335937500, 1.131835937500, -9.250000000000, 7.039062500000, -5.734375000000, 1491904282
-0.154541015625, 0.069335937500, 1.131835937500, -9.250000000000, 7.039062500000, -5.734375000000, 1491904282
-0.154541015625, 0.069335937500, 1.131835937500, -9.250000000000, 7.039062500000, -5.734375000000, 1491904282
-0.154541015625, 0.069335937500, 1.131835937500, -9.250000000000, 7.039062500000, -5.734375000000, 1491904282
-0.189697265625, 0.151855468750, 1.045898437500, -11.570312500000, 8.375000000000, -5.703125000000, 1491904282
-0.213623046875, 0.093017578125, 0.980957031250, -15.265625000000, 3.304687500000, -3.851562500000, 1491904282
-0.213623046875, 0.093017578125, 0.980957031250, -15.265625000000, 3.304687500000, -3.851562500000, 1491904282
-0.213623046875, 0.093017578125, 0.980957031250, -15.265625000000, 3.304687500000, -3.851562500000, 1491904282
-0.137207031250, 0.176025390625, 0.895507812500, -6.453125000000, -2.460937500000, -1.492187500000, 1491904282
-0.137207031250, 0.176025390625, 0.895507812500, -6.453125000000, -2.460937500000, -1.492187500000, 1491904282
-0.137207031250, 0.176025390625, 0.895507812500, -6.453125000000, -2.460937500000, -1.492187500000, 1491904282
-0.137207031250, 0.176025390625, 0.895507812500, -6.453125000000, -2.460937500000, -1.492187500000, 1491904282
-0.137207031250, 0.176025390625, 0.895507812500, -6.453125000000, -2.460937500000, -1.492187500000, 1491904282
-0.210937500000, 0.226074218750, 0.946533203125, 0.187500000000, -4.796875000000, 0.726562500000, 1491904282
0.020019531250, 0.202148437500, 0.958984375000, 0.570312500000, -0.851562500000, -5.570312500000, 1491904282
0.020019531250, 0.202148437500, 0.958984375000, 0.570312500000, -0.851562500000, -5.570312500000, 1491904282
0.020019531250, 0.202148437500, 0.958984375000, 0.570312500000, -0.851562500000, -5.570312500000, 1491904282
0.020019531250, 0.202148437500, 0.958984375000, 0.570312500000, -0.851562500000, -5.570312500000, 1491904282
-0.196777343750, 0.061035156250, 1.087402343750, -1.031250000000, -0.632812500000, -8.828125000000, 1491904282
-0.196777343750, 0.061035156250, 1.087402343750, -1.031250000000, -0.632812500000, -8.828125000000, 1491904282
-0.196777343750, 0.061035156250, 1.087402343750, -1.031250000000, -0.632812500000, -8.828125000000, 1491904282
-0.196777343750, 0.061035156250, 1.087402343750, -1.031250000000, -0.632812500000, -8.828125000000, 1491904282
-0.196777343750, 0.061035156250, 1.087402343750, -1.031250000000, -0.632812500000, -8.828125000000, 1491904282
-0.196777343750, 0.061035156250, 1.087402343750, -1.031250000000, -0.632812500000, -8.828125000000, 1491904282
-0.099609375000, 0.117431640625, 1.015136718750, 0.078125000000, 0.875000000000, -7.500000000000, 1491904282
-0.099609375000, 0.117431640625, 1.015136718750, 0.078125000000, 0.875000000000, -7.500000000000, 1491904282
-0.099609375000, 0.117431640625, 1.015136718750, 0.078125000000, 0.875000000000, -7.500000000000, 1491904282
-0.041992187500, 0.151367187500, 0.972900390625, -4.625000000000, 0.046875000000, -3.984375000000, 1491904282
-0.041992187500, 0.151367187500, 0.972900390625, -4.625000000000, 0.046875000000, -3.984375000000, 1491904282
-0.041992187500, 0.151367187500, 0.972900390625, -4.625000000000, 0.046875000000, -3.984375000000, 1491904282
-0.041992187500, 0.151367187500, 0.972900390625, -4.625000000000, 0.046875000000, -3.984375000000, 1491904282
-0.045654296875, 0.105712890625, 0.989013671875, -7.742187500000, 2.039062500000, -4.789062500000, 1491904282
-0.045654296875, 0.105712890625, 0.989013671875, -7.742187500000, 2.039062500000, -4.789062500000, 1491904282
-0.045654296875, 0.105712890625, 0.989013671875, -7.742187500000, 2.039062500000, -4.789062500000, 1491904282
-0.122558593750, 0.152832031250, 1.078613281250, -8.773437500000, 2.742187500000, -4.656250000000, 1491904282
-0.122558593750, 0.152832031250, 1.078613281250, -8.773437500000, 2.742187500000, -4.656250000000, 1491904282
-0.122558593750, 0.152832031250, 1.078613281250, -8.773437500000, 2.742187500000, -4.656250000000, 1491904282
-0.131591796875, 0.051513671875, 1.062988281250, -8.648437500000, 2.851562500000, -0.992187500000, 1491904282
-0.131591796875, 0.051513671875, 1.062988281250, -8.648437500000, 2.851562500000, -0.992187500000, 1491904282
-0.131591796875, 0.051513671875, 1.062988281250, -8.648437500000, 2.851562500000, -0.992187500000, 1491904282
-0.193603515625, 0.105224609375, 1.011230468750, -6.187500000000, 2.992187500000, 0.789062500000, 1491904282
-0.193603515625, 0.105224609375, 1.011230468750, -6.187500000000, 2.992187500000, 0.789062500000, 1491904282
-0.193603515625, 0.105224609375, 1.011230468750, -6.187500000000, 2.992187500000, 0.789062500000, 1491904282
-0.193603515625, 0.105224609375, 1.011230468750, -6.187500000000, 2.992187500000, 0.789062500000, 1491904282
-0.101806640625, 0.192626953125, 0.990478515625, -4.773437500000, 2.984375000000, -4.312500000000, 1491904282
-0.101806640625, 0.192626953125, 0.990478515625, -4.773437500000, 2.984375000000, -4.312500000000, 1491904282
-0.101806640625, 0.192626953125, 0.990478515625, -4.773437500000, 2.984375000000, -4.312500000000, 1491904282
-0.120117187500, 0.045166015625, 1.081298828125, -4.960937500000, 0.945312500000, -0.507812500000, 1491904282
-0.120117187500, 0.045166015625, 1.081298828125, -4.960937500000, 0.945312500000, -0.507812500000, 1491904282
-0.120117187500, 0.045166015625, 1.081298828125, -4.960937500000, 0.945312500000, -0.507812500000, 1491904282
-0.192871093750, 0.057617187500, 0.930908203125, -4.804687500000, 0.867187500000, -6.546875000000, 1491904282
-0.192871093750, 0.057617187500, 0.930908203125, -4.804687500000, 0.867187500000, -6.546875000000, 1491904282
-0.192871093750, 0.057617187500, 0.930908203125, -4.804687500000, 0.867187500000, -6.546875000000, 1491904282
-0.064941406250, 0.145751953125, 1.078125000000, -7.406250000000, 1.164062500000, -4.921875000000, 1491904282
-0.064941406250, 0.145751953125, 1.078125000000, -7.406250000000, 1.164062500000, -4.921875000000, 1491904282
-0.064941406250, 0.145751953125, 1.078125000000, -7.406250000000, 1.164062500000, -4.921875000000, 1491904282
-0.064941406250, 0.145751953125, 1.078125000000, -7.406250000000, 1.164062500000, -4.921875000000, 1491904282
-0.104003906250, 0.041015625000, 0.934570312500, -5.804687500000, 2.312500000000, -4.945312500000, 1491904282
-0.104003906250, 0.041015625000, 0.934570312500, -5.804687500000, 2.312500000000, -4.945312500000, 1491904282
-0.104003906250, 0.041015625000, 0.934570312500, -5.804687500000, 2.312500000000, -4.945312500000, 1491904282
-0.061523437500, 0.160156250000, 0.980712890625, -7.867187500000, 1.632812500000, -1.296875000000, 1491904283
-0.061523437500, 0.160156250000, 0.980712890625, -7.867187500000, 1.632812500000, -1.296875000000, 1491904283
-0.061523437500, 0.160156250000, 0.980712890625, -7.867187500000, 1.632812500000, -1.296875000000, 1491904283
-0.095458984375, 0.177001953125, 0.934082031250, -3.796875000000, -0.546875000000, -4.359375000000, 1491904283
-0.095458984375, 0.177001953125, 0.934082031250, -3.796875000000, -0.546875000000, -4.359375000000, 1491904283
-0.095458984375, 0.177001953125, 0.934082031250, -3.796875000000, -0.546875000000, -4.359375000000, 1491904283
-0.194335937500, 0.206054687500, 0.994873046875, -1.984375000000, -2.031250000000, -3.906250000000, 1491904283
-0.145019531250, 0.057373046875, 0.994628906250, -4.804687500000, -0.523437500000, -1.328125000000, 1491904283
-0.145019531250, 0.057373046875, 0.994628906250, -4.804687500000, -0.523437500000, -1.328125000000, 1491904283
-0.191650390625, 0.214843750000, 0.995117187500, -3.820312500000, -0.023437500000, -3.593750000000, 1491904283
-0.191650390625, 0.214843750000, 0.995117187500, -3.820312500000, -0.023437500000, -3.593750000000, 1491904283
-0.191650390625, 0.214843750000, 0.995117187500, -3.820312500000, -0.023437500000, -3.593750000000, 1491904283
-0.191650390625, 0.214843750000, 0.995117187500, -3.820312500000, -0.023437500000, -3.593750000000, 1491904283
-0.191650390625, 0.214843750000, 0.995117187500, -3.820312500000, -0.023437500000, -3.593750000000, 1491904283
-0.191650390625, 0.214843750000, 0.995117187500, -3.820312500000, -0.023437500000, -3.593750000000, 1491904283
-0.191650390625, 0.214843750000, 0.995117187500, -3.820312500000, -0.023437500000, -3.593750000000, 1491904283
-0.191650390625, 0.214843750000, 0.995117187500, -3.820312500000, -0.023437500000, -3.593750000000, 1491904283
-0.191650390625, 0.214843750000, 0.995117187500, -3.820312500000, -0.023437500000, -3.593750000000, 1491904283
-0.191650390625, 0.214843750000, 0.995117187500, -3.820312500000, -0.023437500000, -3.593750000000, 1491904283
-0.154785156250, 0.132568359375, 1.073974609375, -3.312500000000, -0.835937500000, -6.773437500000, 1491904283
-0.154785156250, 0.132568359375, 1.073974609375, -3.312500000000, -0.835937500000, -6.773437500000, 1491904283
-0.154785156250, 0.132568359375, 1.073974609375, -3.312500000000, -0.835937500000, -6.773437500000, 1491904283
-0.154785156250, 0.132568359375, 1.073974609375, -3.312500000000, -0.835937500000, -6.773437500000, 1491904283
-0.154785156250, 0.132568359375, 1.073974609375, -3.312500000000, -0.835937500000, -6.773437500000, 1491904283
-0.260253906250, 0.145019531250, 1.003173828125, -4.578125000000, 0.570312500000, -1.531250000000, 1491904283
-0.260253906250, 0.145019531250, 1.003173828125, -4.578125000000, 0.570312500000, -1.531250000000, 1491904283
-0.260253906250, 0.145019531250, 1.003173828125, -4.578125000000, 0.570312500000, -1.531250000000, 1491904283
-0.260253906250, 0.145019531250, 1.003173828125, -4.578125000000, 0.570312500000, -1.531250000000, 1491904283
-0.260253906250, 0.145019531250, 1.003173828125, -4.578125000000, 0.570312500000, -1.531250000000, 1491904283
-0.132080078125, 0.161132812500, 0.931396484375, -2.000000000000, 0.000000000000, -6.929687500000, 1491904283
-0.132080078125, 0.161132812500, 0.931396484375, -2.000000000000, 0.000000000000, -6.929687500000, 1491904283
-0.253173828125, 0.172607421875, 0.936035156250, -2.257812500000, 2.156250000000, -5.375000000000, 1491904283
-0.116210937500, 0.193603515625, 1.002929687500, -3.343750000000, -1.265625000000, -10.359375000000, 1491904283
-0.116210937500, 0.193603515625, 1.002929687500, -3.343750000000, -1.265625000000, -10.359375000000, 1491904283
-0.116210937500, 0.193603515625, 1.002929687500, -3.343750000000, -1.265625000000, -10.359375000000, 1491904283
-0.116210937500, 0.193603515625, 1.002929687500, -3.343750000000, -1.265625000000, -10.359375000000, 1491904283
-0.116210937500, 0.193603515625, 1.002929687500, -3.343750000000, -1.265625000000, -10.359375000000, 1491904283
-0.116210937500, 0.193603515625, 1.002929687500, -3.343750000000, -1.265625000000, -10.359375000000, 1491904283
-0.116210937500, 0.193603515625, 1.002929687500, -3.343750000000, -1.265625000000, -10.359375000000, 1491904283
-0.163330078125, 0.201660156250, 0.976074218750, -3.304687500000, -0.710937500000, -3.328125000000, 1491904283
-0.163330078125, 0.201660156250, 0.976074218750, -3.304687500000, -0.710937500000, -3.328125000000, 1491904283
-0.163330078125, 0.201660156250, 0.976074218750, -3.304687500000, -0.710937500000, -3.328125000000, 1491904283
-0.163330078125, 0.201660156250, 0.976074218750, -3.304687500000, -0.710937500000, -3.328125000000, 1491904283
-0.163330078125, 0.201660156250, 0.976074218750, -3.304687500000, -0.710937500000, -3.328125000000, 1491904283
-0.163330078125, 0.201660156250, 0.976074218750, -3.304687500000, -0.710937500000, -3.328125000000, 1491904283
-0.195068359375, 0.254150390625, 0.936767578125, -3.250000000000, 0.023437500000, 0.476562500000, 1491904283
-0.195068359375, 0.254150390625, 0.936767578125, -3.250000000000, 0.023437500000, 0.476562500000, 1491904283
-0.195068359375, 0.254150390625, 0.936767578125, -3.250000000000, 0.023437500000, 0.476562500000, 1491904283
-0.195068359375, 0.254150390625, 0.936767578125, -3.250000000000, 0.023437500000, 0.476562500000, 1491904283
-0.168945312500, 0.205810546875, 1.026611328125, -4.289062500000, 0.210937500000, -3.382812500000, 1491904283
-0.147460937500, 0.191406250000, 1.029052734375, -1.117187500000, 0.781250000000, -4.609375000000, 1491904283
-0.147460937500, 0.191406250000, 1.029052734375, -1.117187500000, 0.781250000000, -4.609375000000, 1491904283
-0.147460937500, 0.191406250000, 1.029052734375, -1.117187500000, 0.781250000000, -4.609375000000, 1491904283
-0.049316406250, 0.188964843750, 0.985595703125, -4.226562500000, -0.367187500000, -6.414062500000, 1491904283
-0.138427734375, 0.117919921875, 1.041259765625, -3.515625000000, -0.906250000000, -4.468750000000, 1491904283
-0.138427734375, 0.117919921875, 1.041259765625, -3.515625000000, -0.906250000000, -4.468750000000, 1491904283
-0.138427734375, 0.117919921875, 1.041259765625, -3.515625000000, -0.906250000000, -4.468750000000, 1491904283
-0.138427734375, 0.117919921875, 1.041259765625, -3.515625000000, -0.906250000000, -4.468750000000, 1491904283
-0.189697265625, 0.172119140625, 1.010742187500, -1.351562500000, 0.656250000000, -8.281250000000, 1491904283
-0.093505859375, 0.117919921875, 1.014160156250, -1.593750000000, 0.484375000000, -1.859375000000, 1491904283
-0.093505859375, 0.117919921875, 1.014160156250, -1.593750000000, 0.484375000000, -1.859375000000, 1491904283
-0.093505859375, 0.117919921875, 1.014160156250, -1.593750000000, 0.484375000000, -1.859375000000, 1491904283
-0.093505859375, 0.117919921875, 1.014160156250, -1.593750000000, 0.484375000000, -1.859375000000, 1491904283
-0.138183593750, 0.212646484375, 0.928710937500, -4.257812500000, -2.742187500000, -5.234375000000, 1491904283
-0.138183593750, 0.212646484375, 0.928710937500, -4.257812500000, -2.742187500000, -5.234375000000, 1491904283
-0.138183593750, 0.212646484375, 0.928710937500, -4.257812500000, -2.742187500000, -5.234375000000, 1491904283
-0.138183593750, 0.212646484375, 0.928710937500, -4.257812500000, -2.742187500000, -5.234375000000, 1491904283
-0.138183593750, 0.212646484375, 0.928710937500, -4.257812500000, -2.742187500000, -5.234375000000, 1491904283
-0.141357421875, 0.046630859375, 0.912841796875, -1.234375000000, 0.656250000000, -4.421875000000, 1491904283
-0.141357421875, 0.046630859375, 0.912841796875, -1.234375000000, 0.656250000000, -4.421875000000, 1491904283
-0.053466796875, 0.155029296875, 1.067626953125, 0.835937500000, 2.687500000000, -5.226562500000, 1491904284
-0.053466796875, 0.155029296875, 1.067626953125, 0.835937500000, 2.687500000000, -5.226562500000, 1491904284
-0.053466796875, 0.155029296875, 1.067626953125, 0.835937500000, 2.687500000000, -5.226562500000, 1491904284
-0.053466796875, 0.155029296875, 1.067626953125, 0.835937500000, 2.687500000000, -5.226562500000, 1491904284
-0.104003906250, 0.159179687500, 0.927734375000, -6.625000000000, -3.015625000000, -8.953125000000, 1491904284
-0.104003906250, 0.159179687500, 0.927734375000, -6.625000000000, -3.015625000000, -8.953125000000, 1491904284
-0.104003906250, 0.159179687500, 0.927734375000, -6.625000000000, -3.015625000000, -8.953125000000, 1491904284
-0.104003906250, 0.159179687500, 0.927734375000, -6.625000000000, -3.015625000000, -8.953125000000, 1491904284
-0.176757812500, 0.202392578125, 1.037597656250, -2.320312500000, -0.382812500000, -3.109375000000, 1491904284
-0.096679687500, 0.109863281250, 0.970947265625, -1.234375000000, -2.804687500000, -5.023437500000, 1491904284
-0.096679687500, 0.109863281250, 0.970947265625, -1.234375000000, -2.804687500000, -5.023437500000, 1491904284
-0.096679687500, 0.109863281250, 0.970947265625, -1.234375000000, -2.804687500000, -5.023437500000, 1491904284
-0.146972656250, 0.151367187500, 1.070068359375, -1.015625000000, 0.289062500000, -8.695312500000, 1491904284
-0.146972656250, 0.151367187500, 1.070068359375, -1.015625000000, 0.289062500000, -8.695312500000, 1491904284
-0.146972656250, 0.151367187500, 1.070068359375, -1.015625000000, 0.289062500000, -8.695312500000, 1491904284
-0.146972656250, 0.151367187500, 1.070068359375, -1.015625000000, 0.289062500000, -8.695312500000, 1491904284
-0.128662109375, 0.131103515625, 1.015136718750, -2.890625000000, -0.367187500000, -7.835937500000, 1491904284
-0.128662109375, 0.131103515625, 1.015136718750, -2.890625000000, -0.367187500000, -7.835937500000, 1491904284
-0.128662109375, 0.131103515625, 1.015136718750, -2.890625000000, -0.367187500000, -7.835937500000, 1491904284
-0.128662109375, 0.131103515625, 1.015136718750, -2.890625000000, -0.367187500000, -7.835937500000, 1491904284
-0.128662109375, 0.131103515625, 1.015136718750, -2.890625000000, -0.367187500000, -7.835937500000, 1491904284
-0.166992187500, 0.207275390625, 0.929687500000, -3.648437500000, 0.218750000000, -3.625000000000, 1491904284
-0.166992187500, 0.207275390625, 0.929687500000, -3.648437500000, 0.218750000000, -3.625000000000, 1491904284
-0.166992187500, 0.207275390625, 0.929687500000, -3.648437500000, 0.218750000000, -3.625000000000, 1491904284
-0.166992187500, 0.207275390625, 0.929687500000, -3.648437500000, 0.218750000000, -3.625000000000, 1491904284
-0.166992187500, 0.207275390625, 0.929687500000, -3.648437500000, 0.218750000000, -3.625000000000, 1491904284
-0.166992187500, 0.207275390625, 0.929687500000, -3.648437500000, 0.218750000000, -3.625000000000, 1491904284
-0.218261718750, 0.265625000000, 0.981201171875, -1.312500000000, -0.960937500000, -1.750000000000, 1491904284
-0.218261718750, 0.265625000000, 0.981201171875, -1.312500000000, -0.960937500000, -1.750000000000, 1491904284
-0.218261718750, 0.265625000000, 0.981201171875, -1.312500000000, -0.960937500000, -1.750000000000, 1491904284
-0.218261718750, 0.265625000000, 0.981201171875, -1.312500000000, -0.960937500000, -1.750000000000, 1491904284
-0.059082031250, 0.156738281250, 0.993408203125, -4.875000000000, -2.890625000000, -3.703125000000, 1491904284
-0.059082031250, 0.156738281250, 0.993408203125, -4.875000000000, -2.890625000000, -3.703125000000, 1491904284
-0.059082031250, 0.156738281250, 0.993408203125, -4.875000000000, -2.890625000000, -3.703125000000, 1491904284
-0.092285156250, 0.217773437500, 1.064697265625, -3.968750000000, -0.289062500000, -1.492187500000, 1491904284
-0.092285156250, 0.217773437500, 1.064697265625, -3.968750000000, -0.289062500000, -1.492187500000, 1491904284
-0.092285156250, 0.217773437500, 1.064697265625, -3.968750000000, -0.289062500000, -1.492187500000, 1491904284
-0.196289062500, 0.094970703125, 1.075439453125, -3.179687500000, -0.476562500000, -6.679687500000, 1491904284
-0.196289062500, 0.094970703125, 1.075439453125, -3.179687500000, -0.476562500000, -6.679687500000, 1491904284
-0.196289062500, 0.094970703125, 1.075439453125, -3.179687500000, -0.476562500000, -6.679687500000, 1491904284
-0.088134765625, 0.148193359375, 1.081787109375, -2.929687500000, 0.882812500000, -5.429687500000, 1491904284
-0.088134765625, 0.148193359375, 1.081787109375, -2.929687500000, 0.882812500000, -5.429687500000, 1491904284
-0.088134765625, 0.148193359375, 1.081787109375, -2.929687500000, 0.882812500000, -5.429687500000, 1491904284
-0.088134765625, 0.148193359375, 1.081787109375, -2.929687500000, 0.882812500000, -5.429687500000, 1491904284
-0.104492187500, 0.110107421875, 1.089599609375, -8.593750000000, 0.750000000000, -5.960937500000, 1491904284
-0.104492187500, 0.110107421875, 1.089599609375, -8.593750000000, 0.750000000000, -5.960937500000, 1491904284
-0.104492187500, 0.110107421875, 1.089599609375, -8.593750000000, 0.750000000000, -5.960937500000, 1491904284
-0.080322265625, 0.148925781250, 1.080810546875, -5.140625000000, -0.265625000000, -3.726562500000, 1491904284
-0.080322265625, 0.148925781250, 1.080810546875, -5.140625000000, -0.265625000000, -3.726562500000, 1491904284
-0.080322265625, 0.148925781250, 1.080810546875, -5.140625000000, -0.265625000000, -3.726562500000, 1491904284
-0.042236328125, 0.115478515625, 0.985351562500, -4.085937500000, 2.390625000000, -2.812500000000, 1491904284
-0.042236328125, 0.115478515625, 0.985351562500, -4.085937500000, 2.390625000000, -2.812500000000, 1491904284
-0.042236328125, 0.115478515625, 0.985351562500, -4.085937500000, 2.390625000000, -2.812500000000, 1491904284
-0.111816406250, 0.197998046875, 0.934570312500, -3.484375000000, 2.023437500000, -4.062500000000, 1491904284
-0.111816406250, 0.197998046875, 0.934570312500, -3.484375000000, 2.023437500000, -4.062500000000, 1491904284
-0.111816406250, 0.197998046875, 0.934570312500, -3.484375000000, 2.023437500000, -4.062500000000, 1491904284
-0.132324218750, 0.117919921875, 1.024169921875, -2.945312500000, -0.648437500000, -4.804687500000, 1491904284
-0.132324218750, 0.117919921875, 1.024169921875, -2.945312500000, -0.648437500000, -4.804687500000, 1491904284
-0.132324218750, 0.117919921875, 1.024169921875, -2.945312500000, -0.648437500000, -4.804687500000, 1491904284
-0.132324218750, 0.117919921875, 1.024169921875, -2.945312500000, -0.648437500000, -4.804687500000, 1491904284
-0.122070312500, 0.114990234375, 0.970947265625, -3.109375000000, -2.359375000000, -1.257812500000, 1491904284
-0.122070312500, 0.114990234375, 0.970947265625, -3.109375000000, -2.359375000000, -1.257812500000, 1491904284
-0.122070312500, 0.114990234375, 0.970947265625, -3.109375000000, -2.359375000000, -1.257812500000, 1491904284
-0.122070312500, 0.114990234375, 0.970947265625, -3.109375000000, -2.359375000000, -1.257812500000, 1491904284
-0.122070312500, 0.114990234375, 0.970947265625, -3.109375000000, -2.359375000000, -1.257812500000, 1491904284
-0.107910156250, 0.252929687500, 0.924072265625, -6.445312500000, -0.679687500000, -6.953125000000, 1491904284
-0.107910156250, 0.252929687500, 0.924072265625, -6.445312500000, -0.679687500000, -6.953125000000, 1491904285
-0.107910156250, 0.252929687500, 0.924072265625, -6.445312500000, -0.679687500000, -6.953125000000, 1491904285
-0.107910156250, 0.252929687500, 0.924072265625, -6.445312500000, -0.679687500000, -6.953125000000, 1491904285
-0.107910156250, 0.252929687500, 0.924072265625, -6.445312500000, -0.679687500000, -6.953125000000, 1491904285
-0.197509765625, 0.149658203125, 1.038574218750, -3.046875000000, 2.601562500000, -5.117187500000, 1491904285
-0.197509765625, 0.149658203125, 1.038574218750, -3.046875000000, 2.601562500000, -5.117187500000, 1491904285
-0.206054687500, 0.196777343750, 1.007080078125, -4.585937500000, -0.179687500000, 0.148437500000, 1491904285
-0.206054687500, 0.196777343750, 1.007080078125, -4.585937500000, -0.179687500000, 0.148437500000, 1491904285
-0.206054687500, 0.196777343750, 1.007080078125, -4.585937500000, -0.179687500000, 0.148437500000, 1491904285
-0.206054687500, 0.196777343750, 1.007080078125, -4.585937500000, -0.179687500000, 0.148437500000, 1491904285
-0.095703125000, 0.142822265625, 0.977294921875, -3.703125000000, 0.960937500000, -3.984375000000, 1491904285
-0.095703125000, 0.142822265625, 0.977294921875, -3.703125000000, 0.960937500000, -3.984375000000, 1491904285
-0.095703125000, 0.142822265625, 0.977294921875, -3.703125000000, 0.960937500000, -3.984375000000, 1491904285
-0.101562500000, 0.200683593750, 1.082031250000, -6.210937500000, -0.085937500000, -2.648437500000, 1491904285
-0.203125000000, 0.172119140625, 0.966552734375, 0.968750000000, 2.679687500000, -4.687500000000, 1491904285
-0.203125000000, 0.172119140625, 0.966552734375, 0.968750000000, 2.679687500000, -4.687500000000, 1491904285
-0.203125000000, 0.172119140625, 0.966552734375, 0.968750000000, 2.679687500000, -4.687500000000, 1491904285
-0.203125000000, 0.172119140625, 0.966552734375, 0.968750000000, 2.679687500000, -4.687500000000, 1491904285
-0.103515625000, 0.041748046875, 1.088378906250, -6.859375000000, -4.054687500000, -2.914062500000, 1491904285
-0.103515625000, 0.041748046875, 1.088378906250, -6.859375000000, -4.054687500000, -2.914062500000, 1491904285
-0.103515625000, 0.041748046875, 1.088378906250, -6.859375000000, -4.054687500000, -2.914062500000, 1491904285
-0.103515625000, 0.041748046875, 1.088378906250, -6.859375000000, -4.054687500000, -2.914062500000, 1491904285
-0.103515625000, 0.041748046875, 1.088378906250, -6.859375000000, -4.054687500000, -2.914062500000, 1491904285
-0.041748046875, 0.197265625000, 1.004638671875, -1.976562500000, 0.750000000000, -6.234375000000, 1491904285
-0.093750000000, 0.120605468750, 0.980468750000, -4.226562500000, 2.257812500000, -3.750000000000, 1491904285
-0.093750000000, 0.120605468750, 0.980468750000, -4.226562500000, 2.257812500000, -3.750000000000, 1491904285
-0.093750000000, 0.120605468750, 0.980468750000, -4.226562500000, 2.257812500000, -3.750000000000, 1491904285
-0.093750000000, 0.120605468750, 0.980468750000, -4.226562500000, 2.257812500000, -3.750000000000, 1491904285
-0.093750000000, 0.120605468750, 0.980468750000, -4.226562500000, 2.257812500000, -3.750000000000, 1491904285
-0.130859375000, 0.123779296875, 1.077392578125, -3.898437500000, -0.929687500000, -1.460937500000, 1491904285
-0.130859375000, 0.123779296875, 1.077392578125, -3.898437500000, -0.929687500000, -1.460937500000, 1491904285
-0.130859375000, 0.123779296875, 1.077392578125, -3.898437500000, -0.929687500000, -1.460937500000, 1491904285
-0.130859375000, 0.123779296875, 1.077392578125, -3.898437500000, -0.929687500000, -1.460937500000, 1491904285
