ACC_X,ACC_Y,ACC_Z,G_X,G_Y,G_Z,Unix Time
-0.014892578125, 0.285644531250, 1.027099609375, -4.890625000000, 2.835937500000, -6.710937500000, 1491216998
-0.014892578125, 0.285644531250, 1.027099609375, -4.890625000000, 2.835937500000, -6.710937500000, 1491216998
-0.014892578125, 0.285644531250, 1.027099609375, -4.890625000000, 2.835937500000, -6.710937500000, 1491216998
-0.054199218750, 0.285644531250, 0.957275390625, -4.179687500000, 2.210937500000, -6.984375000000, 1491216998
-0.054199218750, 0.285644531250, 0.957275390625, -4.179687500000, 2.210937500000, -6.984375000000, 1491216998
-0.054199218750, 0.285644531250, 0.957275390625, -4.179687500000, 2.210937500000, -6.984375000000, 1491216998
-0.054199218750, 0.285644531250, 0.957275390625, -4.179687500000, 2.210937500000, -6.984375000000, 1491216998
0.029785156250, 0.339111328125, 1.018066406250, -2.234375000000, -0.210937500000, -5.937500000000, 1491216998
0.029785156250, 0.339111328125, 1.018066406250, -2.234375000000, -0.210937500000, -5.937500000000, 1491216998
0.078369140625, 0.285888671875, 0.957031250000, -2.656250000000, 2.398437500000, -3.796875000000, 1491216998
0.078369140625, 0.285888671875, 0.957031250000, -2.656250000000, 2.398437500000, -3.796875000000, 1491216998
0.078369140625, 0.285888671875, 0.957031250000, -2.656250000000, 2.398437500000, -3.796875000000, 1491216998
-0.026123046875, 0.291015625000, 1.018554687500, -4.476562500000, 2.289062500000, -3.250000000000, 1491216998
0.088623046875, 0.305419921875, 1.016845703125, -4.476562500000, 2.171875000000, -4.796875000000, 1491216998
0.088623046875, 0.305419921875, 1.016845703125, -4.476562500000, 2.171875000000, -4.796875000000, 1491216998
0.088623046875, 0.305419921875, 1.016845703125, -4.476562500000, 2.171875000000, -4.796875000000, 1491216998
0.088623046875, 0.305419921875, 1.016845703125, -4.476562500000, 2.171875000000, -4.796875000000, 1491216998
-0.029296875000, 0.304199218750, 0.968261718750, -5.000000000000, 0.867187500000, -2.000000000000, 1491216998
-0.029296875000, 0.304199218750, 0.968261718750, -5.000000000000, 0.867187500000, -2.000000000000, 1491216998
-0.029296875000, 0.304199218750, 0.968261718750, -5.000000000000, 0.867187500000, -2.000000000000, 1491216998
0.051025390625, 0.349853515625, 0.850830078125, -4.007812500000, -2.554687500000, -3.781250000000, 1491216998
0.051025390625, 0.349853515625, 0.850830078125, -4.007812500000, -2.554687500000, -3.781250000000, 1491216998
0.051025390625, 0.349853515625, 0.850830078125, -4.007812500000, -2.554687500000, -3.781250000000, 1491216998
0.037353515625, 0.293945312500, 0.916015625000, -4.921875000000, 0.570312500000, -3.703125000000, 1491216998
0.037353515625, 0.293945312500, 0.916015625000, -4.921875000000, 0.570312500000, -3.703125000000, 1491216998
-0.007324218750, 0.282958984375, 0.965332031250, -2.593750000000, 0.437500000000, -3.273437500000, 1491216998
-0.007324218750, 0.282958984375, 0.965332031250, -2.593750000000, 0.437500000000, -3.273437500000, 1491216998
-0.007324218750, 0.282958984375, 0.965332031250, -2.593750000000, 0.437500000000, -3.273437500000, 1491216998
-0.007324218750, 0.282958984375, 0.965332031250, -2.593750000000, 0.437500000000, -3.273437500000, 1491216998
-0.007324218750, 0.282958984375, 0.965332031250, -2.593750000000, 0.437500000000, -3.273437500000, 1491216998
0.082031250000, 0.264648437500, 1.004150390625, -2.960937500000, 2.953125000000, -3.070312500000, 1491216998
0.082031250000, 0.264648437500, 1.004150390625, -2.960937500000, 2.953125000000, -3.070312500000, 1491216998
0.082031250000, 0.264648437500, 1.004150390625, -2.960937500000, 2.953125000000, -3.070312500000, 1491216998
0.071289062500, 0.298583984375, 1.015136718750, -4.617187500000, -0.656250000000, -4.132812500000, 1491216998
0.071289062500, 0.298583984375, 1.015136718750, -4.617187500000, -0.656250000000, -4.132812500000, 1491216998
0.071289062500, 0.298583984375, 1.015136718750, -4.617187500000, -0.656250000000, -4.132812500000, 1491216998
-0.061035156250, 0.283935546875, 1.002197265625, -0.851562500000, -4.234375000000, -6.132812500000, 1491216998
-0.061035156250, 0.283935546875, 1.002197265625, -0.851562500000, -4.234375000000, -6.132812500000, 1491216998
-0.061035156250, 0.283935546875, 1.002197265625, -0.851562500000, -4.234375000000, -6.132812500000, 1491216998
-0.077880859375, 0.289306640625, 0.911376953125, -0.429687500000, 2.859375000000, -3.367187500000, 1491216998
-0.077880859375, 0.289306640625, 0.911376953125, -0.429687500000, 2.859375000000, -3.367187500000, 1491216998
-0.077880859375, 0.289306640625, 0.911376953125, -0.429687500000, 2.859375000000, -3.367187500000, 1491216998
-0.077880859375, 0.289306640625, 0.911376953125, -0.429687500000, 2.859375000000, -3.367187500000, 1491216998
0.008789062500, 0.383300781250, 1.018066406250, -4.640625000000, -0.859375000000, -3.578125000000, 1491216998
0.008789062500, 0.383300781250, 1.018066406250, -4.640625000000, -0.859375000000, -3.578125000000, 1491216998
0.008789062500, 0.383300781250, 1.018066406250, -4.640625000000, -0.859375000000, -3.578125000000, 1491216998
0.074218750000, 0.283447265625, 0.920898437500, -5.804687500000, -0.312500000000, -3.242187500000, 1491216998
0.074218750000, 0.283447265625, 0.920898437500, -5.804687500000, -0.312500000000, -3.242187500000, 1491216998
0.074218750000, 0.283447265625, 0.920898437500, -5.804687500000, -0.312500000000, -3.242187500000, 1491216998
0.073486328125, 0.335693359375, 0.934570312500, -6.179687500000, -2.703125000000, -4.218750000000, 1491216998
0.073486328125, 0.335693359375, 0.934570312500, -6.179687500000, -2.703125000000, -4.218750000000, 1491216998
0.073486328125, 0.335693359375, 0.934570312500, -6.179687500000, -2.703125000000, -4.218750000000, 1491216998
0.047851562500, 0.302734375000, 0.925537109375, -1.500000000000, 2.601562500000, -6.796875000000, 1491216998
0.047851562500, 0.302734375000, 0.925537109375, -1.500000000000, 2.601562500000, -6.796875000000, 1491216998
0.047851562500, 0.302734375000, 0.925537109375, -1.500000000000, 2.601562500000, -6.796875000000, 1491216999
0.047851562500, 0.302734375000, 0.925537109375, -1.500000000000, 2.601562500000, -6.796875000000, 1491216999
0.064208984375, 0.322021484375, 0.932861328125, -4.093750000000, 2.617187500000, -6.593750000000, 1491216999
0.064208984375, 0.322021484375, 0.932861328125, -4.093750000000, 2.617187500000, -6.593750000000, 1491216999
0.064208984375, 0.322021484375, 0.932861328125, -4.093750000000, 2.617187500000, -6.593750000000, 1491216999
0.017089843750, 0.328857421875, 0.980712890625, -1.601562500000, -1.054687500000, -4.093750000000, 1491216999
0.017089843750, 0.328857421875, 0.980712890625, -1.601562500000, -1.054687500000, -4.093750000000, 1491216999
0.017089843750, 0.328857421875, 0.980712890625, -1.601562500000, -1.054687500000, -4.093750000000, 1491216999
-0.010253906250, 0.236328125000, 0.966308593750, -1.546875000000, 0.320312500000, -5.203125000000, 1491216999
-0.010253906250, 0.236328125000, 0.966308593750, -1.546875000000, 0.320312500000, -5.203125000000, 1491216999
-0.010253906250, 0.236328125000, 0.966308593750, -1.546875000000, 0.320312500000, -5.203125000000, 1491216999
-0.009521484375, 0.301513671875, 0.926025390625, -4.328125000000, -0.304687500000, -6.414062500000, 1491216999
-0.009521484375, 0.301513671875, 0.926025390625, -4.328125000000, -0.304687500000, -6.414062500000, 1491216999
-0.009521484375, 0.301513671875, 0.926025390625, -4.328125000000, -0.304687500000, -6.414062500000, 1491216999
-0.009521484375, 0.301513671875, 0.926025390625, -4.328125000000, -0.304687500000, -6.414062500000, 1491216999
-0.008789062500, 0.225341796875, 0.935546875000, -5.023437500000, -0.585937500000, -3.812500000000, 1491216999
-0.008789062500, 0.225341796875, 0.935546875000, -5.023437500000, -0.585937500000, -3.812500000000, 1491216999
-0.008789062500, 0.225341796875, 0.935546875000, -5.023437500000, -0.585937500000, -3.812500000000, 1491216999
-0.007812500000, 0.333251953125, 0.923339843750, -3.718750000000, -0.820312500000, -3.210937500000, 1491216999
-0.007812500000, 0.333251953125, 0.923339843750, -3.718750000000, -0.820312500000, -3.210937500000, 1491216999
-0.007812500000, 0.333251953125, 0.923339843750, -3.718750000000, -0.820312500000, -3.210937500000, 1491216999
0.020996093750, 0.297363281250, 0.979248046875, -3.148437500000, -2.343750000000, -3.062500000000, 1491216999
0.020996093750, 0.297363281250, 0.979248046875, -3.148437500000, -2.343750000000, -3.062500000000, 1491216999
0.020996093750, 0.297363281250, 0.979248046875, -3.148437500000, -2.343750000000, -3.062500000000, 1491216999
0.072998046875, 0.282714843750, 1.009033203125, -4.093750000000, -0.765625000000, -3.320312500000, 1491216999
0.072998046875, 0.282714843750, 1.009033203125, -4.093750000000, -0.765625000000, -3.320312500000, 1491216999
0.072998046875, 0.282714843750, 1.009033203125, -4.093750000000, -0.765625000000, -3.320312500000, 1491216999
0.072998046875, 0.282714843750, 1.009033203125, -4.093750000000, -0.765625000000, -3.320312500000, 1491216999
0.039550781250, 0.328369140625, 0.923828125000, -4.367187500000, 0.539062500000, -4.953125000000, 1491216999
0.039550781250, 0.328369140625, 0.923828125000, -4.367187500000, 0.539062500000, -4.953125000000, 1491216999
0.039550781250, 0.328369140625, 0.923828125000, -4.367187500000, 0.539062500000, -4.953125000000, 1491216999
0.081054687500, 0.247802734375, 1.001708984375, -1.750000000000, -0.929687500000, -3.554687500000, 1491216999
0.081054687500, 0.247802734375, 1.001708984375, -1.750000000000, -0.929687500000, -3.554687500000, 1491216999
0.081054687500, 0.247802734375, 1.001708984375, -1.750000000000, -0.929687500000, -3.554687500000, 1491216999
-0.008789062500, 0.224609375000, 1.007324218750, -5.406250000000, 0.367187500000, -2.906250000000, 1491216999
-0.008789062500, 0.224609375000, 1.007324218750, -5.406250000000, 0.367187500000, -2.906250000000, 1491216999
-0.008789062500, 0.224609375000, 1.007324218750, -5.406250000000, 0.367187500000, -2.906250000000, 1491216999
-0.016845703125, 0.293212890625, 1.015380859375, -4.781250000000, -3.453125000000, -4.281250000000, 1491216999
-0.016845703125, 0.293212890625, 1.015380859375, -4.781250000000, -3.453125000000, -4.281250000000, 1491216999
-0.016845703125, 0.293212890625, 1.015380859375, -4.781250000000, -3.453125000000, -4.281250000000, 1491216999
-0.016845703125, 0.293212890625, 1.015380859375, -4.781250000000, -3.453125000000, -4.281250000000, 1491216999
-0.018310546875, 0.389404296875, 0.926757812500, -4.023437500000, 2.421875000000, -6.203125000000, 1491216999
-0.018310546875, 0.389404296875, 0.926757812500, -4.023437500000, 2.421875000000, -6.203125000000, 1491216999
-0.018310546875, 0.389404296875, 0.926757812500, -4.023437500000, 2.421875000000, -6.203125000000, 1491216999
0.026855468750, 0.385009765625, 0.996337890625, -3.750000000000, -0.585937500000, -1.679687500000, 1491216999
0.026855468750, 0.385009765625, 0.996337890625, -3.750000000000, -0.585937500000, -1.679687500000, 1491216999
0.026855468750, 0.385009765625, 0.996337890625, -3.750000000000, -0.585937500000, -1.679687500000, 1491216999
0.072265625000, 0.320068359375, 0.854003906250, -6.851562500000, -2.585937500000, -3.351562500000, 1491216999
0.072265625000, 0.320068359375, 0.854003906250, -6.851562500000, -2.585937500000, -3.351562500000, 1491216999
0.072265625000, 0.320068359375, 0.854003906250, -6.851562500000, -2.585937500000, -3.351562500000, 1491216999
0.027343750000, 0.246337890625, 0.914794921875, -3.734375000000, -1.328125000000, -1.015625000000, 1491216999
0.027343750000, 0.246337890625, 0.914794921875, -3.734375000000, -1.328125000000, -1.015625000000, 1491216999
0.027343750000, 0.246337890625, 0.914794921875, -3.734375000000, -1.328125000000, -1.015625000000, 1491216999
0.027343750000, 0.246337890625, 0.914794921875, -3.734375000000, -1.328125000000, -1.015625000000, 1491216999
0.040771484375, 0.225585937500, 1.020507812500, -6.984375000000, 0.328125000000, -2.921875000000, 1491216999
0.040771484375, 0.225585937500, 1.020507812500, -6.984375000000, 0.328125000000, -2.921875000000, 1491216999
0.040771484375, 0.225585937500, 1.020507812500, -6.984375000000, 0.328125000000, -2.921875000000, 1491216999
0.040771484375, 0.225585937500, 1.020507812500, -6.984375000000, 0.328125000000, -2.921875000000, 1491216999
0.040771484375, 0.225585937500, 1.020507812500, -6.984375000000, 0.328125000000, -2.921875000000, 1491216999
-0.019287109375, 0.310791015625, 0.933349609375, -3.390625000000, -2.687500000000, -1.859375000000, 1491216999
-0.019287109375, 0.310791015625, 0.933349609375, -3.390625000000, -2.687500000000, -1.859375000000, 1491216999
-0.019287109375, 0.310791015625, 0.933349609375, -3.390625000000, -2.687500000000, -1.859375000000, 1491216999
-0.019287109375, 0.310791015625, 0.933349609375, -3.390625000000, -2.687500000000, -1.859375000000, 1491216999
-0.019287109375, 0.310791015625, 0.933349609375, -3.390625000000, -2.687500000000, -1.859375000000, 1491216999
0.066894531250, 0.309082031250, 0.908447265625, -3.367187500000, -0.421875000000, -4.882812500000, 1491216999
0.066894531250, 0.309082031250, 0.908447265625, -3.367187500000, -0.421875000000, -4.882812500000, 1491216999
0.066894531250, 0.309082031250, 0.908447265625, -3.367187500000, -0.421875000000, -4.882812500000, 1491216999
-0.012695312500, 0.329101562500, 0.919921875000, -5.328125000000, -2.062500000000, -3.359375000000, 1491217000
-0.012695312500, 0.329101562500, 0.919921875000, -5.328125000000, -2.062500000000, -3.359375000000, 1491217000
-0.012695312500, 0.329101562500, 0.919921875000, -5.328125000000, -2.062500000000, -3.359375000000, 1491217000
0.018554687500, 0.357177734375, 0.962646484375, -5.203125000000, -0.265625000000, -3.492187500000, 1491217000
0.018554687500, 0.357177734375, 0.962646484375, -5.203125000000, -0.265625000000, -3.492187500000, 1491217000
0.018554687500, 0.357177734375, 0.962646484375, -5.203125000000, -0.265625000000, -3.492187500000, 1491217000
0.018066406250, 0.296875000000, 0.956787109375, -5.203125000000, 0.906250000000, -4.617187500000, 1491217000
0.018066406250, 0.296875000000, 0.956787109375, -5.203125000000, 0.906250000000, -4.617187500000, 1491217000
0.018066406250, 0.296875000000, 0.956787109375, -5.203125000000, 0.906250000000, -4.617187500000, 1491217000
0.069335937500, 0.301269531250, 0.929931640625, -3.179687500000, 0.593750000000, -3.429687500000, 1491217000
0.069335937500, 0.301269531250, 0.929931640625, -3.179687500000, 0.593750000000, -3.429687500000, 1491217000
0.069335937500, 0.301269531250, 0.929931640625, -3.179687500000, 0.593750000000, -3.429687500000, 1491217000
0.069335937500, 0.301269531250, 0.929931640625, -3.179687500000, 0.593750000000, -3.429687500000, 1491217000
0.077880859375, 0.314697265625, 1.004150390625, -3.625000000000, 0.765625000000, -1.578125000000, 1491217000
0.077880859375, 0.314697265625, 1.004150390625, -3.625000000000, 0.765625000000, -1.578125000000, 1491217000
0.077880859375, 0.314697265625, 1.004150390625, -3.625000000000, 0.765625000000, -1.578125000000, 1491217000
0.066650390625, 0.392333984375, 1.009277343750, -3.375000000000, -2.906250000000, -4.898437500000, 1491217000
0.066650390625, 0.392333984375, 1.009277343750, -3.375000000000, -2.906250000000, -4.898437500000, 1491217000
0.066650390625, 0.392333984375, 1.009277343750, -3.375000000000, -2.906250000000, -4.898437500000, 1491217000
0.137451171875, 0.331542968750, 0.908691406250, -1.617187500000, 0.757812500000, -3.765625000000, 1491217000
0.137451171875, 0.331542968750, 0.908691406250, -1.617187500000, 0.757812500000, -3.765625000000, 1491217000
0.137451171875, 0.331542968750, 0.908691406250, -1.617187500000, 0.757812500000, -3.765625000000, 1491217000
-0.028076171875, 0.311035156250, 0.926513671875, -1.507812500000, -0.281250000000, -1.031250000000, 1491217000
-0.028076171875, 0.311035156250, 0.926513671875, -1.507812500000, -0.281250000000, -1.031250000000, 1491217000
-0.028076171875, 0.311035156250, 0.926513671875, -1.507812500000, -0.281250000000, -1.031250000000, 1491217000
-0.028076171875, 0.311035156250, 0.926513671875, -1.507812500000, -0.281250000000, -1.031250000000, 1491217000
0.070068359375, 0.331054687500, 1.024902343750, 2.984375000000, 2.281250000000, -2.601562500000, 1491217000
0.070068359375, 0.331054687500, 1.024902343750, 2.984375000000, 2.281250000000, -2.601562500000, 1491217000
0.070068359375, 0.331054687500, 1.024902343750, 2.984375000000, 2.281250000000, -2.601562500000, 1491217000
-0.031738281250, 0.401367187500, 0.939208984375, 2.734375000000, 2.500000000000, -2.820312500000, 1491217000
-0.031738281250, 0.401367187500, 0.939208984375, 2.734375000000, 2.500000000000, -2.820312500000, 1491217000
-0.031738281250, 0.401367187500, 0.939208984375, 2.734375000000, 2.500000000000, -2.820312500000, 1491217000
-0.011718750000, 0.440917968750, 0.918212890625, 5.867187500000, -9.445312500000, -3.984375000000, 1491217000
-0.011718750000, 0.440917968750, 0.918212890625, 5.867187500000, -9.445312500000, -3.984375000000, 1491217000
-0.011718750000, 0.440917968750, 0.918212890625, 5.867187500000, -9.445312500000, -3.984375000000, 1491217000
0.001220703125, 0.319824218750, 0.917236328125, 11.757812500000, -51.703125000000, -15.703125000000, 1491217000
0.001220703125, 0.319824218750, 0.917236328125, 11.757812500000, -51.703125000000, -15.703125000000, 1491217000
0.001220703125, 0.319824218750, 0.917236328125, 11.757812500000, -51.703125000000, -15.703125000000, 1491217000
0.001220703125, 0.319824218750, 0.917236328125, 11.757812500000, -51.703125000000, -15.703125000000, 1491217000
0.033935546875, 0.267578125000, 1.129882812500, 6.570312500000, -78.929687500000, -24.734375000000, 1491217000
0.033935546875, 0.267578125000, 1.129882812500, 6.570312500000, -78.929687500000, -24.734375000000, 1491217000
0.033935546875, 0.267578125000, 1.129882812500, 6.570312500000, -78.929687500000, -24.734375000000, 1491217000
0.245361328125, 0.340087890625, 1.010498046875, -5.843750000000, -26.226562500000, -18.210937500000, 1491217000
0.245361328125, 0.340087890625, 1.010498046875, -5.843750000000, -26.226562500000, -18.210937500000, 1491217000
0.245361328125, 0.340087890625, 1.010498046875, -5.843750000000, -26.226562500000, -18.210937500000, 1491217000
0.457763671875, 0.242187500000, 1.064453125000, 3.132812500000, 12.570312500000, -11.851562500000, 1491217000
0.457763671875, 0.242187500000, 1.064453125000, 3.132812500000, 12.570312500000, -11.851562500000, 1491217000
0.457763671875, 0.242187500000, 1.064453125000, 3.132812500000, 12.570312500000, -11.851562500000, 1491217000
0.403076171875, 0.287353515625, 1.005859375000, 5.851562500000, 62.000000000000, 1.398437500000, 1491217000
0.403076171875, 0.287353515625, 1.005859375000, 5.851562500000, 62.000000000000, 1.398437500000, 1491217000
0.403076171875, 0.287353515625, 1.005859375000, 5.851562500000, 62.000000000000, 1.398437500000, 1491217000
0.403076171875, 0.287353515625, 1.005859375000, 5.851562500000, 62.000000000000, 1.398437500000, 1491217000
0.251708984375, 0.316894531250, 0.905517578125, -2.531250000000, 83.992187500000, 3.890625000000, 1491217000
0.251708984375, 0.316894531250, 0.905517578125, -2.531250000000, 83.992187500000, 3.890625000000, 1491217000
0.251708984375, 0.316894531250, 0.905517578125, -2.531250000000, 83.992187500000, 3.890625000000, 1491217000
0.070556640625, 0.329345703125, 1.075683593750, 11.648437500000, 93.648437500000, -1.554687500000, 1491217000
0.070556640625, 0.329345703125, 1.075683593750, 11.648437500000, 93.648437500000, -1.554687500000, 1491217000
0.070556640625, 0.329345703125, 1.075683593750, 11.648437500000, 93.648437500000, -1.554687500000, 1491217000
-0.106933593750, 0.510253906250, 1.105957031250, 29.984375000000, 12.140625000000, 6.226562500000, 1491217000
-0.106933593750, 0.510253906250, 1.105957031250, 29.984375000000, 12.140625000000, 6.226562500000, 1491217000
-0.106933593750, 0.510253906250, 1.105957031250, 29.984375000000, 12.140625000000, 6.226562500000, 1491217000
-0.001464843750, 0.221191406250, 1.028808593750, 23.156250000000, 75.476562500000, -11.125000000000, 1491217000
-0.001464843750, 0.221191406250, 1.028808593750, 23.156250000000, 75.476562500000, -11.125000000000, 1491217000
-0.001464843750, 0.221191406250, 1.028808593750, 23.156250000000, 75.476562500000, -11.125000000000, 1491217000
-0.001464843750, 0.221191406250, 1.028808593750, 23.156250000000, 75.476562500000, -11.125000000000, 1491217000
-0.027099609375, 0.009277343750, 1.058837890625, 51.250000000000, 19.054687500000, -0.789062500000, 1491217000
-0.027099609375, 0.009277343750, 1.058837890625, 51.250000000000, 19.054687500000, -0.789062500000, 1491217000
-0.027099609375, 0.009277343750, 1.058837890625, 51.250000000000, 19.054687500000, -0.789062500000, 1491217000
-0.071777343750, 0.010009765625, 0.803222656250, 26.312500000000, 65.468750000000, 6.148437500000, 1491217001
-0.071777343750, 0.010009765625, 0.803222656250, 26.312500000000, 65.468750000000, 6.148437500000, 1491217001
-0.071777343750, 0.010009765625, 0.803222656250, 26.312500000000, 65.468750000000, 6.148437500000, 1491217001
-0.052246093750, 0.022705078125, 0.793212890625, -6.625000000000, 51.125000000000, -1.351562500000, 1491217001
-0.052246093750, 0.022705078125, 0.793212890625, -6.625000000000, 51.125000000000, -1.351562500000, 1491217001
-0.052246093750, 0.022705078125, 0.793212890625, -5.867187500000, 51.414062500000, 6.929687500000, 1491217001
-0.260742187500, 0.006591796875, 0.827392578125, -22.140625000000, 96.757812500000, 11.453125000000, 1491217001
-0.260742187500, 0.006591796875, 0.827392578125, -22.140625000000, 96.757812500000, 11.453125000000, 1491217001
-0.338378906250, -0.017822265625, 0.839843750000, -1.500000000000, 68.164062500000, 21.445312500000, 1491217001
-0.405517578125, -0.003417968750, 0.845947265625, 2.835937500000, 47.132812500000, 23.671875000000, 1491217001
-0.405517578125, -0.003417968750, 0.845947265625, 2.835937500000, 47.132812500000, 23.671875000000, 1491217001
-0.405517578125, -0.003417968750, 0.845947265625, 2.835937500000, 47.132812500000, 23.671875000000, 1491217001
-0.405517578125, -0.003417968750, 0.845947265625, 2.835937500000, 47.132812500000, 23.671875000000, 1491217001
-0.652343750000, -0.025146484375, 1.015625000000, -30.820312500000, 100.132812500000, 23.210937500000, 1491217001
-0.652343750000, -0.025146484375, 1.015625000000, -30.820312500000, 100.132812500000, 23.210937500000, 1491217001
-0.652343750000, -0.025146484375, 1.015625000000, -30.820312500000, 100.132812500000, 23.210937500000, 1491217001
-0.604980468750, 0.239990234375, 1.092773437500, -2.703125000000, 57.304687500000, 35.226562500000, 1491217001
-0.604980468750, 0.239990234375, 1.092773437500, -2.703125000000, 57.304687500000, 35.226562500000, 1491217001
-0.604980468750, 0.239990234375, 1.092773437500, -2.703125000000, 57.304687500000, 35.226562500000, 1491217001
-0.494628906250, 0.093017578125, 0.792480468750, 4.070312500000, 75.000000000000, 28.945312500000, 1491217001
-0.494628906250, 0.093017578125, 0.792480468750, 4.070312500000, 75.000000000000, 28.945312500000, 1491217001
-0.494628906250, 0.093017578125, 0.792480468750, 4.070312500000, 75.000000000000, 28.945312500000, 1491217001
-0.494628906250, 0.093017578125, 0.792480468750, 4.070312500000, 75.000000000000, 28.945312500000, 1491217001
-0.562988281250, 0.065917968750, 0.674560546875, -6.070312500000, 78.585937500000, 28.875000000000, 1491217001
-0.562988281250, 0.065917968750, 0.674560546875, -6.070312500000, 78.585937500000, 28.875000000000, 1491217001
-0.562988281250, 0.065917968750, 0.674560546875, -6.070312500000, 78.585937500000, 28.875000000000, 1491217001
-0.584716796875, 0.087890625000, 0.725585937500, -18.687500000000, 75.109375000000, 26.539062500000, 1491217001
-0.584716796875, 0.087890625000, 0.725585937500, -18.687500000000, 75.109375000000, 26.539062500000, 1491217001
-0.584716796875, 0.087890625000, 0.725585937500, -18.687500000000, 75.109375000000, 26.539062500000, 1491217001
-0.586425781250, 0.061523437500, 0.759521484375, -25.648437500000, 83.179687500000, 17.132812500000, 1491217001
-0.586425781250, 0.061523437500, 0.759521484375, -25.648437500000, 83.179687500000, 17.132812500000, 1491217001
-0.586425781250, 0.061523437500, 0.759521484375, -25.648437500000, 83.179687500000, 17.132812500000, 1491217001
-0.708496093750, 0.110595703125, 0.604492187500, -43.523437500000, 105.531250000000, 13.117187500000, 1491217001
-0.708496093750, 0.110595703125, 0.604492187500, -43.523437500000, 105.531250000000, 13.117187500000, 1491217001
-0.708496093750, 0.110595703125, 0.604492187500, -43.523437500000, 105.531250000000, 13.117187500000, 1491217001
-0.708496093750, 0.110595703125, 0.604492187500, -43.523437500000, 105.531250000000, 13.117187500000, 1491217001
-0.608154296875, 0.113525390625, 0.489746093750, -35.429687500000, 90.687500000000, 24.914062500000, 1491217001
-0.681396484375, 0.041748046875, 0.522460937500, -23.570312500000, 85.546875000000, 34.945312500000, 1491217001
-0.938720703125, -0.033935546875, 0.309326171875, 9.023437500000, 127.156250000000, 77.960937500000, 1491217001
-0.938720703125, -0.033935546875, 0.309326171875, 9.023437500000, 127.156250000000, 77.960937500000, 1491217001
-0.938720703125, -0.033935546875, 0.309326171875, 9.023437500000, 127.156250000000, 77.960937500000, 1491217001
-0.938720703125, -0.033935546875, 0.309326171875, 9.023437500000, 127.156250000000, 77.960937500000, 1491217001
-1.185791015625, -0.039550781250, 0.356689453125, 33.007812500000, 22.898437500000, 52.562500000000, 1491217001
-1.185791015625, -0.039550781250, 0.356689453125, 33.007812500000, 22.898437500000, 52.562500000000, 1491217001
-1.185791015625, -0.039550781250, 0.356689453125, 33.007812500000, 22.898437500000, 52.562500000000, 1491217001
-1.185791015625, -0.039550781250, 0.356689453125, 33.007812500000, 22.898437500000, 52.562500000000, 1491217001
-0.923583984375, -0.215576171875, 0.241699218750, 44.187500000000, 34.453125000000, 15.796875000000, 1491217001
-0.923583984375, -0.215576171875, 0.241699218750, 44.187500000000, 34.453125000000, 15.796875000000, 1491217001
-0.923583984375, -0.215576171875, 0.241699218750, 44.187500000000, 34.453125000000, 15.796875000000, 1491217001
-0.923583984375, -0.215576171875, 0.241699218750, 44.187500000000, 34.453125000000, 15.796875000000, 1491217001
-0.923583984375, -0.215576171875, 0.241699218750, 44.187500000000, 34.453125000000, 15.796875000000, 1491217001
-0.923583984375, -0.215576171875, 0.241699218750, 44.187500000000, 34.453125000000, 15.796875000000, 1491217001
-0.903320312500, -0.209228515625, 0.383544921875, 25.890625000000, 54.398437500000, 26.882812500000, 1491217001
-0.903320312500, -0.209228515625, 0.383544921875, 25.890625000000, 54.398437500000, 26.882812500000, 1491217001
-0.903320312500, -0.209228515625, 0.383544921875, 25.890625000000, 54.398437500000, 26.882812500000, 1491217001
-0.777832031250, -0.279296875000, 0.333740234375, 5.203125000000, 13.585937500000, 13.351562500000, 1491217001
-0.777832031250, -0.279296875000, 0.333740234375, 5.203125000000, 13.585937500000, 13.351562500000, 1491217001
-0.777832031250, -0.279296875000, 0.333740234375, 5.203125000000, 13.585937500000, 13.351562500000, 1491217001
-0.583984375000, -0.327636718750, 0.177734375000, 2.250000000000, 57.882812500000, 60.851562500000, 1491217001
-0.583984375000, -0.327636718750, 0.177734375000, 2.250000000000, 57.882812500000, 60.851562500000, 1491217001
-0.583984375000, -0.327636718750, 0.177734375000, 2.250000000000, 57.882812500000, 60.851562500000, 1491217001
-0.583984375000, -0.327636718750, 0.177734375000, 2.250000000000, 57.882812500000, 60.851562500000, 1491217001
-4.238281250000, 0.708984375000, -0.515869140625, -105.468750000000, 253.992187500000, 251.585937500000, 1491217001
-4.238281250000, 0.708984375000, -0.515869140625, -105.468750000000, 253.992187500000, 251.585937500000, 1491217001
-4.238281250000, 0.708984375000, -0.515869140625, -105.468750000000, 253.992187500000, 251.585937500000, 1491217001
-0.717285156250, -0.688720703125, 0.153808593750, 94.265625000000, 141.312500000000, 35.929687500000, 1491217001
-0.717285156250, -0.688720703125, 0.153808593750, 94.265625000000, 141.312500000000, 35.929687500000, 1491217002
-0.717285156250, -0.688720703125, 0.153808593750, 94.265625000000, 141.312500000000, 35.929687500000, 1491217002
-0.919189453125, -0.382324218750, 0.165527343750, 56.546875000000, 253.992187500000, 4.851562500000, 1491217002
-0.919189453125, -0.382324218750, 0.165527343750, 56.546875000000, 253.992187500000, 4.851562500000, 1491217002
-0.919189453125, -0.382324218750, 0.165527343750, 56.546875000000, 253.992187500000, 4.851562500000, 1491217002
-0.616455078125, -0.309082031250, 0.095703125000, 56.695312500000, 253.992187500000, 2.859375000000, 1491217002
-0.691650390625, -0.436279296875, -0.437255859375, -4.742187500000, 33.476562500000, 15.718750000000, 1491217002
-0.691650390625, -0.436279296875, -0.437255859375, -4.742187500000, 33.476562500000, 15.718750000000, 1491217002
-0.691650390625, -0.436279296875, -0.437255859375, -4.742187500000, 33.476562500000, 15.718750000000, 1491217002
-0.691650390625, -0.436279296875, -0.437255859375, -4.742187500000, 33.476562500000, 15.718750000000, 1491217002
-0.518310546875, -0.438232421875, -0.775878906250, -15.000000000000, 22.460937500000, 3.375000000000, 1491217002
-0.518310546875, -0.438232421875, -0.775878906250, -15.000000000000, 22.460937500000, 3.375000000000, 1491217002
-0.518310546875, -0.438232421875, -0.775878906250, -15.000000000000, 22.460937500000, 3.375000000000, 1491217002
-0.518310546875, -0.438232421875, -0.775878906250, -15.000000000000, 22.460937500000, 3.375000000000, 1491217002
-0.518310546875, -0.438232421875, -0.775878906250, -15.000000000000, 22.460937500000, 3.375000000000, 1491217002
-0.311523437500, -0.364257812500, -0.906738281250, -10.914062500000, 33.945312500000, 14.750000000000, 1491217002
-0.311523437500, -0.364257812500, -0.906738281250, -10.914062500000, 33.945312500000, 14.750000000000, 1491217002
-0.311523437500, -0.364257812500, -0.906738281250, -10.914062500000, 33.945312500000, 14.750000000000, 1491217002
-0.243896484375, -0.408447265625, -0.891601562500, -19.484375000000, 6.031250000000, 4.742187500000, 1491217002
-0.243896484375, -0.408447265625, -0.891601562500, -19.484375000000, 6.031250000000, 4.742187500000, 1491217002
-0.243896484375, -0.408447265625, -0.891601562500, -19.484375000000, 6.031250000000, 4.742187500000, 1491217002
-0.243896484375, -0.408447265625, -0.891601562500, -19.484375000000, 6.031250000000, 4.742187500000, 1491217002
-0.270751953125, -0.317871093750, -0.798339843750, -14.937500000000, 6.898437500000, 3.101562500000, 1491217002
-0.270751953125, -0.317871093750, -0.798339843750, -14.937500000000, 6.898437500000, 3.101562500000, 1491217002
-0.270751953125, -0.317871093750, -0.798339843750, -14.937500000000, 6.898437500000, 3.101562500000, 1491217002
-0.389648437500, -0.414550781250, -0.793701171875, -7.414062500000, 0.484375000000, -2.273437500000, 1491217002
-0.389648437500, -0.414550781250, -0.793701171875, -7.414062500000, 0.484375000000, -2.273437500000, 1491217002
-0.389648437500, -0.414550781250, -0.793701171875, -7.414062500000, 0.484375000000, -2.273437500000, 1491217002
-0.443359375000, -0.351806640625, -0.879150390625, 1.375000000000, -11.710937500000, -7.906250000000, 1491217002
-0.443359375000, -0.351806640625, -0.879150390625, 1.375000000000, -11.710937500000, -7.906250000000, 1491217002
-0.443359375000, -0.351806640625, -0.879150390625, 1.375000000000, -11.710937500000, -7.906250000000, 1491217002
-0.355957031250, -0.356445312500, -0.791503906250, 3.937500000000, -18.875000000000, -11.093750000000, 1491217002
-0.355957031250, -0.356445312500, -0.791503906250, 3.937500000000, -18.875000000000, -11.093750000000, 1491217002
-0.355957031250, -0.356445312500, -0.791503906250, 3.937500000000, -18.875000000000, -11.093750000000, 1491217002
-0.355957031250, -0.356445312500, -0.791503906250, 3.937500000000, -18.875000000000, -11.093750000000, 1491217002
-0.354248046875, -0.373779296875, -0.786376953125, 0.437500000000, -18.687500000000, -16.679687500000, 1491217002
-0.354248046875, -0.373779296875, -0.786376953125, 0.437500000000, -18.687500000000, -16.679687500000, 1491217002
-0.354248046875, -0.373779296875, -0.786376953125, 0.437500000000, -18.687500000000, -16.679687500000, 1491217002
-0.469482421875, -0.296630859375, -0.763916015625, 0.718750000000, -11.804687500000, -10.351562500000, 1491217002
-0.469482421875, -0.296630859375, -0.763916015625, 0.718750000000, -11.804687500000, -10.351562500000, 1491217002
-0.469482421875, -0.296630859375, -0.763916015625, 0.718750000000, -11.804687500000, -10.351562500000, 1491217002
-0.444091796875, -0.348144531250, -0.683837890625, -1.203125000000, -7.242187500000, -10.476562500000, 1491217002
-0.444091796875, -0.348144531250, -0.683837890625, -1.203125000000, -7.242187500000, -10.476562500000, 1491217002
-0.444091796875, -0.348144531250, -0.683837890625, -1.203125000000, -7.242187500000, -10.476562500000, 1491217002
-0.453125000000, -0.359863281250, -0.750244140625, -4.773437500000, -3.226562500000, -4.085937500000, 1491217002
-0.453125000000, -0.359863281250, -0.750244140625, -4.773437500000, -3.226562500000, -4.085937500000, 1491217002
-0.453125000000, -0.359863281250, -0.750244140625, -4.773437500000, -3.226562500000, -4.085937500000, 1491217002
-0.453125000000, -0.359863281250, -0.750244140625, -4.773437500000, -3.226562500000, -4.085937500000, 1491217002
-0.527099609375, -0.441162109375, -0.719238281250, -4.835937500000, -1.054687500000, -4.523437500000, 1491217002
-0.527099609375, -0.441162109375, -0.719238281250, -4.835937500000, -1.054687500000, -4.523437500000, 1491217002
-0.527099609375, -0.441162109375, -0.719238281250, -4.835937500000, -1.054687500000, -4.523437500000, 1491217002
-0.466308593750, -0.355468750000, -0.745849609375, -1.796875000000, 0.835937500000, 0.109375000000, 1491217002
-0.463623046875, -0.458251953125, -0.725585937500, -4.265625000000, 7.468750000000, -2.054687500000, 1491217002
-0.461914062500, -0.358886718750, -0.822753906250, -6.101562500000, 5.984375000000, 0.289062500000, 1491217002
-0.461914062500, -0.358886718750, -0.822753906250, -6.101562500000, 5.984375000000, 0.289062500000, 1491217002
-0.461914062500, -0.358886718750, -0.822753906250, -6.101562500000, 5.984375000000, 0.289062500000, 1491217002
-0.461914062500, -0.358886718750, -0.822753906250, -6.101562500000, 5.984375000000, 0.289062500000, 1491217002
-0.461914062500, -0.358886718750, -0.822753906250, -6.101562500000, 5.984375000000, 0.289062500000, 1491217002
-0.439697265625, -0.378662109375, -0.797119140625, -6.476562500000, 9.109375000000, 0.070312500000, 1491217002
-0.439697265625, -0.378662109375, -0.797119140625, -6.476562500000, 9.109375000000, 0.070312500000, 1491217002
-0.439697265625, -0.378662109375, -0.797119140625, -6.476562500000, 9.109375000000, 0.070312500000, 1491217002
-0.358642578125, -0.381347656250, -0.794433593750, -6.085937500000, 7.335937500000, -2.460937500000, 1491217002
-0.358642578125, -0.381347656250, -0.794433593750, -6.085937500000, 7.335937500000, -2.460937500000, 1491217002
-0.358642578125, -0.381347656250, -0.794433593750, -6.085937500000, 7.335937500000, -2.460937500000, 1491217002
-0.458740234375, -0.458251953125, -0.736572265625, -5.414062500000, 5.742187500000, -4.960937500000, 1491217002
-0.458740234375, -0.458251953125, -0.736572265625, -5.414062500000, 5.742187500000, -4.960937500000, 1491217003
-0.458740234375, -0.458251953125, -0.736572265625, -5.414062500000, 5.742187500000, -4.960937500000, 1491217003
-0.409423828125, -0.505615234375, -0.902587890625, -4.328125000000, -0.523437500000, -4.453125000000, 1491217003
-0.409423828125, -0.505615234375, -0.902587890625, -4.328125000000, -0.523437500000, -4.453125000000, 1491217003
-0.409423828125, -0.505615234375, -0.902587890625, -4.328125000000, -0.523437500000, -4.453125000000, 1491217003
-0.409423828125, -0.505615234375, -0.902587890625, -4.328125000000, -0.523437500000, -4.453125000000, 1491217003
-0.295410156250, -0.511718750000, -0.865478515625, -4.187500000000, 0.398437500000, -3.421875000000, 1491217003
-0.295410156250, -0.511718750000, -0.865478515625, -4.187500000000, 0.398437500000, -3.421875000000, 1491217003
-0.295410156250, -0.511718750000, -0.865478515625, -4.187500000000, 0.398437500000, -3.421875000000, 1491217003
-0.295410156250, -0.511718750000, -0.865478515625, -4.187500000000, 0.398437500000, -3.421875000000, 1491217003
-0.295410156250, -0.511718750000, -0.865478515625, -4.187500000000, 0.398437500000, -3.421875000000, 1491217003
-0.371826171875, -0.373291015625, -0.801269531250, -1.296875000000, -3.867187500000, -3.359375000000, 1491217003
-0.371826171875, -0.373291015625, -0.801269531250, -1.296875000000, -3.867187500000, -3.359375000000, 1491217003
-0.371826171875, -0.373291015625, -0.801269531250, -1.296875000000, -3.867187500000, -3.359375000000, 1491217003
-0.371826171875, -0.373291015625, -0.801269531250, -1.296875000000, -3.867187500000, -3.359375000000, 1491217003
-0.368164062500, -0.369873046875, -0.880126953125, -4.304687500000, -3.398437500000, -8.562500000000, 1491217003
-0.368164062500, -0.369873046875, -0.880126953125, -4.304687500000, -3.398437500000, -8.562500000000, 1491217003
-0.368164062500, -0.369873046875, -0.880126953125, -4.304687500000, -3.398437500000, -8.562500000000, 1491217003
-0.418701171875, -0.374511718750, -0.742919921875, -2.937500000000, -3.976562500000, -6.703125000000, 1491217003
-0.418701171875, -0.374511718750, -0.742919921875, -2.937500000000, -3.976562500000, -6.703125000000, 1491217003
-0.418701171875, -0.374511718750, -0.742919921875, -2.937500000000, -3.976562500000, -6.703125000000, 1491217003
-0.418701171875, -0.374511718750, -0.742919921875, -2.937500000000, -3.976562500000, -6.703125000000, 1491217003
-0.413574218750, -0.402832031250, -0.786865234375, -4.523437500000, -2.390625000000, -1.171875000000, 1491217003
-0.413574218750, -0.402832031250, -0.786865234375, -4.523437500000, -2.390625000000, -1.171875000000, 1491217003
-0.413574218750, -0.402832031250, -0.786865234375, -4.523437500000, -2.390625000000, -1.171875000000, 1491217003
-0.530517578125, -0.346435546875, -0.726318359375, -3.359375000000, -0.703125000000, -4.312500000000, 1491217003
-0.530517578125, -0.346435546875, -0.726318359375, -3.359375000000, -0.703125000000, -4.312500000000, 1491217003
-0.530517578125, -0.346435546875, -0.726318359375, -3.359375000000, -0.703125000000, -4.312500000000, 1491217003
