ACC_X,ACC_Y,ACC_Z,G_X,G_Y,G_Z,Unix Time
0.254150390625, -1.003906250000, 0.364501953125, -5.000000000000, 3.679687500000, -6.273437500000, 1491217538
0.254150390625, -1.003906250000, 0.364501953125, -5.000000000000, 3.679687500000, -6.273437500000, 1491217538
0.254150390625, -1.003906250000, 0.364501953125, -5.000000000000, 3.679687500000, -6.273437500000, 1491217538
0.254150390625, -1.003906250000, 0.364501953125, -5.000000000000, 3.679687500000, -6.273437500000, 1491217538
0.157958984375, -1.001464843750, 0.443847656250, -0.539062500000, -3.101562500000, -3.210937500000, 1491217538
0.157958984375, -1.001464843750, 0.443847656250, -0.539062500000, -3.101562500000, -3.210937500000, 1491217538
0.157958984375, -1.001464843750, 0.443847656250, -0.539062500000, -3.101562500000, -3.210937500000, 1491217538
0.056640625000, -0.926025390625, 0.402343750000, -1.640625000000, -2.484375000000, -6.367187500000, 1491217538
0.056640625000, -0.926025390625, 0.402343750000, -1.640625000000, -2.484375000000, -6.367187500000, 1491217538
0.056640625000, -0.926025390625, 0.402343750000, -1.640625000000, -2.484375000000, -6.367187500000, 1491217538
0.051269531250, -1.008056640625, 0.378173828125, -4.578125000000, -1.078125000000, -3.398437500000, 1491217538
0.138916015625, -0.917724609375, 0.380859375000, -6.367187500000, 0.820312500000, -5.000000000000, 1491217538
0.092285156250, -0.940185546875, 0.359619140625, -5.171875000000, 0.953125000000, -4.046875000000, 1491217538
0.092285156250, -0.940185546875, 0.359619140625, -5.171875000000, 0.953125000000, -4.046875000000, 1491217538
0.197509765625, -0.810791015625, 0.333251953125, -5.242187500000, 2.421875000000, -4.539062500000, 1491217538
0.196289062500, -0.914550781250, 0.395996093750, -8.593750000000, 3.359375000000, 2.179687500000, 1491217538
0.196289062500, -0.914550781250, 0.395996093750, -8.593750000000, 3.359375000000, 2.179687500000, 1491217538
0.196289062500, -0.914550781250, 0.395996093750, -8.593750000000, 3.359375000000, 2.179687500000, 1491217538
0.196289062500, -0.914550781250, 0.395996093750, -8.593750000000, 3.359375000000, 2.179687500000, 1491217538
0.196289062500, -0.914550781250, 0.395996093750, -8.593750000000, 3.359375000000, 2.179687500000, 1491217538
0.146972656250, -0.939208984375, 0.391845703125, -5.851562500000, 6.734375000000, -0.796875000000, 1491217538
0.146972656250, -0.939208984375, 0.391845703125, -5.851562500000, 6.734375000000, -0.796875000000, 1491217538
0.146972656250, -0.939208984375, 0.391845703125, -5.851562500000, 6.734375000000, -0.796875000000, 1491217538
0.126220703125, -0.943359375000, 0.385498046875, -7.273437500000, 5.820312500000, -1.640625000000, 1491217538
0.126220703125, -0.943359375000, 0.385498046875, -7.273437500000, 5.820312500000, -1.640625000000, 1491217538
0.126220703125, -0.943359375000, 0.385498046875, -7.273437500000, 5.820312500000, -1.640625000000, 1491217538
0.126464843750, -0.801513671875, 0.336669921875, -8.023437500000, 24.328125000000, -0.960937500000, 1491217538
0.126464843750, -0.801513671875, 0.336669921875, -8.023437500000, 24.328125000000, -0.960937500000, 1491217538
0.126464843750, -0.801513671875, 0.336669921875, -8.023437500000, 24.328125000000, -0.960937500000, 1491217538
0.126464843750, -0.801513671875, 0.336669921875, -8.023437500000, 24.328125000000, -0.960937500000, 1491217538
0.147460937500, -0.955322265625, 0.397705078125, 4.171875000000, -6.531250000000, -1.539062500000, 1491217538
0.147460937500, -0.955322265625, 0.397705078125, 4.171875000000, -6.531250000000, -1.539062500000, 1491217538
0.147460937500, -0.955322265625, 0.397705078125, 4.171875000000, -6.531250000000, -1.539062500000, 1491217538
0.053222656250, -0.958251953125, 0.441406250000, 11.437500000000, 2.179687500000, -3.375000000000, 1491217538
0.053222656250, -0.958251953125, 0.441406250000, 11.437500000000, 2.179687500000, -3.375000000000, 1491217538
0.053222656250, -0.958251953125, 0.441406250000, 11.437500000000, 2.179687500000, -3.375000000000, 1491217538
0.281250000000, -0.742187500000, 0.411132812500, 24.234375000000, -8.945312500000, -1.093750000000, 1491217538
0.281250000000, -0.742187500000, 0.411132812500, 24.234375000000, -8.945312500000, -1.093750000000, 1491217538
0.281250000000, -0.742187500000, 0.411132812500, 24.234375000000, -8.945312500000, -1.093750000000, 1491217538
0.151611328125, -0.945556640625, 0.374267578125, 32.632812500000, 10.445312500000, -6.562500000000, 1491217538
0.151611328125, -0.945556640625, 0.374267578125, 32.632812500000, 10.445312500000, -6.562500000000, 1491217538
0.151611328125, -0.945556640625, 0.374267578125, 32.632812500000, 10.445312500000, -6.562500000000, 1491217538
0.151611328125, -0.945556640625, 0.374267578125, 32.632812500000, 10.445312500000, -6.562500000000, 1491217538
-0.004394531250, -0.817382812500, 0.395996093750, 49.000000000000, 6.421875000000, -11.312500000000, 1491217538
-0.004394531250, -0.817382812500, 0.395996093750, 49.000000000000, 6.421875000000, -11.312500000000, 1491217538
-0.004394531250, -0.817382812500, 0.395996093750, 49.000000000000, 6.421875000000, -11.312500000000, 1491217538
0.066894531250, -0.620605468750, 0.238037109375, 70.781250000000, 15.343750000000, -14.140625000000, 1491217539
0.066894531250, -0.620605468750, 0.238037109375, 70.781250000000, 15.343750000000, -14.140625000000, 1491217539
0.066894531250, -0.620605468750, 0.238037109375, 70.781250000000, 15.343750000000, -14.140625000000, 1491217539
0.131347656250, -0.405517578125, 0.105712890625, 104.335937500000, 19.843750000000, -11.375000000000, 1491217539
0.131347656250, -0.405517578125, 0.105712890625, 104.335937500000, 19.843750000000, -11.375000000000, 1491217539
0.131347656250, -0.405517578125, 0.105712890625, 104.335937500000, 19.843750000000, -11.375000000000, 1491217539
-0.080322265625, -0.132812500000, 0.062988281250, 95.468750000000, 31.335937500000, -24.546875000000, 1491217539
-0.080322265625, -0.132812500000, 0.062988281250, 95.468750000000, 31.335937500000, -24.546875000000, 1491217539
-0.080322265625, -0.132812500000, 0.062988281250, 95.468750000000, 31.335937500000, -24.546875000000, 1491217539
-0.080322265625, -0.132812500000, 0.062988281250, 95.468750000000, 31.335937500000, -24.546875000000, 1491217539
-0.018066406250, -0.424804687500, -0.043945312500, 38.156250000000, 19.789062500000, -13.578125000000, 1491217539
-0.018066406250, -0.424804687500, -0.043945312500, 38.156250000000, 19.789062500000, -13.578125000000, 1491217539
-0.018066406250, -0.424804687500, -0.043945312500, 38.156250000000, 19.789062500000, -13.578125000000, 1491217539
0.041503906250, -1.132324218750, -0.037353515625, -133.492187500000, 109.679687500000, 63.765625000000, 1491217539
0.041503906250, -1.132324218750, -0.037353515625, -133.492187500000, 109.679687500000, 63.765625000000, 1491217539
0.041503906250, -1.132324218750, -0.037353515625, -133.492187500000, 109.679687500000, 63.765625000000, 1491217539
-0.101806640625, -1.159179687500, -0.058837890625, 73.242187500000, -77.195312500000, -73.898437500000, 1491217539
-0.101806640625, -1.159179687500, -0.058837890625, 73.242187500000, -77.195312500000, -73.898437500000, 1491217539
-0.101806640625, -1.159179687500, -0.058837890625, 73.242187500000, -77.195312500000, -73.898437500000, 1491217539
0.021728515625, -1.886230468750, 0.017822265625, -111.640625000000, -50.976562500000, 52.617187500000, 1491217539
0.021728515625, -1.886230468750, 0.017822265625, -111.640625000000, -50.976562500000, 52.617187500000, 1491217539
0.021728515625, -1.886230468750, 0.017822265625, -111.640625000000, -50.976562500000, 52.617187500000, 1491217539
0.021728515625, -1.886230468750, 0.017822265625, -111.640625000000, -50.976562500000, 52.617187500000, 1491217539
0.109619140625, -2.078613281250, -0.106201171875, 75.562500000000, 85.351562500000, -32.914062500000, 1491217539
0.109619140625, -2.078613281250, -0.106201171875, 75.562500000000, 85.351562500000, -32.914062500000, 1491217539
0.109619140625, -2.078613281250, -0.106201171875, 75.562500000000, 85.351562500000, -32.914062500000, 1491217539
0.616455078125, -2.278808593750, -0.016113281250, -65.218750000000, -0.210937500000, 105.593750000000, 1491217539
0.616455078125, -2.278808593750, -0.016113281250, -65.218750000000, -0.210937500000, 105.593750000000, 1491217539
0.616455078125, -2.278808593750, -0.016113281250, -65.218750000000, -0.210937500000, 105.593750000000, 1491217539
0.492919921875, -2.651367187500, -0.032226562500, 27.796875000000, -49.265625000000, -48.179687500000, 1491217539
0.492919921875, -2.651367187500, -0.032226562500, 27.796875000000, -49.265625000000, -48.179687500000, 1491217539
0.492919921875, -2.651367187500, -0.032226562500, 27.796875000000, -49.265625000000, -48.179687500000, 1491217539
-0.106689453125, -2.786621093750, 0.260498046875, 76.976562500000, -135.554687500000, 16.773437500000, 1491217539
-0.106689453125, -2.786621093750, 0.260498046875, 76.976562500000, -135.554687500000, 16.773437500000, 1491217539
0.275390625000, -2.883789062500, 0.440917968750, -128.445312500000, 203.226562500000, -97.257812500000, 1491217539
0.275390625000, -2.883789062500, 0.440917968750, -128.445312500000, 203.226562500000, -97.257812500000, 1491217539
0.275390625000, -2.883789062500, 0.440917968750, -128.445312500000, 203.226562500000, -97.257812500000, 1491217539
0.275390625000, -2.883789062500, 0.440917968750, -128.445312500000, 203.226562500000, -97.257812500000, 1491217539
0.275390625000, -2.883789062500, 0.440917968750, -128.445312500000, 203.226562500000, -97.257812500000, 1491217539
0.177490234375, -1.304443359375, 0.234375000000, -112.117187500000, -138.929687500000, 34.945312500000, 1491217539
0.177490234375, -1.304443359375, 0.234375000000, -112.117187500000, -138.929687500000, 34.945312500000, 1491217539
0.177490234375, -1.304443359375, 0.234375000000, -112.117187500000, -138.929687500000, 34.945312500000, 1491217539
0.045898437500, -0.079101562500, 0.197998046875, -112.187500000000, 56.125000000000, -14.515625000000, 1491217539
0.045898437500, -0.079101562500, 0.197998046875, -112.187500000000, 56.125000000000, -14.515625000000, 1491217539
0.045898437500, -0.079101562500, 0.197998046875, -112.187500000000, 56.125000000000, -14.515625000000, 1491217539
-0.125976562500, 0.567382812500, 0.087646484375, -99.367187500000, 123.343750000000, -42.773437500000, 1491217539
-0.125976562500, 0.567382812500, 0.087646484375, -99.367187500000, 123.343750000000, -42.773437500000, 1491217539
-0.125976562500, 0.567382812500, 0.087646484375, -99.367187500000, 123.343750000000, -42.773437500000, 1491217539
-0.122802734375, 0.388916015625, -0.020019531250, -74.742187500000, -158.296875000000, -23.187500000000, 1491217539
-0.122802734375, 0.388916015625, -0.020019531250, -74.742187500000, -158.296875000000, -23.187500000000, 1491217539
-0.122802734375, 0.388916015625, -0.020019531250, -74.742187500000, -158.296875000000, -23.187500000000, 1491217539
0.013183593750, 0.280517578125, -0.000488281250, -229.851562500000, -256.000000000000, 94.296875000000, 1491217539
-0.121582031250, 0.343505859375, 0.126708984375, -229.851562500000, -256.000000000000, 94.296875000000, 1491217539
-0.121582031250, 0.343505859375, 0.126708984375, -229.851562500000, -256.000000000000, 94.296875000000, 1491217539
-0.121582031250, 0.343505859375, 0.126708984375, -229.851562500000, -256.000000000000, 94.296875000000, 1491217539
-0.146484375000, -0.102050781250, -0.012451171875, -256.000000000000, -104.992187500000, 157.984375000000, 1491217539
-0.146484375000, -0.102050781250, -0.012451171875, -256.000000000000, -104.992187500000, 157.984375000000, 1491217539
-0.146484375000, -0.102050781250, -0.012451171875, -256.000000000000, -104.992187500000, 157.984375000000, 1491217539
0.010986328125, -0.339111328125, 0.070068359375, -138.625000000000, 229.414062500000, -83.023437500000, 1491217539
0.010986328125, -0.339111328125, 0.070068359375, -138.625000000000, 229.414062500000, -83.023437500000, 1491217539
0.010986328125, -0.339111328125, 0.070068359375, -138.625000000000, 229.414062500000, -83.023437500000, 1491217539
0.010986328125, -0.339111328125, 0.070068359375, -138.625000000000, 229.414062500000, -83.023437500000, 1491217539
0.279785156250, -0.267333984375, -0.116943359375, -185.882812500000, 253.992187500000, -93.570312500000, 1491217539
0.279785156250, -0.267333984375, -0.116943359375, -185.882812500000, 253.992187500000, -93.570312500000, 1491217539
0.279785156250, -0.267333984375, -0.116943359375, -185.882812500000, 253.992187500000, -93.570312500000, 1491217539
0.202148437500, -0.016845703125, -0.032226562500, -146.132812500000, 228.343750000000, -63.507812500000, 1491217540
0.202148437500, -0.016845703125, -0.032226562500, -146.132812500000, 228.343750000000, -63.507812500000, 1491217540
0.202148437500, -0.016845703125, -0.032226562500, -146.132812500000, 228.343750000000, -63.507812500000, 1491217540
0.035400390625, 0.063232421875, -0.036376953125, -74.890625000000, -106.164062500000, -54.781250000000, 1491217540
0.035400390625, 0.063232421875, -0.036376953125, -74.890625000000, -106.164062500000, -54.781250000000, 1491217540
0.035400390625, 0.063232421875, -0.036376953125, -74.890625000000, -106.164062500000, -54.781250000000, 1491217540
-0.066650390625, 0.006591796875, 0.080322265625, -172.062500000000, -107.671875000000, -26.781250000000, 1491217540
-0.066650390625, 0.006591796875, 0.080322265625, -172.062500000000, -107.671875000000, -26.781250000000, 1491217540
-0.066650390625, 0.006591796875, 0.080322265625, -172.062500000000, -107.671875000000, -26.781250000000, 1491217540
-0.066650390625, 0.006591796875, 0.080322265625, -172.062500000000, -107.671875000000, -26.781250000000, 1491217540
0.197998046875, -0.163818359375, 0.028564453125, -97.007812500000, 92.171875000000, -47.921875000000, 1491217540
0.197998046875, -0.163818359375, 0.028564453125, -97.007812500000, 92.171875000000, -47.921875000000, 1491217540
0.197998046875, -0.163818359375, 0.028564453125, -97.007812500000, 92.171875000000, -47.921875000000, 1491217540
0.115722656250, -0.951416015625, -0.292724609375, -125.601562500000, -21.617187500000, -23.242187500000, 1491217540
0.115722656250, -0.951416015625, -0.292724609375, -125.601562500000, -21.617187500000, -23.242187500000, 1491217540
0.115722656250, -0.951416015625, -0.292724609375, -125.601562500000, -21.617187500000, -23.242187500000, 1491217540
0.226562500000, -0.381591796875, 0.009033203125, 31.117187500000, -164.953125000000, 14.359375000000, 1491217540
0.226562500000, -0.381591796875, 0.009033203125, 31.117187500000, -164.953125000000, 14.359375000000, 1491217540
0.226562500000, -0.381591796875, 0.009033203125, 31.117187500000, -164.953125000000, 14.359375000000, 1491217540
-0.375244140625, -8.000000000000, -2.121826171875, 253.992187500000, -256.000000000000, -256.000000000000, 1491217540
-0.375244140625, -8.000000000000, -2.121826171875, 253.992187500000, -256.000000000000, -256.000000000000, 1491217540
-0.375244140625, -8.000000000000, -2.121826171875, 253.992187500000, -256.000000000000, -256.000000000000, 1491217540
-0.375244140625, -8.000000000000, -2.121826171875, 253.992187500000, -256.000000000000, -256.000000000000, 1491217540
0.087158203125, -1.246826171875, -0.042724609375, -256.000000000000, -85.242187500000, 134.484375000000, 1491217540
0.087158203125, -1.246826171875, -0.042724609375, -256.000000000000, -85.242187500000, 134.484375000000, 1491217540
0.087158203125, -1.246826171875, -0.042724609375, -256.000000000000, -85.242187500000, 134.484375000000, 1491217540
0.321533203125, -1.192382812500, 0.055664062500, 14.921875000000, 223.632812500000, 35.843750000000, 1491217540
0.321533203125, -1.192382812500, 0.055664062500, 14.921875000000, 223.632812500000, 35.843750000000, 1491217540
0.321533203125, -1.192382812500, 0.055664062500, 14.921875000000, 223.632812500000, 35.843750000000, 1491217540
0.094970703125, -1.051269531250, -0.038085937500, 154.460937500000, 192.601562500000, -79.132812500000, 1491217540
0.094970703125, -1.051269531250, -0.038085937500, 154.460937500000, 192.601562500000, -79.132812500000, 1491217540
0.080810546875, -0.453369140625, -0.008300781250, 22.390625000000, -12.750000000000, 34.429687500000, 1491217540
0.080810546875, -0.453369140625, -0.008300781250, 22.390625000000, -12.750000000000, 34.429687500000, 1491217540
0.080810546875, -0.453369140625, -0.008300781250, 22.390625000000, -12.750000000000, 34.429687500000, 1491217540
0.080810546875, -0.453369140625, -0.008300781250, 22.390625000000, -12.750000000000, 34.429687500000, 1491217540
0.080810546875, -0.453369140625, -0.008300781250, 22.390625000000, -12.750000000000, 34.429687500000, 1491217540
0.020751953125, -0.167236328125, -0.005615234375, 35.992187500000, -38.984375000000, -3.132812500000, 1491217540
0.020751953125, -0.167236328125, -0.005615234375, 35.992187500000, -38.984375000000, -3.132812500000, 1491217540
0.020751953125, -0.167236328125, -0.005615234375, 35.992187500000, -38.984375000000, -3.132812500000, 1491217540
0.210693359375, -0.384521484375, 0.126220703125, -21.546875000000, -20.867187500000, 13.523437500000, 1491217540
0.210693359375, -0.384521484375, 0.126220703125, -21.546875000000, -20.867187500000, 13.523437500000, 1491217540
0.210693359375, -0.384521484375, 0.126220703125, -21.546875000000, -20.867187500000, 13.523437500000, 1491217540
0.189453125000, -1.164306640625, 0.615966796875, -74.125000000000, -221.414062500000, 82.007812500000, 1491217540
0.189453125000, -1.164306640625, 0.615966796875, -74.125000000000, -221.414062500000, 82.007812500000, 1491217540
0.189453125000, -1.164306640625, 0.615966796875, -74.125000000000, -221.414062500000, 82.007812500000, 1491217540
0.267089843750, -1.085449218750, 0.413330078125, -19.125000000000, 53.234375000000, -28.156250000000, 1491217540
0.267089843750, -1.085449218750, 0.413330078125, -19.125000000000, 53.234375000000, -28.156250000000, 1491217540
0.267089843750, -1.085449218750, 0.413330078125, -19.125000000000, 53.234375000000, -28.156250000000, 1491217540
0.267089843750, -1.085449218750, 0.413330078125, -19.125000000000, 53.234375000000, -28.156250000000, 1491217540
0.266845703125, -0.895751953125, 0.308593750000, -10.843750000000, -21.000000000000, -6.156250000000, 1491217540
0.266845703125, -0.895751953125, 0.308593750000, -10.843750000000, -21.000000000000, -6.156250000000, 1491217540
0.266845703125, -0.895751953125, 0.308593750000, -10.843750000000, -21.000000000000, -6.156250000000, 1491217540
0.204345703125, -0.860839843750, 0.386474609375, 13.867187500000, -47.828125000000, -29.203125000000, 1491217540
0.204345703125, -0.860839843750, 0.386474609375, 13.867187500000, -47.828125000000, -29.203125000000, 1491217540
0.204345703125, -0.860839843750, 0.386474609375, 13.867187500000, -47.828125000000, -29.203125000000, 1491217540
0.272216796875, -0.857177734375, 0.284179687500, -20.664062500000, 3.445312500000, -15.632812500000, 1491217540
0.272216796875, -0.857177734375, 0.284179687500, -20.664062500000, 3.445312500000, -15.632812500000, 1491217540
0.272216796875, -0.857177734375, 0.284179687500, -20.664062500000, 3.445312500000, -15.632812500000, 1491217540
0.176269531250, -1.024414062500, 0.319335937500, -33.164062500000, 65.390625000000, 3.312500000000, 1491217540
0.176269531250, -1.024414062500, 0.319335937500, -33.164062500000, 65.390625000000, 3.312500000000, 1491217540
0.176269531250, -1.024414062500, 0.319335937500, -33.164062500000, 65.390625000000, 3.312500000000, 1491217540
0.176269531250, -1.024414062500, 0.319335937500, -33.164062500000, 65.390625000000, 3.312500000000, 1491217540
0.156005859375, -0.857666015625, 0.156005859375, -8.687500000000, 14.968750000000, -7.750000000000, 1491217540
0.156005859375, -0.857666015625, 0.156005859375, -8.687500000000, 14.968750000000, -7.750000000000, 1491217540
0.156005859375, -0.857666015625, 0.156005859375, -8.687500000000, 14.968750000000, -7.750000000000, 1491217540
0.099365234375, -1.010253906250, 0.504638671875, 13.296875000000, -77.429687500000, -2.164062500000, 1491217540
0.099365234375, -1.010253906250, 0.504638671875, 13.296875000000, -77.429687500000, -2.164062500000, 1491217540
0.099365234375, -1.010253906250, 0.504638671875, 13.296875000000, -77.429687500000, -2.164062500000, 1491217540
0.119384765625, -0.911865234375, 0.505859375000, -20.960937500000, 4.734375000000, -3.859375000000, 1491217541
0.119384765625, -0.911865234375, 0.505859375000, -20.960937500000, 4.734375000000, -3.859375000000, 1491217541
0.119384765625, -0.911865234375, 0.505859375000, -20.960937500000, 4.734375000000, -3.859375000000, 1491217541
0.139892578125, -0.845947265625, 0.307617187500, -24.226562500000, 8.093750000000, -3.367187500000, 1491217541
0.105712890625, -0.961425781250, 0.310791015625, -19.343750000000, 13.953125000000, -4.414062500000, 1491217541
0.105712890625, -0.961425781250, 0.310791015625, -19.343750000000, 13.953125000000, -4.414062500000, 1491217541
0.105712890625, -0.961425781250, 0.310791015625, -19.343750000000, 13.953125000000, -4.414062500000, 1491217541
0.105712890625, -0.961425781250, 0.310791015625, -19.343750000000, 13.953125000000, -4.414062500000, 1491217541
0.126220703125, -1.016601562500, 0.426513671875, -33.414062500000, 70.585937500000, -7.585937500000, 1491217541
0.126220703125, -1.016601562500, 0.426513671875, -33.414062500000, 70.585937500000, -7.585937500000, 1491217541
0.126220703125, -1.016601562500, 0.426513671875, -33.414062500000, 70.585937500000, -7.585937500000, 1491217541
0.126220703125, -1.016601562500, 0.426513671875, -33.414062500000, 70.585937500000, -7.585937500000, 1491217541
0.043945312500, -0.846191406250, 0.289550781250, 0.148437500000, -2.320312500000, -10.437500000000, 1491217541
0.043945312500, -0.846191406250, 0.289550781250, 0.148437500000, -2.320312500000, -10.437500000000, 1491217541
0.043945312500, -0.846191406250, 0.289550781250, 0.148437500000, -2.320312500000, -10.437500000000, 1491217541
0.043945312500, -0.846191406250, 0.289550781250, 0.148437500000, -2.320312500000, -10.437500000000, 1491217541
0.023193359375, -0.939697265625, 0.397460937500, -14.875000000000, 17.867187500000, -5.929687500000, 1491217541
0.023193359375, -0.939697265625, 0.397460937500, -14.875000000000, 17.867187500000, -5.929687500000, 1491217541
0.023193359375, -0.939697265625, 0.397460937500, -14.875000000000, 17.867187500000, -5.929687500000, 1491217541
0.023193359375, -0.939697265625, 0.397460937500, -14.875000000000, 17.867187500000, -5.929687500000, 1491217541
-0.017089843750, -0.862548828125, 0.388671875000, -7.867187500000, 30.773437500000, -3.414062500000, 1491217541
-0.017089843750, -0.862548828125, 0.388671875000, -7.867187500000, 30.773437500000, -3.414062500000, 1491217541
-0.017089843750, -0.862548828125, 0.388671875000, -7.867187500000, 30.773437500000, -3.414062500000, 1491217541
0.023925781250, -1.002929687500, 0.396728515625, -10.093750000000, 7.421875000000, -3.968750000000, 1491217541
0.023925781250, -1.002929687500, 0.396728515625, -10.093750000000, 7.421875000000, -3.968750000000, 1491217541
0.023925781250, -1.002929687500, 0.396728515625, -10.093750000000, 7.421875000000, -3.968750000000, 1491217541
-0.010253906250, -0.883789062500, 0.464355468750, -5.398437500000, 4.335937500000, -8.507812500000, 1491217541
-0.010253906250, -0.883789062500, 0.464355468750, -5.398437500000, 4.335937500000, -8.507812500000, 1491217541
-0.010253906250, -0.883789062500, 0.464355468750, -5.398437500000, 4.335937500000, -8.507812500000, 1491217541
0.013916015625, -0.884521484375, 0.456542968750, -8.593750000000, -8.375000000000, -9.031250000000, 1491217541
0.013916015625, -0.884521484375, 0.456542968750, -8.593750000000, -8.375000000000, -9.031250000000, 1491217541
0.013916015625, -0.884521484375, 0.456542968750, -8.593750000000, -8.375000000000, -9.031250000000, 1491217541
0.013916015625, -0.884521484375, 0.456542968750, -8.593750000000, -8.375000000000, -9.031250000000, 1491217541
0.080078125000, -0.907958984375, 0.452636718750, -14.320312500000, -1.234375000000, -10.906250000000, 1491217541
0.080078125000, -0.907958984375, 0.452636718750, -14.320312500000, -1.234375000000, -10.906250000000, 1491217541
0.080078125000, -0.907958984375, 0.452636718750, -14.320312500000, -1.234375000000, -10.906250000000, 1491217541
0.065917968750, -0.942382812500, 0.508056640625, -10.312500000000, 6.289062500000, -10.765625000000, 1491217541
0.065917968750, -0.942382812500, 0.508056640625, -10.312500000000, 6.289062500000, -10.765625000000, 1491217541
0.065917968750, -0.942382812500, 0.508056640625, -10.312500000000, 6.289062500000, -10.765625000000, 1491217541
0.134521484375, -0.865478515625, 0.445068359375, -1.359375000000, -4.851562500000, -7.093750000000, 1491217541
0.134521484375, -0.865478515625, 0.445068359375, -1.359375000000, -4.851562500000, -7.093750000000, 1491217541
0.134521484375, -0.865478515625, 0.445068359375, -1.359375000000, -4.851562500000, -7.093750000000, 1491217541
0.060058593750, -0.853271484375, 0.468750000000, -2.640625000000, -9.218750000000, -8.937500000000, 1491217541
0.060058593750, -0.853271484375, 0.468750000000, -2.640625000000, -9.218750000000, -8.937500000000, 1491217541
0.060058593750, -0.853271484375, 0.468750000000, -2.640625000000, -9.218750000000, -8.937500000000, 1491217541
0.060058593750, -0.853271484375, 0.468750000000, -2.640625000000, -9.218750000000, -8.937500000000, 1491217541
0.130371093750, -0.857666015625, 0.439208984375, -2.062500000000, -18.992187500000, -5.671875000000, 1491217541
0.130371093750, -0.857666015625, 0.439208984375, -2.062500000000, -18.992187500000, -5.671875000000, 1491217541
0.130371093750, -0.857666015625, 0.439208984375, -2.062500000000, -18.992187500000, -5.671875000000, 1491217541
0.138427734375, -0.918945312500, 0.492187500000, -11.476562500000, 4.578125000000, -0.445312500000, 1491217541
0.138427734375, -0.918945312500, 0.492187500000, -11.476562500000, 4.578125000000, -0.445312500000, 1491217541
0.138427734375, -0.918945312500, 0.492187500000, -11.476562500000, 4.578125000000, -0.445312500000, 1491217541
0.012207031250, -0.901611328125, 0.450927734375, -8.460937500000, -1.695312500000, 2.625000000000, 1491217541
0.012207031250, -0.901611328125, 0.450927734375, -8.460937500000, -1.695312500000, 2.625000000000, 1491217541
0.012207031250, -0.901611328125, 0.450927734375, -8.460937500000, -1.695312500000, 2.625000000000, 1491217541
0.013671875000, -0.864746093750, 0.505615234375, -9.929687500000, 8.968750000000, 1.656250000000, 1491217541
0.013671875000, -0.864746093750, 0.505615234375, -9.929687500000, 8.968750000000, 1.656250000000, 1491217541
0.013671875000, -0.864746093750, 0.505615234375, -9.929687500000, 8.968750000000, 1.656250000000, 1491217541
0.078125000000, -0.845947265625, 0.460449218750, -0.671875000000, -8.914062500000, -6.445312500000, 1491217541
0.078125000000, -0.845947265625, 0.460449218750, -0.671875000000, -8.914062500000, -6.445312500000, 1491217541
0.078125000000, -0.845947265625, 0.460449218750, -0.671875000000, -8.914062500000, -6.445312500000, 1491217541
0.078125000000, -0.845947265625, 0.460449218750, -0.671875000000, -8.914062500000, -6.445312500000, 1491217541
-0.022460937500, -0.811523437500, 0.411132812500, -12.148437500000, 10.492187500000, 0.226562500000, 1491217541
-0.022460937500, -0.811523437500, 0.411132812500, -12.148437500000, 10.492187500000, 0.226562500000, 1491217541
-0.022460937500, -0.811523437500, 0.411132812500, -12.148437500000, 10.492187500000, 0.226562500000, 1491217541
0.003906250000, -0.876953125000, 0.424316406250, -10.328125000000, 4.789062500000, 0.757812500000, 1491217542
0.003906250000, -0.876953125000, 0.424316406250, -10.328125000000, 4.789062500000, 0.757812500000, 1491217542
0.003906250000, -0.876953125000, 0.424316406250, -10.328125000000, 4.789062500000, 0.757812500000, 1491217542
-0.028808593750, -1.019287109375, 0.441162109375, -10.757812500000, 8.015625000000, 0.828125000000, 1491217542
-0.028808593750, -1.019287109375, 0.441162109375, -10.757812500000, 8.015625000000, 0.828125000000, 1491217542
-0.028808593750, -1.019287109375, 0.441162109375, -10.757812500000, 8.015625000000, 0.828125000000, 1491217542
-0.028808593750, -1.019287109375, 0.441162109375, -10.757812500000, 8.015625000000, 0.828125000000, 1491217542
0.057373046875, -0.870117187500, 0.470214843750, -7.125000000000, 6.328125000000, -2.015625000000, 1491217542
0.057373046875, -0.870117187500, 0.470214843750, -7.125000000000, 6.328125000000, -2.015625000000, 1491217542
0.057373046875, -0.870117187500, 0.470214843750, -7.125000000000, 6.328125000000, -2.015625000000, 1491217542
-0.001464843750, -0.847900390625, 0.465087890625, -1.679687500000, 0.382812500000, -2.093750000000, 1491217542
-0.001464843750, -0.847900390625, 0.465087890625, -1.679687500000, 0.382812500000, -2.093750000000, 1491217542
-0.001464843750, -0.847900390625, 0.465087890625, -1.679687500000, 0.382812500000, -2.093750000000, 1491217542
-0.020263671875, -0.816894531250, 0.433105468750, -6.984375000000, 3.281250000000, -2.742187500000, 1491217542
-0.020263671875, -0.816894531250, 0.433105468750, -6.984375000000, 3.281250000000, -2.742187500000, 1491217542
-0.020263671875, -0.816894531250, 0.433105468750, -6.984375000000, 3.281250000000, -2.742187500000, 1491217542
0.080566406250, -0.942382812500, 0.434570312500, -4.015625000000, 0.750000000000, 0.070312500000, 1491217542
0.080566406250, -0.942382812500, 0.434570312500, -4.015625000000, 0.750000000000, 0.070312500000, 1491217542
0.080566406250, -0.942382812500, 0.434570312500, -4.015625000000, 0.750000000000, 0.070312500000, 1491217542
0.080566406250, -0.942382812500, 0.434570312500, -4.015625000000, 0.750000000000, 0.070312500000, 1491217542
-0.022949218750, -0.939697265625, 0.451660156250, -6.679687500000, 1.789062500000, 0.296875000000, 1491217542
-0.022949218750, -0.939697265625, 0.451660156250, -6.679687500000, 1.789062500000, 0.296875000000, 1491217542
-0.022949218750, -0.939697265625, 0.451660156250, -6.679687500000, 1.789062500000, 0.296875000000, 1491217542
-0.007324218750, -0.956054687500, 0.515380859375, -3.507812500000, 2.234375000000, 0.476562500000, 1491217542
-0.007324218750, -0.956054687500, 0.515380859375, -3.507812500000, 2.234375000000, 0.476562500000, 1491217542
-0.007324218750, -0.956054687500, 0.515380859375, -3.507812500000, 2.234375000000, 0.476562500000, 1491217542
0.088623046875, -0.811279296875, 0.457519531250, -1.218750000000, -0.570312500000, 0.304687500000, 1491217542
0.088623046875, -0.811279296875, 0.457519531250, -1.218750000000, -0.570312500000, 0.304687500000, 1491217542
0.088623046875, -0.811279296875, 0.457519531250, -1.218750000000, -0.570312500000, 0.304687500000, 1491217542
0.084960937500, -0.858642578125, 0.465820312500, -8.429687500000, 4.882812500000, 1.335937500000, 1491217542
0.084960937500, -0.858642578125, 0.465820312500, -8.429687500000, 4.882812500000, 1.335937500000, 1491217542
0.084960937500, -0.858642578125, 0.465820312500, -8.429687500000, 4.882812500000, 1.335937500000, 1491217542
0.084960937500, -0.858642578125, 0.465820312500, -8.429687500000, 4.882812500000, 1.335937500000, 1491217542
0.074951171875, -0.945800781250, 0.411132812500, -1.179687500000, -8.078125000000, -0.734375000000, 1491217542
0.074951171875, -0.945800781250, 0.411132812500, -1.179687500000, -8.078125000000, -0.734375000000, 1491217542
0.074951171875, -0.945800781250, 0.411132812500, -1.179687500000, -8.078125000000, -0.734375000000, 1491217542
0.060058593750, -0.942382812500, 0.477294921875, -0.789062500000, 0.914062500000, -1.625000000000, 1491217542
0.060058593750, -0.942382812500, 0.477294921875, -0.789062500000, 0.914062500000, -1.625000000000, 1491217542
0.060058593750, -0.942382812500, 0.477294921875, -0.789062500000, 0.914062500000, -1.625000000000, 1491217542
0.132568359375, -0.885009765625, 0.519531250000, -2.703125000000, -0.515625000000, 0.054687500000, 1491217542
0.132568359375, -0.885009765625, 0.519531250000, -2.703125000000, -0.515625000000, 0.054687500000, 1491217542
0.132568359375, -0.885009765625, 0.519531250000, -2.703125000000, -0.515625000000, 0.054687500000, 1491217542
-0.002441406250, -0.791748046875, 0.437255859375, -3.304687500000, 4.437500000000, -2.539062500000, 1491217542
-0.002441406250, -0.791748046875, 0.437255859375, -3.304687500000, 4.437500000000, -2.539062500000, 1491217542
-0.002441406250, -0.791748046875, 0.437255859375, -3.304687500000, 4.437500000000, -2.539062500000, 1491217542
-0.002441406250, -0.791748046875, 0.437255859375, -3.304687500000, 4.437500000000, -2.539062500000, 1491217542
0.055175781250, -0.856933593750, 0.530761718750, 0.335937500000, -5.468750000000, -3.429687500000, 1491217542
0.055175781250, -0.856933593750, 0.530761718750, 0.335937500000, -5.468750000000, -3.429687500000, 1491217542
0.055175781250, -0.856933593750, 0.530761718750, 0.335937500000, -5.468750000000, -3.429687500000, 1491217542
0.037597656250, -0.901367187500, 0.492919921875, -3.265625000000, 1.187500000000, -1.710937500000, 1491217542
0.037597656250, -0.901367187500, 0.492919921875, -3.265625000000, 1.187500000000, -1.710937500000, 1491217542
0.037597656250, -0.901367187500, 0.492919921875, -3.265625000000, 1.187500000000, -1.710937500000, 1491217542
0.095214843750, -0.807128906250, 0.471679687500, -2.054687500000, 0.492187500000, -6.335937500000, 1491217542
0.095214843750, -0.807128906250, 0.471679687500, -2.054687500000, 0.492187500000, -6.335937500000, 1491217542
0.095214843750, -0.807128906250, 0.471679687500, -2.054687500000, 0.492187500000, -6.335937500000, 1491217542
0.056640625000, -0.938964843750, 0.451904296875, -2.765625000000, -0.828125000000, -4.273437500000, 1491217542
0.056640625000, -0.938964843750, 0.451904296875, -2.765625000000, -0.828125000000, -4.273437500000, 1491217542
0.056640625000, -0.938964843750, 0.451904296875, -2.765625000000, -0.828125000000, -4.273437500000, 1491217542
0.056640625000, -0.938964843750, 0.451904296875, -2.765625000000, -0.828125000000, -4.273437500000, 1491217542
0.093017578125, -0.920166015625, 0.527099609375, -3.578125000000, 1.187500000000, -3.070312500000, 1491217542
0.093017578125, -0.920166015625, 0.527099609375, -3.578125000000, 1.187500000000, -3.070312500000, 1491217542
0.093017578125, -0.920166015625, 0.527099609375, -3.578125000000, 1.187500000000, -3.070312500000, 1491217542
0.140380859375, -0.955566406250, 0.476562500000, -3.640625000000, -2.140625000000, -5.671875000000, 1491217542
0.140380859375, -0.955566406250, 0.476562500000, -3.640625000000, -2.140625000000, -5.671875000000, 1491217542
0.140380859375, -0.955566406250, 0.476562500000, -3.640625000000, -2.140625000000, -5.671875000000, 1491217542
0.042480468750, -0.943847656250, 0.530273437500, -4.562500000000, 2.656250000000, -6.156250000000, 1491217542
0.042480468750, -0.943847656250, 0.530273437500, -4.562500000000, 2.656250000000, -6.156250000000, 1491217543
-0.002685546875, -0.835205078125, 0.416992187500, -1.851562500000, -0.796875000000, -3.617187500000, 1491217543
0.135742187500, -1.013671875000, 0.481201171875, 2.132812500000, -4.343750000000, -4.695312500000, 1491217543
0.135742187500, -1.013671875000, 0.481201171875, 2.132812500000, -4.343750000000, -4.695312500000, 1491217543
0.135742187500, -1.013671875000, 0.481201171875, 2.132812500000, -4.343750000000, -4.695312500000, 1491217543
0.135742187500, -1.013671875000, 0.481201171875, 2.132812500000, -4.343750000000, -4.695312500000, 1491217543
0.093994140625, -0.845214843750, 0.527587890625, -4.039062500000, 0.625000000000, -3.335937500000, 1491217543
0.093994140625, -0.845214843750, 0.527587890625, -4.039062500000, 0.625000000000, -3.335937500000, 1491217543
0.093994140625, -0.845214843750, 0.527587890625, -4.039062500000, 0.625000000000, -3.335937500000, 1491217543
0.035644531250, -0.893066406250, 0.518066406250, 0.812500000000, -1.390625000000, -1.312500000000, 1491217543
0.035644531250, -0.893066406250, 0.518066406250, 0.812500000000, -1.390625000000, -1.312500000000, 1491217543
0.035644531250, -0.893066406250, 0.518066406250, 0.812500000000, -1.390625000000, -1.312500000000, 1491217543
0.076171875000, -0.868896484375, 0.447509765625, -3.875000000000, 10.562500000000, -3.125000000000, 1491217543
0.076171875000, -0.868896484375, 0.447509765625, -3.875000000000, 10.562500000000, -3.125000000000, 1491217543
0.076171875000, -0.868896484375, 0.447509765625, -3.875000000000, 10.562500000000, -3.125000000000, 1491217543
0.079833984375, -0.886962890625, 0.432128906250, -2.179687500000, 2.429687500000, -4.953125000000, 1491217543
0.079833984375, -0.886962890625, 0.432128906250, -2.179687500000, 2.429687500000, -4.953125000000, 1491217543
0.079833984375, -0.886962890625, 0.432128906250, -2.179687500000, 2.429687500000, -4.953125000000, 1491217543
0.079833984375, -0.886962890625, 0.432128906250, -2.179687500000, 2.429687500000, -4.953125000000, 1491217543
0.058593750000, -0.966064453125, 0.413574218750, -2.257812500000, -5.195312500000, -5.820312500000, 1491217543
0.058593750000, -0.966064453125, 0.413574218750, -2.257812500000, -5.195312500000, -5.820312500000, 1491217543
0.058593750000, -0.966064453125, 0.413574218750, -2.257812500000, -5.195312500000, -5.820312500000, 1491217543
0.104980468750, -0.951660156250, 0.412597656250, -2.421875000000, -2.718750000000, -3.007812500000, 1491217543
0.104980468750, -0.951660156250, 0.412597656250, -2.421875000000, -2.718750000000, -3.007812500000, 1491217543
0.104980468750, -0.951660156250, 0.412597656250, -2.421875000000, -2.718750000000, -3.007812500000, 1491217543
