ACC_X,ACC_Y,ACC_Z,G_X,G_Y,G_Z,Unix Time
0.001953125000, -0.859619140625, 0.325439453125, -4.640625000000, 1.296875000000, -3.859375000000, 1491217519
0.001953125000, -0.859619140625, 0.325439453125, -4.640625000000, 1.296875000000, -3.859375000000, 1491217519
-0.006103515625, -1.066162109375, 0.330078125000, -6.156250000000, 3.953125000000, -4.148437500000, 1491217519
-0.006103515625, -1.066162109375, 0.330078125000, -6.156250000000, 3.953125000000, -4.148437500000, 1491217519
0.041015625000, -0.920654296875, 0.248046875000, 0.281250000000, -4.562500000000, -4.945312500000, 1491217519
0.041015625000, -0.920654296875, 0.248046875000, 0.281250000000, -4.562500000000, -4.945312500000, 1491217519
0.041015625000, -0.920654296875, 0.248046875000, 0.281250000000, -4.562500000000, -4.945312500000, 1491217519
0.041015625000, -0.920654296875, 0.248046875000, 0.281250000000, -4.562500000000, -4.945312500000, 1491217519
0.041015625000, -0.920654296875, 0.248046875000, 0.281250000000, -4.562500000000, -4.945312500000, 1491217519
-0.021240234375, -1.004150390625, 0.298583984375, -2.937500000000, 2.585937500000, -4.015625000000, 1491217519
-0.021240234375, -1.004150390625, 0.298583984375, -2.937500000000, 2.585937500000, -4.015625000000, 1491217519
-0.021240234375, -1.004150390625, 0.298583984375, -2.937500000000, 2.585937500000, -4.015625000000, 1491217519
0.084228515625, -0.984130859375, 0.246582031250, -2.796875000000, 0.273437500000, -4.445312500000, 1491217519
0.084228515625, -0.984130859375, 0.246582031250, -2.796875000000, 0.273437500000, -4.445312500000, 1491217519
0.084228515625, -0.984130859375, 0.246582031250, -2.796875000000, 0.273437500000, -4.445312500000, 1491217519
0.071044921875, -1.007324218750, 0.379882812500, -10.085937500000, 13.203125000000, 0.007812500000, 1491217520
0.071044921875, -1.007324218750, 0.379882812500, -10.085937500000, 13.203125000000, 0.007812500000, 1491217520
0.071044921875, -1.007324218750, 0.379882812500, -10.085937500000, 13.203125000000, 0.007812500000, 1491217520
0.071044921875, -1.007324218750, 0.379882812500, -10.085937500000, 13.203125000000, 0.007812500000, 1491217520
-0.070556640625, -0.927734375000, 0.247558593750, 0.257812500000, -0.312500000000, -0.750000000000, 1491217520
-0.070556640625, -0.927734375000, 0.247558593750, 0.257812500000, -0.312500000000, -0.750000000000, 1491217520
-0.070556640625, -0.927734375000, 0.247558593750, 0.257812500000, -0.312500000000, -0.750000000000, 1491217520
0.050048828125, -1.001708984375, 0.241699218750, 2.195312500000, -0.046875000000, -2.140625000000, 1491217520
0.063476562500, -0.897705078125, 0.293212890625, 11.164062500000, -0.710937500000, -2.625000000000, 1491217520
0.063476562500, -0.897705078125, 0.293212890625, 11.164062500000, -0.710937500000, -2.625000000000, 1491217520
0.063476562500, -0.897705078125, 0.293212890625, 11.164062500000, -0.710937500000, -2.625000000000, 1491217520
0.063476562500, -0.897705078125, 0.293212890625, 11.164062500000, -0.710937500000, -2.625000000000, 1491217520
0.063476562500, -0.897705078125, 0.293212890625, 11.164062500000, -0.710937500000, -2.625000000000, 1491217520
-0.003662109375, -0.899658203125, 0.335693359375, 36.828125000000, 9.070312500000, 0.062500000000, 1491217520
-0.003662109375, -0.899658203125, 0.335693359375, 36.828125000000, 9.070312500000, 0.062500000000, 1491217520
-0.003662109375, -0.899658203125, 0.335693359375, 36.828125000000, 9.070312500000, 0.062500000000, 1491217520
0.037353515625, -0.862792968750, 0.226806640625, 38.687500000000, 16.273437500000, -3.906250000000, 1491217520
0.062744140625, -0.796386718750, 0.338134765625, 48.218750000000, 33.109375000000, 2.820312500000, 1491217520
0.062744140625, -0.796386718750, 0.338134765625, 48.218750000000, 33.109375000000, 2.820312500000, 1491217520
0.062744140625, -0.796386718750, 0.338134765625, 48.218750000000, 33.109375000000, 2.820312500000, 1491217520
0.031005859375, -0.544433593750, 0.103515625000, 57.289062500000, 52.289062500000, 3.296875000000, 1491217520
0.031005859375, -0.544433593750, 0.103515625000, 57.289062500000, 52.289062500000, 3.296875000000, 1491217520
0.031005859375, -0.544433593750, 0.103515625000, 57.289062500000, 52.289062500000, 3.296875000000, 1491217520
0.140136718750, -0.391845703125, 0.141357421875, 104.570312500000, 29.726562500000, 13.367187500000, 1491217520
0.140136718750, -0.391845703125, 0.141357421875, 104.570312500000, 29.726562500000, 13.367187500000, 1491217520
0.140136718750, -0.391845703125, 0.141357421875, 104.570312500000, 29.726562500000, 13.367187500000, 1491217520
-0.081298828125, -0.246826171875, 0.034667968750, 118.750000000000, 28.460937500000, 11.000000000000, 1491217520
0.078857421875, -0.158203125000, -0.016113281250, 68.320312500000, 15.476562500000, -0.265625000000, 1491217520
0.078857421875, -0.158203125000, -0.016113281250, 68.320312500000, 15.476562500000, -0.265625000000, 1491217520
0.078857421875, -0.158203125000, -0.016113281250, 68.320312500000, 15.476562500000, -0.265625000000, 1491217520
-0.074462890625, -1.032226562500, -0.174804687500, -160.445312500000, -155.500000000000, -12.460937500000, 1491217520
-0.074462890625, -1.032226562500, -0.174804687500, -160.445312500000, -155.500000000000, -12.460937500000, 1491217520
-0.074462890625, -1.032226562500, -0.174804687500, -160.445312500000, -155.500000000000, -12.460937500000, 1491217520
-0.074462890625, -1.032226562500, -0.174804687500, -160.445312500000, -155.500000000000, -12.460937500000, 1491217520
-0.074462890625, -1.032226562500, -0.174804687500, -160.445312500000, -155.500000000000, -12.460937500000, 1491217520
-0.074462890625, -1.032226562500, -0.174804687500, -160.445312500000, -155.500000000000, -12.460937500000, 1491217520
-0.066650390625, -1.538818359375, 0.145019531250, -108.031250000000, 24.796875000000, 39.632812500000, 1491217520
-0.066650390625, -1.538818359375, 0.145019531250, -108.031250000000, 24.796875000000, 39.632812500000, 1491217520
-0.066650390625, -1.538818359375, 0.145019531250, -108.031250000000, 24.796875000000, 39.632812500000, 1491217520
0.381591796875, -2.245605468750, -0.260742187500, -120.804687500000, 40.390625000000, 14.953125000000, 1491217520
0.381591796875, -2.245605468750, -0.260742187500, -120.804687500000, 40.390625000000, 14.953125000000, 1491217520
0.381591796875, -2.245605468750, -0.260742187500, -120.804687500000, 40.390625000000, 14.953125000000, 1491217520
0.381591796875, -2.245605468750, -0.260742187500, -120.804687500000, 40.390625000000, 14.953125000000, 1491217520
0.289306640625, -2.331542968750, -0.088378906250, 19.242187500000, -54.750000000000, -39.875000000000, 1491217520
0.289306640625, -2.331542968750, -0.088378906250, 19.242187500000, -54.750000000000, -39.875000000000, 1491217520
0.289306640625, -2.331542968750, -0.088378906250, 19.242187500000, -54.750000000000, -39.875000000000, 1491217520
0.369384765625, -2.783935546875, -0.191650390625, -41.851562500000, 48.734375000000, 95.546875000000, 1491217520
0.369384765625, -2.783935546875, -0.191650390625, -41.851562500000, 48.734375000000, 95.546875000000, 1491217520
0.369384765625, -2.783935546875, -0.191650390625, -41.851562500000, 48.734375000000, 95.546875000000, 1491217520
0.379150390625, -3.233398437500, -0.127197265625, 232.742187500000, -135.929687500000, 16.304687500000, 1491217520
0.379150390625, -3.233398437500, -0.127197265625, 232.742187500000, -135.929687500000, 16.304687500000, 1491217520
0.379150390625, -3.233398437500, -0.127197265625, 232.742187500000, -135.929687500000, 16.304687500000, 1491217520
0.636230468750, -3.036132812500, 0.072753906250, -256.000000000000, 253.992187500000, -2.468750000000, 1491217520
0.636230468750, -3.036132812500, 0.072753906250, -256.000000000000, 253.992187500000, -2.468750000000, 1491217520
0.636230468750, -3.036132812500, 0.072753906250, -256.000000000000, 253.992187500000, -2.468750000000, 1491217520
0.636230468750, -3.036132812500, 0.072753906250, -256.000000000000, 253.992187500000, -2.468750000000, 1491217520
-0.023193359375, -1.424316406250, -0.003173828125, -51.109375000000, -126.750000000000, -79.117187500000, 1491217520
-0.023193359375, -1.424316406250, -0.003173828125, -51.109375000000, -126.750000000000, -79.117187500000, 1491217520
-0.023193359375, -1.424316406250, -0.003173828125, -51.109375000000, -126.750000000000, -79.117187500000, 1491217520
0.043701171875, -0.114990234375, -0.006835937500, -216.546875000000, 22.101562500000, -3.757812500000, 1491217520
0.043701171875, -0.114990234375, -0.006835937500, -216.546875000000, 22.101562500000, -3.757812500000, 1491217520
0.043701171875, -0.114990234375, -0.006835937500, -216.546875000000, 22.101562500000, -3.757812500000, 1491217520
-0.136718750000, 0.405273437500, 0.032714843750, -112.625000000000, 84.578125000000, -79.093750000000, 1491217520
-0.136718750000, 0.405273437500, 0.032714843750, -112.625000000000, 84.578125000000, -79.093750000000, 1491217520
-0.136718750000, 0.405273437500, 0.032714843750, -112.625000000000, 84.578125000000, -79.093750000000, 1491217520
-0.141113281250, 0.319335937500, 0.038085937500, -93.968750000000, -140.828125000000, -88.289062500000, 1491217520
-0.141113281250, 0.319335937500, 0.038085937500, -93.968750000000, -140.828125000000, -88.289062500000, 1491217520
-0.141113281250, 0.319335937500, 0.038085937500, -93.968750000000, -140.828125000000, -88.289062500000, 1491217521
-0.141113281250, 0.319335937500, 0.038085937500, -93.968750000000, -140.828125000000, -88.289062500000, 1491217521
-0.148193359375, 0.403808593750, 0.020996093750, -256.000000000000, -228.046875000000, 41.921875000000, 1491217521
-0.148193359375, 0.403808593750, 0.020996093750, -256.000000000000, -228.046875000000, 41.921875000000, 1491217521
-0.148193359375, 0.403808593750, 0.020996093750, -256.000000000000, -228.046875000000, 41.921875000000, 1491217521
-0.217041015625, -0.216796875000, 0.067382812500, -256.000000000000, -83.937500000000, 129.953125000000, 1491217521
-0.217041015625, -0.216796875000, 0.067382812500, -256.000000000000, -83.937500000000, 129.953125000000, 1491217521
-0.217041015625, -0.216796875000, 0.067382812500, -256.000000000000, -83.937500000000, 129.953125000000, 1491217521
0.055908203125, -0.457275390625, -0.010742187500, -182.859375000000, 163.992187500000, -65.390625000000, 1491217521
0.055908203125, -0.457275390625, -0.010742187500, -182.859375000000, 163.992187500000, -65.390625000000, 1491217521
0.055908203125, -0.457275390625, -0.010742187500, -182.859375000000, 163.992187500000, -65.390625000000, 1491217521
0.252685546875, -0.228027343750, -0.010742187500, -253.546875000000, 253.992187500000, -120.390625000000, 1491217521
0.252685546875, -0.228027343750, -0.010742187500, -253.546875000000, 253.992187500000, -120.390625000000, 1491217521
0.252685546875, -0.228027343750, -0.010742187500, -253.546875000000, 253.992187500000, -120.390625000000, 1491217521
0.252685546875, -0.228027343750, -0.010742187500, -253.546875000000, 253.992187500000, -120.390625000000, 1491217521
0.176025390625, 0.112548828125, -0.114013671875, -80.578125000000, -13.132812500000, -81.031250000000, 1491217521
0.176025390625, 0.112548828125, -0.114013671875, -80.578125000000, -13.132812500000, -81.031250000000, 1491217521
0.176025390625, 0.112548828125, -0.114013671875, -80.578125000000, -13.132812500000, -81.031250000000, 1491217521
0.046142578125, 0.005371093750, -0.130615234375, -110.601562500000, -77.156250000000, -64.390625000000, 1491217521
0.046142578125, 0.005371093750, -0.130615234375, -110.601562500000, -77.156250000000, -64.390625000000, 1491217521
0.046142578125, 0.005371093750, -0.130615234375, -110.601562500000, -77.156250000000, -64.390625000000, 1491217521
0.128173828125, 0.027587890625, 0.013427734375, -84.671875000000, -26.507812500000, -11.656250000000, 1491217521
0.128173828125, 0.027587890625, 0.013427734375, -84.671875000000, -26.507812500000, -11.656250000000, 1491217521
0.128173828125, 0.027587890625, 0.013427734375, -84.671875000000, -26.507812500000, -11.656250000000, 1491217521
0.217773437500, -0.137207031250, 0.027587890625, -160.179687500000, -46.820312500000, -50.515625000000, 1491217521
0.217773437500, -0.137207031250, 0.027587890625, -160.179687500000, -46.820312500000, -50.515625000000, 1491217521
0.217773437500, -0.137207031250, 0.027587890625, -160.179687500000, -46.820312500000, -50.515625000000, 1491217521
0.217773437500, -0.137207031250, 0.027587890625, -160.179687500000, -46.820312500000, -50.515625000000, 1491217521
0.212646484375, -0.383300781250, 0.029296875000, -105.640625000000, -54.851562500000, 32.671875000000, 1491217521
0.212646484375, -0.383300781250, 0.029296875000, -105.640625000000, -54.851562500000, 32.671875000000, 1491217521
0.212646484375, -0.383300781250, 0.029296875000, -105.640625000000, -54.851562500000, 32.671875000000, 1491217521
0.397949218750, -0.174560546875, -0.044189453125, 181.414062500000, -50.257812500000, 234.382812500000, 1491217521
0.397949218750, -0.174560546875, -0.044189453125, 181.414062500000, -50.257812500000, 234.382812500000, 1491217521
0.397949218750, -0.174560546875, -0.044189453125, 181.414062500000, -50.257812500000, 234.382812500000, 1491217521
0.460937500000, -3.738769531250, 0.893310546875, 253.992187500000, -152.312500000000, 180.140625000000, 1491217521
0.460937500000, -3.738769531250, 0.893310546875, 253.992187500000, -152.312500000000, 180.140625000000, 1491217521
0.460937500000, -3.738769531250, 0.893310546875, 253.992187500000, -152.312500000000, 180.140625000000, 1491217521
1.616943359375, -3.109619140625, 0.270996093750, -256.000000000000, 33.984375000000, 124.500000000000, 1491217521
1.616943359375, -3.109619140625, 0.270996093750, -256.000000000000, 33.984375000000, 124.500000000000, 1491217521
1.616943359375, -3.109619140625, 0.270996093750, -256.000000000000, 33.984375000000, 124.500000000000, 1491217521
1.616943359375, -3.109619140625, 0.270996093750, -256.000000000000, 33.984375000000, 124.500000000000, 1491217521
0.453857421875, -1.277587890625, 0.144531250000, -196.710937500000, 253.992187500000, -48.500000000000, 1491217521
0.453857421875, -1.277587890625, 0.144531250000, -196.710937500000, 253.992187500000, -48.500000000000, 1491217521
0.453857421875, -1.277587890625, 0.144531250000, -196.710937500000, 253.992187500000, -48.500000000000, 1491217521
-0.015380859375, -0.742675781250, -0.174316406250, -16.687500000000, 253.992187500000, -210.226562500000, 1491217521
-0.015380859375, -0.742675781250, -0.174316406250, -16.687500000000, 253.992187500000, -210.226562500000, 1491217521
-0.015380859375, -0.742675781250, -0.174316406250, -16.687500000000, 253.992187500000, -210.226562500000, 1491217521
-0.066162109375, -0.331298828125, -0.080322265625, -92.039062500000, 154.976562500000, -50.929687500000, 1491217521
-0.066162109375, -0.331298828125, -0.080322265625, -92.039062500000, 154.976562500000, -50.929687500000, 1491217521
-0.066162109375, -0.331298828125, -0.080322265625, -92.039062500000, 154.976562500000, -50.929687500000, 1491217521
-0.093017578125, -0.528076171875, 0.018798828125, -84.687500000000, -221.062500000000, -23.960937500000, 1491217521
-0.093017578125, -0.528076171875, 0.018798828125, -84.687500000000, -221.062500000000, -23.960937500000, 1491217521
-0.093017578125, -0.528076171875, 0.018798828125, -84.687500000000, -221.062500000000, -23.960937500000, 1491217521
-0.093017578125, -0.528076171875, 0.018798828125, -84.687500000000, -221.062500000000, -23.960937500000, 1491217521
0.324951171875, -0.695312500000, -0.012939453125, 42.148437500000, -157.085937500000, 118.984375000000, 1491217521
0.324951171875, -0.695312500000, -0.012939453125, 42.148437500000, -157.085937500000, 118.984375000000, 1491217521
0.324951171875, -0.695312500000, -0.012939453125, 42.148437500000, -157.085937500000, 118.984375000000, 1491217521
0.230712890625, -0.739990234375, -0.075195312500, 32.031250000000, 89.015625000000, 13.625000000000, 1491217521
0.230712890625, -0.739990234375, -0.075195312500, 32.031250000000, 89.015625000000, 13.625000000000, 1491217521
0.230712890625, -0.739990234375, -0.075195312500, 32.031250000000, 89.015625000000, 13.625000000000, 1491217521
0.021972656250, -1.085937500000, 0.006591796875, 170.859375000000, 26.203125000000, 21.664062500000, 1491217521
0.021972656250, -1.085937500000, 0.006591796875, 170.859375000000, 26.203125000000, 21.664062500000, 1491217521
0.021972656250, -1.085937500000, 0.006591796875, 170.859375000000, 26.203125000000, 21.664062500000, 1491217521
0.801269531250, -0.669189453125, 0.791259765625, -125.242187500000, 63.796875000000, 52.710937500000, 1491217521
0.801269531250, -0.669189453125, 0.791259765625, -125.242187500000, 63.796875000000, 52.710937500000, 1491217521
0.801269531250, -0.669189453125, 0.791259765625, -125.242187500000, 63.796875000000, 52.710937500000, 1491217521
0.801269531250, -0.669189453125, 0.791259765625, -125.242187500000, 63.796875000000, 52.710937500000, 1491217521
-0.132324218750, -1.081787109375, 0.163085937500, -78.046875000000, 166.304687500000, -12.882812500000, 1491217522
-0.132324218750, -1.081787109375, 0.163085937500, -78.046875000000, 166.304687500000, -12.882812500000, 1491217522
-0.132324218750, -1.081787109375, 0.163085937500, -78.046875000000, 166.304687500000, -12.882812500000, 1491217522
0.045166015625, -0.895751953125, 0.118652343750, -9.085937500000, 29.265625000000, -21.507812500000, 1491217522
0.045166015625, -0.895751953125, 0.118652343750, -9.085937500000, 29.265625000000, -21.507812500000, 1491217522
0.144042968750, -0.913330078125, 0.518554687500, -21.382812500000, -10.710937500000, 16.835937500000, 1491217522
0.144042968750, -0.913330078125, 0.518554687500, -21.382812500000, -10.710937500000, 16.835937500000, 1491217522
0.144042968750, -0.913330078125, 0.518554687500, -21.382812500000, -10.710937500000, 16.835937500000, 1491217522
0.144042968750, -0.913330078125, 0.518554687500, -21.382812500000, -10.710937500000, 16.835937500000, 1491217522
0.075927734375, -0.815673828125, 0.381835937500, -14.695312500000, 3.125000000000, 4.179687500000, 1491217522
0.075927734375, -0.815673828125, 0.381835937500, -14.695312500000, 3.125000000000, 4.179687500000, 1491217522
0.075927734375, -0.815673828125, 0.381835937500, -14.695312500000, 3.125000000000, 4.179687500000, 1491217522
0.075927734375, -0.815673828125, 0.381835937500, -14.695312500000, 3.125000000000, 4.179687500000, 1491217522
0.156250000000, -0.944335937500, 0.527099609375, -7.734375000000, -16.429687500000, -2.265625000000, 1491217522
0.156250000000, -0.944335937500, 0.527099609375, -7.734375000000, -16.429687500000, -2.265625000000, 1491217522
0.156250000000, -0.944335937500, 0.527099609375, -7.734375000000, -16.429687500000, -2.265625000000, 1491217522
-0.001953125000, -0.921142578125, 0.419433593750, -16.320312500000, 10.195312500000, -0.695312500000, 1491217522
-0.001953125000, -0.921142578125, 0.419433593750, -16.320312500000, 10.195312500000, -0.695312500000, 1491217522
-0.001953125000, -0.921142578125, 0.419433593750, -16.320312500000, 10.195312500000, -0.695312500000, 1491217522
0.086669921875, -0.811523437500, 0.382324218750, -6.781250000000, -1.125000000000, -2.257812500000, 1491217522
0.086669921875, -0.811523437500, 0.382324218750, -6.781250000000, -1.125000000000, -2.257812500000, 1491217522
0.086669921875, -0.811523437500, 0.382324218750, -6.781250000000, -1.125000000000, -2.257812500000, 1491217522
-0.017089843750, -0.885009765625, 0.455810546875, 2.078125000000, 4.125000000000, -4.687500000000, 1491217522
-0.017089843750, -0.885009765625, 0.455810546875, 2.078125000000, 4.125000000000, -4.687500000000, 1491217522
-0.017089843750, -0.885009765625, 0.455810546875, 2.078125000000, 4.125000000000, -4.687500000000, 1491217522
-0.017089843750, -0.885009765625, 0.455810546875, 2.078125000000, 4.125000000000, -4.687500000000, 1491217522
0.146972656250, -0.922851562500, 0.355712890625, 3.406250000000, 2.070312500000, -2.585937500000, 1491217522
0.146972656250, -0.922851562500, 0.355712890625, 3.406250000000, 2.070312500000, -2.585937500000, 1491217522
0.146972656250, -0.922851562500, 0.355712890625, 3.406250000000, 2.070312500000, -2.585937500000, 1491217522
-0.031005859375, -0.927978515625, 0.482421875000, -2.296875000000, 0.585937500000, -2.851562500000, 1491217522
-0.031005859375, -0.927978515625, 0.482421875000, -2.296875000000, 0.585937500000, -2.851562500000, 1491217522
-0.031005859375, -0.927978515625, 0.482421875000, -2.296875000000, 0.585937500000, -2.851562500000, 1491217522
0.061767578125, -0.903808593750, 0.406982421875, -12.085937500000, 15.164062500000, 0.226562500000, 1491217522
0.061767578125, -0.903808593750, 0.406982421875, -12.085937500000, 15.164062500000, 0.226562500000, 1491217522
0.061767578125, -0.903808593750, 0.406982421875, -12.085937500000, 15.164062500000, 0.226562500000, 1491217522
0.139648437500, -0.949462890625, 0.380126953125, -3.617187500000, 6.437500000000, 0.000000000000, 1491217522
0.139648437500, -0.949462890625, 0.380126953125, -3.617187500000, 6.437500000000, 0.000000000000, 1491217522
0.139648437500, -0.949462890625, 0.380126953125, -3.617187500000, 6.437500000000, 0.000000000000, 1491217522
0.139648437500, -0.949462890625, 0.380126953125, -3.617187500000, 6.437500000000, 0.000000000000, 1491217522
0.041015625000, -0.923095703125, 0.414550781250, -6.992187500000, 3.656250000000, 0.992187500000, 1491217522
0.041015625000, -0.923095703125, 0.414550781250, -6.992187500000, 3.656250000000, 0.992187500000, 1491217522
0.041015625000, -0.923095703125, 0.414550781250, -6.992187500000, 3.656250000000, 0.992187500000, 1491217522
-0.010253906250, -0.951660156250, 0.386962890625, -3.179687500000, 12.039062500000, -4.085937500000, 1491217522
-0.010253906250, -0.951660156250, 0.386962890625, -3.179687500000, 12.039062500000, -4.085937500000, 1491217522
-0.010253906250, -0.951660156250, 0.386962890625, -3.179687500000, 12.039062500000, -4.085937500000, 1491217522
0.148437500000, -0.947021484375, 0.447265625000, 2.007812500000, -4.679687500000, -2.890625000000, 1491217522
0.148437500000, -0.947021484375, 0.447265625000, 2.007812500000, -4.679687500000, -2.890625000000, 1491217522
0.148437500000, -0.947021484375, 0.447265625000, 2.007812500000, -4.679687500000, -2.890625000000, 1491217522
0.053955078125, -0.925781250000, 0.423339843750, -6.835937500000, 9.015625000000, 0.218750000000, 1491217522
0.053955078125, -0.925781250000, 0.423339843750, -6.835937500000, 9.015625000000, 0.218750000000, 1491217522
0.053955078125, -0.925781250000, 0.423339843750, -6.835937500000, 9.015625000000, 0.218750000000, 1491217522
0.053955078125, -0.925781250000, 0.423339843750, -6.835937500000, 9.015625000000, 0.218750000000, 1491217522
-0.005126953125, -0.910156250000, 0.421630859375, -6.593750000000, 8.781250000000, -4.531250000000, 1491217522
-0.005126953125, -0.910156250000, 0.421630859375, -6.593750000000, 8.781250000000, -4.531250000000, 1491217522
-0.005126953125, -0.910156250000, 0.421630859375, -6.593750000000, 8.781250000000, -4.531250000000, 1491217522
0.137207031250, -0.877441406250, 0.420654296875, -5.187500000000, 2.570312500000, -4.500000000000, 1491217522
0.137207031250, -0.877441406250, 0.420654296875, -5.187500000000, 2.570312500000, -4.500000000000, 1491217522
0.137207031250, -0.877441406250, 0.420654296875, -5.187500000000, 2.570312500000, -4.500000000000, 1491217522
0.052490234375, -0.918701171875, 0.347167968750, -5.890625000000, 6.460937500000, -6.242187500000, 1491217522
0.052490234375, -0.918701171875, 0.347167968750, -5.890625000000, 6.460937500000, -6.242187500000, 1491217522
0.052490234375, -0.918701171875, 0.347167968750, -5.890625000000, 6.460937500000, -6.242187500000, 1491217522
0.027832031250, -0.949462890625, 0.510986328125, -10.906250000000, 6.148437500000, -1.414062500000, 1491217522
0.027832031250, -0.949462890625, 0.510986328125, -10.906250000000, 6.148437500000, -1.414062500000, 1491217522
0.027832031250, -0.949462890625, 0.510986328125, -10.906250000000, 6.148437500000, -1.414062500000, 1491217522
0.027832031250, -0.949462890625, 0.510986328125, -10.906250000000, 6.148437500000, -1.414062500000, 1491217522
0.152832031250, -0.939453125000, 0.367675781250, -8.703125000000, 8.640625000000, -4.101562500000, 1491217523
0.152832031250, -0.939453125000, 0.367675781250, -8.703125000000, 8.640625000000, -4.101562500000, 1491217523
0.152832031250, -0.939453125000, 0.367675781250, -8.703125000000, 8.640625000000, -4.101562500000, 1491217523
-0.028076171875, -0.916748046875, 0.524658203125, -8.968750000000, -2.890625000000, -4.710937500000, 1491217523
-0.028076171875, -0.916748046875, 0.524658203125, -8.968750000000, -2.890625000000, -4.710937500000, 1491217523
-0.028076171875, -0.916748046875, 0.524658203125, -8.968750000000, -2.890625000000, -4.710937500000, 1491217523
0.071289062500, -0.949218750000, 0.395263671875, -5.968750000000, 0.710937500000, -6.296875000000, 1491217523
0.071289062500, -0.949218750000, 0.395263671875, -5.968750000000, 0.710937500000, -6.296875000000, 1491217523
0.071289062500, -0.949218750000, 0.395263671875, -5.968750000000, 0.710937500000, -6.296875000000, 1491217523
0.067138671875, -0.950927734375, 0.466796875000, 0.156250000000, -10.882812500000, -8.390625000000, 1491217523
0.067138671875, -0.950927734375, 0.466796875000, 0.156250000000, -10.882812500000, -8.390625000000, 1491217523
0.067138671875, -0.950927734375, 0.466796875000, 0.156250000000, -10.882812500000, -8.390625000000, 1491217523
0.067138671875, -0.950927734375, 0.466796875000, 0.156250000000, -10.882812500000, -8.390625000000, 1491217523
0.067138671875, -0.950927734375, 0.466796875000, 0.156250000000, -10.882812500000, -8.390625000000, 1491217523
0.091552734375, -0.920166015625, 0.411376953125, -6.320312500000, 0.562500000000, -6.460937500000, 1491217523
0.060302734375, -0.864501953125, 0.300048828125, -3.679687500000, 4.085937500000, -3.054687500000, 1491217523
0.060302734375, -0.864501953125, 0.300048828125, -3.679687500000, 4.085937500000, -3.054687500000, 1491217523
0.060302734375, -0.864501953125, 0.300048828125, -3.679687500000, 4.085937500000, -3.054687500000, 1491217523
0.060302734375, -0.864501953125, 0.300048828125, -3.679687500000, 4.085937500000, -3.054687500000, 1491217523
0.051025390625, -0.848632812500, 0.412353515625, -1.750000000000, -3.046875000000, -3.929687500000, 1491217523
0.051025390625, -0.848632812500, 0.412353515625, -1.750000000000, -3.046875000000, -3.929687500000, 1491217523
0.051025390625, -0.848632812500, 0.412353515625, -1.750000000000, -3.046875000000, -3.929687500000, 1491217523
-0.000488281250, -0.855957031250, 0.398925781250, -2.906250000000, 0.507812500000, -3.796875000000, 1491217523
-0.000488281250, -0.855957031250, 0.398925781250, -2.906250000000, 0.507812500000, -3.796875000000, 1491217523
-0.000488281250, -0.855957031250, 0.398925781250, -2.906250000000, 0.507812500000, -3.796875000000, 1491217523
-0.000488281250, -0.855957031250, 0.398925781250, -2.906250000000, 0.507812500000, -3.796875000000, 1491217523
0.072753906250, -0.850830078125, 0.526855468750, -4.695312500000, -0.453125000000, -1.156250000000, 1491217523
0.072753906250, -0.850830078125, 0.526855468750, -4.695312500000, -0.453125000000, -1.156250000000, 1491217523
0.072753906250, -0.850830078125, 0.526855468750, -4.695312500000, -0.453125000000, -1.156250000000, 1491217523
0.020751953125, -0.957763671875, 0.410644531250, -4.585937500000, -0.531250000000, -4.335937500000, 1491217523
0.020751953125, -0.957763671875, 0.410644531250, -4.585937500000, -0.531250000000, -4.335937500000, 1491217523
0.020751953125, -0.957763671875, 0.410644531250, -4.585937500000, -0.531250000000, -4.335937500000, 1491217523
-0.025390625000, -0.953857421875, 0.449707031250, -4.281250000000, -2.640625000000, -1.734375000000, 1491217523
-0.025390625000, -0.953857421875, 0.449707031250, -4.281250000000, -2.640625000000, -1.734375000000, 1491217523
-0.025390625000, -0.953857421875, 0.449707031250, -4.281250000000, -2.640625000000, -1.734375000000, 1491217523
-0.000976562500, -0.920898437500, 0.408203125000, -2.429687500000, -6.320312500000, -3.398437500000, 1491217523
-0.000976562500, -0.920898437500, 0.408203125000, -2.429687500000, -6.320312500000, -3.398437500000, 1491217523
-0.000976562500, -0.920898437500, 0.408203125000, -2.429687500000, -6.320312500000, -3.398437500000, 1491217523
-0.000976562500, -0.920898437500, 0.408203125000, -2.429687500000, -6.320312500000, -3.398437500000, 1491217523
0.109130859375, -0.798828125000, 0.421875000000, -4.390625000000, 1.507812500000, -1.578125000000, 1491217523
0.109130859375, -0.798828125000, 0.421875000000, -4.390625000000, 1.507812500000, -1.578125000000, 1491217523
0.109130859375, -0.798828125000, 0.421875000000, -4.390625000000, 1.507812500000, -1.578125000000, 1491217523
-0.062988281250, -0.944824218750, 0.414794921875, -1.289062500000, -5.156250000000, -4.460937500000, 1491217523
-0.062988281250, -0.944824218750, 0.414794921875, -1.289062500000, -5.156250000000, -4.460937500000, 1491217523
-0.062988281250, -0.944824218750, 0.414794921875, -1.289062500000, -5.156250000000, -4.460937500000, 1491217523
0.020751953125, -1.024169921875, 0.422607421875, -4.906250000000, 6.476562500000, -4.906250000000, 1491217523
0.020751953125, -1.024169921875, 0.422607421875, -4.906250000000, 6.476562500000, -4.906250000000, 1491217523
0.020751953125, -1.024169921875, 0.422607421875, -4.906250000000, 6.476562500000, -4.906250000000, 1491217523
0.050781250000, -0.905761718750, 0.414062500000, -1.523437500000, -1.054687500000, -1.937500000000, 1491217523
0.050781250000, -0.905761718750, 0.414062500000, -1.523437500000, -1.054687500000, -1.937500000000, 1491217523
0.050781250000, -0.905761718750, 0.414062500000, -1.523437500000, -1.054687500000, -1.937500000000, 1491217523
0.050781250000, -0.905761718750, 0.414062500000, -1.523437500000, -1.054687500000, -1.937500000000, 1491217523
0.033447265625, -0.962646484375, 0.467529296875, -2.515625000000, -5.023437500000, -3.929687500000, 1491217523
0.033447265625, -0.962646484375, 0.467529296875, -2.515625000000, -5.023437500000, -3.929687500000, 1491217523
0.033447265625, -0.962646484375, 0.467529296875, -2.515625000000, -5.023437500000, -3.929687500000, 1491217523
-0.012451171875, -0.855224609375, 0.455322265625, -4.343750000000, 1.492187500000, -1.968750000000, 1491217523
-0.012451171875, -0.855224609375, 0.455322265625, -4.343750000000, 1.492187500000, -1.968750000000, 1491217523
-0.012451171875, -0.855224609375, 0.455322265625, -4.343750000000, 1.492187500000, -1.968750000000, 1491217523
0.092529296875, -0.851074218750, 0.442626953125, -2.156250000000, -8.101562500000, -3.328125000000, 1491217523
0.092529296875, -0.851074218750, 0.442626953125, -2.156250000000, -8.101562500000, -3.328125000000, 1491217523
0.092529296875, -0.851074218750, 0.442626953125, -2.156250000000, -8.101562500000, -3.328125000000, 1491217523
-0.003417968750, -0.947998046875, 0.374267578125, -5.234375000000, 3.523437500000, -1.750000000000, 1491217523
-0.003417968750, -0.947998046875, 0.374267578125, -5.234375000000, 3.523437500000, -1.750000000000, 1491217523
-0.003417968750, -0.947998046875, 0.374267578125, -5.234375000000, 3.523437500000, -1.750000000000, 1491217523
-0.003417968750, -0.947998046875, 0.374267578125, -5.234375000000, 3.523437500000, -1.750000000000, 1491217523
0.143554687500, -0.850097656250, 0.448242187500, -2.562500000000, -4.757812500000, -4.718750000000, 1491217523
0.143554687500, -0.850097656250, 0.448242187500, -2.562500000000, -4.757812500000, -4.718750000000, 1491217523
0.143554687500, -0.850097656250, 0.448242187500, -2.562500000000, -4.757812500000, -4.718750000000, 1491217523
0.135498046875, -0.943847656250, 0.406982421875, -3.453125000000, 1.281250000000, -2.000000000000, 1491217524
0.135498046875, -0.943847656250, 0.406982421875, -3.453125000000, 1.281250000000, -2.000000000000, 1491217524
0.135498046875, -0.943847656250, 0.406982421875, -3.453125000000, 1.281250000000, -2.000000000000, 1491217524
-0.015136718750, -0.911621093750, 0.346191406250, -4.687500000000, 0.640625000000, -6.148437500000, 1491217524
-0.015136718750, -0.911621093750, 0.346191406250, -4.687500000000, 0.640625000000, -6.148437500000, 1491217524
-0.015136718750, -0.911621093750, 0.346191406250, -4.687500000000, 0.640625000000, -6.148437500000, 1491217524
0.048095703125, -0.902343750000, 0.438720703125, -1.414062500000, -2.757812500000, -4.750000000000, 1491217524
0.048095703125, -0.902343750000, 0.438720703125, -1.414062500000, -2.757812500000, -4.750000000000, 1491217524
0.048095703125, -0.902343750000, 0.438720703125, -1.414062500000, -2.757812500000, -4.750000000000, 1491217524
-0.019287109375, -0.918457031250, 0.468017578125, -2.843750000000, -8.921875000000, -1.843750000000, 1491217524
-0.019287109375, -0.918457031250, 0.468017578125, -2.843750000000, -8.921875000000, -1.843750000000, 1491217524
-0.019287109375, -0.918457031250, 0.468017578125, -2.843750000000, -8.921875000000, -1.843750000000, 1491217524
-0.019287109375, -0.918457031250, 0.468017578125, -2.843750000000, -8.921875000000, -1.843750000000, 1491217524
