ACC_X,ACC_Y,ACC_Z,G_X,G_Y,G_Z,Unix Time
0.026123046875, 0.455078125000, 0.892333984375, -3.554687500000, 0.234375000000, -4.851562500000, 1491216376
0.026123046875, 0.455078125000, 0.892333984375, -3.554687500000, 0.234375000000, -4.851562500000, 1491216376
0.026123046875, 0.455078125000, 0.892333984375, -3.554687500000, 0.234375000000, -4.851562500000, 1491216376
0.020019531250, 0.413574218750, 0.864013671875, -6.375000000000, 0.960937500000, -2.484375000000, 1491216376
0.020019531250, 0.413574218750, 0.864013671875, -6.375000000000, 0.960937500000, -2.484375000000, 1491216376
0.020019531250, 0.413574218750, 0.864013671875, -6.375000000000, 0.960937500000, -2.484375000000, 1491216376
-0.029052734375, 0.417724609375, 0.848144531250, -6.625000000000, -2.054687500000, -1.601562500000, 1491216376
-0.029052734375, 0.417724609375, 0.848144531250, -6.625000000000, -2.054687500000, -1.601562500000, 1491216376
-0.029052734375, 0.417724609375, 0.848144531250, -6.625000000000, -2.054687500000, -1.601562500000, 1491216376
-0.029052734375, 0.417724609375, 0.848144531250, -6.625000000000, -2.054687500000, -1.601562500000, 1491216376
-0.014160156250, 0.510498046875, 0.847167968750, -4.695312500000, -0.328125000000, -1.140625000000, 1491216376
-0.014160156250, 0.510498046875, 0.847167968750, -4.695312500000, -0.328125000000, -1.140625000000, 1491216376
-0.014160156250, 0.510498046875, 0.847167968750, -4.695312500000, -0.328125000000, -1.140625000000, 1491216376
-0.082519531250, 0.532470703125, 0.854248046875, -4.648437500000, -0.335937500000, -6.578125000000, 1491216376
-0.082519531250, 0.532470703125, 0.854248046875, -4.648437500000, -0.335937500000, -6.578125000000, 1491216376
-0.082519531250, 0.532470703125, 0.854248046875, -4.648437500000, -0.335937500000, -6.578125000000, 1491216376
-0.030761718750, 0.412597656250, 0.956054687500, -3.234375000000, -0.570312500000, 0.062500000000, 1491216376
-0.030761718750, 0.412597656250, 0.956054687500, -3.234375000000, -0.570312500000, 0.062500000000, 1491216376
-0.030761718750, 0.412597656250, 0.956054687500, -3.234375000000, -0.570312500000, 0.062500000000, 1491216376
0.026367187500, 0.475341796875, 0.864990234375, -6.820312500000, 2.289062500000, -2.554687500000, 1491216376
0.026367187500, 0.475341796875, 0.864990234375, -6.820312500000, 2.289062500000, -2.554687500000, 1491216376
0.026367187500, 0.475341796875, 0.864990234375, -6.820312500000, 2.289062500000, -2.554687500000, 1491216376
0.026367187500, 0.475341796875, 0.864990234375, -6.820312500000, 2.289062500000, -2.554687500000, 1491216376
-0.030761718750, 0.518554687500, 0.868896484375, -6.242187500000, -0.242187500000, -1.453125000000, 1491216376
-0.030761718750, 0.518554687500, 0.868896484375, -6.242187500000, -0.242187500000, -1.453125000000, 1491216376
-0.030761718750, 0.518554687500, 0.868896484375, -6.242187500000, -0.242187500000, -1.453125000000, 1491216376
0.008544921875, 0.479003906250, 1.015380859375, -3.875000000000, 2.148437500000, -1.078125000000, 1491216376
0.008544921875, 0.479003906250, 1.015380859375, -3.875000000000, 2.148437500000, -1.078125000000, 1491216376
0.008544921875, 0.479003906250, 1.015380859375, -3.875000000000, 2.148437500000, -1.078125000000, 1491216376
0.093261718750, 0.480224609375, 0.833251953125, -3.421875000000, 2.968750000000, -4.085937500000, 1491216376
0.093261718750, 0.480224609375, 0.833251953125, -3.421875000000, 2.968750000000, -4.085937500000, 1491216376
0.093261718750, 0.480224609375, 0.833251953125, -3.421875000000, 2.968750000000, -4.085937500000, 1491216376
0.024658203125, 0.567382812500, 0.953125000000, -1.210937500000, 1.140625000000, -4.945312500000, 1491216376
0.024658203125, 0.567382812500, 0.953125000000, -1.210937500000, 1.140625000000, -4.945312500000, 1491216376
0.024658203125, 0.567382812500, 0.953125000000, -1.210937500000, 1.140625000000, -4.945312500000, 1491216376
0.024658203125, 0.567382812500, 0.953125000000, -1.210937500000, 1.140625000000, -4.945312500000, 1491216376
-0.002197265625, 0.408203125000, 0.897460937500, -1.914062500000, -0.171875000000, -6.109375000000, 1491216376
-0.002197265625, 0.408203125000, 0.897460937500, -1.914062500000, -0.171875000000, -6.109375000000, 1491216376
-0.002197265625, 0.408203125000, 0.897460937500, -1.914062500000, -0.171875000000, -6.109375000000, 1491216376
-0.020751953125, 0.508300781250, 0.887207031250, -1.210937500000, 2.445312500000, -0.554687500000, 1491216376
-0.020751953125, 0.508300781250, 0.887207031250, -1.210937500000, 2.445312500000, -0.554687500000, 1491216376
-0.020751953125, 0.508300781250, 0.887207031250, -1.210937500000, 2.445312500000, -0.554687500000, 1491216376
-0.022460937500, 0.410644531250, 0.943359375000, -4.164062500000, -0.523437500000, -1.031250000000, 1491216376
-0.022460937500, 0.410644531250, 0.943359375000, -4.164062500000, -0.523437500000, -1.031250000000, 1491216376
-0.022460937500, 0.410644531250, 0.943359375000, -4.164062500000, -0.523437500000, -1.031250000000, 1491216376
0.073974609375, 0.573730468750, 0.865722656250, -0.960937500000, 0.007812500000, -6.554687500000, 1491216376
0.073974609375, 0.573730468750, 0.865722656250, -0.960937500000, 0.007812500000, -6.554687500000, 1491216376
0.073974609375, 0.573730468750, 0.865722656250, -0.960937500000, 0.007812500000, -6.554687500000, 1491216376
0.073974609375, 0.573730468750, 0.865722656250, -0.960937500000, 0.007812500000, -6.554687500000, 1491216377
0.031005859375, 0.510498046875, 0.887695312500, -0.687500000000, 2.343750000000, -1.812500000000, 1491216377
0.031005859375, 0.510498046875, 0.887695312500, -0.687500000000, 2.343750000000, -1.812500000000, 1491216377
0.031005859375, 0.510498046875, 0.887695312500, -0.687500000000, 2.343750000000, -1.812500000000, 1491216377
-0.044189453125, 0.522460937500, 0.870605468750, -1.117187500000, -2.062500000000, -1.984375000000, 1491216377
-0.044189453125, 0.522460937500, 0.870605468750, -1.117187500000, -2.062500000000, -1.984375000000, 1491216377
-0.044189453125, 0.522460937500, 0.870605468750, -1.117187500000, -2.062500000000, -1.984375000000, 1491216377
0.064697265625, 0.591064453125, 0.921386718750, -1.578125000000, -0.718750000000, -4.765625000000, 1491216377
0.064697265625, 0.591064453125, 0.921386718750, -1.578125000000, -0.718750000000, -4.765625000000, 1491216377
0.064697265625, 0.591064453125, 0.921386718750, -1.578125000000, -0.718750000000, -4.765625000000, 1491216377
-0.003417968750, 0.582763671875, 0.885986328125, -3.406250000000, -0.234375000000, -4.343750000000, 1491216377
-0.003417968750, 0.582763671875, 0.885986328125, -3.406250000000, -0.234375000000, -4.343750000000, 1491216377
-0.003417968750, 0.582763671875, 0.885986328125, -3.406250000000, -0.234375000000, -4.343750000000, 1491216377
-0.003417968750, 0.582763671875, 0.885986328125, -3.406250000000, -0.234375000000, -4.343750000000, 1491216377
0.001953125000, 0.466308593750, 0.856445312500, -2.414062500000, -1.000000000000, -2.960937500000, 1491216377
0.001953125000, 0.466308593750, 0.856445312500, -2.414062500000, -1.000000000000, -2.960937500000, 1491216377
0.001953125000, 0.466308593750, 0.856445312500, -2.414062500000, -1.000000000000, -2.960937500000, 1491216377
0.000976562500, 0.486083984375, 0.947998046875, -3.250000000000, 2.281250000000, -4.320312500000, 1491216377
0.000976562500, 0.486083984375, 0.947998046875, -3.250000000000, 2.281250000000, -4.320312500000, 1491216377
0.000976562500, 0.486083984375, 0.947998046875, -3.250000000000, 2.281250000000, -4.320312500000, 1491216377
0.091308593750, 0.544921875000, 0.891845703125, -4.359375000000, -0.414062500000, 0.835937500000, 1491216377
0.091308593750, 0.544921875000, 0.891845703125, -4.359375000000, -0.414062500000, 0.835937500000, 1491216377
0.091308593750, 0.544921875000, 0.891845703125, -4.359375000000, -0.414062500000, 0.835937500000, 1491216377
0.075195312500, 0.504394531250, 0.905761718750, -1.109375000000, -0.929687500000, 0.976562500000, 1491216377
0.075195312500, 0.504394531250, 0.905761718750, -1.109375000000, -0.929687500000, 0.976562500000, 1491216377
0.075195312500, 0.504394531250, 0.905761718750, -1.109375000000, -0.929687500000, 0.976562500000, 1491216377
0.075195312500, 0.504394531250, 0.905761718750, -1.109375000000, -0.929687500000, 0.976562500000, 1491216377
-0.077880859375, 0.531005859375, 0.896484375000, -1.648437500000, 0.601562500000, -4.265625000000, 1491216377
-0.077880859375, 0.531005859375, 0.896484375000, -1.648437500000, 0.601562500000, -4.265625000000, 1491216377
-0.077880859375, 0.531005859375, 0.896484375000, -1.648437500000, 0.601562500000, -4.265625000000, 1491216377
-0.028320312500, 0.442626953125, 0.880371093750, -3.359375000000, -0.375000000000, -1.343750000000, 1491216377
-0.028320312500, 0.442626953125, 0.880371093750, -3.359375000000, -0.375000000000, -1.343750000000, 1491216377
-0.028320312500, 0.442626953125, 0.880371093750, -3.359375000000, -0.375000000000, -1.343750000000, 1491216377
-0.013916015625, 0.590576171875, 0.850830078125, -3.515625000000, 0.289062500000, -2.531250000000, 1491216377
-0.013916015625, 0.590576171875, 0.850830078125, -3.515625000000, 0.289062500000, -2.531250000000, 1491216377
0.007080078125, 0.480957031250, 0.903320312500, -6.359375000000, 0.304687500000, 0.468750000000, 1491216377
0.007080078125, 0.480957031250, 0.903320312500, -6.359375000000, 0.304687500000, 0.468750000000, 1491216377
0.007080078125, 0.480957031250, 0.903320312500, -6.359375000000, 0.304687500000, 0.468750000000, 1491216377
0.007080078125, 0.480957031250, 0.903320312500, -6.359375000000, 0.304687500000, 0.468750000000, 1491216377
0.002441406250, 0.570068359375, 0.944580078125, -4.703125000000, 0.765625000000, -4.625000000000, 1491216377
0.002441406250, 0.570068359375, 0.944580078125, -4.703125000000, 0.765625000000, -4.625000000000, 1491216377
0.002441406250, 0.570068359375, 0.944580078125, -4.703125000000, 0.765625000000, -4.625000000000, 1491216377
0.002441406250, 0.570068359375, 0.944580078125, -4.703125000000, 0.765625000000, -4.625000000000, 1491216377
0.092041015625, 0.479980468750, 0.853515625000, -4.468750000000, -0.812500000000, -3.007812500000, 1491216377
0.092041015625, 0.479980468750, 0.853515625000, -4.468750000000, -0.812500000000, -3.007812500000, 1491216377
0.092041015625, 0.479980468750, 0.853515625000, -4.468750000000, -0.812500000000, -3.007812500000, 1491216377
-0.025634765625, 0.430908203125, 0.860351562500, -3.929687500000, -0.523437500000, -1.351562500000, 1491216377
-0.025634765625, 0.430908203125, 0.860351562500, -3.929687500000, -0.523437500000, -1.351562500000, 1491216377
-0.085205078125, 0.462158203125, 0.864501953125, -4.500000000000, 2.382812500000, -3.156250000000, 1491216377
-0.085205078125, 0.462158203125, 0.864501953125, -4.500000000000, 2.382812500000, -3.156250000000, 1491216377
-0.085205078125, 0.462158203125, 0.864501953125, -4.500000000000, 2.382812500000, -3.156250000000, 1491216377
-0.085205078125, 0.462158203125, 0.864501953125, -4.500000000000, 2.382812500000, -3.156250000000, 1491216377
-0.085205078125, 0.462158203125, 0.864501953125, -4.500000000000, 2.382812500000, -3.156250000000, 1491216377
-0.071533203125, 0.490478515625, 0.965332031250, -4.671875000000, 2.132812500000, -1.210937500000, 1491216377
-0.071533203125, 0.490478515625, 0.965332031250, -4.671875000000, 2.132812500000, -1.210937500000, 1491216377
-0.071533203125, 0.490478515625, 0.965332031250, -4.671875000000, 2.132812500000, -1.210937500000, 1491216377
-0.081298828125, 0.521728515625, 0.861083984375, -3.476562500000, 0.429687500000, -2.351562500000, 1491216377
-0.081298828125, 0.521728515625, 0.861083984375, -3.476562500000, 0.429687500000, -2.351562500000, 1491216377
-0.081298828125, 0.521728515625, 0.861083984375, -3.476562500000, 0.429687500000, -2.351562500000, 1491216377
0.023437500000, 0.484863281250, 0.932617187500, -3.171875000000, -2.343750000000, -3.851562500000, 1491216377
0.023437500000, 0.484863281250, 0.932617187500, -3.171875000000, -2.343750000000, -3.851562500000, 1491216377
0.023437500000, 0.484863281250, 0.932617187500, -3.171875000000, -2.343750000000, -3.851562500000, 1491216377
0.008056640625, 0.425292968750, 0.894287109375, -2.851562500000, 2.445312500000, -4.585937500000, 1491216377
0.008056640625, 0.425292968750, 0.894287109375, -2.851562500000, 2.445312500000, -4.585937500000, 1491216377
0.008056640625, 0.425292968750, 0.894287109375, -2.851562500000, 2.445312500000, -4.585937500000, 1491216377
0.030029296875, 0.471923828125, 0.864501953125, -1.929687500000, 0.289062500000, -2.101562500000, 1491216377
0.030029296875, 0.471923828125, 0.864501953125, -1.929687500000, 0.289062500000, -2.101562500000, 1491216378
0.030029296875, 0.471923828125, 0.864501953125, -1.929687500000, 0.289062500000, -2.101562500000, 1491216378
0.030029296875, 0.471923828125, 0.864501953125, -1.929687500000, 0.289062500000, -2.101562500000, 1491216378
0.002441406250, 0.510498046875, 0.956298828125, -6.179687500000, 0.679687500000, -1.554687500000, 1491216378
0.002441406250, 0.510498046875, 0.956298828125, -6.179687500000, 0.679687500000, -1.554687500000, 1491216378
0.002441406250, 0.510498046875, 0.956298828125, -6.179687500000, 0.679687500000, -1.554687500000, 1491216378
-0.074462890625, 0.467529296875, 0.954345703125, -3.562500000000, -0.835937500000, -4.570312500000, 1491216378
-0.074462890625, 0.467529296875, 0.954345703125, -3.562500000000, -0.835937500000, -4.570312500000, 1491216378
-0.074462890625, 0.467529296875, 0.954345703125, -3.562500000000, -0.835937500000, -4.570312500000, 1491216378
-0.078613281250, 0.520751953125, 0.909179687500, -3.421875000000, -2.164062500000, -1.140625000000, 1491216378
-0.078613281250, 0.520751953125, 0.909179687500, -3.421875000000, -2.164062500000, -1.140625000000, 1491216378
-0.078613281250, 0.520751953125, 0.909179687500, -3.421875000000, -2.164062500000, -1.140625000000, 1491216378
-0.078613281250, 0.520751953125, 0.909179687500, -3.421875000000, -2.164062500000, -1.140625000000, 1491216378
-0.085937500000, 0.574707031250, 0.906005859375, -5.359375000000, 0.039062500000, -4.210937500000, 1491216378
-0.085937500000, 0.574707031250, 0.906005859375, -5.359375000000, 0.039062500000, -4.210937500000, 1491216378
-0.085937500000, 0.574707031250, 0.906005859375, -5.359375000000, 0.039062500000, -4.210937500000, 1491216378
-0.008789062500, 0.422607421875, 0.881835937500, -6.218750000000, 0.500000000000, 0.648437500000, 1491216378
-0.008789062500, 0.422607421875, 0.881835937500, -6.218750000000, 0.500000000000, 0.648437500000, 1491216378
-0.008789062500, 0.422607421875, 0.881835937500, -6.218750000000, 0.500000000000, 0.648437500000, 1491216378
-0.015136718750, 0.365234375000, 0.866699218750, -4.101562500000, 0.312500000000, -2.539062500000, 1491216378
-0.015136718750, 0.365234375000, 0.866699218750, -4.101562500000, 0.312500000000, -2.539062500000, 1491216378
-0.015136718750, 0.365234375000, 0.866699218750, -4.101562500000, 0.312500000000, -2.539062500000, 1491216378
-0.071289062500, 0.484863281250, 0.947998046875, -3.562500000000, -2.609375000000, -3.281250000000, 1491216378
-0.071289062500, 0.484863281250, 0.947998046875, -3.562500000000, -2.609375000000, -3.281250000000, 1491216378
-0.071289062500, 0.484863281250, 0.947998046875, -3.562500000000, -2.609375000000, -3.281250000000, 1491216378
-0.071289062500, 0.484863281250, 0.947998046875, -3.562500000000, -2.609375000000, -3.281250000000, 1491216378
0.003662109375, 0.526855468750, 0.851074218750, -6.343750000000, 0.539062500000, -0.843750000000, 1491216378
0.003662109375, 0.526855468750, 0.851074218750, -6.343750000000, 0.539062500000, -0.843750000000, 1491216378
0.003662109375, 0.526855468750, 0.851074218750, -6.343750000000, 0.539062500000, -0.843750000000, 1491216378
-0.013916015625, 0.469482421875, 0.963378906250, -3.281250000000, -0.539062500000, 1.007812500000, 1491216378
-0.013916015625, 0.469482421875, 0.963378906250, -3.281250000000, -0.539062500000, 1.007812500000, 1491216378
-0.013916015625, 0.469482421875, 0.963378906250, -3.281250000000, -0.539062500000, 1.007812500000, 1491216378
0.067871093750, 0.516113281250, 0.891845703125, -4.203125000000, 2.250000000000, -2.093750000000, 1491216378
0.067871093750, 0.516113281250, 0.891845703125, -4.203125000000, 2.250000000000, -2.093750000000, 1491216378
0.067871093750, 0.516113281250, 0.891845703125, -4.203125000000, 2.250000000000, -2.093750000000, 1491216378
0.011718750000, 0.501708984375, 0.858154296875, -3.765625000000, 0.882812500000, -1.250000000000, 1491216378
0.011718750000, 0.501708984375, 0.858154296875, -3.765625000000, 0.882812500000, -1.250000000000, 1491216378
0.011718750000, 0.501708984375, 0.858154296875, -3.765625000000, 0.882812500000, -1.250000000000, 1491216378
0.011718750000, 0.501708984375, 0.858154296875, -3.765625000000, 0.882812500000, -1.250000000000, 1491216378
-0.018554687500, 0.525878906250, 0.914062500000, -3.921875000000, 0.257812500000, -2.796875000000, 1491216378
-0.018554687500, 0.525878906250, 0.914062500000, -3.921875000000, 0.257812500000, -2.796875000000, 1491216378
-0.018554687500, 0.525878906250, 0.914062500000, -3.921875000000, 0.257812500000, -2.796875000000, 1491216378
-0.026367187500, 0.408203125000, 0.888916015625, -3.851562500000, -0.546875000000, -2.023437500000, 1491216378
-0.026367187500, 0.408203125000, 0.888916015625, -3.851562500000, -0.546875000000, -2.023437500000, 1491216378
-0.026367187500, 0.408203125000, 0.888916015625, -3.851562500000, -0.546875000000, -2.023437500000, 1491216378
0.130371093750, 0.431884765625, 0.868896484375, -1.539062500000, -0.781250000000, -3.859375000000, 1491216378
0.130371093750, 0.431884765625, 0.868896484375, -1.539062500000, -0.781250000000, -3.859375000000, 1491216378
-0.004638671875, 0.570068359375, 1.004882812500, -6.765625000000, 0.500000000000, -1.679687500000, 1491216378
-0.004638671875, 0.570068359375, 1.004882812500, -6.765625000000, 0.500000000000, -1.679687500000, 1491216378
-0.004638671875, 0.570068359375, 1.004882812500, -6.765625000000, 0.500000000000, -1.679687500000, 1491216378
-0.004638671875, 0.570068359375, 1.004882812500, -6.765625000000, 0.500000000000, -1.679687500000, 1491216378
-0.004638671875, 0.570068359375, 1.004882812500, -6.765625000000, 0.500000000000, -1.679687500000, 1491216378
0.035888671875, 0.563232421875, 0.849121093750, -2.882812500000, -0.531250000000, -3.617187500000, 1491216378
0.035888671875, 0.563232421875, 0.849121093750, -2.882812500000, -0.531250000000, -3.617187500000, 1491216378
0.035888671875, 0.563232421875, 0.849121093750, -2.882812500000, -0.531250000000, -3.617187500000, 1491216378
0.035888671875, 0.563232421875, 0.849121093750, -2.882812500000, -0.531250000000, -3.617187500000, 1491216378
0.035888671875, 0.563232421875, 0.849121093750, -2.882812500000, -0.531250000000, -3.617187500000, 1491216378
0.035888671875, 0.563232421875, 0.849121093750, -2.882812500000, -0.531250000000, -3.617187500000, 1491216378
-0.029296875000, 0.446289062500, 0.949218750000, -4.328125000000, -2.015625000000, -4.921875000000, 1491216378
-0.029296875000, 0.446289062500, 0.949218750000, -4.328125000000, -2.015625000000, -4.921875000000, 1491216378
0.022705078125, 0.484375000000, 0.799316406250, -6.742187500000, 0.132812500000, -1.398437500000, 1491216378
0.022705078125, 0.484375000000, 0.799316406250, -6.742187500000, 0.132812500000, -1.398437500000, 1491216378
0.022705078125, 0.484375000000, 0.799316406250, -6.742187500000, 0.132812500000, -1.398437500000, 1491216378
0.022705078125, 0.484375000000, 0.799316406250, -6.742187500000, 0.132812500000, -1.398437500000, 1491216378
0.022705078125, 0.484375000000, 0.799316406250, -6.742187500000, 0.132812500000, -1.398437500000, 1491216378
-0.006347656250, 0.436767578125, 0.895507812500, -6.359375000000, -0.906250000000, -2.437500000000, 1491216378
-0.006347656250, 0.436767578125, 0.895507812500, -6.359375000000, -0.906250000000, -2.437500000000, 1491216378
-0.006347656250, 0.436767578125, 0.895507812500, -6.359375000000, -0.906250000000, -2.437500000000, 1491216378
0.022949218750, 0.504638671875, 0.907470703125, -4.765625000000, 0.265625000000, -2.859375000000, 1491216379
0.022949218750, 0.504638671875, 0.907470703125, -4.765625000000, 0.265625000000, -2.859375000000, 1491216379
0.022949218750, 0.504638671875, 0.907470703125, -4.765625000000, 0.265625000000, -2.859375000000, 1491216379
0.008056640625, 0.472900390625, 0.946289062500, -3.945312500000, -2.656250000000, -4.242187500000, 1491216379
0.008056640625, 0.472900390625, 0.946289062500, -3.945312500000, -2.656250000000, -4.242187500000, 1491216379
-0.031005859375, 0.489501953125, 0.875244140625, -1.765625000000, -0.820312500000, -4.593750000000, 1491216379
-0.031005859375, 0.489501953125, 0.875244140625, -1.765625000000, -0.820312500000, -4.593750000000, 1491216379
-0.031005859375, 0.489501953125, 0.875244140625, -1.765625000000, -0.820312500000, -4.593750000000, 1491216379
-0.031005859375, 0.489501953125, 0.875244140625, -1.765625000000, -0.820312500000, -4.593750000000, 1491216379
-0.031005859375, 0.489501953125, 0.875244140625, -1.765625000000, -0.820312500000, -4.593750000000, 1491216379
0.070800781250, 0.494384765625, 0.873535156250, -3.281250000000, -0.304687500000, 0.078125000000, 1491216379
0.070800781250, 0.494384765625, 0.873535156250, -3.281250000000, -0.304687500000, 0.078125000000, 1491216379
0.070800781250, 0.494384765625, 0.873535156250, -3.281250000000, -0.304687500000, 0.078125000000, 1491216379
-0.009033203125, 0.427734375000, 0.952392578125, -3.781250000000, -0.625000000000, -1.101562500000, 1491216379
-0.009033203125, 0.427734375000, 0.952392578125, -3.781250000000, -0.625000000000, -1.101562500000, 1491216379
-0.009033203125, 0.427734375000, 0.952392578125, -3.781250000000, -0.625000000000, -1.101562500000, 1491216379
-0.007568359375, 0.543701171875, 0.946777343750, -6.609375000000, 0.429687500000, -0.296875000000, 1491216379
-0.007568359375, 0.543701171875, 0.946777343750, -6.609375000000, 0.429687500000, -0.296875000000, 1491216379
-0.007568359375, 0.543701171875, 0.946777343750, -6.609375000000, 0.429687500000, -0.296875000000, 1491216379
-0.012451171875, 0.564941406250, 0.961181640625, -4.859375000000, 0.726562500000, -3.203125000000, 1491216379
-0.012451171875, 0.564941406250, 0.961181640625, -4.859375000000, 0.726562500000, -3.203125000000, 1491216379
-0.012451171875, 0.564941406250, 0.961181640625, -4.859375000000, 0.726562500000, -3.203125000000, 1491216379
-0.012451171875, 0.564941406250, 0.961181640625, -4.859375000000, 0.726562500000, -3.203125000000, 1491216379
-0.017578125000, 0.460693359375, 0.869140625000, -6.406250000000, -0.281250000000, -1.632812500000, 1491216379
-0.017578125000, 0.460693359375, 0.869140625000, -6.406250000000, -0.281250000000, -1.632812500000, 1491216379
-0.017578125000, 0.460693359375, 0.869140625000, -6.406250000000, -0.281250000000, -1.632812500000, 1491216379
0.076660156250, 0.521484375000, 0.858886718750, -4.843750000000, -0.601562500000, -1.234375000000, 1491216379
0.076660156250, 0.521484375000, 0.858886718750, -4.843750000000, -0.601562500000, -1.234375000000, 1491216379
0.076660156250, 0.521484375000, 0.858886718750, -4.843750000000, -0.601562500000, -1.234375000000, 1491216379
0.037597656250, 0.529296875000, 0.843994140625, -6.632812500000, 0.960937500000, -1.523437500000, 1491216379
0.037597656250, 0.529296875000, 0.843994140625, -6.632812500000, 0.960937500000, -1.523437500000, 1491216379
0.037597656250, 0.529296875000, 0.843994140625, -6.632812500000, 0.960937500000, -1.523437500000, 1491216379
-0.017578125000, 0.421142578125, 0.865478515625, -3.257812500000, -0.906250000000, -6.195312500000, 1491216379
-0.017578125000, 0.421142578125, 0.865478515625, -3.257812500000, -0.906250000000, -6.195312500000, 1491216379
-0.017578125000, 0.421142578125, 0.865478515625, -3.257812500000, -0.906250000000, -6.195312500000, 1491216379
-0.017578125000, 0.421142578125, 0.865478515625, -3.257812500000, -0.906250000000, -6.195312500000, 1491216379
-0.005126953125, 0.480712890625, 0.846435546875, -1.812500000000, -2.890625000000, -1.625000000000, 1491216379
-0.005126953125, 0.480712890625, 0.846435546875, -1.812500000000, -2.890625000000, -1.625000000000, 1491216379
-0.005126953125, 0.480712890625, 0.846435546875, -1.812500000000, -2.890625000000, -1.625000000000, 1491216379
-0.004394531250, 0.536376953125, 0.951416015625, -4.335937500000, 0.265625000000, 0.695312500000, 1491216379
-0.004394531250, 0.536376953125, 0.951416015625, -4.335937500000, 0.265625000000, 0.695312500000, 1491216379
-0.004394531250, 0.536376953125, 0.951416015625, -4.335937500000, 0.265625000000, 0.695312500000, 1491216379
0.091308593750, 0.588623046875, 0.932373046875, 0.234375000000, -2.171875000000, -1.546875000000, 1491216379
0.091308593750, 0.588623046875, 0.932373046875, 0.234375000000, -2.171875000000, -1.546875000000, 1491216379
0.091308593750, 0.588623046875, 0.932373046875, 0.234375000000, -2.171875000000, -1.546875000000, 1491216379
-0.015869140625, 0.498046875000, 0.858886718750, 0.109375000000, 1.312500000000, -2.070312500000, 1491216379
-0.015869140625, 0.498046875000, 0.858886718750, 0.109375000000, 1.312500000000, -2.070312500000, 1491216379
-0.015869140625, 0.498046875000, 0.858886718750, 0.109375000000, 1.312500000000, -2.070312500000, 1491216379
-0.015869140625, 0.498046875000, 0.858886718750, 0.109375000000, 1.312500000000, -2.070312500000, 1491216379
-0.020507812500, 0.508789062500, 0.946777343750, -4.250000000000, 0.703125000000, -4.132812500000, 1491216379
-0.020507812500, 0.508789062500, 0.946777343750, -4.250000000000, 0.703125000000, -4.132812500000, 1491216379
-0.020507812500, 0.508789062500, 0.946777343750, -4.250000000000, 0.703125000000, -4.132812500000, 1491216379
0.011718750000, 0.482910156250, 0.850830078125, -3.015625000000, -2.757812500000, -0.585937500000, 1491216379
0.011718750000, 0.482910156250, 0.850830078125, -3.015625000000, -2.757812500000, -0.585937500000, 1491216379
0.011718750000, 0.482910156250, 0.850830078125, -3.015625000000, -2.757812500000, -0.585937500000, 1491216379
