ACC_X,ACC_Y,ACC_Z,G_X,G_Y,G_Z,Unix Time
0.092041015625, -0.787841796875, 0.463134765625, 6.585937500000, -24.203125000000, -7.867187500000, 1491217185
0.092041015625, -0.787841796875, 0.463134765625, 6.585937500000, -24.203125000000, -7.867187500000, 1491217185
0.092041015625, -0.787841796875, 0.463134765625, 6.585937500000, -24.203125000000, -7.867187500000, 1491217185
0.061279296875, -0.903076171875, 0.518798828125, -8.335937500000, -7.140625000000, -3.843750000000, 1491217185
0.061279296875, -0.903076171875, 0.518798828125, -8.335937500000, -7.140625000000, -3.843750000000, 1491217185
0.061279296875, -0.903076171875, 0.518798828125, -8.335937500000, -7.140625000000, -3.843750000000, 1491217185
0.048828125000, -0.861083984375, 0.438232421875, -6.195312500000, -2.960937500000, -4.835937500000, 1491217185
0.048828125000, -0.861083984375, 0.438232421875, -6.195312500000, -2.960937500000, -4.835937500000, 1491217185
0.048828125000, -0.861083984375, 0.438232421875, -6.195312500000, -2.960937500000, -4.835937500000, 1491217185
0.121093750000, -0.843017578125, 0.365478515625, -5.968750000000, 1.468750000000, 0.210937500000, 1491217185
0.121093750000, -0.843017578125, 0.365478515625, -5.968750000000, 1.468750000000, 0.210937500000, 1491217185
0.121093750000, -0.843017578125, 0.365478515625, -5.968750000000, 1.468750000000, 0.210937500000, 1491217185
0.121093750000, -0.843017578125, 0.365478515625, -5.968750000000, 1.468750000000, 0.210937500000, 1491217185
0.095458984375, -0.905761718750, 0.461425781250, -2.593750000000, 10.382812500000, -1.101562500000, 1491217185
0.095458984375, -0.905761718750, 0.461425781250, -2.593750000000, 10.382812500000, -1.101562500000, 1491217185
0.095458984375, -0.905761718750, 0.461425781250, -2.593750000000, 10.382812500000, -1.101562500000, 1491217185
0.155029296875, -0.961669921875, 0.458496093750, -2.382812500000, 5.250000000000, -2.625000000000, 1491217185
0.155029296875, -0.961669921875, 0.458496093750, -2.382812500000, 5.250000000000, -2.625000000000, 1491217185
0.155029296875, -0.961669921875, 0.458496093750, -2.382812500000, 5.250000000000, -2.625000000000, 1491217186
0.199951171875, -0.853027343750, 0.450195312500, -2.109375000000, 4.539062500000, -4.265625000000, 1491217186
0.199951171875, -0.853027343750, 0.450195312500, -2.109375000000, 4.539062500000, -4.265625000000, 1491217186
0.199951171875, -0.853027343750, 0.450195312500, -2.109375000000, 4.539062500000, -4.265625000000, 1491217186
0.038085937500, -0.950683593750, 0.461669921875, -0.726562500000, 1.820312500000, -0.953125000000, 1491217186
0.038085937500, -0.950683593750, 0.461669921875, -0.726562500000, 1.820312500000, -0.953125000000, 1491217186
0.038085937500, -0.950683593750, 0.461669921875, -0.726562500000, 1.820312500000, -0.953125000000, 1491217186
0.038085937500, -0.950683593750, 0.461669921875, -0.726562500000, 1.820312500000, -0.953125000000, 1491217186
0.032470703125, -0.904541015625, 0.441650390625, -0.031250000000, 3.867187500000, 2.796875000000, 1491217186
0.032470703125, -0.904541015625, 0.441650390625, -0.031250000000, 3.867187500000, 2.796875000000, 1491217186
0.032470703125, -0.904541015625, 0.441650390625, -0.031250000000, 3.867187500000, 2.796875000000, 1491217186
0.081542968750, -0.964111328125, 0.352050781250, 6.781250000000, 10.750000000000, 4.500000000000, 1491217186
0.081542968750, -0.964111328125, 0.352050781250, 6.781250000000, 10.750000000000, 4.500000000000, 1491217186
0.081542968750, -0.964111328125, 0.352050781250, 6.781250000000, 10.750000000000, 4.500000000000, 1491217186
-0.004882812500, -0.875000000000, 0.360107421875, 5.789062500000, -0.789062500000, 0.007812500000, 1491217186
-0.004882812500, -0.875000000000, 0.360107421875, 5.789062500000, -0.789062500000, 0.007812500000, 1491217186
-0.004882812500, -0.875000000000, 0.360107421875, 5.789062500000, -0.789062500000, 0.007812500000, 1491217186
0.034667968750, -0.938720703125, 0.300292968750, 8.421875000000, -0.859375000000, -4.171875000000, 1491217186
0.034667968750, -0.938720703125, 0.300292968750, 8.421875000000, -0.859375000000, -4.171875000000, 1491217186
0.034667968750, -0.938720703125, 0.300292968750, 8.421875000000, -0.859375000000, -4.171875000000, 1491217186
0.034667968750, -0.938720703125, 0.300292968750, 8.421875000000, -0.859375000000, -4.171875000000, 1491217186
0.050048828125, -0.937500000000, 0.395263671875, 0.554687500000, 6.476562500000, -1.906250000000, 1491217186
0.050048828125, -0.937500000000, 0.395263671875, 0.554687500000, 6.476562500000, -1.906250000000, 1491217186
0.050048828125, -0.937500000000, 0.395263671875, 0.554687500000, 6.476562500000, -1.906250000000, 1491217186
0.145751953125, -0.949462890625, 0.287109375000, -4.765625000000, -6.726562500000, -3.460937500000, 1491217186
0.145751953125, -0.949462890625, 0.287109375000, -4.765625000000, -6.726562500000, -3.460937500000, 1491217186
0.145751953125, -0.949462890625, 0.287109375000, -4.765625000000, -6.726562500000, -3.460937500000, 1491217186
0.060058593750, -1.011718750000, 0.375732421875, -5.218750000000, -2.390625000000, -4.750000000000, 1491217186
0.060058593750, -1.011718750000, 0.375732421875, -5.218750000000, -2.390625000000, -4.750000000000, 1491217186
0.060058593750, -1.011718750000, 0.375732421875, -5.218750000000, -2.390625000000, -4.750000000000, 1491217186
0.138916015625, -0.898925781250, 0.385742187500, -16.015625000000, -0.703125000000, -6.632812500000, 1491217186
0.138916015625, -0.898925781250, 0.385742187500, -16.015625000000, -0.703125000000, -6.632812500000, 1491217186
0.138916015625, -0.898925781250, 0.385742187500, -16.015625000000, -0.703125000000, -6.632812500000, 1491217186
0.138916015625, -0.898925781250, 0.385742187500, -16.015625000000, -0.703125000000, -6.632812500000, 1491217186
0.109863281250, -1.004394531250, 0.373535156250, -12.507812500000, -2.593750000000, -3.351562500000, 1491217186
0.109863281250, -1.004394531250, 0.373535156250, -12.507812500000, -2.593750000000, -3.351562500000, 1491217186
0.109863281250, -1.004394531250, 0.373535156250, -12.507812500000, -2.593750000000, -3.351562500000, 1491217186
0.051513671875, -0.900390625000, 0.442871093750, -14.859375000000, -4.500000000000, -4.398437500000, 1491217186
0.051513671875, -0.900390625000, 0.442871093750, -14.859375000000, -4.500000000000, -4.398437500000, 1491217186
0.051513671875, -0.900390625000, 0.442871093750, -14.859375000000, -4.500000000000, -4.398437500000, 1491217186
0.140136718750, -0.865478515625, 0.429931640625, -7.750000000000, -4.515625000000, -5.406250000000, 1491217186
0.140136718750, -0.865478515625, 0.429931640625, -7.750000000000, -4.515625000000, -5.406250000000, 1491217186
0.140136718750, -0.865478515625, 0.429931640625, -7.750000000000, -4.515625000000, -5.406250000000, 1491217186
0.100585937500, -0.948730468750, 0.452880859375, -9.328125000000, -5.187500000000, -4.632812500000, 1491217186
0.100585937500, -0.948730468750, 0.452880859375, -9.328125000000, -5.187500000000, -4.632812500000, 1491217186
0.100585937500, -0.948730468750, 0.452880859375, -9.328125000000, -5.187500000000, -4.632812500000, 1491217186
0.100585937500, -0.948730468750, 0.452880859375, -9.328125000000, -5.187500000000, -4.632812500000, 1491217186
0.075195312500, -0.956298828125, 0.430419921875, -0.820312500000, -5.585937500000, -1.539062500000, 1491217186
0.075195312500, -0.956298828125, 0.430419921875, -0.820312500000, -5.585937500000, -1.539062500000, 1491217186
0.075195312500, -0.956298828125, 0.430419921875, -0.820312500000, -5.585937500000, -1.539062500000, 1491217186
0.135009765625, -0.953613281250, 0.418457031250, -7.132812500000, -3.429687500000, -4.726562500000, 1491217186
0.135009765625, -0.953613281250, 0.418457031250, -7.132812500000, -3.429687500000, -4.726562500000, 1491217186
0.135009765625, -0.953613281250, 0.418457031250, -7.132812500000, -3.429687500000, -4.726562500000, 1491217186
0.116699218750, -0.905029296875, 0.425537109375, -7.710937500000, -2.031250000000, -4.578125000000, 1491217186
0.116699218750, -0.905029296875, 0.425537109375, -7.710937500000, -2.031250000000, -4.578125000000, 1491217186
0.116699218750, -0.905029296875, 0.425537109375, -7.710937500000, -2.031250000000, -4.578125000000, 1491217186
0.144287109375, -0.870117187500, 0.448974609375, 0.000000000000, -8.710937500000, -1.765625000000, 1491217186
0.144287109375, -0.870117187500, 0.448974609375, 0.000000000000, -8.710937500000, -1.765625000000, 1491217186
0.144287109375, -0.870117187500, 0.448974609375, 0.000000000000, -8.710937500000, -1.765625000000, 1491217186
0.144287109375, -0.870117187500, 0.448974609375, 0.000000000000, -8.710937500000, -1.765625000000, 1491217186
0.077636718750, -0.879638671875, 0.453857421875, -3.992187500000, -4.406250000000, -2.609375000000, 1491217186
0.077636718750, -0.879638671875, 0.453857421875, -3.992187500000, -4.406250000000, -2.609375000000, 1491217186
0.077636718750, -0.879638671875, 0.453857421875, -3.992187500000, -4.406250000000, -2.609375000000, 1491217186
0.077636718750, -0.963134765625, 0.354980468750, -4.320312500000, 2.750000000000, -3.593750000000, 1491217186
0.077636718750, -0.963134765625, 0.354980468750, -4.320312500000, 2.750000000000, -3.593750000000, 1491217186
0.077636718750, -0.963134765625, 0.354980468750, -4.320312500000, 2.750000000000, -3.593750000000, 1491217186
0.040527343750, -0.853271484375, 0.524169921875, -3.796875000000, 0.843750000000, -2.921875000000, 1491217187
0.040527343750, -0.853271484375, 0.524169921875, -3.796875000000, 0.843750000000, -2.921875000000, 1491217187
0.040527343750, -0.853271484375, 0.524169921875, -3.796875000000, 0.843750000000, -2.921875000000, 1491217187
0.155517578125, -0.902832031250, 0.408203125000, -4.726562500000, 2.828125000000, -1.117187500000, 1491217187
0.155517578125, -0.902832031250, 0.408203125000, -4.726562500000, 2.828125000000, -1.117187500000, 1491217187
0.155517578125, -0.902832031250, 0.408203125000, -4.726562500000, 2.828125000000, -1.117187500000, 1491217187
0.155517578125, -0.902832031250, 0.408203125000, -4.726562500000, 2.828125000000, -1.117187500000, 1491217187
0.143310546875, -0.935546875000, 0.431640625000, -1.218750000000, 3.921875000000, -0.476562500000, 1491217187
0.143310546875, -0.935546875000, 0.431640625000, -1.218750000000, 3.921875000000, -0.476562500000, 1491217187
0.143310546875, -0.935546875000, 0.431640625000, -1.218750000000, 3.921875000000, -0.476562500000, 1491217187
0.143310546875, -0.935546875000, 0.431640625000, -1.218750000000, 3.921875000000, -0.476562500000, 1491217187
0.147216796875, -0.885009765625, 0.354492187500, -1.289062500000, 1.687500000000, -1.140625000000, 1491217187
0.166015625000, -0.811523437500, 0.447509765625, 0.992187500000, 2.765625000000, -2.015625000000, 1491217187
0.166015625000, -0.811523437500, 0.447509765625, 0.992187500000, 2.765625000000, -2.015625000000, 1491217187
0.166015625000, -0.811523437500, 0.447509765625, 0.992187500000, 2.765625000000, -2.015625000000, 1491217187
0.166015625000, -0.811523437500, 0.447509765625, 0.992187500000, 2.765625000000, -2.015625000000, 1491217187
0.107421875000, -0.921875000000, 0.464599609375, 0.882812500000, 8.039062500000, -4.312500000000, 1491217187
0.107421875000, -0.921875000000, 0.464599609375, 0.882812500000, 8.039062500000, -4.312500000000, 1491217187
0.107421875000, -0.921875000000, 0.464599609375, 0.882812500000, 8.039062500000, -4.312500000000, 1491217187
0.107421875000, -0.921875000000, 0.464599609375, 0.882812500000, 8.039062500000, -4.312500000000, 1491217187
0.206298828125, -0.916259765625, 0.385498046875, 4.148437500000, 4.578125000000, -0.296875000000, 1491217187
0.206298828125, -0.916259765625, 0.385498046875, 4.148437500000, 4.578125000000, -0.296875000000, 1491217187
0.206298828125, -0.916259765625, 0.385498046875, 4.148437500000, 4.578125000000, -0.296875000000, 1491217187
0.105957031250, -0.860107421875, 0.364501953125, 2.992187500000, 3.234375000000, -2.304687500000, 1491217187
0.105957031250, -0.860107421875, 0.364501953125, 2.992187500000, 3.234375000000, -2.304687500000, 1491217187
0.105957031250, -0.860107421875, 0.364501953125, 2.992187500000, 3.234375000000, -2.304687500000, 1491217187
0.189941406250, -0.858154296875, 0.380371093750, 1.703125000000, 4.843750000000, -2.101562500000, 1491217187
0.189941406250, -0.858154296875, 0.380371093750, 1.703125000000, 4.843750000000, -2.101562500000, 1491217187
0.189941406250, -0.858154296875, 0.380371093750, 1.703125000000, 4.843750000000, -2.101562500000, 1491217187
0.096435546875, -1.011474609375, 0.456054687500, -7.117187500000, 9.171875000000, -2.625000000000, 1491217187
0.096435546875, -1.011474609375, 0.456054687500, -7.117187500000, 9.171875000000, -2.625000000000, 1491217187
0.096435546875, -1.011474609375, 0.456054687500, -7.117187500000, 9.171875000000, -2.625000000000, 1491217187
0.096435546875, -1.011474609375, 0.456054687500, -7.117187500000, 9.171875000000, -2.625000000000, 1491217187
0.145019531250, -0.947265625000, 0.356445312500, 7.062500000000, 0.085937500000, -4.898437500000, 1491217187
0.145019531250, -0.947265625000, 0.356445312500, 7.062500000000, 0.085937500000, -4.898437500000, 1491217187
0.145019531250, -0.947265625000, 0.356445312500, 7.062500000000, 0.085937500000, -4.898437500000, 1491217187
0.120117187500, -0.976806640625, 0.366210937500, -10.421875000000, 1.515625000000, -4.695312500000, 1491217187
0.120117187500, -0.976806640625, 0.366210937500, -10.421875000000, 1.515625000000, -4.695312500000, 1491217187
0.120117187500, -0.976806640625, 0.366210937500, -10.421875000000, 1.515625000000, -4.695312500000, 1491217187
0.035644531250, -0.942626953125, 0.440429687500, -10.882812500000, 10.921875000000, -0.296875000000, 1491217187
0.035644531250, -0.942626953125, 0.440429687500, -10.882812500000, 10.921875000000, -0.296875000000, 1491217187
0.035644531250, -0.942626953125, 0.440429687500, -10.882812500000, 10.921875000000, -0.296875000000, 1491217187
0.047851562500, -0.866455078125, 0.361816406250, -2.992187500000, 0.367187500000, -5.000000000000, 1491217187
0.047851562500, -0.866455078125, 0.361816406250, -2.992187500000, 0.367187500000, -5.000000000000, 1491217187
0.047851562500, -0.866455078125, 0.361816406250, -2.992187500000, 0.367187500000, -5.000000000000, 1491217187
0.047851562500, -0.866455078125, 0.361816406250, -2.992187500000, 0.367187500000, -5.000000000000, 1491217187
0.109619140625, -0.855224609375, 0.367675781250, -5.195312500000, -0.257812500000, -3.406250000000, 1491217187
0.109619140625, -0.855224609375, 0.367675781250, -5.195312500000, -0.257812500000, -3.406250000000, 1491217187
0.109619140625, -0.855224609375, 0.367675781250, -5.195312500000, -0.257812500000, -3.406250000000, 1491217187
0.141113281250, -0.957275390625, 0.346435546875, -1.781250000000, -4.890625000000, -8.250000000000, 1491217187
0.141113281250, -0.957275390625, 0.346435546875, -1.781250000000, -4.890625000000, -8.250000000000, 1491217187
0.141113281250, -0.957275390625, 0.346435546875, -1.781250000000, -4.890625000000, -8.250000000000, 1491217187
0.067138671875, -0.888916015625, 0.354003906250, -4.242187500000, -3.601562500000, -3.546875000000, 1491217187
0.067138671875, -0.888916015625, 0.354003906250, -4.242187500000, -3.601562500000, -3.546875000000, 1491217187
0.067138671875, -0.888916015625, 0.354003906250, -4.242187500000, -3.601562500000, -3.546875000000, 1491217187
0.130859375000, -0.879882812500, 0.460693359375, 2.125000000000, -8.757812500000, -8.398437500000, 1491217187
0.130859375000, -0.879882812500, 0.460693359375, 2.125000000000, -8.757812500000, -8.398437500000, 1491217187
0.130859375000, -0.879882812500, 0.460693359375, 2.125000000000, -8.757812500000, -8.398437500000, 1491217187
0.130859375000, -0.879882812500, 0.460693359375, 2.125000000000, -8.757812500000, -8.398437500000, 1491217187
0.156250000000, -0.963134765625, 0.351318359375, -3.664062500000, -2.117187500000, -3.937500000000, 1491217187
0.156250000000, -0.963134765625, 0.351318359375, -3.664062500000, -2.117187500000, -3.937500000000, 1491217187
0.156250000000, -0.963134765625, 0.351318359375, -3.664062500000, -2.117187500000, -3.937500000000, 1491217187
0.099365234375, -0.944580078125, 0.399169921875, -8.132812500000, 2.484375000000, -2.273437500000, 1491217187
0.099365234375, -0.944580078125, 0.399169921875, -8.132812500000, 2.484375000000, -2.273437500000, 1491217187
0.099365234375, -0.944580078125, 0.399169921875, -8.132812500000, 2.484375000000, -2.273437500000, 1491217187
0.100830078125, -0.859375000000, 0.453613281250, 1.320312500000, -3.265625000000, -4.718750000000, 1491217187
0.100830078125, -0.859375000000, 0.453613281250, 1.320312500000, -3.265625000000, -4.718750000000, 1491217188
0.100830078125, -0.859375000000, 0.453613281250, 1.320312500000, -3.265625000000, -4.718750000000, 1491217188
0.037597656250, -0.896972656250, 0.439697265625, 0.312500000000, 2.171875000000, -4.617187500000, 1491217188
0.037597656250, -0.896972656250, 0.439697265625, 0.312500000000, 2.171875000000, -4.617187500000, 1491217188
0.037597656250, -0.896972656250, 0.439697265625, 0.312500000000, 2.171875000000, -4.617187500000, 1491217188
0.037597656250, -0.896972656250, 0.439697265625, 0.312500000000, 2.171875000000, -4.617187500000, 1491217188
0.144775390625, -0.868652343750, 0.357910156250, 2.539062500000, -2.875000000000, -3.492187500000, 1491217188
0.144775390625, -0.868652343750, 0.357910156250, 2.539062500000, -2.875000000000, -3.492187500000, 1491217188
0.144775390625, -0.868652343750, 0.357910156250, 2.539062500000, -2.875000000000, -3.492187500000, 1491217188
0.058105468750, -0.941406250000, 0.349121093750, 1.195312500000, -1.093750000000, -3.835937500000, 1491217188
0.058105468750, -0.941406250000, 0.349121093750, 1.195312500000, -1.093750000000, -3.835937500000, 1491217188
0.058105468750, -0.941406250000, 0.349121093750, 1.195312500000, -1.093750000000, -3.835937500000, 1491217188
0.059570312500, -0.878662109375, 0.305908203125, 6.757812500000, -4.796875000000, -8.242187500000, 1491217188
0.059570312500, -0.878662109375, 0.305908203125, 6.757812500000, -4.796875000000, -8.242187500000, 1491217188
0.059570312500, -0.878662109375, 0.305908203125, 6.757812500000, -4.796875000000, -8.242187500000, 1491217188
0.052734375000, -0.873291015625, 0.398681640625, 10.914062500000, -8.578125000000, -7.312500000000, 1491217188
0.052734375000, -0.873291015625, 0.398681640625, 10.914062500000, -8.578125000000, -7.312500000000, 1491217188
0.052734375000, -0.873291015625, 0.398681640625, 10.914062500000, -8.578125000000, -7.312500000000, 1491217188
0.052734375000, -0.873291015625, 0.398681640625, 10.914062500000, -8.578125000000, -7.312500000000, 1491217188
0.087890625000, -0.814208984375, 0.296875000000, 16.429687500000, -4.437500000000, -6.882812500000, 1491217188
0.087890625000, -0.814208984375, 0.296875000000, 16.429687500000, -4.437500000000, -6.882812500000, 1491217188
0.087890625000, -0.814208984375, 0.296875000000, 16.429687500000, -4.437500000000, -6.882812500000, 1491217188
0.047607421875, -0.847167968750, 0.315429687500, 16.265625000000, -4.976562500000, -7.867187500000, 1491217188
0.047607421875, -0.847167968750, 0.315429687500, 16.265625000000, -4.976562500000, -7.867187500000, 1491217188
0.047607421875, -0.847167968750, 0.315429687500, 16.265625000000, -4.976562500000, -7.867187500000, 1491217188
-0.013183593750, -0.882812500000, 0.323486328125, 32.507812500000, -13.203125000000, -6.617187500000, 1491217188
-0.013183593750, -0.882812500000, 0.323486328125, 32.507812500000, -13.203125000000, -6.617187500000, 1491217188
-0.013183593750, -0.882812500000, 0.323486328125, 32.507812500000, -13.203125000000, -6.617187500000, 1491217188
0.149414062500, -0.830322265625, 0.276855468750, 37.953125000000, -13.398437500000, -8.531250000000, 1491217188
0.149414062500, -0.830322265625, 0.276855468750, 37.953125000000, -13.398437500000, -8.531250000000, 1491217188
0.149414062500, -0.830322265625, 0.276855468750, 37.953125000000, -13.398437500000, -8.531250000000, 1491217188
0.149414062500, -0.830322265625, 0.276855468750, 37.953125000000, -13.398437500000, -8.531250000000, 1491217188
0.053710937500, -0.803466796875, 0.171630859375, 66.367187500000, -26.859375000000, -12.101562500000, 1491217188
0.053710937500, -0.803466796875, 0.171630859375, 66.367187500000, -26.859375000000, -12.101562500000, 1491217188
0.053710937500, -0.803466796875, 0.171630859375, 66.367187500000, -26.859375000000, -12.101562500000, 1491217188
-0.006347656250, -0.710449218750, 0.094238281250, 73.101562500000, -17.468750000000, -10.023437500000, 1491217188
-0.006347656250, -0.710449218750, 0.094238281250, 73.101562500000, -17.468750000000, -10.023437500000, 1491217188
-0.006347656250, -0.710449218750, 0.094238281250, 73.101562500000, -17.468750000000, -10.023437500000, 1491217188
0.032470703125, -0.663574218750, 0.060791015625, 56.773437500000, -27.507812500000, 14.867187500000, 1491217188
0.032470703125, -0.663574218750, 0.060791015625, 56.773437500000, -27.507812500000, 14.867187500000, 1491217188
0.032470703125, -0.663574218750, 0.060791015625, 56.773437500000, -27.507812500000, 14.867187500000, 1491217188
0.119140625000, -0.656005859375, 0.061279296875, 88.664062500000, -23.453125000000, 4.515625000000, 1491217188
0.119140625000, -0.656005859375, 0.061279296875, 88.664062500000, -23.453125000000, 4.515625000000, 1491217188
0.119140625000, -0.656005859375, 0.061279296875, 88.664062500000, -23.453125000000, 4.515625000000, 1491217188
0.119140625000, -0.656005859375, 0.061279296875, 88.664062500000, -23.453125000000, 4.515625000000, 1491217188
0.130859375000, -0.740234375000, -0.026855468750, 76.976562500000, -37.640625000000, -0.140625000000, 1491217188
0.130859375000, -0.740234375000, -0.026855468750, 76.976562500000, -37.640625000000, -0.140625000000, 1491217188
0.130859375000, -0.740234375000, -0.026855468750, 76.976562500000, -37.640625000000, -0.140625000000, 1491217188
0.119140625000, -0.612304687500, -0.138916015625, 50.609375000000, -66.554687500000, 18.718750000000, 1491217188
0.119140625000, -0.612304687500, -0.138916015625, 50.609375000000, -66.554687500000, 18.718750000000, 1491217188
0.119140625000, -0.612304687500, -0.138916015625, 50.609375000000, -66.554687500000, 18.718750000000, 1491217188
0.165771484375, -0.874023437500, -0.090332031250, -16.179687500000, -72.265625000000, 42.156250000000, 1491217188
0.165771484375, -0.874023437500, -0.090332031250, -16.179687500000, -72.265625000000, 42.156250000000, 1491217188
0.165771484375, -0.874023437500, -0.090332031250, -16.179687500000, -72.265625000000, 42.156250000000, 1491217188
0.141601562500, -0.942138671875, 0.006835937500, 8.460937500000, -108.429687500000, 13.914062500000, 1491217188
0.141601562500, -0.942138671875, 0.006835937500, 8.460937500000, -108.429687500000, 13.914062500000, 1491217188
0.141601562500, -0.942138671875, 0.006835937500, 8.460937500000, -108.429687500000, 13.914062500000, 1491217188
0.141601562500, -0.942138671875, 0.006835937500, 8.460937500000, -108.429687500000, 13.914062500000, 1491217188
0.207519531250, -1.012939453125, -0.128906250000, 15.179687500000, -57.632812500000, 39.625000000000, 1491217188
0.207519531250, -1.012939453125, -0.128906250000, 15.179687500000, -57.632812500000, 39.625000000000, 1491217188
0.207519531250, -1.012939453125, -0.128906250000, 15.179687500000, -57.632812500000, 39.625000000000, 1491217188
0.275878906250, -0.926025390625, 0.083251953125, -32.085937500000, 25.351562500000, 49.179687500000, 1491217188
0.275878906250, -0.926025390625, 0.083251953125, -32.085937500000, 25.351562500000, 49.179687500000, 1491217188
0.275878906250, -0.926025390625, 0.083251953125, -32.085937500000, 25.351562500000, 49.179687500000, 1491217188
0.317382812500, -1.063964843750, 0.006591796875, -9.500000000000, 56.429687500000, 40.781250000000, 1491217188
0.317382812500, -1.063964843750, 0.006591796875, -9.500000000000, 56.429687500000, 40.781250000000, 1491217188
0.317382812500, -1.063964843750, 0.006591796875, -9.500000000000, 56.429687500000, 40.781250000000, 1491217188
0.293212890625, -1.002685546875, -0.142822265625, -81.046875000000, -18.671875000000, 57.890625000000, 1491217189
0.293212890625, -1.002685546875, -0.142822265625, -81.046875000000, -18.671875000000, 57.890625000000, 1491217189
0.293212890625, -1.002685546875, -0.142822265625, -81.046875000000, -18.671875000000, 57.890625000000, 1491217189
0.293212890625, -1.002685546875, -0.142822265625, -81.046875000000, -18.671875000000, 57.890625000000, 1491217189
0.301025390625, -1.160644531250, 0.015136718750, -99.546875000000, -64.539062500000, 44.382812500000, 1491217189
0.301025390625, -1.160644531250, 0.015136718750, -99.546875000000, -64.539062500000, 44.382812500000, 1491217189
0.301025390625, -1.160644531250, 0.015136718750, -99.546875000000, -64.539062500000, 44.382812500000, 1491217189
0.210449218750, -1.128662109375, -0.080078125000, -102.250000000000, -86.250000000000, 1.695312500000, 1491217189
0.210449218750, -1.128662109375, -0.080078125000, -102.250000000000, -86.250000000000, 1.695312500000, 1491217189
0.210449218750, -1.128662109375, -0.080078125000, -82.898437500000, -82.367187500000, 42.992187500000, 1491217189
0.278320312500, -1.157958984375, 0.065429687500, -82.898437500000, -82.367187500000, 42.992187500000, 1491217189
0.278320312500, -1.157958984375, 0.065429687500, -82.898437500000, -82.367187500000, 42.992187500000, 1491217189
0.278320312500, -1.157958984375, 0.065429687500, -82.898437500000, -82.367187500000, 42.992187500000, 1491217189
0.254882812500, -0.979980468750, -0.075683593750, -79.882812500000, -5.000000000000, -0.343750000000, 1491217189
0.254882812500, -0.979980468750, -0.075683593750, -79.882812500000, -5.000000000000, -0.343750000000, 1491217189
0.254882812500, -0.979980468750, -0.075683593750, -79.882812500000, -5.000000000000, -0.343750000000, 1491217189
0.254882812500, -0.979980468750, -0.075683593750, -79.882812500000, -5.000000000000, -0.343750000000, 1491217189
0.183593750000, -1.166259765625, 0.027587890625, -35.656250000000, -19.054687500000, -17.937500000000, 1491217189
0.183593750000, -1.166259765625, 0.027587890625, -35.656250000000, -19.054687500000, -17.937500000000, 1491217189
0.183593750000, -1.166259765625, 0.027587890625, -35.656250000000, -19.054687500000, -17.937500000000, 1491217189
0.407958984375, -1.080566406250, -0.041748046875, -3.203125000000, -11.695312500000, -7.281250000000, 1491217189
0.407958984375, -1.080566406250, -0.041748046875, -3.203125000000, -11.695312500000, -7.281250000000, 1491217189
0.407958984375, -1.080566406250, -0.041748046875, -3.203125000000, -11.695312500000, -7.281250000000, 1491217189
0.517822265625, -0.936523437500, -0.068115234375, -31.953125000000, 12.359375000000, -25.437500000000, 1491217189
0.517822265625, -0.936523437500, -0.068115234375, -31.953125000000, 12.359375000000, -25.437500000000, 1491217189
0.517822265625, -0.936523437500, -0.068115234375, -31.953125000000, 12.359375000000, -25.437500000000, 1491217189
0.573730468750, -1.152343750000, -0.032958984375, 30.312500000000, -18.164062500000, -26.281250000000, 1491217189
0.573730468750, -1.152343750000, -0.032958984375, 30.312500000000, -18.164062500000, -26.281250000000, 1491217189
0.573730468750, -1.152343750000, -0.032958984375, 30.312500000000, -18.164062500000, -26.281250000000, 1491217189
0.573730468750, -1.152343750000, -0.032958984375, 30.312500000000, -18.164062500000, -26.281250000000, 1491217189
0.419677734375, -1.067382812500, -0.017822265625, 30.023437500000, 31.695312500000, -14.523437500000, 1491217189
0.419677734375, -1.067382812500, -0.017822265625, 30.023437500000, 31.695312500000, -14.523437500000, 1491217189
0.419677734375, -1.067382812500, -0.017822265625, 30.023437500000, 31.695312500000, -14.523437500000, 1491217189
0.379150390625, -0.971923828125, 0.012451171875, 52.960937500000, 42.804687500000, -23.562500000000, 1491217189
0.379150390625, -0.971923828125, 0.012451171875, 52.960937500000, 42.804687500000, -23.562500000000, 1491217189
0.379150390625, -0.971923828125, 0.012451171875, 52.960937500000, 42.804687500000, -23.562500000000, 1491217189
0.162597656250, -1.061767578125, -0.018066406250, 26.078125000000, 49.242187500000, -34.726562500000, 1491217189
0.162597656250, -1.061767578125, -0.018066406250, 26.078125000000, 49.242187500000, -34.726562500000, 1491217189
0.162597656250, -1.061767578125, -0.018066406250, 26.078125000000, 49.242187500000, -34.726562500000, 1491217189
0.187255859375, -1.069580078125, 0.086914062500, -19.421875000000, 42.867187500000, -32.039062500000, 1491217189
0.187255859375, -1.069580078125, 0.086914062500, -19.421875000000, 42.867187500000, -32.039062500000, 1491217189
0.187255859375, -1.069580078125, 0.086914062500, -19.421875000000, 42.867187500000, -32.039062500000, 1491217189
0.187255859375, -1.069580078125, 0.086914062500, -19.421875000000, 42.867187500000, -32.039062500000, 1491217189
0.130859375000, -1.289306640625, 0.055664062500, 23.195312500000, -9.070312500000, -76.054687500000, 1491217189
0.130859375000, -1.289306640625, 0.055664062500, 23.195312500000, -9.070312500000, -76.054687500000, 1491217189
0.130859375000, -1.289306640625, 0.055664062500, 23.195312500000, -9.070312500000, -76.054687500000, 1491217189
0.462402343750, -1.215332031250, 0.341552734375, 172.703125000000, 250.429687500000, -61.140625000000, 1491217189
0.462402343750, -1.215332031250, 0.341552734375, 172.703125000000, 250.429687500000, -61.140625000000, 1491217189
0.462402343750, -1.215332031250, 0.341552734375, 172.703125000000, 250.429687500000, -61.140625000000, 1491217189
0.490966796875, -1.047363281250, 0.046875000000, 3.929687500000, 253.992187500000, -41.523437500000, 1491217189
0.490966796875, -1.047363281250, 0.046875000000, 3.929687500000, 253.992187500000, -41.523437500000, 1491217189
0.490966796875, -1.047363281250, 0.046875000000, 3.929687500000, 253.992187500000, -41.523437500000, 1491217189
-0.005615234375, -1.108154296875, 0.279785156250, -51.343750000000, -49.195312500000, -24.414062500000, 1491217189
-0.005615234375, -1.108154296875, 0.279785156250, -51.343750000000, -49.195312500000, -24.414062500000, 1491217189
-0.005615234375, -1.108154296875, 0.279785156250, -51.343750000000, -49.195312500000, -24.414062500000, 1491217189
-0.005615234375, -1.108154296875, 0.279785156250, -51.343750000000, -49.195312500000, -24.414062500000, 1491217189
0.070556640625, -0.956298828125, 0.269042968750, -28.804687500000, -64.929687500000, -37.359375000000, 1491217189
0.070556640625, -0.956298828125, 0.269042968750, -28.804687500000, -64.929687500000, -37.359375000000, 1491217189
0.070556640625, -0.956298828125, 0.269042968750, -28.804687500000, -64.929687500000, -37.359375000000, 1491217189
0.196777343750, -0.826416015625, 0.169921875000, -50.640625000000, -35.312500000000, -8.476562500000, 1491217189
0.196777343750, -0.826416015625, 0.169921875000, -50.640625000000, -35.312500000000, -8.476562500000, 1491217189
0.196777343750, -0.826416015625, 0.169921875000, -50.640625000000, -35.312500000000, -8.476562500000, 1491217189
0.103027343750, -0.789550781250, 0.109375000000, -35.523437500000, 16.382812500000, -4.070312500000, 1491217189
0.103027343750, -0.789550781250, 0.109375000000, -35.523437500000, 16.382812500000, -4.070312500000, 1491217189
0.103027343750, -0.789550781250, 0.109375000000, -35.523437500000, 16.382812500000, -4.070312500000, 1491217189
0.088867187500, -0.683105468750, 0.269287109375, -29.742187500000, -47.781250000000, -7.851562500000, 1491217189
0.088867187500, -0.683105468750, 0.269287109375, -29.742187500000, -47.781250000000, -7.851562500000, 1491217189
0.088867187500, -0.683105468750, 0.269287109375, -29.742187500000, -47.781250000000, -7.851562500000, 1491217189
0.088867187500, -0.683105468750, 0.269287109375, -29.742187500000, -47.781250000000, -7.851562500000, 1491217189
0.157470703125, -0.846923828125, 0.383300781250, -39.039062500000, -56.742187500000, 10.953125000000, 1491217190
0.157470703125, -0.846923828125, 0.383300781250, -39.039062500000, -56.742187500000, 10.953125000000, 1491217190
0.157470703125, -0.846923828125, 0.383300781250, -39.039062500000, -56.742187500000, 10.953125000000, 1491217190
0.157470703125, -0.846923828125, 0.383300781250, -39.039062500000, -56.742187500000, 10.953125000000, 1491217190
0.157470703125, -0.846923828125, 0.383300781250, -39.039062500000, -56.742187500000, 10.953125000000, 1491217190
0.093505859375, -0.958740234375, 0.364013671875, 6.523437500000, 11.250000000000, -12.078125000000, 1491217190
0.093505859375, -0.958740234375, 0.364013671875, 6.523437500000, 11.250000000000, -12.078125000000, 1491217190
0.093505859375, -0.958740234375, 0.364013671875, 6.523437500000, 11.250000000000, -12.078125000000, 1491217190
0.093505859375, -0.958740234375, 0.364013671875, 6.523437500000, 11.250000000000, -12.078125000000, 1491217190
-0.089355468750, -0.866699218750, 0.389404296875, 1.921875000000, 48.148437500000, -19.101562500000, 1491217190
-0.089355468750, -0.866699218750, 0.389404296875, 1.921875000000, 48.148437500000, -19.101562500000, 1491217190
-0.089355468750, -0.866699218750, 0.389404296875, 1.921875000000, 48.148437500000, -19.101562500000, 1491217190
-0.089355468750, -0.866699218750, 0.389404296875, 1.921875000000, 48.148437500000, -19.101562500000, 1491217190
0.145019531250, -0.868408203125, 0.381591796875, 26.851562500000, 26.351562500000, -2.867187500000, 1491217190
0.145019531250, -0.868408203125, 0.381591796875, 26.851562500000, 26.351562500000, -2.867187500000, 1491217190
0.145019531250, -0.868408203125, 0.381591796875, 26.851562500000, 26.351562500000, -2.867187500000, 1491217190
0.119628906250, -0.870605468750, 0.300048828125, 24.921875000000, 20.562500000000, -13.054687500000, 1491217190
0.119628906250, -0.870605468750, 0.300048828125, 24.921875000000, 20.562500000000, -13.054687500000, 1491217190
0.119628906250, -0.870605468750, 0.300048828125, 24.921875000000, 20.562500000000, -13.054687500000, 1491217190
0.145019531250, -0.901367187500, 0.287841796875, 2.671875000000, 5.937500000000, -13.507812500000, 1491217190
0.145019531250, -0.901367187500, 0.287841796875, 2.671875000000, 5.937500000000, -13.507812500000, 1491217190
0.145019531250, -0.901367187500, 0.287841796875, 2.671875000000, 5.937500000000, -13.507812500000, 1491217190
0.128662109375, -1.000244140625, 0.262939453125, 18.078125000000, 27.664062500000, -20.859375000000, 1491217190
0.128662109375, -1.000244140625, 0.262939453125, 18.078125000000, 27.664062500000, -20.859375000000, 1491217190
0.128662109375, -1.000244140625, 0.262939453125, 18.078125000000, 27.664062500000, -20.859375000000, 1491217190
0.128662109375, -1.000244140625, 0.262939453125, 18.078125000000, 27.664062500000, -20.859375000000, 1491217190
0.216552734375, -0.908935546875, 0.163085937500, 19.148437500000, 33.820312500000, 0.875000000000, 1491217190
0.216552734375, -0.908935546875, 0.163085937500, 19.148437500000, 33.820312500000, 0.875000000000, 1491217190
0.216552734375, -0.908935546875, 0.163085937500, 19.148437500000, 33.820312500000, 0.875000000000, 1491217190
0.116455078125, -0.963623046875, 0.189453125000, 6.539062500000, 32.265625000000, 4.304687500000, 1491217190
0.116455078125, -0.963623046875, 0.189453125000, 6.539062500000, 32.265625000000, 4.304687500000, 1491217190
0.116455078125, -0.963623046875, 0.189453125000, 6.539062500000, 32.265625000000, 4.304687500000, 1491217190
0.098388671875, -0.907226562500, 0.119384765625, 3.140625000000, 32.757812500000, 5.250000000000, 1491217190
0.098388671875, -0.907226562500, 0.119384765625, 3.140625000000, 32.757812500000, 5.250000000000, 1491217190
0.153564453125, -1.032226562500, 0.117187500000, 24.296875000000, 35.468750000000, 16.515625000000, 1491217190
0.153564453125, -1.032226562500, 0.117187500000, 24.296875000000, 35.468750000000, 16.515625000000, 1491217190
0.153564453125, -1.032226562500, 0.117187500000, 24.296875000000, 35.468750000000, 16.515625000000, 1491217190
0.153564453125, -1.032226562500, 0.117187500000, 24.296875000000, 35.468750000000, 16.515625000000, 1491217190
0.116210937500, -0.975341796875, 0.131591796875, 31.156250000000, 38.054687500000, 8.250000000000, 1491217190
0.116210937500, -0.975341796875, 0.131591796875, 31.156250000000, 38.054687500000, 8.250000000000, 1491217190
0.116210937500, -0.975341796875, 0.131591796875, 31.156250000000, 38.054687500000, 8.250000000000, 1491217190
0.116210937500, -0.975341796875, 0.131591796875, 31.156250000000, 38.054687500000, 8.250000000000, 1491217190
0.062744140625, -1.022949218750, 0.045654296875, -12.937500000000, -13.953125000000, 6.843750000000, 1491217190
0.062744140625, -1.022949218750, 0.045654296875, -12.937500000000, -13.953125000000, 6.843750000000, 1491217190
0.062744140625, -1.022949218750, 0.045654296875, -12.937500000000, -13.953125000000, 6.843750000000, 1491217190
-0.090820312500, -1.158447265625, 0.040039062500, -26.835937500000, -59.304687500000, -12.179687500000, 1491217190
-0.090820312500, -1.158447265625, 0.040039062500, -26.835937500000, -59.304687500000, -12.179687500000, 1491217190
-0.090820312500, -1.158447265625, 0.040039062500, -26.835937500000, -59.304687500000, -12.179687500000, 1491217190
0.151611328125, -1.019287109375, 0.200195312500, 15.601562500000, 24.812500000000, -17.484375000000, 1491217190
0.151611328125, -1.019287109375, 0.200195312500, 15.601562500000, 24.812500000000, -17.484375000000, 1491217190
0.151611328125, -1.019287109375, 0.200195312500, 15.601562500000, 24.812500000000, -17.484375000000, 1491217190
0.151611328125, -1.019287109375, 0.200195312500, 15.601562500000, 24.812500000000, -17.484375000000, 1491217190
0.161376953125, -1.021972656250, 0.134521484375, -12.171875000000, -11.125000000000, -1.898437500000, 1491217190
0.161376953125, -1.021972656250, 0.134521484375, -12.171875000000, -11.125000000000, -1.898437500000, 1491217190
0.161376953125, -1.021972656250, 0.134521484375, -12.171875000000, -11.125000000000, -1.898437500000, 1491217190
0.110839843750, -0.959960937500, 0.127929687500, -11.820312500000, 1.296875000000, 1.296875000000, 1491217190
0.110839843750, -0.959960937500, 0.127929687500, -11.820312500000, 1.296875000000, 1.296875000000, 1491217190
0.110839843750, -0.959960937500, 0.127929687500, -11.820312500000, 1.296875000000, 1.296875000000, 1491217190
0.154541015625, -0.884521484375, -0.021484375000, -5.914062500000, -0.351562500000, 2.890625000000, 1491217190
0.154541015625, -0.884521484375, -0.021484375000, -5.914062500000, -0.351562500000, 2.890625000000, 1491217190
0.154541015625, -0.884521484375, -0.021484375000, -5.914062500000, -0.351562500000, 2.890625000000, 1491217190
0.132812500000, -1.014404296875, 0.029785156250, -12.562500000000, -9.656250000000, 5.156250000000, 1491217190
0.132812500000, -1.014404296875, 0.029785156250, -12.562500000000, -9.656250000000, 5.156250000000, 1491217190
0.132812500000, -1.014404296875, 0.029785156250, -12.562500000000, -9.656250000000, 5.156250000000, 1491217190
0.132812500000, -1.014404296875, 0.029785156250, -12.562500000000, -9.656250000000, 5.156250000000, 1491217190
0.084472656250, -0.980957031250, 0.128662109375, -2.960937500000, -16.703125000000, 1.625000000000, 1491217191
0.084472656250, -0.980957031250, 0.128662109375, -2.960937500000, -16.703125000000, 1.625000000000, 1491217191
0.084472656250, -0.980957031250, 0.128662109375, -2.960937500000, -16.703125000000, 1.625000000000, 1491217191
0.122802734375, -1.084960937500, 0.102294921875, -4.351562500000, -16.539062500000, 4.835937500000, 1491217191
0.122802734375, -1.084960937500, 0.102294921875, -4.351562500000, -16.539062500000, 4.835937500000, 1491217191
0.036376953125, -0.985839843750, 0.114746093750, 0.765625000000, -11.375000000000, 0.312500000000, 1491217191
0.036376953125, -0.985839843750, 0.114746093750, 0.765625000000, -11.375000000000, 0.312500000000, 1491217191
0.036376953125, -0.985839843750, 0.114746093750, 0.765625000000, -11.375000000000, 0.312500000000, 1491217191
0.036376953125, -0.985839843750, 0.114746093750, 0.765625000000, -11.375000000000, 0.312500000000, 1491217191
0.141601562500, -0.945068359375, 0.162597656250, -2.812500000000, -10.531250000000, -4.351562500000, 1491217191
0.214355468750, -1.001464843750, 0.166015625000, -11.289062500000, -3.867187500000, -3.828125000000, 1491217191
0.214355468750, -1.001464843750, 0.166015625000, -11.289062500000, -3.867187500000, -3.828125000000, 1491217191
0.214355468750, -1.001464843750, 0.166015625000, -11.289062500000, -3.867187500000, -3.828125000000, 1491217191
0.214355468750, -1.001464843750, 0.166015625000, -11.289062500000, -3.867187500000, -3.828125000000, 1491217191
0.214355468750, -1.001464843750, 0.166015625000, -11.289062500000, -3.867187500000, -3.828125000000, 1491217191
0.214355468750, -1.001464843750, 0.166015625000, -11.289062500000, -3.867187500000, -3.828125000000, 1491217191
0.123779296875, -0.871582031250, 0.047607421875, -8.992187500000, -6.804687500000, -8.046875000000, 1491217191
0.123779296875, -0.871582031250, 0.047607421875, -8.992187500000, -6.804687500000, -8.046875000000, 1491217191
0.123779296875, -0.871582031250, 0.047607421875, -8.992187500000, -6.804687500000, -8.046875000000, 1491217191
0.171630859375, -0.966552734375, 0.109863281250, -7.835937500000, -16.460937500000, -1.960937500000, 1491217191
0.171630859375, -0.966552734375, 0.109863281250, -7.835937500000, -16.460937500000, -1.960937500000, 1491217191
0.171630859375, -0.966552734375, 0.109863281250, -7.835937500000, -16.460937500000, -1.960937500000, 1491217191
0.144531250000, -1.017578125000, 0.141357421875, -0.820312500000, -10.265625000000, -3.531250000000, 1491217191
0.144531250000, -1.017578125000, 0.141357421875, -0.820312500000, -10.265625000000, -3.531250000000, 1491217191
0.144531250000, -1.017578125000, 0.141357421875, -0.820312500000, -10.265625000000, -3.531250000000, 1491217191
0.144531250000, -1.017578125000, 0.141357421875, -0.820312500000, -10.265625000000, -3.531250000000, 1491217191
0.197998046875, -1.066650390625, 0.107177734375, -2.617187500000, -3.437500000000, -4.953125000000, 1491217191
0.197998046875, -1.066650390625, 0.107177734375, -2.617187500000, -3.437500000000, -4.953125000000, 1491217191
0.197998046875, -1.066650390625, 0.107177734375, -2.617187500000, -3.437500000000, -4.953125000000, 1491217191
0.099609375000, -1.086181640625, 0.137207031250, -1.367187500000, -6.187500000000, -6.726562500000, 1491217191
0.099609375000, -1.086181640625, 0.137207031250, -1.367187500000, -6.187500000000, -6.726562500000, 1491217191
0.099609375000, -1.086181640625, 0.137207031250, -1.367187500000, -6.187500000000, -6.726562500000, 1491217191
0.114746093750, -0.932861328125, 0.197021484375, -3.093750000000, 3.226562500000, -4.414062500000, 1491217191
0.114746093750, -0.932861328125, 0.197021484375, -3.093750000000, 3.226562500000, -4.414062500000, 1491217191
0.114746093750, -0.932861328125, 0.197021484375, -3.093750000000, 3.226562500000, -4.414062500000, 1491217191
0.267822265625, -0.907958984375, 0.188964843750, -4.984375000000, 4.289062500000, -3.703125000000, 1491217191
0.267822265625, -0.907958984375, 0.188964843750, -4.984375000000, 4.289062500000, -3.703125000000, 1491217191
0.267822265625, -0.907958984375, 0.188964843750, -4.984375000000, 4.289062500000, -3.703125000000, 1491217191
0.267822265625, -0.907958984375, 0.188964843750, -4.984375000000, 4.289062500000, -3.703125000000, 1491217191
0.139160156250, -0.964599609375, 0.198730468750, -3.539062500000, 0.929687500000, -3.492187500000, 1491217191
0.139160156250, -0.964599609375, 0.198730468750, -3.539062500000, 0.929687500000, -3.492187500000, 1491217191
0.139160156250, -0.964599609375, 0.198730468750, -3.539062500000, 0.929687500000, -3.492187500000, 1491217191
0.144287109375, -1.028808593750, 0.191162109375, -1.875000000000, 2.078125000000, -4.804687500000, 1491217191
0.144287109375, -1.028808593750, 0.191162109375, -1.875000000000, 2.078125000000, -4.804687500000, 1491217191
0.144287109375, -1.028808593750, 0.191162109375, -1.875000000000, 2.078125000000, -4.804687500000, 1491217191
0.058349609375, -0.987060546875, 0.123291015625, -3.429687500000, -0.601562500000, -3.773437500000, 1491217191
0.058349609375, -0.987060546875, 0.123291015625, -3.429687500000, -0.601562500000, -3.773437500000, 1491217191
0.058349609375, -0.987060546875, 0.123291015625, -3.429687500000, -0.601562500000, -3.773437500000, 1491217191
0.142578125000, -0.991210937500, 0.096923828125, -4.148437500000, -2.500000000000, -1.367187500000, 1491217191
0.142578125000, -0.991210937500, 0.096923828125, -4.148437500000, -2.500000000000, -1.367187500000, 1491217191
0.142578125000, -0.991210937500, 0.096923828125, -4.148437500000, -2.500000000000, -1.367187500000, 1491217191
0.142578125000, -0.991210937500, 0.096923828125, -4.148437500000, -2.500000000000, -1.367187500000, 1491217191
0.048583984375, -1.030517578125, 0.143554687500, -4.734375000000, 0.148437500000, -3.195312500000, 1491217191
0.048583984375, -1.030517578125, 0.143554687500, -4.734375000000, 0.148437500000, -3.195312500000, 1491217191
0.048583984375, -1.030517578125, 0.143554687500, -4.734375000000, 0.148437500000, -3.195312500000, 1491217191
0.043457031250, -0.965087890625, 0.127685546875, -3.906250000000, 0.179687500000, -4.351562500000, 1491217191
0.043457031250, -0.965087890625, 0.127685546875, -3.906250000000, 0.179687500000, -4.351562500000, 1491217191
0.043457031250, -0.965087890625, 0.127685546875, -3.906250000000, 0.179687500000, -4.351562500000, 1491217191
0.062255859375, -0.982177734375, 0.192626953125, -6.296875000000, 2.828125000000, -1.648437500000, 1491217191
0.062255859375, -0.982177734375, 0.192626953125, -6.296875000000, 2.828125000000, -1.648437500000, 1491217191
0.062255859375, -0.982177734375, 0.192626953125, -6.296875000000, 2.828125000000, -1.648437500000, 1491217191
0.196533203125, -1.009277343750, 0.170654296875, -3.820312500000, 0.992187500000, -3.054687500000, 1491217191
0.196533203125, -1.009277343750, 0.170654296875, -3.820312500000, 0.992187500000, -3.054687500000, 1491217191
0.196533203125, -1.009277343750, 0.170654296875, -3.820312500000, 0.992187500000, -3.054687500000, 1491217191
0.196533203125, -1.009277343750, 0.170654296875, -3.820312500000, 0.992187500000, -3.054687500000, 1491217191
0.116210937500, -1.000488281250, 0.089843750000, -3.132812500000, -4.812500000000, -4.062500000000, 1491217191
0.116210937500, -1.000488281250, 0.089843750000, -3.132812500000, -4.812500000000, -4.062500000000, 1491217191
0.116210937500, -1.000488281250, 0.089843750000, -3.132812500000, -4.812500000000, -4.062500000000, 1491217191
0.123779296875, -0.845947265625, 0.197509765625, 2.523437500000, -5.375000000000, -4.828125000000, 1491217192
0.123779296875, -0.845947265625, 0.197509765625, 2.523437500000, -5.375000000000, -4.828125000000, 1491217192
0.123779296875, -0.845947265625, 0.197509765625, 2.523437500000, -5.375000000000, -4.828125000000, 1491217192
