ACC_X,ACC_Y,ACC_Z,G_X,G_Y,G_Z,Unix Time
0.224609375000, -1.431396484375, 0.634765625000, -256.000000000000, 253.992187500000, -37.125000000000, 1491217335
0.224609375000, -1.431396484375, 0.634765625000, -256.000000000000, 253.992187500000, -37.125000000000, 1491217335
0.224609375000, -1.431396484375, 0.634765625000, -256.000000000000, 253.992187500000, -37.125000000000, 1491217335
0.224609375000, -1.431396484375, 0.634765625000, -256.000000000000, 253.992187500000, -37.125000000000, 1491217335
-0.014648437500, -0.411132812500, 0.080810546875, 126.320312500000, 68.921875000000, -4.906250000000, 1491217335
-0.014648437500, -0.411132812500, 0.080810546875, 126.320312500000, 68.921875000000, -4.906250000000, 1491217336
-0.014648437500, -0.411132812500, 0.080810546875, 126.320312500000, 68.921875000000, -4.906250000000, 1491217336
0.015136718750, -0.228759765625, 0.093994140625, 51.078125000000, -66.203125000000, 17.070312500000, 1491217336
0.015136718750, -0.228759765625, 0.093994140625, 51.078125000000, -66.203125000000, 17.070312500000, 1491217336
0.015136718750, -0.228759765625, 0.093994140625, 51.078125000000, -66.203125000000, 17.070312500000, 1491217336
-0.141357421875, 0.002197265625, 0.002929687500, -5.679687500000, -125.781250000000, -59.148437500000, 1491217336
-0.141357421875, 0.002197265625, 0.002929687500, -5.679687500000, -125.781250000000, -59.148437500000, 1491217336
-0.141357421875, 0.002197265625, 0.002929687500, -5.679687500000, -125.781250000000, -59.148437500000, 1491217336
-0.138427734375, 0.081542968750, 0.009521484375, -13.445312500000, -157.421875000000, -95.046875000000, 1491217336
-0.138427734375, 0.081542968750, 0.009521484375, -13.445312500000, -157.421875000000, -95.046875000000, 1491217336
-0.138427734375, 0.081542968750, 0.009521484375, -13.445312500000, -157.421875000000, -95.046875000000, 1491217336
-0.138427734375, 0.081542968750, 0.009521484375, -13.445312500000, -157.421875000000, -95.046875000000, 1491217336
-0.103515625000, 0.151123046875, -0.004638671875, -62.375000000000, -172.140625000000, -66.648437500000, 1491217336
-0.103515625000, 0.151123046875, -0.004638671875, -62.375000000000, -172.140625000000, -66.648437500000, 1491217336
-0.103515625000, 0.151123046875, -0.004638671875, -62.375000000000, -172.140625000000, -66.648437500000, 1491217336
-1.063964843750, -2.671630859375, 0.789062500000, -256.000000000000, -256.000000000000, -37.609375000000, 1491217336
-1.063964843750, -2.671630859375, 0.789062500000, -256.000000000000, -256.000000000000, -37.609375000000, 1491217336
-1.063964843750, -2.671630859375, 0.789062500000, -256.000000000000, -256.000000000000, -37.609375000000, 1491217336
1.772949218750, -1.502441406250, 2.081054687500, 253.992187500000, 253.992187500000, -136.953125000000, 1491217336
1.772949218750, -1.502441406250, 2.081054687500, 253.992187500000, 253.992187500000, -136.953125000000, 1491217336
1.772949218750, -1.502441406250, 2.081054687500, 253.992187500000, 253.992187500000, -136.953125000000, 1491217336
-0.100341796875, -1.643310546875, 0.706298828125, -124.835937500000, 131.062500000000, 84.734375000000, 1491217336
-0.100341796875, -1.643310546875, 0.706298828125, -124.835937500000, 131.062500000000, 84.734375000000, 1491217336
-0.100341796875, -1.643310546875, 0.706298828125, -124.835937500000, 131.062500000000, 84.734375000000, 1491217336
-0.100341796875, -1.643310546875, 0.706298828125, -124.835937500000, 131.062500000000, 84.734375000000, 1491217336
0.157958984375, -0.827880859375, 0.354248046875, -73.539062500000, -120.734375000000, -27.046875000000, 1491217336
0.157958984375, -0.827880859375, 0.354248046875, -73.539062500000, -120.734375000000, -27.046875000000, 1491217336
0.157958984375, -0.827880859375, 0.354248046875, -73.539062500000, -120.734375000000, -27.046875000000, 1491217336
0.043457031250, -0.283203125000, 0.192626953125, 33.578125000000, -68.664062500000, -104.312500000000, 1491217336
0.043457031250, -0.283203125000, 0.192626953125, 33.578125000000, -68.664062500000, -104.312500000000, 1491217336
0.043457031250, -0.283203125000, 0.192626953125, 33.578125000000, -68.664062500000, -104.312500000000, 1491217336
-0.085205078125, -0.045654296875, 0.112792968750, -5.335937500000, 86.234375000000, -74.835937500000, 1491217336
-0.085205078125, -0.045654296875, 0.112792968750, -5.335937500000, 86.234375000000, -74.835937500000, 1491217336
-0.085205078125, -0.045654296875, 0.112792968750, -5.335937500000, 86.234375000000, -74.835937500000, 1491217336
0.109130859375, 0.207763671875, 0.092041015625, 137.023437500000, 119.851562500000, -64.570312500000, 1491217336
0.109130859375, 0.207763671875, 0.092041015625, 137.023437500000, 119.851562500000, -64.570312500000, 1491217336
0.109130859375, 0.207763671875, 0.092041015625, 137.023437500000, 119.851562500000, -64.570312500000, 1491217336
0.109130859375, 0.207763671875, 0.092041015625, 137.023437500000, 119.851562500000, -64.570312500000, 1491217336
0.334960937500, -1.558105468750, -0.299560546875, -256.000000000000, 253.992187500000, 88.109375000000, 1491217336
0.334960937500, -1.558105468750, -0.299560546875, -256.000000000000, 253.992187500000, 88.109375000000, 1491217336
0.334960937500, -1.558105468750, -0.299560546875, -256.000000000000, 253.992187500000, 88.109375000000, 1491217336
0.334960937500, -1.558105468750, -0.299560546875, -256.000000000000, 253.992187500000, 88.109375000000, 1491217336
0.845214843750, -2.267089843750, -0.653564453125, -76.945312500000, -256.000000000000, -93.968750000000, 1491217336
0.845214843750, -2.267089843750, -0.653564453125, -76.945312500000, -256.000000000000, -93.968750000000, 1491217336
0.845214843750, -2.267089843750, -0.653564453125, -76.945312500000, -256.000000000000, -93.968750000000, 1491217336
0.845214843750, -2.267089843750, -0.653564453125, -76.945312500000, -256.000000000000, -93.968750000000, 1491217336
0.389648437500, -1.575439453125, 0.997558593750, -256.000000000000, -141.789062500000, -153.414062500000, 1491217336
0.389648437500, -1.575439453125, 0.997558593750, -256.000000000000, -141.789062500000, -153.414062500000, 1491217336
0.389648437500, -1.575439453125, 0.997558593750, -256.000000000000, -141.789062500000, -153.414062500000, 1491217336
0.389648437500, -1.575439453125, 0.997558593750, -256.000000000000, -141.789062500000, -153.414062500000, 1491217336
0.389648437500, -1.575439453125, 0.997558593750, -256.000000000000, -141.789062500000, -153.414062500000, 1491217336
-0.076904296875, -0.803955078125, 0.387939453125, -256.000000000000, 194.656250000000, -25.023437500000, 1491217336
-0.076904296875, -0.803955078125, 0.387939453125, -256.000000000000, 194.656250000000, -25.023437500000, 1491217336
-0.076904296875, -0.803955078125, 0.387939453125, -256.000000000000, 194.656250000000, -25.023437500000, 1491217336
-0.130126953125, -0.294677734375, 0.083496093750, 98.632812500000, 150.179687500000, 55.085937500000, 1491217336
-0.130126953125, -0.294677734375, 0.083496093750, 98.632812500000, 150.179687500000, 55.085937500000, 1491217336
-0.130126953125, -0.294677734375, 0.083496093750, 98.632812500000, 150.179687500000, 55.085937500000, 1491217336
-0.047363281250, -0.116210937500, 0.150878906250, 84.265625000000, 81.593750000000, 33.570312500000, 1491217336
-0.047363281250, -0.116210937500, 0.150878906250, 84.265625000000, 81.593750000000, 33.570312500000, 1491217336
-0.047363281250, -0.116210937500, 0.150878906250, 84.265625000000, 81.593750000000, 33.570312500000, 1491217336
-0.074707031250, 0.077880859375, 0.013183593750, 10.234375000000, -38.226562500000, -76.179687500000, 1491217336
-0.074707031250, 0.077880859375, 0.013183593750, 10.234375000000, -38.226562500000, -76.179687500000, 1491217336
-0.074707031250, 0.077880859375, 0.013183593750, 10.234375000000, -38.226562500000, -76.179687500000, 1491217336
-0.074707031250, 0.077880859375, 0.013183593750, 10.234375000000, -38.226562500000, -76.179687500000, 1491217336
-0.137939453125, 0.203369140625, -0.022216796875, -15.125000000000, -174.710937500000, -40.296875000000, 1491217336
-0.137939453125, 0.203369140625, -0.022216796875, -15.125000000000, -174.710937500000, -40.296875000000, 1491217336
-0.137939453125, 0.203369140625, -0.022216796875, -15.125000000000, -174.710937500000, -40.296875000000, 1491217336
-0.656738281250, -0.763427734375, -0.284912109375, -256.000000000000, -256.000000000000, 12.460937500000, 1491217337
-0.656738281250, -0.763427734375, -0.284912109375, -256.000000000000, -256.000000000000, 12.460937500000, 1491217337
-0.656738281250, -0.763427734375, -0.284912109375, -256.000000000000, -256.000000000000, 12.460937500000, 1491217337
-0.571777343750, -4.214111328125, 2.629150390625, 190.312500000000, -147.976562500000, -117.859375000000, 1491217337
-0.571777343750, -4.214111328125, 2.629150390625, 190.312500000000, -147.976562500000, -117.859375000000, 1491217337
-0.571777343750, -4.214111328125, 2.629150390625, 190.312500000000, -147.976562500000, -117.859375000000, 1491217337
-0.492431640625, -1.781494140625, 1.115234375000, -192.460937500000, 51.289062500000, 101.320312500000, 1491217337
-0.492431640625, -1.781494140625, 1.115234375000, -192.460937500000, 51.289062500000, 101.320312500000, 1491217337
-0.492431640625, -1.781494140625, 1.115234375000, -192.460937500000, 51.289062500000, 101.320312500000, 1491217337
-0.492431640625, -1.781494140625, 1.115234375000, -192.460937500000, 51.289062500000, 101.320312500000, 1491217337
0.156494140625, -1.383056640625, 0.423828125000, -41.765625000000, -117.093750000000, 48.937500000000, 1491217337
0.156494140625, -1.383056640625, 0.423828125000, -41.765625000000, -117.093750000000, 48.937500000000, 1491217337
0.156494140625, -1.383056640625, 0.423828125000, -41.765625000000, -117.093750000000, 48.937500000000, 1491217337
0.585449218750, -0.297607421875, 0.238525390625, 127.500000000000, -87.171875000000, -82.679687500000, 1491217337
0.585449218750, -0.297607421875, 0.238525390625, 127.500000000000, -87.171875000000, -82.679687500000, 1491217337
0.585449218750, -0.297607421875, 0.238525390625, 127.500000000000, -87.171875000000, -82.679687500000, 1491217337
0.168945312500, -0.028808593750, 0.128417968750, -78.625000000000, 27.695312500000, -36.843750000000, 1491217337
0.168945312500, -0.028808593750, 0.128417968750, -78.625000000000, 27.695312500000, -36.843750000000, 1491217337
0.168945312500, -0.028808593750, 0.128417968750, -78.625000000000, 27.695312500000, -36.843750000000, 1491217337
0.199707031250, 0.266601562500, -0.004638671875, 54.648437500000, 123.062500000000, -1.734375000000, 1491217337
0.199707031250, 0.266601562500, -0.004638671875, 54.648437500000, 123.062500000000, -1.734375000000, 1491217337
0.199707031250, 0.266601562500, -0.004638671875, 54.648437500000, 123.062500000000, -1.734375000000, 1491217337
0.199707031250, 0.266601562500, -0.004638671875, 54.648437500000, 123.062500000000, -1.734375000000, 1491217337
0.215820312500, 0.106689453125, -0.022460937500, 86.796875000000, 164.296875000000, -67.218750000000, 1491217337
0.215820312500, 0.106689453125, -0.022460937500, 86.796875000000, 164.296875000000, -67.218750000000, 1491217337
0.215820312500, 0.106689453125, -0.022460937500, 86.796875000000, 164.296875000000, -67.218750000000, 1491217337
0.328857421875, -1.168212890625, -0.216064453125, -158.718750000000, 208.492187500000, -81.601562500000, 1491217337
0.328857421875, -1.168212890625, -0.216064453125, -158.718750000000, 208.492187500000, -81.601562500000, 1491217337
0.328857421875, -1.168212890625, -0.216064453125, -158.718750000000, 208.492187500000, -81.601562500000, 1491217337
1.347656250000, -3.034667968750, 0.626464843750, -256.000000000000, 196.898437500000, 253.992187500000, 1491217337
1.347656250000, -3.034667968750, 0.626464843750, -256.000000000000, 196.898437500000, 253.992187500000, 1491217337
0.569091796875, -2.247802734375, 2.235839843750, -256.000000000000, -122.109375000000, -55.328125000000, 1491217337
0.569091796875, -2.247802734375, 2.235839843750, -256.000000000000, -122.109375000000, -55.328125000000, 1491217337
0.569091796875, -2.247802734375, 2.235839843750, -256.000000000000, -122.109375000000, -55.328125000000, 1491217337
0.569091796875, -2.247802734375, 2.235839843750, -256.000000000000, -122.109375000000, -55.328125000000, 1491217337
0.569091796875, -2.247802734375, 2.235839843750, -256.000000000000, -122.109375000000, -55.328125000000, 1491217337
0.062255859375, -1.113281250000, 0.346435546875, -256.000000000000, 135.398437500000, -99.804687500000, 1491217337
0.062255859375, -1.113281250000, 0.346435546875, -256.000000000000, 135.398437500000, -99.804687500000, 1491217337
0.062255859375, -1.113281250000, 0.346435546875, -256.000000000000, 135.398437500000, -99.804687500000, 1491217337
-0.094238281250, -0.442626953125, 0.195556640625, 131.804687500000, 24.468750000000, -28.859375000000, 1491217337
-0.094238281250, -0.442626953125, 0.195556640625, 131.804687500000, 24.468750000000, -28.859375000000, 1491217337
-0.094238281250, -0.442626953125, 0.195556640625, 131.804687500000, 24.468750000000, -28.859375000000, 1491217337
-0.079101562500, -0.194335937500, 0.259765625000, 207.851562500000, -0.695312500000, 56.687500000000, 1491217337
-0.079101562500, -0.194335937500, 0.259765625000, 207.851562500000, -0.695312500000, 56.687500000000, 1491217337
-0.079101562500, -0.194335937500, 0.259765625000, 207.851562500000, -0.695312500000, 56.687500000000, 1491217337
-0.075195312500, 0.021728515625, -0.073242187500, -8.273437500000, -25.437500000000, -13.726562500000, 1491217337
-0.075195312500, 0.021728515625, -0.073242187500, -8.273437500000, -25.437500000000, -13.726562500000, 1491217337
-0.075195312500, 0.021728515625, -0.073242187500, -8.273437500000, -25.437500000000, -13.726562500000, 1491217337
0.015380859375, 0.017822265625, 0.006347656250, -61.132812500000, -256.000000000000, -79.578125000000, 1491217337
0.015380859375, 0.017822265625, 0.006347656250, -61.132812500000, -256.000000000000, -79.578125000000, 1491217337
0.015380859375, 0.017822265625, 0.006347656250, -61.132812500000, -256.000000000000, -79.578125000000, 1491217337
0.015380859375, 0.017822265625, 0.006347656250, -61.132812500000, -256.000000000000, -79.578125000000, 1491217337
-0.270996093750, -0.124267578125, 0.073730468750, -165.820312500000, -256.000000000000, -18.632812500000, 1491217337
-0.270996093750, -0.124267578125, 0.073730468750, -165.820312500000, -256.000000000000, -18.632812500000, 1491217337
-0.270996093750, -0.124267578125, 0.073730468750, -165.820312500000, -256.000000000000, -18.632812500000, 1491217337
-0.980957031250, -2.789794921875, 1.325439453125, -112.726562500000, -256.000000000000, 58.335937500000, 1491217337
-0.980957031250, -2.789794921875, 1.325439453125, -112.726562500000, -256.000000000000, 58.335937500000, 1491217337
-0.980957031250, -2.789794921875, 1.325439453125, -112.726562500000, -256.000000000000, 58.335937500000, 1491217337
1.474609375000, -1.812500000000, 0.905761718750, 55.476562500000, -219.906250000000, -117.335937500000, 1491217337
1.474609375000, -1.812500000000, 0.905761718750, 55.476562500000, -219.906250000000, -117.335937500000, 1491217337
1.474609375000, -1.812500000000, 0.905761718750, 55.476562500000, -219.906250000000, -117.335937500000, 1491217337
1.474609375000, -1.812500000000, 0.905761718750, 55.476562500000, -219.906250000000, -117.335937500000, 1491217337
-0.387207031250, -2.010742187500, 0.939697265625, -106.968750000000, 31.062500000000, 207.695312500000, 1491217337
-0.387207031250, -2.010742187500, 0.939697265625, -106.968750000000, 31.062500000000, 207.695312500000, 1491217337
-0.387207031250, -2.010742187500, 0.939697265625, -106.968750000000, 31.062500000000, 207.695312500000, 1491217337
-0.007324218750, -1.022460937500, 0.591796875000, -22.601562500000, -174.093750000000, -92.953125000000, 1491217337
-0.007324218750, -1.022460937500, 0.591796875000, -22.601562500000, -174.093750000000, -92.953125000000, 1491217337
-0.007324218750, -1.022460937500, 0.591796875000, -22.601562500000, -174.093750000000, -92.953125000000, 1491217337
0.107666015625, -0.161132812500, 0.095947265625, 10.390625000000, 12.226562500000, -115.203125000000, 1491217338
-0.070068359375, 0.092773437500, 0.052978515625, -40.085937500000, 110.867187500000, -97.632812500000, 1491217338
-0.070068359375, 0.092773437500, 0.052978515625, -40.085937500000, 110.867187500000, -97.632812500000, 1491217338
-0.070068359375, 0.092773437500, 0.052978515625, -40.085937500000, 110.867187500000, -97.632812500000, 1491217338
0.042236328125, 0.112548828125, 0.142822265625, 64.343750000000, 136.757812500000, -57.859375000000, 1491217338
0.042236328125, 0.112548828125, 0.142822265625, 64.343750000000, 136.757812500000, -57.859375000000, 1491217338
0.042236328125, 0.112548828125, 0.142822265625, 64.343750000000, 136.757812500000, -57.859375000000, 1491217338
0.042236328125, 0.112548828125, 0.142822265625, 64.343750000000, 136.757812500000, -57.859375000000, 1491217338
0.042236328125, 0.112548828125, 0.142822265625, 64.343750000000, 136.757812500000, -57.859375000000, 1491217338
0.042236328125, 0.112548828125, 0.142822265625, 64.343750000000, 136.757812500000, -57.859375000000, 1491217338
0.041748046875, 0.030517578125, -0.001708984375, 10.039062500000, 165.718750000000, -80.117187500000, 1491217338
0.041748046875, 0.030517578125, -0.001708984375, 10.039062500000, 165.718750000000, -80.117187500000, 1491217338
0.041748046875, 0.030517578125, -0.001708984375, 10.039062500000, 165.718750000000, -80.117187500000, 1491217338
0.283447265625, -0.389892578125, 0.085693359375, -102.515625000000, 194.671875000000, -50.609375000000, 1491217338
0.283447265625, -0.389892578125, 0.085693359375, -102.515625000000, 194.671875000000, -50.609375000000, 1491217338
0.283447265625, -0.389892578125, 0.085693359375, -102.515625000000, 194.671875000000, -50.609375000000, 1491217338
0.995361328125, -1.972900390625, -0.045898437500, -180.929687500000, -256.000000000000, 111.664062500000, 1491217338
0.995361328125, -1.972900390625, -0.045898437500, -180.929687500000, -256.000000000000, 111.664062500000, 1491217338
0.995361328125, -1.972900390625, -0.045898437500, -180.929687500000, -256.000000000000, 111.664062500000, 1491217338
0.995361328125, -1.972900390625, -0.045898437500, -180.929687500000, -256.000000000000, 111.664062500000, 1491217338
-1.039306640625, -3.580322265625, 2.835205078125, 253.992187500000, -31.648437500000, -115.140625000000, 1491217338
-1.039306640625, -3.580322265625, 2.835205078125, 253.992187500000, -31.648437500000, -115.140625000000, 1491217338
-1.039306640625, -3.580322265625, 2.835205078125, 253.992187500000, -31.648437500000, -115.140625000000, 1491217338
0.577880859375, -1.585937500000, 0.659179687500, -256.000000000000, 112.421875000000, -38.437500000000, 1491217338
0.577880859375, -1.585937500000, 0.659179687500, -256.000000000000, 112.421875000000, -38.437500000000, 1491217338
0.577880859375, -1.585937500000, 0.659179687500, -256.000000000000, 112.421875000000, -38.437500000000, 1491217338
0.197265625000, -1.141357421875, 0.368652343750, 133.304687500000, 129.703125000000, 36.000000000000, 1491217338
0.197265625000, -1.141357421875, 0.368652343750, 133.304687500000, 129.703125000000, 36.000000000000, 1491217338
0.197265625000, -1.141357421875, 0.368652343750, 133.304687500000, 129.703125000000, 36.000000000000, 1491217338
-0.093017578125, -0.350585937500, 0.399658203125, 4.328125000000, 47.546875000000, -3.226562500000, 1491217338
-0.093017578125, -0.350585937500, 0.399658203125, 4.328125000000, 47.546875000000, -3.226562500000, 1491217338
-0.093017578125, -0.350585937500, 0.399658203125, 4.328125000000, 47.546875000000, -3.226562500000, 1491217338
-0.093017578125, -0.350585937500, 0.399658203125, 4.328125000000, 47.546875000000, -3.226562500000, 1491217338
0.025634765625, -0.101562500000, -0.021484375000, -42.000000000000, 34.109375000000, -24.765625000000, 1491217338
0.025634765625, -0.101562500000, -0.021484375000, -42.000000000000, 34.109375000000, -24.765625000000, 1491217338
0.025634765625, -0.101562500000, -0.021484375000, -42.000000000000, 34.109375000000, -24.765625000000, 1491217338
-0.086181640625, 0.027587890625, -0.018066406250, -42.734375000000, -71.679687500000, -68.265625000000, 1491217338
-0.086181640625, 0.027587890625, -0.018066406250, -42.734375000000, -71.679687500000, -68.265625000000, 1491217338
-0.086181640625, 0.027587890625, -0.018066406250, -42.734375000000, -71.679687500000, -68.265625000000, 1491217338
-0.064453125000, -0.082031250000, -0.066406250000, -82.984375000000, -126.132812500000, -30.679687500000, 1491217338
-0.064453125000, -0.082031250000, -0.066406250000, -82.984375000000, -126.132812500000, -30.679687500000, 1491217338
-0.064453125000, -0.082031250000, -0.066406250000, -82.984375000000, -126.132812500000, -30.679687500000, 1491217338
-0.380371093750, -0.634277343750, -0.086669921875, -161.007812500000, -238.789062500000, 6.601562500000, 1491217338
-0.380371093750, -0.634277343750, -0.086669921875, -161.007812500000, -238.789062500000, 6.601562500000, 1491217338
-0.380371093750, -0.634277343750, -0.086669921875, -161.007812500000, -238.789062500000, 6.601562500000, 1491217338
-0.380371093750, -0.634277343750, -0.086669921875, -161.007812500000, -238.789062500000, 6.601562500000, 1491217338
-0.515625000000, -3.918701171875, 1.956054687500, -9.070312500000, -256.000000000000, 80.812500000000, 1491217338
-0.515625000000, -3.918701171875, 1.956054687500, -9.070312500000, -256.000000000000, 80.812500000000, 1491217338
-0.515625000000, -3.918701171875, 1.956054687500, -9.070312500000, -256.000000000000, 80.812500000000, 1491217338
0.584228515625, -1.336181640625, 1.270996093750, -210.625000000000, -140.851562500000, 22.531250000000, 1491217338
0.009033203125, -1.136230468750, 0.243164062500, -160.179687500000, 66.171875000000, 50.835937500000, 1491217338
0.009033203125, -1.136230468750, 0.243164062500, -160.179687500000, 66.171875000000, 50.835937500000, 1491217338
0.320800781250, -0.749023437500, 0.339843750000, 101.296875000000, -103.828125000000, -113.875000000000, 1491217338
0.320800781250, -0.749023437500, 0.339843750000, 101.296875000000, -103.828125000000, -113.875000000000, 1491217338
0.320800781250, -0.749023437500, 0.339843750000, 101.296875000000, -103.828125000000, -113.875000000000, 1491217338
0.320800781250, -0.749023437500, 0.339843750000, 101.296875000000, -103.828125000000, -113.875000000000, 1491217338
0.320800781250, -0.749023437500, 0.339843750000, 101.296875000000, -103.828125000000, -113.875000000000, 1491217338
0.605224609375, -0.444580078125, 0.526367187500, 129.835937500000, 1.195312500000, 18.445312500000, 1491217338
0.605224609375, -0.444580078125, 0.526367187500, 129.835937500000, 1.195312500000, 18.445312500000, 1491217338
0.605224609375, -0.444580078125, 0.526367187500, 129.835937500000, 1.195312500000, 18.445312500000, 1491217338
0.605224609375, -0.444580078125, 0.526367187500, 129.835937500000, 1.195312500000, 18.445312500000, 1491217338
0.015625000000, -0.412109375000, 0.285644531250, -64.390625000000, 38.671875000000, 53.726562500000, 1491217338
0.015625000000, -0.412109375000, 0.285644531250, -64.390625000000, 38.671875000000, 53.726562500000, 1491217338
0.015625000000, -0.412109375000, 0.285644531250, -64.390625000000, 38.671875000000, 53.726562500000, 1491217338
0.015625000000, -0.412109375000, 0.285644531250, -64.390625000000, 38.671875000000, 53.726562500000, 1491217338
-0.050048828125, -0.522460937500, 0.341796875000, -31.148437500000, 126.437500000000, 68.804687500000, 1491217339
-0.050048828125, -0.522460937500, 0.341796875000, -31.148437500000, 126.437500000000, 68.804687500000, 1491217339
-0.050048828125, -0.522460937500, 0.341796875000, -31.148437500000, 126.437500000000, 68.804687500000, 1491217339
-0.305908203125, -0.745605468750, 0.783935546875, 4.882812500000, -119.593750000000, -40.359375000000, 1491217339
-0.305908203125, -0.745605468750, 0.783935546875, 4.882812500000, -119.593750000000, -40.359375000000, 1491217339
-0.305908203125, -0.745605468750, 0.783935546875, 4.882812500000, -119.593750000000, -40.359375000000, 1491217339
-0.305908203125, -0.745605468750, 0.783935546875, 4.882812500000, -119.593750000000, -40.359375000000, 1491217339
0.599609375000, -1.940185546875, 0.719726562500, -97.656250000000, -46.906250000000, -68.507812500000, 1491217339
0.599609375000, -1.940185546875, 0.719726562500, -97.656250000000, -46.906250000000, -68.507812500000, 1491217339
0.599609375000, -1.940185546875, 0.719726562500, -97.656250000000, -46.906250000000, -68.507812500000, 1491217339
0.278076171875, -1.040283203125, 0.444824218750, -63.007812500000, -151.414062500000, -54.359375000000, 1491217339
0.278076171875, -1.040283203125, 0.444824218750, -63.007812500000, -151.414062500000, -54.359375000000, 1491217339
0.278076171875, -1.040283203125, 0.444824218750, -63.007812500000, -151.414062500000, -54.359375000000, 1491217339
0.045166015625, -0.469482421875, 0.188720703125, -56.664062500000, -43.921875000000, -31.828125000000, 1491217339
0.045166015625, -0.469482421875, 0.188720703125, -56.664062500000, -43.921875000000, -31.828125000000, 1491217339
0.045166015625, -0.469482421875, 0.188720703125, -56.664062500000, -43.921875000000, -31.828125000000, 1491217339
0.335205078125, -0.812011718750, 0.502685546875, 29.085937500000, -42.085937500000, -21.273437500000, 1491217339
0.335205078125, -0.812011718750, 0.502685546875, 29.085937500000, -42.085937500000, -21.273437500000, 1491217339
0.335205078125, -0.812011718750, 0.502685546875, 29.085937500000, -42.085937500000, -21.273437500000, 1491217339
0.335205078125, -0.812011718750, 0.502685546875, 29.085937500000, -42.085937500000, -21.273437500000, 1491217339
0.140625000000, -0.800781250000, 0.572265625000, -37.148437500000, -77.257812500000, -23.265625000000, 1491217339
0.140625000000, -0.800781250000, 0.572265625000, -37.148437500000, -77.257812500000, -23.265625000000, 1491217339
0.140625000000, -0.800781250000, 0.572265625000, -37.148437500000, -77.257812500000, -23.265625000000, 1491217339
0.161621093750, -0.925292968750, 0.296875000000, -52.093750000000, -50.804687500000, -59.796875000000, 1491217339
0.161621093750, -0.925292968750, 0.296875000000, -52.093750000000, -50.804687500000, -59.796875000000, 1491217339
0.161621093750, -0.925292968750, 0.296875000000, -52.093750000000, -50.804687500000, -59.796875000000, 1491217339
0.379150390625, -0.924804687500, 0.468017578125, 85.289062500000, -133.773437500000, -74.828125000000, 1491217339
0.379150390625, -0.924804687500, 0.468017578125, 85.289062500000, -133.773437500000, -74.828125000000, 1491217339
0.379150390625, -0.924804687500, 0.468017578125, 85.289062500000, -133.773437500000, -74.828125000000, 1491217339
0.262939453125, -0.828125000000, 0.305908203125, -35.429687500000, -90.234375000000, -54.585937500000, 1491217339
0.262939453125, -0.828125000000, 0.305908203125, -35.429687500000, -90.234375000000, -54.585937500000, 1491217339
0.262939453125, -0.828125000000, 0.305908203125, -35.429687500000, -90.234375000000, -54.585937500000, 1491217339
0.262939453125, -0.828125000000, 0.305908203125, -35.429687500000, -90.234375000000, -54.585937500000, 1491217339
0.151367187500, -0.813476562500, 0.239257812500, -6.273437500000, -104.609375000000, -75.468750000000, 1491217339
0.151367187500, -0.813476562500, 0.239257812500, -6.273437500000, -104.609375000000, -75.468750000000, 1491217339
0.151367187500, -0.813476562500, 0.239257812500, -6.273437500000, -104.609375000000, -75.468750000000, 1491217339
-0.016113281250, -0.835205078125, 0.298339843750, -0.742187500000, -134.679687500000, -101.906250000000, 1491217339
-0.016113281250, -0.835205078125, 0.298339843750, -0.742187500000, -134.679687500000, -101.906250000000, 1491217339
-0.016113281250, -0.835205078125, 0.298339843750, -0.742187500000, -134.679687500000, -101.906250000000, 1491217339
-0.076416015625, -0.850097656250, 0.388427734375, -40.000000000000, -114.156250000000, -100.718750000000, 1491217339
-0.076416015625, -0.850097656250, 0.388427734375, -40.000000000000, -114.156250000000, -100.718750000000, 1491217339
-0.076416015625, -0.850097656250, 0.388427734375, -40.000000000000, -114.156250000000, -100.718750000000, 1491217339
-0.137695312500, -0.980468750000, 0.335449218750, -16.492187500000, -132.375000000000, -162.382812500000, 1491217339
-0.137695312500, -0.980468750000, 0.335449218750, -16.492187500000, -132.375000000000, -162.382812500000, 1491217339
-0.137695312500, -0.980468750000, 0.335449218750, -16.492187500000, -132.375000000000, -162.382812500000, 1491217339
-0.137695312500, -0.980468750000, 0.335449218750, -16.492187500000, -132.375000000000, -162.382812500000, 1491217339
-0.221923828125, -1.046142578125, 0.246826171875, -1.757812500000, -121.312500000000, -121.312500000000, 1491217339
-0.221923828125, -1.046142578125, 0.246826171875, -1.757812500000, -121.312500000000, -121.312500000000, 1491217339
-0.221923828125, -1.046142578125, 0.246826171875, -1.757812500000, -121.312500000000, -121.312500000000, 1491217339
-0.052246093750, -1.241455078125, 0.642333984375, 36.914062500000, -157.757812500000, -33.546875000000, 1491217339
-0.052246093750, -1.241455078125, 0.642333984375, 36.914062500000, -157.757812500000, -33.546875000000, 1491217339
-0.052246093750, -1.241455078125, 0.642333984375, 36.914062500000, -157.757812500000, -33.546875000000, 1491217339
0.070556640625, -0.943847656250, 0.421875000000, 10.093750000000, -105.398437500000, -52.375000000000, 1491217339
0.070556640625, -0.943847656250, 0.421875000000, 10.093750000000, -105.398437500000, -52.375000000000, 1491217339
0.070556640625, -0.943847656250, 0.421875000000, 10.093750000000, -105.398437500000, -52.375000000000, 1491217339
-0.125488281250, -0.781982421875, 0.302490234375, -29.070312500000, -115.546875000000, -14.445312500000, 1491217339
-0.125488281250, -0.781982421875, 0.302490234375, -29.070312500000, -115.546875000000, -14.445312500000, 1491217339
-0.125488281250, -0.781982421875, 0.302490234375, -29.070312500000, -115.546875000000, -14.445312500000, 1491217339
-0.125488281250, -0.781982421875, 0.302490234375, -29.070312500000, -115.546875000000, -14.445312500000, 1491217339
-0.071044921875, -0.800292968750, 0.303466796875, -1.390625000000, -108.875000000000, -23.835937500000, 1491217339
-0.071044921875, -0.800292968750, 0.303466796875, -1.390625000000, -108.875000000000, -23.835937500000, 1491217339
-0.071044921875, -0.800292968750, 0.303466796875, -1.390625000000, -108.875000000000, -23.835937500000, 1491217339
-0.034179687500, -0.967773437500, 0.489013671875, 33.859375000000, -116.835937500000, -16.656250000000, 1491217339
-0.034179687500, -0.967773437500, 0.489013671875, 33.859375000000, -116.835937500000, -16.656250000000, 1491217339
-0.034179687500, -0.967773437500, 0.489013671875, 33.859375000000, -116.835937500000, -16.656250000000, 1491217339
0.142333984375, -0.858398437500, 0.533935546875, -16.195312500000, -78.937500000000, -15.085937500000, 1491217339
0.142333984375, -0.858398437500, 0.533935546875, -16.195312500000, -78.937500000000, -15.085937500000, 1491217339
0.142333984375, -0.858398437500, 0.533935546875, -16.195312500000, -78.937500000000, -15.085937500000, 1491217339
0.121093750000, -0.898681640625, 0.474853515625, -4.445312500000, -51.578125000000, 18.195312500000, 1491217340
0.121093750000, -0.898681640625, 0.474853515625, -4.445312500000, -51.578125000000, 18.195312500000, 1491217340
0.121093750000, -0.898681640625, 0.474853515625, -4.445312500000, -51.578125000000, 18.195312500000, 1491217340
0.121093750000, -0.898681640625, 0.474853515625, -4.445312500000, -51.578125000000, 18.195312500000, 1491217340
-0.029541015625, -0.888183593750, 0.542968750000, -16.546875000000, -24.914062500000, 35.125000000000, 1491217340
-0.029541015625, -0.888183593750, 0.542968750000, -16.546875000000, -24.914062500000, 35.125000000000, 1491217340
-0.029541015625, -0.888183593750, 0.542968750000, -16.546875000000, -24.914062500000, 35.125000000000, 1491217340
0.204589843750, -1.034179687500, 0.689208984375, -31.390625000000, -4.468750000000, 82.515625000000, 1491217340
0.204589843750, -1.034179687500, 0.689208984375, -31.390625000000, -4.468750000000, 82.515625000000, 1491217340
0.204589843750, -1.034179687500, 0.689208984375, -31.390625000000, -4.468750000000, 82.515625000000, 1491217340
0.275634765625, -1.101562500000, 0.710449218750, -56.250000000000, -0.812500000000, 65.515625000000, 1491217340
0.275634765625, -1.101562500000, 0.710449218750, -56.250000000000, -0.812500000000, 65.515625000000, 1491217340
0.275634765625, -1.101562500000, 0.710449218750, -56.250000000000, -0.812500000000, 65.515625000000, 1491217340
0.088623046875, -0.619873046875, 0.219482421875, -13.617187500000, 31.218750000000, -50.140625000000, 1491217340
0.088623046875, -0.619873046875, 0.219482421875, -13.617187500000, 31.218750000000, -50.140625000000, 1491217340
0.088623046875, -0.619873046875, 0.219482421875, -13.617187500000, 31.218750000000, -50.140625000000, 1491217340
0.008544921875, -0.553222656250, 0.137207031250, 1.554687500000, 30.265625000000, -32.085937500000, 1491217340
-0.009521484375, -0.663574218750, 0.154785156250, 4.289062500000, 16.304687500000, -16.640625000000, 1491217340
-0.009521484375, -0.663574218750, 0.154785156250, 4.289062500000, 16.304687500000, -16.640625000000, 1491217340
-0.009521484375, -0.663574218750, 0.154785156250, 4.289062500000, 16.304687500000, -16.640625000000, 1491217340
0.454345703125, -0.979492187500, 0.260253906250, -9.750000000000, -37.109375000000, -22.320312500000, 1491217340
0.454345703125, -0.979492187500, 0.260253906250, -9.750000000000, -37.109375000000, -22.320312500000, 1491217340
0.454345703125, -0.979492187500, 0.260253906250, -9.750000000000, -37.109375000000, -22.320312500000, 1491217340
0.615478515625, -0.885009765625, 0.460449218750, 92.218750000000, -146.046875000000, -30.718750000000, 1491217340
0.615478515625, -0.885009765625, 0.460449218750, 92.218750000000, -146.046875000000, -30.718750000000, 1491217340
0.615478515625, -0.885009765625, 0.460449218750, 92.218750000000, -146.046875000000, -30.718750000000, 1491217340
0.281005859375, -0.845947265625, 0.517578125000, 3.718750000000, 19.312500000000, -3.570312500000, 1491217340
0.281005859375, -0.845947265625, 0.517578125000, 3.718750000000, 19.312500000000, -3.570312500000, 1491217340
0.352050781250, -0.828125000000, 0.283203125000, -4.343750000000, -54.390625000000, -30.125000000000, 1491217340
0.352050781250, -0.828125000000, 0.283203125000, -4.343750000000, -54.390625000000, -30.125000000000, 1491217340
0.352050781250, -0.828125000000, 0.283203125000, -4.343750000000, -54.390625000000, -30.125000000000, 1491217340
0.352050781250, -0.828125000000, 0.283203125000, -4.343750000000, -54.390625000000, -30.125000000000, 1491217340
0.330810546875, -0.901855468750, 0.345458984375, -0.054687500000, -30.781250000000, -23.664062500000, 1491217340
0.330810546875, -0.901855468750, 0.345458984375, -0.054687500000, -30.781250000000, -23.664062500000, 1491217340
0.330810546875, -0.901855468750, 0.345458984375, -0.054687500000, -30.781250000000, -23.664062500000, 1491217340
0.330810546875, -0.901855468750, 0.345458984375, -0.054687500000, -30.781250000000, -23.664062500000, 1491217340
0.332763671875, -0.788574218750, 0.369628906250, -0.468750000000, -32.937500000000, -17.437500000000, 1491217340
0.332763671875, -0.788574218750, 0.369628906250, -0.468750000000, -32.937500000000, -17.437500000000, 1491217340
0.332763671875, -0.788574218750, 0.369628906250, -0.468750000000, -32.937500000000, -17.437500000000, 1491217340
0.388671875000, -0.827148437500, 0.423095703125, -8.757812500000, 0.164062500000, -13.750000000000, 1491217340
0.388671875000, -0.827148437500, 0.423095703125, -8.757812500000, 0.164062500000, -13.750000000000, 1491217340
0.388671875000, -0.827148437500, 0.423095703125, -8.757812500000, 0.164062500000, -13.750000000000, 1491217340
0.388671875000, -0.827148437500, 0.423095703125, -8.757812500000, 0.164062500000, -13.750000000000, 1491217340
0.310058593750, -0.782470703125, 0.439697265625, -26.828125000000, -6.000000000000, -6.109375000000, 1491217340
0.310058593750, -0.782470703125, 0.439697265625, -26.828125000000, -6.000000000000, -6.109375000000, 1491217340
0.310058593750, -0.782470703125, 0.439697265625, -26.828125000000, -6.000000000000, -6.109375000000, 1491217340
0.228759765625, -0.919677734375, 0.422119140625, -29.539062500000, 5.421875000000, -6.390625000000, 1491217340
0.228759765625, -0.919677734375, 0.422119140625, -29.539062500000, 5.421875000000, -6.390625000000, 1491217340
0.228759765625, -0.919677734375, 0.422119140625, -29.539062500000, 5.421875000000, -6.390625000000, 1491217340
0.359863281250, -0.939697265625, 0.529052734375, -34.179687500000, 9.828125000000, -6.375000000000, 1491217340
0.359863281250, -0.939697265625, 0.529052734375, -34.179687500000, 9.828125000000, -6.375000000000, 1491217340
0.359863281250, -0.939697265625, 0.529052734375, -34.179687500000, 9.828125000000, -6.375000000000, 1491217340
0.191406250000, -1.318847656250, 0.631347656250, -36.046875000000, 17.742187500000, -20.921875000000, 1491217340
0.191406250000, -1.318847656250, 0.631347656250, -36.046875000000, 17.742187500000, -20.921875000000, 1491217340
0.191406250000, -1.318847656250, 0.631347656250, -36.046875000000, 17.742187500000, -20.921875000000, 1491217340
0.191406250000, -1.318847656250, 0.631347656250, -36.046875000000, 17.742187500000, -20.921875000000, 1491217340
0.049804687500, -0.800537109375, 0.166748046875, -34.289062500000, -5.234375000000, -41.023437500000, 1491217340
0.049804687500, -0.800537109375, 0.166748046875, -34.289062500000, -5.234375000000, -41.023437500000, 1491217340
0.049804687500, -0.800537109375, 0.166748046875, -34.289062500000, -5.234375000000, -41.023437500000, 1491217340
0.083251953125, -0.666015625000, 0.200195312500, 23.031250000000, -14.937500000000, -29.320312500000, 1491217340
0.083251953125, -0.666015625000, 0.200195312500, 23.031250000000, -14.937500000000, -29.320312500000, 1491217340
0.083251953125, -0.666015625000, 0.200195312500, 23.031250000000, -14.937500000000, -29.320312500000, 1491217340
0.236328125000, -0.915283203125, 0.350830078125, 15.046875000000, -86.773437500000, -13.648437500000, 1491217340
0.236328125000, -0.915283203125, 0.350830078125, 15.046875000000, -86.773437500000, -13.648437500000, 1491217340
0.236328125000, -0.915283203125, 0.350830078125, 15.046875000000, -86.773437500000, -13.648437500000, 1491217340
0.218750000000, -0.850341796875, 0.376220703125, -45.328125000000, 46.437500000000, 15.687500000000, 1491217341
0.218750000000, -0.850341796875, 0.376220703125, -45.328125000000, 46.437500000000, 15.687500000000, 1491217341
0.218750000000, -0.850341796875, 0.376220703125, -45.328125000000, 46.437500000000, 15.687500000000, 1491217341
0.218750000000, -0.850341796875, 0.376220703125, -45.328125000000, 46.437500000000, 15.687500000000, 1491217341
0.240966796875, -0.863525390625, 0.325683593750, 18.671875000000, -2.437500000000, 2.843750000000, 1491217341
0.240966796875, -0.863525390625, 0.325683593750, 18.671875000000, -2.437500000000, 2.843750000000, 1491217341
0.240966796875, -0.863525390625, 0.325683593750, 18.671875000000, -2.437500000000, 2.843750000000, 1491217341
0.279541015625, -0.884765625000, 0.495361328125, 39.320312500000, 44.296875000000, 24.640625000000, 1491217341
0.279541015625, -0.884765625000, 0.495361328125, 39.320312500000, 44.296875000000, 24.640625000000, 1491217341
0.279541015625, -0.884765625000, 0.495361328125, 39.320312500000, 44.296875000000, 24.640625000000, 1491217341
0.215576171875, -0.787841796875, 0.462890625000, -30.867187500000, 59.867187500000, 40.031250000000, 1491217341
0.215576171875, -0.787841796875, 0.462890625000, -30.867187500000, 59.867187500000, 40.031250000000, 1491217341
0.215576171875, -0.787841796875, 0.462890625000, -30.867187500000, 59.867187500000, 40.031250000000, 1491217341
0.048095703125, -0.799804687500, 0.397460937500, 6.203125000000, 45.640625000000, 34.320312500000, 1491217341
0.048095703125, -0.799804687500, 0.397460937500, 6.203125000000, 45.640625000000, 34.320312500000, 1491217341
0.048095703125, -0.799804687500, 0.397460937500, 6.203125000000, 45.640625000000, 34.320312500000, 1491217341
0.048095703125, -0.799804687500, 0.397460937500, 6.203125000000, 45.640625000000, 34.320312500000, 1491217341
0.152343750000, -0.896240234375, 0.434570312500, 8.453125000000, 44.539062500000, 25.984375000000, 1491217341
0.152343750000, -0.896240234375, 0.434570312500, 8.453125000000, 44.539062500000, 25.984375000000, 1491217341
0.152343750000, -0.896240234375, 0.434570312500, 8.453125000000, 44.539062500000, 25.984375000000, 1491217341
-0.005126953125, -0.944335937500, 0.518066406250, -10.757812500000, 31.742187500000, 12.750000000000, 1491217341
-0.005126953125, -0.944335937500, 0.518066406250, -10.757812500000, 31.742187500000, 12.750000000000, 1491217341
-0.005126953125, -0.944335937500, 0.518066406250, -10.757812500000, 31.742187500000, 12.750000000000, 1491217341
