ACC_X,ACC_Y,ACC_Z,G_X,G_Y,G_Z,Unix Time
0.158203125000, -0.916992187500, 0.227050781250, -6.187500000000, 2.523437500000, -10.273437500000, 1491217148
0.158203125000, -0.916992187500, 0.227050781250, -6.187500000000, 2.523437500000, -10.273437500000, 1491217148
0.158203125000, -0.916992187500, 0.227050781250, -6.187500000000, 2.523437500000, -10.273437500000, 1491217148
0.049316406250, -0.950439453125, 0.250488281250, -3.765625000000, 1.507812500000, -4.000000000000, 1491217148
0.049316406250, -0.950439453125, 0.250488281250, -3.765625000000, 1.507812500000, -4.000000000000, 1491217148
0.049316406250, -0.950439453125, 0.250488281250, -3.765625000000, 1.507812500000, -4.000000000000, 1491217148
0.167968750000, -0.919677734375, 0.212402343750, -1.656250000000, -0.203125000000, -4.093750000000, 1491217148
0.122314453125, -0.984130859375, 0.122070312500, -1.828125000000, 2.273437500000, -6.335937500000, 1491217148
0.109619140625, -0.934326171875, 0.212402343750, -6.820312500000, -0.421875000000, -8.375000000000, 1491217148
0.109619140625, -0.934326171875, 0.212402343750, -6.820312500000, -0.421875000000, -8.375000000000, 1491217148
0.109619140625, -0.934326171875, 0.212402343750, -6.820312500000, -0.421875000000, -8.375000000000, 1491217148
0.109619140625, -0.934326171875, 0.212402343750, -6.820312500000, -0.421875000000, -8.375000000000, 1491217148
0.109619140625, -0.934326171875, 0.212402343750, -6.820312500000, -0.421875000000, -8.375000000000, 1491217148
0.099609375000, -1.014404296875, 0.171875000000, -1.500000000000, -2.304687500000, -6.820312500000, 1491217148
0.099609375000, -1.014404296875, 0.171875000000, -1.500000000000, -2.304687500000, -6.820312500000, 1491217148
0.099609375000, -1.014404296875, 0.171875000000, -1.500000000000, -2.304687500000, -6.820312500000, 1491217148
0.148193359375, -0.927734375000, 0.215087890625, -2.500000000000, 0.414062500000, -7.492187500000, 1491217148
0.148193359375, -0.927734375000, 0.215087890625, -2.500000000000, 0.414062500000, -7.492187500000, 1491217148
0.148193359375, -0.927734375000, 0.215087890625, -2.500000000000, 0.414062500000, -7.492187500000, 1491217148
0.155273437500, -0.953613281250, 0.162597656250, -2.687500000000, 0.914062500000, -3.960937500000, 1491217148
0.155273437500, -0.953613281250, 0.162597656250, -2.687500000000, 0.914062500000, -3.960937500000, 1491217148
0.155273437500, -0.953613281250, 0.162597656250, -2.687500000000, 0.914062500000, -3.960937500000, 1491217148
0.148681640625, -1.024169921875, 0.214355468750, -2.351562500000, 0.695312500000, -5.492187500000, 1491217148
0.148681640625, -1.024169921875, 0.214355468750, -2.351562500000, 0.695312500000, -5.492187500000, 1491217148
0.047851562500, -0.946044921875, 0.185058593750, -4.187500000000, 0.148437500000, -4.640625000000, 1491217148
0.047851562500, -0.946044921875, 0.185058593750, -4.187500000000, 0.148437500000, -4.640625000000, 1491217148
0.156005859375, -1.014892578125, 0.213378906250, -0.718750000000, -6.187500000000, -3.421875000000, 1491217148
0.156005859375, -1.014892578125, 0.213378906250, -0.718750000000, -6.187500000000, -3.421875000000, 1491217148
0.156005859375, -1.014892578125, 0.213378906250, -0.718750000000, -6.187500000000, -3.421875000000, 1491217148
0.156005859375, -1.014892578125, 0.213378906250, -0.718750000000, -6.187500000000, -3.421875000000, 1491217148
0.156005859375, -1.014892578125, 0.213378906250, -0.718750000000, -6.187500000000, -3.421875000000, 1491217149
0.156005859375, -1.014892578125, 0.213378906250, -0.718750000000, -6.187500000000, -3.421875000000, 1491217149
0.057373046875, -0.978271484375, 0.158691406250, -5.382812500000, -8.578125000000, -6.476562500000, 1491217149
0.057373046875, -0.978271484375, 0.158691406250, -5.382812500000, -8.578125000000, -6.476562500000, 1491217149
0.057373046875, -0.978271484375, 0.158691406250, -5.382812500000, -8.578125000000, -6.476562500000, 1491217149
0.057373046875, -0.978271484375, 0.158691406250, -5.382812500000, -8.578125000000, -6.476562500000, 1491217149
0.057373046875, -0.978271484375, 0.158691406250, -5.382812500000, -8.578125000000, -6.476562500000, 1491217149
0.057373046875, -0.978271484375, 0.158691406250, -5.382812500000, -8.578125000000, -6.476562500000, 1491217149
0.057373046875, -0.978271484375, 0.158691406250, -5.382812500000, -8.578125000000, -6.476562500000, 1491217149
0.041992187500, -0.905761718750, 0.213867187500, -3.171875000000, 0.750000000000, -4.734375000000, 1491217149
0.041992187500, -0.905761718750, 0.213867187500, -3.171875000000, 0.750000000000, -4.734375000000, 1491217149
0.041992187500, -0.905761718750, 0.213867187500, -3.171875000000, 0.750000000000, -4.734375000000, 1491217149
0.145751953125, -1.007080078125, 0.161376953125, -4.015625000000, -2.421875000000, -8.507812500000, 1491217149
0.145751953125, -1.007080078125, 0.161376953125, -4.015625000000, -2.421875000000, -8.507812500000, 1491217149
0.145751953125, -1.007080078125, 0.161376953125, -4.015625000000, -2.421875000000, -8.507812500000, 1491217149
0.072998046875, -0.867675781250, 0.212402343750, -1.976562500000, 2.382812500000, -6.554687500000, 1491217149
0.072998046875, -0.867675781250, 0.212402343750, -1.976562500000, 2.382812500000, -6.554687500000, 1491217149
0.047607421875, -1.011962890625, 0.104248046875, -1.617187500000, 1.421875000000, -8.023437500000, 1491217149
0.047607421875, -1.011962890625, 0.104248046875, -1.617187500000, 1.421875000000, -8.023437500000, 1491217149
0.047607421875, -1.011962890625, 0.104248046875, -1.617187500000, 1.421875000000, -8.023437500000, 1491217149
0.047607421875, -1.011962890625, 0.104248046875, -1.617187500000, 1.421875000000, -8.023437500000, 1491217149
0.047607421875, -1.011962890625, 0.104248046875, -1.617187500000, 1.421875000000, -8.023437500000, 1491217149
0.110595703125, -0.922119140625, 0.215332031250, 0.007812500000, 1.687500000000, -3.015625000000, 1491217149
0.110595703125, -0.922119140625, 0.215332031250, 0.007812500000, 1.687500000000, -3.015625000000, 1491217149
0.110595703125, -0.922119140625, 0.215332031250, 0.007812500000, 1.687500000000, -3.015625000000, 1491217149
0.165527343750, -0.984130859375, 0.163330078125, -4.703125000000, 4.562500000000, -3.757812500000, 1491217149
0.165527343750, -0.984130859375, 0.163330078125, -4.703125000000, 4.562500000000, -3.757812500000, 1491217149
0.165527343750, -0.984130859375, 0.163330078125, -4.703125000000, 4.562500000000, -3.757812500000, 1491217149
0.151855468750, -1.020263671875, 0.199951171875, -1.757812500000, -0.039062500000, -6.632812500000, 1491217149
0.151855468750, -1.020263671875, 0.199951171875, -1.757812500000, -0.039062500000, -6.632812500000, 1491217149
0.151855468750, -1.020263671875, 0.199951171875, -1.757812500000, -0.039062500000, -6.632812500000, 1491217149
0.077636718750, -1.029541015625, 0.151123046875, -3.578125000000, 1.281250000000, -6.578125000000, 1491217149
0.077636718750, -1.029541015625, 0.151123046875, -3.578125000000, 1.281250000000, -6.578125000000, 1491217149
0.077636718750, -1.029541015625, 0.151123046875, -3.578125000000, 1.281250000000, -6.578125000000, 1491217149
0.077636718750, -1.029541015625, 0.151123046875, -3.578125000000, 1.281250000000, -6.578125000000, 1491217149
0.105957031250, -1.023681640625, 0.183593750000, -4.718750000000, 2.398437500000, -3.375000000000, 1491217149
0.105957031250, -1.023681640625, 0.183593750000, -4.718750000000, 2.398437500000, -3.375000000000, 1491217149
0.105957031250, -1.023681640625, 0.183593750000, -4.718750000000, 2.398437500000, -3.375000000000, 1491217149
0.052978515625, -0.936523437500, 0.130615234375, -3.203125000000, 2.390625000000, -3.640625000000, 1491217149
0.052978515625, -0.936523437500, 0.130615234375, -3.203125000000, 2.390625000000, -3.640625000000, 1491217149
0.052978515625, -0.936523437500, 0.130615234375, -3.203125000000, 2.390625000000, -3.640625000000, 1491217149
0.096435546875, -0.912353515625, 0.213867187500, -1.953125000000, 0.890625000000, -3.796875000000, 1491217149
0.096435546875, -0.912353515625, 0.213867187500, -1.953125000000, 0.890625000000, -3.796875000000, 1491217149
0.096435546875, -0.912353515625, 0.213867187500, -1.953125000000, 0.890625000000, -3.796875000000, 1491217149
0.062500000000, -0.926513671875, 0.120849609375, -6.828125000000, 2.250000000000, -6.406250000000, 1491217149
0.062500000000, -0.926513671875, 0.120849609375, -6.828125000000, 2.250000000000, -6.406250000000, 1491217149
0.062500000000, -0.926513671875, 0.120849609375, -6.828125000000, 2.250000000000, -6.406250000000, 1491217149
0.062500000000, -0.926513671875, 0.120849609375, -6.828125000000, 2.250000000000, -6.406250000000, 1491217149
0.096923828125, -0.937011718750, 0.161865234375, -8.625000000000, 3.265625000000, -3.328125000000, 1491217149
0.096923828125, -0.937011718750, 0.161865234375, -8.625000000000, 3.265625000000, -3.328125000000, 1491217149
0.096923828125, -0.937011718750, 0.161865234375, -8.625000000000, 3.265625000000, -3.328125000000, 1491217149
0.096923828125, -0.937011718750, 0.161865234375, -8.625000000000, 3.265625000000, -3.328125000000, 1491217149
0.096923828125, -0.937011718750, 0.161865234375, -8.625000000000, 3.265625000000, -3.328125000000, 1491217149
0.154541015625, -1.077148437500, 0.190917968750, -7.945312500000, 1.687500000000, -6.250000000000, 1491217149
0.154541015625, -1.077148437500, 0.190917968750, -7.945312500000, 1.687500000000, -6.250000000000, 1491217149
0.154541015625, -1.077148437500, 0.190917968750, -7.945312500000, 1.687500000000, -6.250000000000, 1491217149
0.154541015625, -1.077148437500, 0.190917968750, -7.945312500000, 1.687500000000, -6.250000000000, 1491217149
0.060302734375, -1.026367187500, 0.108398437500, -12.976562500000, 0.578125000000, -4.726562500000, 1491217149
0.060302734375, -1.026367187500, 0.108398437500, -12.976562500000, 0.578125000000, -4.726562500000, 1491217149
0.060302734375, -1.026367187500, 0.108398437500, -12.976562500000, 0.578125000000, -4.726562500000, 1491217149
0.060302734375, -1.026367187500, 0.108398437500, -12.976562500000, 0.578125000000, -4.726562500000, 1491217149
0.076904296875, -1.000488281250, 0.172119140625, -11.289062500000, 4.953125000000, -5.265625000000, 1491217149
0.076904296875, -1.000488281250, 0.172119140625, -11.289062500000, 4.953125000000, -5.265625000000, 1491217149
0.076904296875, -1.000488281250, 0.172119140625, -11.289062500000, 4.953125000000, -5.265625000000, 1491217149
0.091552734375, -0.908691406250, 0.274902343750, -12.531250000000, 1.054687500000, -3.351562500000, 1491217149
0.091552734375, -0.908691406250, 0.274902343750, -12.531250000000, 1.054687500000, -3.351562500000, 1491217149
0.091552734375, -0.908691406250, 0.274902343750, -12.531250000000, 1.054687500000, -3.351562500000, 1491217149
0.155517578125, -0.980712890625, 0.210937500000, -20.085937500000, 3.734375000000, -6.765625000000, 1491217149
0.155517578125, -0.980712890625, 0.210937500000, -20.085937500000, 3.734375000000, -6.765625000000, 1491217149
0.155517578125, -0.980712890625, 0.210937500000, -20.085937500000, 3.734375000000, -6.765625000000, 1491217149
0.042968750000, -0.991943359375, 0.169677734375, -17.656250000000, 0.875000000000, -3.906250000000, 1491217150
0.042968750000, -0.991943359375, 0.169677734375, -17.656250000000, 0.875000000000, -3.906250000000, 1491217150
0.042968750000, -0.991943359375, 0.169677734375, -17.656250000000, 0.875000000000, -3.906250000000, 1491217150
0.042968750000, -0.991943359375, 0.169677734375, -17.656250000000, 0.875000000000, -3.906250000000, 1491217150
0.059082031250, -1.034179687500, 0.184570312500, -17.695312500000, -0.007812500000, -6.890625000000, 1491217150
0.059082031250, -1.034179687500, 0.184570312500, -17.695312500000, -0.007812500000, -6.890625000000, 1491217150
0.059082031250, -1.034179687500, 0.184570312500, -17.695312500000, -0.007812500000, -6.890625000000, 1491217150
0.077148437500, -0.982666015625, 0.277832031250, -22.039062500000, -2.210937500000, -8.367187500000, 1491217150
0.077148437500, -0.982666015625, 0.277832031250, -22.039062500000, -2.210937500000, -8.367187500000, 1491217150
0.077148437500, -0.982666015625, 0.277832031250, -22.039062500000, -2.210937500000, -8.367187500000, 1491217150
0.141357421875, -0.853515625000, 0.255126953125, -24.234375000000, -2.500000000000, -8.765625000000, 1491217150
0.141357421875, -0.853515625000, 0.255126953125, -24.234375000000, -2.500000000000, -8.765625000000, 1491217150
0.141357421875, -0.853515625000, 0.255126953125, -24.234375000000, -2.500000000000, -8.765625000000, 1491217150
0.135742187500, -0.906494140625, 0.197998046875, -30.656250000000, -3.875000000000, -6.710937500000, 1491217150
0.135742187500, -0.906494140625, 0.197998046875, -30.656250000000, -3.875000000000, -6.710937500000, 1491217150
0.135742187500, -0.906494140625, 0.197998046875, -30.656250000000, -3.875000000000, -6.710937500000, 1491217150
0.135742187500, -0.906494140625, 0.197998046875, -30.656250000000, -3.875000000000, -6.710937500000, 1491217150
0.089843750000, -1.008300781250, 0.213378906250, -19.421875000000, -12.335937500000, -7.500000000000, 1491217150
0.089843750000, -1.008300781250, 0.213378906250, -19.421875000000, -12.335937500000, -7.500000000000, 1491217150
0.089843750000, -1.008300781250, 0.213378906250, -19.421875000000, -12.335937500000, -7.500000000000, 1491217150
0.133056640625, -1.022216796875, 0.223876953125, -19.875000000000, -9.171875000000, -8.093750000000, 1491217150
0.133056640625, -1.022216796875, 0.223876953125, -19.875000000000, -9.171875000000, -8.093750000000, 1491217150
0.133056640625, -1.022216796875, 0.223876953125, -19.875000000000, -9.171875000000, -8.093750000000, 1491217150
0.031738281250, -0.829589843750, 0.226562500000, -21.281250000000, -7.820312500000, -6.117187500000, 1491217150
0.031738281250, -0.829589843750, 0.226562500000, -21.281250000000, -7.820312500000, -6.117187500000, 1491217150
0.031738281250, -0.829589843750, 0.226562500000, -21.281250000000, -7.820312500000, -6.117187500000, 1491217150
0.076416015625, -0.759765625000, 0.522460937500, -1.976562500000, -10.218750000000, -16.914062500000, 1491217150
0.076416015625, -0.759765625000, 0.522460937500, -1.976562500000, -10.218750000000, -16.914062500000, 1491217150
0.076416015625, -0.759765625000, 0.522460937500, -1.976562500000, -10.218750000000, -16.914062500000, 1491217150
0.076416015625, -0.759765625000, 0.522460937500, -1.976562500000, -10.218750000000, -16.914062500000, 1491217150
0.125732421875, -0.791992187500, 0.405029296875, -17.812500000000, 2.203125000000, 5.890625000000, 1491217150
0.125732421875, -0.791992187500, 0.405029296875, -17.812500000000, 2.203125000000, 5.890625000000, 1491217150
0.125732421875, -0.791992187500, 0.405029296875, -17.812500000000, 2.203125000000, 5.890625000000, 1491217150
0.191894531250, -1.112548828125, 0.695556640625, 67.406250000000, -15.218750000000, -17.523437500000, 1491217150
0.191894531250, -1.112548828125, 0.695556640625, 67.406250000000, -15.218750000000, -17.523437500000, 1491217150
0.191894531250, -1.112548828125, 0.695556640625, 67.406250000000, -15.218750000000, -17.523437500000, 1491217150
0.149169921875, -1.051269531250, 0.427246093750, 19.968750000000, 2.515625000000, 4.265625000000, 1491217150
0.149169921875, -1.051269531250, 0.427246093750, 19.968750000000, 2.515625000000, 4.265625000000, 1491217150
0.149169921875, -1.051269531250, 0.427246093750, 19.968750000000, 2.515625000000, 4.265625000000, 1491217150
0.080810546875, -1.053710937500, 0.525634765625, 20.859375000000, 13.093750000000, -7.609375000000, 1491217150
0.080810546875, -1.053710937500, 0.525634765625, 20.859375000000, 13.093750000000, -7.609375000000, 1491217150
0.080810546875, -1.053710937500, 0.525634765625, 20.859375000000, 13.093750000000, -7.609375000000, 1491217150
0.080810546875, -1.053710937500, 0.525634765625, 20.859375000000, 13.093750000000, -7.609375000000, 1491217150
0.137939453125, -0.967041015625, 0.458496093750, 52.765625000000, -3.421875000000, -7.281250000000, 1491217150
0.137939453125, -0.967041015625, 0.458496093750, 52.765625000000, -3.421875000000, -7.281250000000, 1491217150
0.137939453125, -0.967041015625, 0.458496093750, 52.765625000000, -3.421875000000, -7.281250000000, 1491217150
0.041992187500, -0.745849609375, 0.380371093750, 56.523437500000, -26.007812500000, -0.375000000000, 1491217150
0.041992187500, -0.745849609375, 0.380371093750, 56.523437500000, -26.007812500000, -0.375000000000, 1491217150
0.041992187500, -0.745849609375, 0.380371093750, 56.523437500000, -26.007812500000, -0.375000000000, 1491217150
0.048583984375, -0.791259765625, 0.112548828125, 101.406250000000, -41.281250000000, -10.421875000000, 1491217150
0.048583984375, -0.791259765625, 0.112548828125, 101.406250000000, -41.281250000000, -10.421875000000, 1491217150
0.048583984375, -0.791259765625, 0.112548828125, 101.406250000000, -41.281250000000, -10.421875000000, 1491217150
0.058593750000, -0.841796875000, 0.105957031250, 118.515625000000, -25.804687500000, -2.320312500000, 1491217150
0.058593750000, -0.841796875000, 0.105957031250, 118.515625000000, -25.804687500000, -2.320312500000, 1491217150
0.058593750000, -0.841796875000, 0.105957031250, 118.515625000000, -25.804687500000, -2.320312500000, 1491217150
0.058593750000, -0.841796875000, 0.105957031250, 118.515625000000, -25.804687500000, -2.320312500000, 1491217150
0.034912109375, -0.792968750000, 0.148925781250, 101.343750000000, 29.906250000000, 2.671875000000, 1491217150
0.034912109375, -0.792968750000, 0.148925781250, 101.343750000000, 29.906250000000, 2.671875000000, 1491217150
0.034912109375, -0.792968750000, 0.148925781250, 101.343750000000, 29.906250000000, 2.671875000000, 1491217150
0.221191406250, -1.340820312500, -0.064941406250, 26.570312500000, 70.398437500000, 13.453125000000, 1491217150
0.221191406250, -1.340820312500, -0.064941406250, 26.570312500000, 70.398437500000, 13.453125000000, 1491217150
0.221191406250, -1.340820312500, -0.064941406250, 26.570312500000, 70.398437500000, 13.453125000000, 1491217150
0.127929687500, -1.325927734375, -0.091308593750, 46.195312500000, -4.289062500000, -4.765625000000, 1491217150
0.127929687500, -1.325927734375, -0.091308593750, 46.195312500000, -4.289062500000, -4.765625000000, 1491217150
0.127929687500, -1.325927734375, -0.091308593750, 46.195312500000, -4.289062500000, -4.765625000000, 1491217150
0.124023437500, -1.403808593750, -0.017089843750, -121.585937500000, -181.046875000000, -28.671875000000, 1491217150
0.124023437500, -1.403808593750, -0.017089843750, -121.585937500000, -181.046875000000, -28.671875000000, 1491217150
0.124023437500, -1.403808593750, -0.017089843750, -121.585937500000, -181.046875000000, -28.671875000000, 1491217150
0.124023437500, -1.403808593750, -0.017089843750, -121.585937500000, -181.046875000000, -28.671875000000, 1491217150
-0.135742187500, -1.593261718750, 0.105957031250, -143.750000000000, -107.695312500000, -55.882812500000, 1491217151
-0.135742187500, -1.593261718750, 0.105957031250, -143.750000000000, -107.695312500000, -55.882812500000, 1491217151
-0.135742187500, -1.593261718750, 0.105957031250, -143.750000000000, -107.695312500000, -55.882812500000, 1491217151
-0.210693359375, -1.354003906250, 0.139404296875, -63.007812500000, 49.781250000000, 7.648437500000, 1491217151
-0.210693359375, -1.354003906250, 0.139404296875, -63.007812500000, 49.781250000000, 7.648437500000, 1491217151
-0.210693359375, -1.354003906250, 0.139404296875, -63.007812500000, 49.781250000000, 7.648437500000, 1491217151
-0.046875000000, -1.276611328125, 0.089599609375, -120.210937500000, 106.421875000000, 16.375000000000, 1491217151
-0.046875000000, -1.276611328125, 0.089599609375, -120.210937500000, 106.421875000000, 16.375000000000, 1491217151
-0.046875000000, -1.276611328125, 0.089599609375, -120.210937500000, 106.421875000000, 16.375000000000, 1491217151
0.278320312500, -1.336669921875, -0.005615234375, -105.593750000000, 110.257812500000, 31.101562500000, 1491217151
0.278320312500, -1.336669921875, -0.005615234375, -105.593750000000, 110.257812500000, 31.101562500000, 1491217151
0.278320312500, -1.336669921875, -0.005615234375, -105.593750000000, 110.257812500000, 31.101562500000, 1491217151
0.278320312500, -1.336669921875, -0.005615234375, -105.593750000000, 110.257812500000, 31.101562500000, 1491217151
0.174804687500, -1.184082031250, 0.024902343750, -51.781250000000, 84.257812500000, 13.117187500000, 1491217151
0.174804687500, -1.184082031250, 0.024902343750, -51.781250000000, 84.257812500000, 13.117187500000, 1491217151
0.042480468750, -1.201416015625, -0.040771484375, -81.859375000000, -53.007812500000, -64.101562500000, 1491217151
0.042480468750, -1.201416015625, -0.040771484375, -81.859375000000, -53.007812500000, -64.101562500000, 1491217151
0.042480468750, -1.201416015625, -0.040771484375, -81.859375000000, -53.007812500000, -64.101562500000, 1491217151
0.042480468750, -1.201416015625, -0.040771484375, -81.859375000000, -53.007812500000, -64.101562500000, 1491217151
0.010742187500, -0.987792968750, 0.145996093750, -3.585937500000, -34.781250000000, -44.335937500000, 1491217151
-0.075439453125, -0.984619140625, 0.194091796875, -3.585937500000, -34.781250000000, -44.335937500000, 1491217151
-0.075439453125, -0.984619140625, 0.194091796875, -3.585937500000, -34.781250000000, -44.335937500000, 1491217151
-0.131103515625, -0.961669921875, -0.010498046875, 47.890625000000, 19.085937500000, -15.664062500000, 1491217151
-0.062988281250, -0.921630859375, 0.033935546875, 51.929687500000, 48.234375000000, 13.312500000000, 1491217151
-0.062988281250, -0.921630859375, 0.033935546875, 51.929687500000, 48.234375000000, 13.312500000000, 1491217151
-0.062988281250, -0.921630859375, 0.033935546875, 51.929687500000, 48.234375000000, 13.312500000000, 1491217151
-0.062988281250, -0.921630859375, 0.033935546875, 51.929687500000, 48.234375000000, 13.312500000000, 1491217151
-0.062988281250, -0.921630859375, 0.033935546875, 51.929687500000, 48.234375000000, 13.312500000000, 1491217151
0.130126953125, -1.000976562500, 0.081298828125, 38.414062500000, 105.171875000000, 57.789062500000, 1491217151
0.130126953125, -1.000976562500, 0.081298828125, 38.414062500000, 105.171875000000, 57.789062500000, 1491217151
0.130126953125, -1.000976562500, 0.081298828125, 38.414062500000, 105.171875000000, 57.789062500000, 1491217151
0.130126953125, -1.000976562500, 0.081298828125, 38.414062500000, 105.171875000000, 57.789062500000, 1491217151
0.217285156250, -0.873779296875, 0.035400390625, 77.109375000000, 94.921875000000, 50.500000000000, 1491217151
0.217285156250, -0.873779296875, 0.035400390625, 77.109375000000, 94.921875000000, 50.500000000000, 1491217151
0.217285156250, -0.873779296875, 0.035400390625, 77.109375000000, 94.921875000000, 50.500000000000, 1491217151
0.176269531250, -0.783691406250, 0.030517578125, 73.984375000000, 34.578125000000, 3.843750000000, 1491217151
0.176269531250, -0.783691406250, 0.030517578125, 73.984375000000, 34.578125000000, 3.843750000000, 1491217151
0.176269531250, -0.783691406250, 0.030517578125, 73.984375000000, 34.578125000000, 3.843750000000, 1491217151
0.176269531250, -0.783691406250, 0.030517578125, 73.984375000000, 34.578125000000, 3.843750000000, 1491217151
-0.091064453125, -0.850097656250, 0.014648437500, 14.609375000000, -46.164062500000, -26.765625000000, 1491217151
-0.091064453125, -0.850097656250, 0.014648437500, 14.609375000000, -46.164062500000, -26.765625000000, 1491217151
-0.091064453125, -0.850097656250, 0.014648437500, 14.609375000000, -46.164062500000, -26.765625000000, 1491217151
-0.132568359375, -0.672119140625, -0.013916015625, 18.289062500000, -136.265625000000, -22.171875000000, 1491217151
-0.132568359375, -0.672119140625, -0.013916015625, 18.289062500000, -136.265625000000, -22.171875000000, 1491217151
-0.132568359375, -0.672119140625, -0.013916015625, 18.289062500000, -136.265625000000, -22.171875000000, 1491217151
0.107666015625, -0.738525390625, 0.644775390625, 192.382812500000, -165.468750000000, 28.109375000000, 1491217151
0.107666015625, -0.738525390625, 0.644775390625, 192.382812500000, -165.468750000000, 28.109375000000, 1491217151
0.107666015625, -0.738525390625, 0.644775390625, 192.382812500000, -165.468750000000, 28.109375000000, 1491217151
0.006835937500, -0.755371093750, 0.528320312500, -40.976562500000, 146.359375000000, 5.289062500000, 1491217151
0.006835937500, -0.755371093750, 0.528320312500, -40.976562500000, 146.359375000000, 5.289062500000, 1491217151
0.006835937500, -0.755371093750, 0.528320312500, -40.976562500000, 146.359375000000, 5.289062500000, 1491217151
0.006835937500, -0.755371093750, 0.528320312500, -40.976562500000, 146.359375000000, 5.289062500000, 1491217151
0.158447265625, -0.862792968750, 0.144531250000, -256.000000000000, 85.546875000000, -30.625000000000, 1491217151
0.158447265625, -0.862792968750, 0.144531250000, -256.000000000000, 85.546875000000, -30.625000000000, 1491217151
0.158447265625, -0.862792968750, 0.144531250000, -256.000000000000, 85.546875000000, -30.625000000000, 1491217151
0.099365234375, -0.789306640625, -0.081298828125, -209.367187500000, -10.015625000000, 8.210937500000, 1491217151
0.099365234375, -0.789306640625, -0.081298828125, -209.367187500000, -10.015625000000, 8.210937500000, 1491217151
0.099365234375, -0.789306640625, -0.081298828125, -209.367187500000, -10.015625000000, 8.210937500000, 1491217151
0.004882812500, -0.766357421875, 0.127685546875, -118.828125000000, -115.359375000000, -36.085937500000, 1491217151
0.004882812500, -0.766357421875, 0.127685546875, -118.828125000000, -115.359375000000, -36.085937500000, 1491217151
0.004882812500, -0.766357421875, 0.127685546875, -118.828125000000, -115.359375000000, -36.085937500000, 1491217151
0.269287109375, -0.739990234375, 0.216308593750, 82.273437500000, 185.765625000000, -13.007812500000, 1491217151
0.269287109375, -0.739990234375, 0.216308593750, 82.273437500000, 185.765625000000, -13.007812500000, 1491217151
0.269287109375, -0.739990234375, 0.216308593750, 82.273437500000, 185.765625000000, -13.007812500000, 1491217151
0.269287109375, -0.739990234375, 0.216308593750, 82.273437500000, 185.765625000000, -13.007812500000, 1491217151
0.173828125000, -0.862792968750, 0.582763671875, -75.023437500000, -18.203125000000, -31.007812500000, 1491217152
0.173828125000, -0.862792968750, 0.582763671875, -75.023437500000, -18.203125000000, -31.007812500000, 1491217152
0.173828125000, -0.862792968750, 0.582763671875, -75.023437500000, -18.203125000000, -31.007812500000, 1491217152
-0.040283203125, -0.881835937500, 0.271972656250, -62.726562500000, 10.343750000000, 5.679687500000, 1491217152
-0.040283203125, -0.881835937500, 0.271972656250, -62.726562500000, 10.343750000000, 5.679687500000, 1491217152
-0.040283203125, -0.881835937500, 0.271972656250, -62.726562500000, 10.343750000000, 5.679687500000, 1491217152
-0.067871093750, -0.817138671875, 0.427734375000, 24.039062500000, -23.578125000000, -19.820312500000, 1491217152
-0.067871093750, -0.817138671875, 0.427734375000, 24.039062500000, -23.578125000000, -19.820312500000, 1491217152
-0.010986328125, -0.743652343750, 0.570312500000, -25.914062500000, 1.835937500000, -3.296875000000, 1491217152
-0.010986328125, -0.743652343750, 0.570312500000, -25.914062500000, 1.835937500000, -3.296875000000, 1491217152
-0.010986328125, -0.743652343750, 0.570312500000, -25.914062500000, 1.835937500000, -3.296875000000, 1491217152
-0.010986328125, -0.743652343750, 0.570312500000, -25.914062500000, 1.835937500000, -3.296875000000, 1491217152
-0.010986328125, -0.743652343750, 0.570312500000, -25.914062500000, 1.835937500000, -3.296875000000, 1491217152
0.140136718750, -0.879638671875, 0.580810546875, -9.367187500000, 8.882812500000, 0.437500000000, 1491217152
0.140136718750, -0.879638671875, 0.580810546875, -9.367187500000, 8.882812500000, 0.437500000000, 1491217152
0.140136718750, -0.879638671875, 0.580810546875, -9.367187500000, 8.882812500000, 0.437500000000, 1491217152
0.026367187500, -0.804687500000, 0.583251953125, -18.687500000000, 11.625000000000, 0.468750000000, 1491217152
0.026367187500, -0.804687500000, 0.583251953125, -18.687500000000, 11.625000000000, 0.468750000000, 1491217152
0.026367187500, -0.804687500000, 0.583251953125, -18.687500000000, 11.625000000000, 0.468750000000, 1491217152
-0.031005859375, -0.898193359375, 0.358398437500, -18.890625000000, 11.554687500000, -2.585937500000, 1491217152
-0.031005859375, -0.898193359375, 0.358398437500, -18.890625000000, 11.554687500000, -2.585937500000, 1491217152
0.073730468750, -0.877197265625, 0.486572265625, -1.195312500000, 6.664062500000, -3.914062500000, 1491217152
0.073730468750, -0.877197265625, 0.486572265625, -1.195312500000, 6.664062500000, -3.914062500000, 1491217152
0.073730468750, -0.877197265625, 0.486572265625, -1.195312500000, 6.664062500000, -3.914062500000, 1491217152
0.073730468750, -0.877197265625, 0.486572265625, -1.195312500000, 6.664062500000, -3.914062500000, 1491217152
0.073730468750, -0.877197265625, 0.486572265625, -1.195312500000, 6.664062500000, -3.914062500000, 1491217152
0.136718750000, -0.795654296875, 0.542724609375, -0.625000000000, 7.992187500000, -6.062500000000, 1491217152
0.136718750000, -0.795654296875, 0.542724609375, -0.625000000000, 7.992187500000, -6.062500000000, 1491217152
0.136718750000, -0.795654296875, 0.542724609375, -0.625000000000, 7.992187500000, -6.062500000000, 1491217152
0.088623046875, -0.794433593750, 0.491210937500, -3.000000000000, 7.546875000000, 0.531250000000, 1491217152
0.088623046875, -0.794433593750, 0.491210937500, -3.000000000000, 7.546875000000, 0.531250000000, 1491217152
0.088623046875, -0.794433593750, 0.491210937500, -3.000000000000, 7.546875000000, 0.531250000000, 1491217152
-0.021972656250, -0.877929687500, 0.532714843750, 2.195312500000, 7.179687500000, 2.828125000000, 1491217152
-0.021972656250, -0.877929687500, 0.532714843750, 2.195312500000, 7.179687500000, 2.828125000000, 1491217152
-0.064453125000, -0.805908203125, 0.470214843750, 9.117187500000, 1.343750000000, -3.367187500000, 1491217152
-0.064453125000, -0.805908203125, 0.470214843750, 9.117187500000, 1.343750000000, -3.367187500000, 1491217152
-0.064453125000, -0.805908203125, 0.470214843750, 9.117187500000, 1.343750000000, -3.367187500000, 1491217152
-0.064453125000, -0.805908203125, 0.470214843750, 9.117187500000, 1.343750000000, -3.367187500000, 1491217152
-0.064453125000, -0.805908203125, 0.470214843750, 9.117187500000, 1.343750000000, -3.367187500000, 1491217152
0.062988281250, -0.892089843750, 0.424560546875, 7.453125000000, 6.742187500000, -4.812500000000, 1491217152
0.062988281250, -0.892089843750, 0.424560546875, 7.453125000000, 6.742187500000, -4.812500000000, 1491217152
0.062988281250, -0.892089843750, 0.424560546875, 7.453125000000, 6.742187500000, -4.812500000000, 1491217152
0.025390625000, -0.863769531250, 0.449707031250, 10.140625000000, 7.328125000000, -2.632812500000, 1491217152
0.040771484375, -0.958496093750, 0.521484375000, 6.273437500000, 8.429687500000, -4.281250000000, 1491217152
0.040771484375, -0.958496093750, 0.521484375000, 6.273437500000, 8.429687500000, -4.281250000000, 1491217152
0.040771484375, -0.958496093750, 0.521484375000, 6.273437500000, 8.429687500000, -4.281250000000, 1491217152
0.040771484375, -0.958496093750, 0.521484375000, 6.273437500000, 8.429687500000, -4.281250000000, 1491217152
-0.009765625000, -0.862792968750, 0.406494140625, 4.820312500000, 6.734375000000, -3.156250000000, 1491217152
-0.009765625000, -0.862792968750, 0.406494140625, 4.820312500000, 6.734375000000, -3.156250000000, 1491217152
-0.009765625000, -0.862792968750, 0.406494140625, 4.820312500000, 6.734375000000, -3.156250000000, 1491217152
0.055664062500, -0.863037109375, 0.522949218750, -2.500000000000, 8.078125000000, -2.312500000000, 1491217152
0.029052734375, -0.851074218750, 0.514648437500, -2.500000000000, 8.078125000000, -2.312500000000, 1491217152
0.029052734375, -0.851074218750, 0.514648437500, -2.500000000000, 8.078125000000, -2.312500000000, 1491217152
0.029052734375, -0.851074218750, 0.514648437500, -2.500000000000, 8.078125000000, -2.312500000000, 1491217152
0.126708984375, -1.003417968750, 0.446044921875, -4.023437500000, 7.171875000000, 0.289062500000, 1491217152
-0.017822265625, -0.848632812500, 0.462890625000, -0.554687500000, 3.250000000000, -4.578125000000, 1491217152
-0.017822265625, -0.848632812500, 0.462890625000, -0.554687500000, 3.250000000000, -4.578125000000, 1491217152
-0.017822265625, -0.848632812500, 0.462890625000, -0.554687500000, 3.250000000000, -4.578125000000, 1491217152
0.004882812500, -0.953857421875, 0.460937500000, -0.398437500000, 4.109375000000, -6.140625000000, 1491217152
0.004882812500, -0.953857421875, 0.460937500000, -0.398437500000, 4.109375000000, -6.140625000000, 1491217152
0.004882812500, -0.953857421875, 0.460937500000, -0.398437500000, 4.109375000000, -6.140625000000, 1491217152
-0.017089843750, -0.942871093750, 0.434326171875, -4.578125000000, 3.921875000000, -3.031250000000, 1491217152
-0.017089843750, -0.942871093750, 0.434326171875, -4.578125000000, 3.921875000000, -3.031250000000, 1491217152
-0.017089843750, -0.942871093750, 0.434326171875, -4.578125000000, 3.921875000000, -3.031250000000, 1491217152
-0.017089843750, -0.942871093750, 0.434326171875, -4.578125000000, 3.921875000000, -3.031250000000, 1491217152
0.010498046875, -0.936279296875, 0.417236328125, -5.523437500000, 4.437500000000, -3.937500000000, 1491217152
0.010498046875, -0.936279296875, 0.417236328125, -5.523437500000, 4.437500000000, -3.937500000000, 1491217152
0.010498046875, -0.936279296875, 0.417236328125, -5.523437500000, 4.437500000000, -3.937500000000, 1491217152
0.022460937500, -0.873779296875, 0.408691406250, -1.687500000000, -0.828125000000, -7.781250000000, 1491217153
0.022460937500, -0.873779296875, 0.408691406250, -1.687500000000, -0.828125000000, -7.781250000000, 1491217153
0.022460937500, -0.873779296875, 0.408691406250, -1.687500000000, -0.828125000000, -7.781250000000, 1491217153
-0.068359375000, -0.846191406250, 0.417724609375, -9.976562500000, -2.109375000000, -8.320312500000, 1491217153
-0.068359375000, -0.846191406250, 0.417724609375, -9.976562500000, -2.109375000000, -8.320312500000, 1491217153
-0.068359375000, -0.846191406250, 0.417724609375, -9.976562500000, -2.109375000000, -8.320312500000, 1491217153
-0.068359375000, -0.846191406250, 0.417724609375, -9.976562500000, -2.109375000000, -8.320312500000, 1491217153
0.000244140625, -0.949707031250, 0.515380859375, -1.468750000000, -5.976562500000, -5.945312500000, 1491217153
0.000244140625, -0.949707031250, 0.515380859375, -1.468750000000, -5.976562500000, -5.945312500000, 1491217153
0.000244140625, -0.949707031250, 0.515380859375, -1.468750000000, -5.976562500000, -5.945312500000, 1491217153
0.000244140625, -0.949707031250, 0.515380859375, -1.468750000000, -5.976562500000, -5.945312500000, 1491217153
-0.030517578125, -0.842529296875, 0.435546875000, -4.695312500000, -6.875000000000, -7.617187500000, 1491217153
-0.005615234375, -0.850830078125, 0.515136718750, -1.171875000000, -6.640625000000, -8.773437500000, 1491217153
-0.005615234375, -0.850830078125, 0.515136718750, -1.171875000000, -6.640625000000, -8.773437500000, 1491217153
-0.005615234375, -0.850830078125, 0.515136718750, -1.171875000000, -6.640625000000, -8.773437500000, 1491217153
-0.005615234375, -0.850830078125, 0.515136718750, -1.171875000000, -6.640625000000, -8.773437500000, 1491217153
0.024169921875, -0.832763671875, 0.510009765625, -4.046875000000, -7.031250000000, -8.562500000000, 1491217153
0.024169921875, -0.832763671875, 0.510009765625, -4.046875000000, -7.031250000000, -8.562500000000, 1491217153
0.024169921875, -0.832763671875, 0.510009765625, -4.046875000000, -7.031250000000, -8.562500000000, 1491217153
0.027343750000, -0.830810546875, 0.514648437500, -4.906250000000, -6.539062500000, -5.203125000000, 1491217153
0.027343750000, -0.830810546875, 0.514648437500, -4.906250000000, -6.539062500000, -5.203125000000, 1491217153
0.027343750000, -0.830810546875, 0.514648437500, -4.906250000000, -6.539062500000, -5.203125000000, 1491217153
0.027343750000, -0.830810546875, 0.514648437500, -4.906250000000, -6.539062500000, -5.203125000000, 1491217153
-0.008789062500, -0.844970703125, 0.466796875000, -0.687500000000, -5.351562500000, -3.351562500000, 1491217153
-0.008789062500, -0.844970703125, 0.466796875000, -0.687500000000, -5.351562500000, -3.351562500000, 1491217153
-0.008789062500, -0.844970703125, 0.466796875000, -0.687500000000, -5.351562500000, -3.351562500000, 1491217153
-0.022460937500, -0.947021484375, 0.470703125000, -1.992187500000, -2.382812500000, -4.351562500000, 1491217153
-0.022460937500, -0.947021484375, 0.470703125000, -1.992187500000, -2.382812500000, -4.351562500000, 1491217153
-0.022460937500, -0.947021484375, 0.470703125000, -1.992187500000, -2.382812500000, -4.351562500000, 1491217153
0.047607421875, -0.897705078125, 0.526611328125, -0.164062500000, -4.843750000000, -6.500000000000, 1491217153
0.047607421875, -0.897705078125, 0.526611328125, -0.164062500000, -4.843750000000, -6.500000000000, 1491217153
0.047607421875, -0.897705078125, 0.526611328125, -0.164062500000, -4.843750000000, -6.500000000000, 1491217153
0.023925781250, -0.947998046875, 0.462646484375, 2.617187500000, -2.906250000000, -4.695312500000, 1491217153
0.023925781250, -0.947998046875, 0.462646484375, 2.617187500000, -2.906250000000, -4.695312500000, 1491217153
0.023925781250, -0.947998046875, 0.462646484375, 2.617187500000, -2.906250000000, -4.695312500000, 1491217153
0.023925781250, -0.947998046875, 0.462646484375, 2.617187500000, -2.906250000000, -4.695312500000, 1491217153
-0.017578125000, -0.860595703125, 0.413330078125, 0.953125000000, 0.460937500000, -3.664062500000, 1491217153
-0.017578125000, -0.860595703125, 0.413330078125, 0.953125000000, 0.460937500000, -3.664062500000, 1491217153
-0.017578125000, -0.860595703125, 0.413330078125, 0.953125000000, 0.460937500000, -3.664062500000, 1491217153
0.071777343750, -0.878906250000, 0.461425781250, 2.062500000000, 1.554687500000, -3.625000000000, 1491217153
0.071777343750, -0.878906250000, 0.461425781250, 2.062500000000, 1.554687500000, -3.625000000000, 1491217153
0.071777343750, -0.878906250000, 0.461425781250, 2.062500000000, 1.554687500000, -3.625000000000, 1491217153
0.081298828125, -0.882324218750, 0.412109375000, 6.460937500000, 2.617187500000, -1.648437500000, 1491217153
0.081298828125, -0.882324218750, 0.412109375000, 6.460937500000, 2.617187500000, -1.648437500000, 1491217153
0.081298828125, -0.882324218750, 0.412109375000, 6.460937500000, 2.617187500000, -1.648437500000, 1491217153
-0.025146484375, -0.954345703125, 0.367675781250, 3.382812500000, 4.718750000000, -3.890625000000, 1491217153
-0.025146484375, -0.954345703125, 0.367675781250, 3.382812500000, 4.718750000000, -3.890625000000, 1491217153
-0.025146484375, -0.954345703125, 0.367675781250, 3.382812500000, 4.718750000000, -3.890625000000, 1491217153
-0.025146484375, -0.954345703125, 0.367675781250, 3.382812500000, 4.718750000000, -3.890625000000, 1491217153
