ACC_X,ACC_Y,ACC_Z,G_X,G_Y,G_Z,Unix Time
0.346679687500, -0.948730468750, 0.144287109375, -1.632812500000, 4.007812500000, -4.507812500000, 1491217090
0.346679687500, -0.948730468750, 0.144287109375, -1.632812500000, 4.007812500000, -4.507812500000, 1491217090
0.346679687500, -0.948730468750, 0.144287109375, -1.632812500000, 4.007812500000, -4.507812500000, 1491217091
0.223632812500, -0.867675781250, 0.143066406250, -3.117187500000, 0.234375000000, -4.265625000000, 1491217091
0.223632812500, -0.867675781250, 0.143066406250, -3.117187500000, 0.234375000000, -4.265625000000, 1491217091
0.223632812500, -0.867675781250, 0.143066406250, -3.117187500000, 0.234375000000, -4.265625000000, 1491217091
0.223632812500, -0.867675781250, 0.143066406250, -3.117187500000, 0.234375000000, -4.265625000000, 1491217091
0.396240234375, -0.922119140625, 0.139160156250, -3.195312500000, 2.398437500000, -6.257812500000, 1491217091
0.396240234375, -0.922119140625, 0.139160156250, -3.195312500000, 2.398437500000, -6.257812500000, 1491217091
0.396240234375, -0.922119140625, 0.139160156250, -3.195312500000, 2.398437500000, -6.257812500000, 1491217091
0.288574218750, -0.874267578125, 0.147705078125, -5.671875000000, 1.437500000000, -3.320312500000, 1491217091
0.288574218750, -0.874267578125, 0.147705078125, -5.671875000000, 1.437500000000, -3.320312500000, 1491217091
0.288574218750, -0.874267578125, 0.147705078125, -5.671875000000, 1.437500000000, -3.320312500000, 1491217091
0.303222656250, -0.912109375000, 0.130615234375, -1.546875000000, 2.914062500000, -3.640625000000, 1491217091
0.303222656250, -0.912109375000, 0.130615234375, -1.546875000000, 2.914062500000, -3.640625000000, 1491217091
0.356201171875, -0.908203125000, 0.152099609375, -5.140625000000, -2.015625000000, -3.648437500000, 1491217091
0.356201171875, -0.908203125000, 0.152099609375, -5.140625000000, -2.015625000000, -3.648437500000, 1491217091
0.356201171875, -0.908203125000, 0.152099609375, -5.140625000000, -2.015625000000, -3.648437500000, 1491217091
0.356201171875, -0.908203125000, 0.152099609375, -5.140625000000, -2.015625000000, -3.648437500000, 1491217091
0.356201171875, -0.908203125000, 0.152099609375, -5.140625000000, -2.015625000000, -3.648437500000, 1491217091
0.394042968750, -0.860351562500, 0.107910156250, -4.976562500000, 0.296875000000, -3.117187500000, 1491217091
0.394042968750, -0.860351562500, 0.107910156250, -4.976562500000, 0.296875000000, -3.117187500000, 1491217091
0.394042968750, -0.860351562500, 0.107910156250, -4.976562500000, 0.296875000000, -3.117187500000, 1491217091
0.386230468750, -0.927490234375, 0.098876953125, -1.125000000000, 1.476562500000, -4.304687500000, 1491217091
0.386230468750, -0.927490234375, 0.098876953125, -1.125000000000, 1.476562500000, -4.304687500000, 1491217091
0.367919921875, -0.844970703125, 0.059082031250, -4.453125000000, -2.031250000000, -6.960937500000, 1491217091
0.367919921875, -0.844970703125, 0.059082031250, -4.453125000000, -2.031250000000, -6.960937500000, 1491217091
0.367919921875, -0.844970703125, 0.059082031250, -4.453125000000, -2.031250000000, -6.960937500000, 1491217091
0.367919921875, -0.844970703125, 0.059082031250, -4.453125000000, -2.031250000000, -6.960937500000, 1491217091
0.367919921875, -0.844970703125, 0.059082031250, -4.453125000000, -2.031250000000, -6.960937500000, 1491217091
0.245605468750, -0.925537109375, 0.093017578125, -3.351562500000, -2.593750000000, -3.390625000000, 1491217091
0.245605468750, -0.925537109375, 0.093017578125, -3.351562500000, -2.593750000000, -3.390625000000, 1491217091
0.245605468750, -0.925537109375, 0.093017578125, -3.351562500000, -2.593750000000, -3.390625000000, 1491217091
0.377197265625, -0.918945312500, 0.140625000000, -4.554687500000, 0.187500000000, -4.031250000000, 1491217091
0.377197265625, -0.918945312500, 0.140625000000, -4.554687500000, 0.187500000000, -4.031250000000, 1491217091
0.377197265625, -0.918945312500, 0.140625000000, -4.554687500000, 0.187500000000, -4.031250000000, 1491217091
0.391601562500, -0.848632812500, 0.121093750000, -4.992187500000, 0.031250000000, -3.453125000000, 1491217091
0.391601562500, -0.848632812500, 0.121093750000, -4.992187500000, 0.031250000000, -3.453125000000, 1491217091
0.391601562500, -0.848632812500, 0.121093750000, -4.992187500000, 0.031250000000, -3.453125000000, 1491217091
0.298339843750, -0.952880859375, 0.131347656250, -4.460937500000, -0.867187500000, -1.820312500000, 1491217091
0.298339843750, -0.952880859375, 0.131347656250, -4.460937500000, -0.867187500000, -1.820312500000, 1491217091
0.298339843750, -0.952880859375, 0.131347656250, -4.460937500000, -0.867187500000, -1.820312500000, 1491217091
0.298339843750, -0.952880859375, 0.131347656250, -4.460937500000, -0.867187500000, -1.820312500000, 1491217091
0.286865234375, -0.864501953125, 0.196044921875, -4.156250000000, -1.296875000000, -4.078125000000, 1491217091
0.286865234375, -0.864501953125, 0.196044921875, -4.156250000000, -1.296875000000, -4.078125000000, 1491217091
0.286865234375, -0.864501953125, 0.196044921875, -4.156250000000, -1.296875000000, -4.078125000000, 1491217091
0.246337890625, -0.901611328125, 0.099365234375, -4.937500000000, 0.234375000000, -2.546875000000, 1491217091
0.246337890625, -0.901611328125, 0.099365234375, -4.937500000000, 0.234375000000, -2.546875000000, 1491217091
0.246337890625, -0.901611328125, 0.099365234375, -4.937500000000, 0.234375000000, -2.546875000000, 1491217091
0.334472656250, -0.932373046875, 0.148193359375, -3.492187500000, 0.164062500000, -1.445312500000, 1491217091
0.334472656250, -0.932373046875, 0.148193359375, -3.492187500000, 0.164062500000, -1.445312500000, 1491217091
0.334472656250, -0.932373046875, 0.148193359375, -3.492187500000, 0.164062500000, -1.445312500000, 1491217091
0.383544921875, -0.956787109375, 0.057128906250, -4.492187500000, -2.968750000000, -1.929687500000, 1491217091
0.332519531250, -0.920898437500, 0.103027343750, -5.000000000000, 0.617187500000, -3.203125000000, 1491217091
0.332519531250, -0.920898437500, 0.103027343750, -5.000000000000, 0.617187500000, -3.203125000000, 1491217091
0.332519531250, -0.920898437500, 0.103027343750, -5.000000000000, 0.617187500000, -3.203125000000, 1491217091
0.332519531250, -0.920898437500, 0.103027343750, -5.000000000000, 0.617187500000, -3.203125000000, 1491217091
0.332519531250, -0.920898437500, 0.103027343750, -5.000000000000, 0.617187500000, -3.203125000000, 1491217091
0.315917968750, -0.920410156250, 0.047607421875, -4.445312500000, 0.734375000000, -1.671875000000, 1491217091
0.315917968750, -0.920410156250, 0.047607421875, -4.445312500000, 0.734375000000, -1.671875000000, 1491217091
0.315917968750, -0.920410156250, 0.047607421875, -4.445312500000, 0.734375000000, -1.671875000000, 1491217091
0.315917968750, -0.920410156250, 0.047607421875, -4.445312500000, 0.734375000000, -1.671875000000, 1491217091
0.284179687500, -0.873779296875, -0.009277343750, -1.820312500000, 0.562500000000, -1.742187500000, 1491217091
0.284179687500, -0.873779296875, -0.009277343750, -1.820312500000, 0.562500000000, -1.742187500000, 1491217091
0.284179687500, -0.873779296875, -0.009277343750, -1.820312500000, 0.562500000000, -1.742187500000, 1491217091
0.283203125000, -0.943847656250, 0.150390625000, -4.148437500000, -0.015625000000, -1.492187500000, 1491217091
0.283203125000, -0.943847656250, 0.150390625000, -4.148437500000, -0.015625000000, -1.492187500000, 1491217091
0.283203125000, -0.943847656250, 0.150390625000, -4.148437500000, -0.015625000000, -1.492187500000, 1491217091
0.283203125000, -0.943847656250, 0.150390625000, -4.148437500000, -0.015625000000, -1.492187500000, 1491217091
0.320068359375, -0.938232421875, 0.149169921875, -1.992187500000, -0.875000000000, -1.406250000000, 1491217091
0.320068359375, -0.938232421875, 0.149169921875, -1.992187500000, -0.875000000000, -1.406250000000, 1491217092
0.320068359375, -0.938232421875, 0.149169921875, -1.992187500000, -0.875000000000, -1.406250000000, 1491217092
0.391845703125, -0.907958984375, 0.033203125000, -6.546875000000, 0.929687500000, -3.953125000000, 1491217092
0.391845703125, -0.907958984375, 0.033203125000, -6.546875000000, 0.929687500000, -3.953125000000, 1491217092
0.391845703125, -0.907958984375, 0.033203125000, -6.546875000000, 0.929687500000, -3.953125000000, 1491217092
0.333984375000, -0.942382812500, 0.131103515625, -1.820312500000, 2.992187500000, -3.218750000000, 1491217092
0.333984375000, -0.942382812500, 0.131103515625, -1.820312500000, 2.992187500000, -3.218750000000, 1491217092
0.333984375000, -0.942382812500, 0.131103515625, -1.820312500000, 2.992187500000, -3.218750000000, 1491217092
0.375244140625, -0.961669921875, 0.110595703125, -1.757812500000, -0.015625000000, -6.164062500000, 1491217092
0.375244140625, -0.961669921875, 0.110595703125, -1.757812500000, -0.015625000000, -6.164062500000, 1491217092
0.375244140625, -0.961669921875, 0.110595703125, -1.757812500000, -0.015625000000, -6.164062500000, 1491217092
0.375244140625, -0.961669921875, 0.110595703125, -1.757812500000, -0.015625000000, -6.164062500000, 1491217092
0.335205078125, -0.955810546875, 0.191894531250, -1.429687500000, 4.820312500000, -3.921875000000, 1491217092
0.335205078125, -0.955810546875, 0.191894531250, -1.429687500000, 4.820312500000, -3.921875000000, 1491217092
0.335205078125, -0.955810546875, 0.191894531250, -1.429687500000, 4.820312500000, -3.921875000000, 1491217092
0.375976562500, -0.844970703125, 0.093994140625, -3.609375000000, 2.226562500000, -2.359375000000, 1491217092
0.375976562500, -0.844970703125, 0.093994140625, -3.609375000000, 2.226562500000, -2.359375000000, 1491217092
0.375976562500, -0.844970703125, 0.093994140625, -3.609375000000, 2.226562500000, -2.359375000000, 1491217092
0.440429687500, -0.956298828125, 0.104492187500, -4.804687500000, 1.882812500000, -3.125000000000, 1491217092
0.440429687500, -0.956298828125, 0.104492187500, -4.804687500000, 1.882812500000, -3.125000000000, 1491217092
0.440429687500, -0.956298828125, 0.104492187500, -4.804687500000, 1.882812500000, -3.125000000000, 1491217092
0.309326171875, -0.879638671875, 0.034912109375, -4.210937500000, 2.507812500000, -3.453125000000, 1491217092
0.309326171875, -0.879638671875, 0.034912109375, -4.210937500000, 2.507812500000, -3.453125000000, 1491217092
0.309326171875, -0.879638671875, 0.034912109375, -4.210937500000, 2.507812500000, -3.453125000000, 1491217092
0.309326171875, -0.879638671875, 0.034912109375, -4.210937500000, 2.507812500000, -3.453125000000, 1491217092
0.329589843750, -0.939208984375, 0.102050781250, -3.203125000000, -0.437500000000, -4.671875000000, 1491217092
0.329589843750, -0.939208984375, 0.102050781250, -3.203125000000, -0.437500000000, -4.671875000000, 1491217092
0.329589843750, -0.939208984375, 0.102050781250, -3.203125000000, -0.437500000000, -4.671875000000, 1491217092
0.466064453125, -0.951171875000, 0.083007812500, -4.742187500000, 0.890625000000, -2.609375000000, 1491217092
0.466064453125, -0.951171875000, 0.083007812500, -4.742187500000, 0.890625000000, -2.609375000000, 1491217092
0.466064453125, -0.951171875000, 0.083007812500, -4.742187500000, 0.890625000000, -2.609375000000, 1491217092
0.371337890625, -0.873046875000, 0.056884765625, -6.390625000000, -0.703125000000, -3.429687500000, 1491217092
0.371337890625, -0.873046875000, 0.056884765625, -6.390625000000, -0.703125000000, -3.429687500000, 1491217092
0.371337890625, -0.873046875000, 0.056884765625, -6.390625000000, -0.703125000000, -3.429687500000, 1491217092
0.393798828125, -0.866943359375, 0.143066406250, -8.984375000000, -1.523437500000, -4.046875000000, 1491217092
0.393798828125, -0.866943359375, 0.143066406250, -8.984375000000, -1.523437500000, -4.046875000000, 1491217092
0.393798828125, -0.866943359375, 0.143066406250, -8.984375000000, -1.523437500000, -4.046875000000, 1491217092
0.393798828125, -0.866943359375, 0.143066406250, -8.984375000000, -1.523437500000, -4.046875000000, 1491217092
0.241455078125, -0.870849609375, 0.036132812500, -7.640625000000, 2.507812500000, -5.460937500000, 1491217092
0.241455078125, -0.870849609375, 0.036132812500, -7.640625000000, 2.507812500000, -5.460937500000, 1491217092
0.241455078125, -0.870849609375, 0.036132812500, -7.640625000000, 2.507812500000, -5.460937500000, 1491217092
0.303466796875, -0.906982421875, 0.056884765625, -13.742187500000, 1.679687500000, -4.906250000000, 1491217092
0.303466796875, -0.906982421875, 0.056884765625, -13.742187500000, 1.679687500000, -4.906250000000, 1491217092
0.303466796875, -0.906982421875, 0.056884765625, -13.742187500000, 1.679687500000, -4.906250000000, 1491217092
0.294189453125, -0.909423828125, 0.062500000000, -12.320312500000, -0.015625000000, -7.125000000000, 1491217092
0.294189453125, -0.909423828125, 0.062500000000, -12.320312500000, -0.015625000000, -7.125000000000, 1491217092
0.294189453125, -0.909423828125, 0.062500000000, -12.320312500000, -0.015625000000, -7.125000000000, 1491217092
0.344482421875, -0.923095703125, 0.032714843750, -14.609375000000, 1.109375000000, -4.929687500000, 1491217092
0.253173828125, -0.943603515625, 0.056152343750, -16.773437500000, 5.632812500000, -4.320312500000, 1491217092
0.253173828125, -0.943603515625, 0.056152343750, -16.773437500000, 5.632812500000, -4.320312500000, 1491217092
0.253173828125, -0.943603515625, 0.056152343750, -16.773437500000, 5.632812500000, -4.320312500000, 1491217092
0.253173828125, -0.943603515625, 0.056152343750, -16.773437500000, 5.632812500000, -4.320312500000, 1491217092
0.253173828125, -0.943603515625, 0.056152343750, -16.773437500000, 5.632812500000, -4.320312500000, 1491217092
0.253173828125, -0.943603515625, 0.056152343750, -16.773437500000, 5.632812500000, -4.320312500000, 1491217092
0.249267578125, -1.003417968750, 0.126220703125, -28.226562500000, 16.492187500000, -2.210937500000, 1491217092
0.249267578125, -1.003417968750, 0.126220703125, -28.226562500000, 16.492187500000, -2.210937500000, 1491217092
0.249267578125, -1.003417968750, 0.126220703125, -28.226562500000, 16.492187500000, -2.210937500000, 1491217092
0.220947265625, -0.939453125000, 0.050537109375, -33.078125000000, 8.296875000000, 0.859375000000, 1491217092
0.220947265625, -0.939453125000, 0.050537109375, -33.078125000000, 8.296875000000, 0.859375000000, 1491217092
0.288818359375, -0.909179687500, 0.109375000000, -34.906250000000, 22.671875000000, -6.914062500000, 1491217092
0.288818359375, -0.909179687500, 0.109375000000, -34.906250000000, 22.671875000000, -6.914062500000, 1491217092
0.288818359375, -0.909179687500, 0.109375000000, -34.906250000000, 22.671875000000, -6.914062500000, 1491217092
0.288818359375, -0.909179687500, 0.109375000000, -34.906250000000, 22.671875000000, -6.914062500000, 1491217092
0.288818359375, -0.909179687500, 0.109375000000, -34.906250000000, 22.671875000000, -6.914062500000, 1491217092
0.292968750000, -1.001220703125, 0.138427734375, -39.328125000000, 15.664062500000, -6.171875000000, 1491217092
0.278320312500, -0.919189453125, 0.109619140625, -53.273437500000, 20.109375000000, -2.289062500000, 1491217093
0.278320312500, -0.919189453125, 0.109619140625, -53.273437500000, 20.109375000000, -2.289062500000, 1491217093
0.278320312500, -0.919189453125, 0.109619140625, -53.273437500000, 20.109375000000, -2.289062500000, 1491217093
0.278320312500, -0.919189453125, 0.109619140625, -53.273437500000, 20.109375000000, -2.289062500000, 1491217093
0.225341796875, -0.939208984375, 0.261474609375, -65.210937500000, 8.046875000000, 1.015625000000, 1491217093
0.225341796875, -0.939208984375, 0.261474609375, -65.210937500000, 8.046875000000, 1.015625000000, 1491217093
0.225341796875, -0.939208984375, 0.261474609375, -65.210937500000, 8.046875000000, 1.015625000000, 1491217093
0.225341796875, -0.939208984375, 0.261474609375, -65.210937500000, 8.046875000000, 1.015625000000, 1491217093
0.387939453125, -0.811279296875, 0.378417968750, -74.140625000000, 11.953125000000, -3.242187500000, 1491217093
0.387939453125, -0.811279296875, 0.378417968750, -74.140625000000, 11.953125000000, -3.242187500000, 1491217093
0.387939453125, -0.811279296875, 0.378417968750, -74.140625000000, 11.953125000000, -3.242187500000, 1491217093
0.387939453125, -0.811279296875, 0.378417968750, -74.140625000000, 11.953125000000, -3.242187500000, 1491217093
0.374267578125, -0.783203125000, 0.351074218750, -76.914062500000, 2.031250000000, -2.976562500000, 1491217093
0.374267578125, -0.783203125000, 0.351074218750, -76.914062500000, 2.031250000000, -2.976562500000, 1491217093
0.374267578125, -0.783203125000, 0.351074218750, -76.914062500000, 2.031250000000, -2.976562500000, 1491217093
0.284667968750, -0.711669921875, 0.364990234375, -95.320312500000, 15.578125000000, 0.531250000000, 1491217093
0.284667968750, -0.711669921875, 0.364990234375, -95.320312500000, 15.578125000000, 0.531250000000, 1491217093
0.284667968750, -0.711669921875, 0.364990234375, -95.320312500000, 15.578125000000, 0.531250000000, 1491217093
0.366943359375, -0.671875000000, 0.468017578125, -97.046875000000, 15.882812500000, -0.085937500000, 1491217093
0.366943359375, -0.671875000000, 0.468017578125, -97.046875000000, 15.882812500000, -0.085937500000, 1491217093
0.366943359375, -0.671875000000, 0.468017578125, -97.046875000000, 15.882812500000, -0.085937500000, 1491217093
0.206298828125, -0.699707031250, 0.590087890625, -110.421875000000, 25.640625000000, 3.531250000000, 1491217093
0.206298828125, -0.699707031250, 0.590087890625, -110.421875000000, 25.640625000000, 3.531250000000, 1491217093
0.206298828125, -0.699707031250, 0.590087890625, -110.421875000000, 25.640625000000, 3.531250000000, 1491217093
0.206298828125, -0.699707031250, 0.590087890625, -110.421875000000, 25.640625000000, 3.531250000000, 1491217093
0.279541015625, -0.488525390625, 0.596923828125, -115.296875000000, 15.617187500000, 0.718750000000, 1491217093
0.279541015625, -0.488525390625, 0.596923828125, -115.296875000000, 15.617187500000, 0.718750000000, 1491217093
0.279541015625, -0.488525390625, 0.596923828125, -115.296875000000, 15.617187500000, 0.718750000000, 1491217093
0.328369140625, -0.541503906250, 0.670166015625, -117.906250000000, 4.820312500000, -8.679687500000, 1491217093
0.328369140625, -0.541503906250, 0.670166015625, -117.906250000000, 4.820312500000, -8.679687500000, 1491217093
0.328369140625, -0.541503906250, 0.670166015625, -117.906250000000, 4.820312500000, -8.679687500000, 1491217093
0.302246093750, -0.231933593750, 0.905517578125, -151.070312500000, 20.523437500000, -0.750000000000, 1491217093
0.302246093750, -0.231933593750, 0.905517578125, -151.070312500000, 20.523437500000, -0.750000000000, 1491217093
0.302246093750, -0.231933593750, 0.905517578125, -151.070312500000, 20.523437500000, -0.750000000000, 1491217093
0.302246093750, -0.231933593750, 0.905517578125, -151.070312500000, 20.523437500000, -0.750000000000, 1491217093
0.330322265625, -0.211425781250, 0.880371093750, -132.273437500000, 12.289062500000, 7.320312500000, 1491217093
0.303222656250, -0.515380859375, 0.984619140625, -132.492187500000, 15.007812500000, 11.882812500000, 1491217093
0.303222656250, -0.515380859375, 0.984619140625, -132.492187500000, 15.007812500000, 11.882812500000, 1491217093
0.303222656250, -0.515380859375, 0.984619140625, -132.492187500000, 15.007812500000, 11.882812500000, 1491217093
0.303222656250, -0.515380859375, 0.984619140625, -132.492187500000, 15.007812500000, 11.882812500000, 1491217093
0.303222656250, -0.515380859375, 0.984619140625, -132.492187500000, 15.007812500000, 11.882812500000, 1491217093
0.275390625000, -0.079833984375, 1.003906250000, -172.484375000000, 47.398437500000, 23.210937500000, 1491217093
0.275390625000, -0.079833984375, 1.003906250000, -172.484375000000, 47.398437500000, 23.210937500000, 1491217093
0.275390625000, -0.079833984375, 1.003906250000, -172.484375000000, 47.398437500000, 23.210937500000, 1491217093
0.377197265625, 0.067138671875, 1.254882812500, -139.804687500000, -2.664062500000, 4.179687500000, 1491217093
0.377197265625, 0.067138671875, 1.254882812500, -139.804687500000, -2.664062500000, 4.179687500000, 1491217093
0.377197265625, 0.067138671875, 1.254882812500, -139.804687500000, -2.664062500000, 4.179687500000, 1491217093
0.330322265625, 0.427734375000, 0.815429687500, -114.117187500000, 43.828125000000, 8.554687500000, 1491217093
0.330322265625, 0.427734375000, 0.815429687500, -114.117187500000, 43.828125000000, 8.554687500000, 1491217093
0.330322265625, 0.427734375000, 0.815429687500, -114.117187500000, 43.828125000000, 8.554687500000, 1491217093
0.330322265625, 0.427734375000, 0.815429687500, -114.117187500000, 43.828125000000, 8.554687500000, 1491217093
0.343750000000, 0.735595703125, 1.181640625000, -79.484375000000, 109.773437500000, 17.875000000000, 1491217093
0.343750000000, 0.735595703125, 1.181640625000, -79.484375000000, 109.773437500000, 17.875000000000, 1491217093
0.343750000000, 0.735595703125, 1.181640625000, -79.484375000000, 109.773437500000, 17.875000000000, 1491217093
-0.048095703125, 0.221923828125, 1.043212890625, -256.000000000000, 167.812500000000, 52.648437500000, 1491217093
-0.048095703125, 0.221923828125, 1.043212890625, -256.000000000000, 167.812500000000, 52.648437500000, 1491217093
-0.048095703125, 0.221923828125, 1.043212890625, -256.000000000000, 167.812500000000, 52.648437500000, 1491217093
0.076904296875, 1.141113281250, 0.098144531250, 26.546875000000, 136.218750000000, 55.601562500000, 1491217093
0.076904296875, 1.141113281250, 0.098144531250, 26.546875000000, 136.218750000000, 55.601562500000, 1491217093
0.076904296875, 1.141113281250, 0.098144531250, 26.546875000000, 136.218750000000, 55.601562500000, 1491217093
-0.659667968750, 1.428710937500, 1.360595703125, -24.968750000000, -49.867187500000, -184.921875000000, 1491217093
-0.659667968750, 1.428710937500, 1.360595703125, -24.968750000000, -49.867187500000, -184.921875000000, 1491217093
-0.659667968750, 1.428710937500, 1.360595703125, -24.968750000000, -49.867187500000, -184.921875000000, 1491217093
-0.659667968750, 1.428710937500, 1.360595703125, -24.968750000000, -49.867187500000, -184.921875000000, 1491217093
-0.394042968750, 0.786865234375, 0.771484375000, 110.882812500000, 143.132812500000, 12.640625000000, 1491217093
-0.394042968750, 0.786865234375, 0.771484375000, 110.882812500000, 143.132812500000, 12.640625000000, 1491217093
-0.394042968750, 0.786865234375, 0.771484375000, 110.882812500000, 143.132812500000, 12.640625000000, 1491217093
-0.490722656250, 0.281005859375, 0.637695312500, -29.226562500000, 52.218750000000, -40.804687500000, 1491217093
-0.490722656250, 0.281005859375, 0.637695312500, -29.226562500000, 52.218750000000, -40.804687500000, 1491217094
-0.490722656250, 0.281005859375, 0.637695312500, -29.226562500000, 52.218750000000, -40.804687500000, 1491217094
-0.332763671875, 0.028808593750, 0.538330078125, 4.960937500000, -0.109375000000, 11.906250000000, 1491217094
-0.204345703125, -0.013671875000, 0.480957031250, 14.453125000000, -67.234375000000, 23.710937500000, 1491217094
-0.146972656250, 0.552001953125, 1.084960937500, -54.195312500000, 69.570312500000, -3.070312500000, 1491217094
-0.422363281250, 0.518798828125, 0.854736328125, 11.765625000000, 17.312500000000, 12.539062500000, 1491217094
-0.422363281250, 0.518798828125, 0.854736328125, 11.765625000000, 17.312500000000, 12.539062500000, 1491217094
-0.329345703125, 0.377929687500, 0.844970703125, 38.062500000000, -20.632812500000, 4.953125000000, 1491217094
-0.329345703125, 0.377929687500, 0.844970703125, 38.062500000000, -20.632812500000, 4.953125000000, 1491217094
-0.329345703125, 0.377929687500, 0.844970703125, 38.062500000000, -20.632812500000, 4.953125000000, 1491217094
-0.329345703125, 0.377929687500, 0.844970703125, 38.062500000000, -20.632812500000, 4.953125000000, 1491217094
-0.329345703125, 0.377929687500, 0.844970703125, 38.062500000000, -20.632812500000, 4.953125000000, 1491217094
-0.329345703125, 0.377929687500, 0.844970703125, 38.062500000000, -20.632812500000, 4.953125000000, 1491217094
-0.329345703125, 0.377929687500, 0.844970703125, 38.062500000000, -20.632812500000, 4.953125000000, 1491217094
-0.098876953125, 0.325195312500, 0.821777343750, -6.671875000000, -24.718750000000, -16.554687500000, 1491217094
-0.098876953125, 0.325195312500, 0.821777343750, -6.671875000000, -24.718750000000, -16.554687500000, 1491217094
-0.098876953125, 0.325195312500, 0.821777343750, -6.671875000000, -24.718750000000, -16.554687500000, 1491217094
-0.098876953125, 0.325195312500, 0.821777343750, -6.671875000000, -24.718750000000, -16.554687500000, 1491217094
-0.098876953125, 0.325195312500, 0.821777343750, -6.671875000000, -24.718750000000, -16.554687500000, 1491217094
-0.098876953125, 0.325195312500, 0.821777343750, -6.671875000000, -24.718750000000, -16.554687500000, 1491217094
-0.150390625000, 0.413818359375, 0.897460937500, -26.250000000000, 6.195312500000, -16.484375000000, 1491217094
-0.150390625000, 0.413818359375, 0.897460937500, -26.250000000000, 6.195312500000, -16.484375000000, 1491217094
-0.150390625000, 0.413818359375, 0.897460937500, -26.250000000000, 6.195312500000, -16.484375000000, 1491217094
-0.150390625000, 0.413818359375, 0.897460937500, -26.250000000000, 6.195312500000, -16.484375000000, 1491217094
-0.150390625000, 0.413818359375, 0.897460937500, -26.250000000000, 6.195312500000, -16.484375000000, 1491217094
-0.105712890625, 0.577880859375, 0.913330078125, -13.578125000000, 4.507812500000, -8.070312500000, 1491217094
-0.105712890625, 0.577880859375, 0.913330078125, -13.578125000000, 4.507812500000, -8.070312500000, 1491217094
-0.105712890625, 0.577880859375, 0.913330078125, -13.578125000000, 4.507812500000, -8.070312500000, 1491217094
-0.269531250000, 0.568603515625, 0.860107421875, 6.890625000000, -10.453125000000, -2.359375000000, 1491217094
-0.269531250000, 0.568603515625, 0.860107421875, 6.890625000000, -10.453125000000, -2.359375000000, 1491217094
-0.269531250000, 0.568603515625, 0.860107421875, 6.890625000000, -10.453125000000, -2.359375000000, 1491217094
-0.119384765625, 0.503906250000, 0.937744140625, 2.757812500000, 6.484375000000, -2.976562500000, 1491217094
-0.119384765625, 0.503906250000, 0.937744140625, 2.757812500000, 6.484375000000, -2.976562500000, 1491217094
-0.119384765625, 0.503906250000, 0.937744140625, 2.757812500000, 6.484375000000, -2.976562500000, 1491217094
-0.119384765625, 0.503906250000, 0.937744140625, 2.757812500000, 6.484375000000, -2.976562500000, 1491217094
-0.196044921875, 0.437744140625, 0.898681640625, 0.125000000000, 0.992187500000, -6.625000000000, 1491217094
-0.196044921875, 0.437744140625, 0.898681640625, 0.125000000000, 0.992187500000, -6.625000000000, 1491217094
-0.196044921875, 0.437744140625, 0.898681640625, 0.125000000000, 0.992187500000, -6.625000000000, 1491217094
-0.111572265625, 0.440185546875, 0.858398437500, -1.921875000000, 0.101562500000, -1.453125000000, 1491217094
-0.111572265625, 0.440185546875, 0.858398437500, -1.921875000000, 0.101562500000, -1.453125000000, 1491217094
-0.111572265625, 0.440185546875, 0.858398437500, -1.921875000000, 0.101562500000, -1.453125000000, 1491217094
-0.213378906250, 0.507812500000, 0.957519531250, -5.867187500000, 6.164062500000, -6.359375000000, 1491217094
-0.213378906250, 0.507812500000, 0.957519531250, -5.867187500000, 6.164062500000, -6.359375000000, 1491217094
-0.213378906250, 0.507812500000, 0.957519531250, -5.867187500000, 6.164062500000, -6.359375000000, 1491217094
-0.236816406250, 0.519775390625, 0.907714843750, -3.804687500000, -0.179687500000, -2.718750000000, 1491217094
-0.236816406250, 0.519775390625, 0.907714843750, -3.804687500000, -0.179687500000, -2.718750000000, 1491217094
-0.236816406250, 0.519775390625, 0.907714843750, -3.804687500000, -0.179687500000, -2.718750000000, 1491217094
-0.236816406250, 0.519775390625, 0.907714843750, -3.804687500000, -0.179687500000, -2.718750000000, 1491217094
-0.251220703125, 0.516357421875, 0.857421875000, -3.328125000000, 2.742187500000, -1.656250000000, 1491217094
-0.251220703125, 0.516357421875, 0.857421875000, -3.328125000000, 2.742187500000, -1.656250000000, 1491217094
-0.251220703125, 0.516357421875, 0.857421875000, -3.328125000000, 2.742187500000, -1.656250000000, 1491217094
-0.167968750000, 0.468261718750, 0.848388671875, -6.812500000000, -0.289062500000, -1.179687500000, 1491217094
-0.167968750000, 0.468261718750, 0.848388671875, -6.812500000000, -0.289062500000, -1.179687500000, 1491217094
-0.167968750000, 0.468261718750, 0.848388671875, -6.812500000000, -0.289062500000, -1.179687500000, 1491217094
-0.102050781250, 0.417236328125, 0.895263671875, -4.210937500000, -0.875000000000, -1.656250000000, 1491217094
-0.102050781250, 0.417236328125, 0.895263671875, -4.210937500000, -0.875000000000, -1.656250000000, 1491217094
-0.102050781250, 0.417236328125, 0.895263671875, -4.210937500000, -0.875000000000, -1.656250000000, 1491217094
-0.211181640625, 0.367431640625, 0.846923828125, -1.039062500000, -2.195312500000, -6.437500000000, 1491217094
-0.211181640625, 0.367431640625, 0.846923828125, -1.039062500000, -2.195312500000, -6.437500000000, 1491217094
-0.211181640625, 0.367431640625, 0.846923828125, -1.039062500000, -2.195312500000, -6.437500000000, 1491217094
-0.211181640625, 0.367431640625, 0.846923828125, -1.039062500000, -2.195312500000, -6.437500000000, 1491217094
-0.272216796875, 0.467041015625, 0.955078125000, -4.656250000000, -2.695312500000, -6.718750000000, 1491217094
-0.272216796875, 0.467041015625, 0.955078125000, -4.656250000000, -2.695312500000, -6.718750000000, 1491217094
-0.272216796875, 0.467041015625, 0.955078125000, -4.656250000000, -2.695312500000, -6.718750000000, 1491217094
-0.183837890625, 0.446777343750, 0.844238281250, -4.468750000000, -2.304687500000, -3.882812500000, 1491217094
-0.183837890625, 0.446777343750, 0.844238281250, -4.468750000000, -2.304687500000, -3.882812500000, 1491217094
-0.183837890625, 0.446777343750, 0.844238281250, -4.468750000000, -2.304687500000, -3.882812500000, 1491217094
-0.166503906250, 0.414794921875, 0.808837890625, -4.890625000000, 1.554687500000, -4.968750000000, 1491217095
-0.166503906250, 0.414794921875, 0.808837890625, -4.890625000000, 1.554687500000, -4.968750000000, 1491217095
-0.166503906250, 0.450195312500, 0.953857421875, -2.859375000000, -0.156250000000, 0.679687500000, 1491217095
-0.166503906250, 0.450195312500, 0.953857421875, -2.859375000000, -0.156250000000, 0.679687500000, 1491217095
-0.166503906250, 0.450195312500, 0.953857421875, -2.859375000000, -0.156250000000, 0.679687500000, 1491217095
-0.166503906250, 0.450195312500, 0.953857421875, -2.859375000000, -0.156250000000, 0.679687500000, 1491217095
-0.166503906250, 0.450195312500, 0.953857421875, -2.859375000000, -0.156250000000, 0.679687500000, 1491217095
-0.190429687500, 0.369384765625, 0.953125000000, -6.140625000000, -2.710937500000, -3.664062500000, 1491217095
-0.190429687500, 0.369384765625, 0.953125000000, -6.140625000000, -2.710937500000, -3.664062500000, 1491217095
-0.190429687500, 0.369384765625, 0.953125000000, -6.140625000000, -2.710937500000, -3.664062500000, 1491217095
-0.177734375000, 0.456054687500, 0.858642578125, -6.023437500000, 2.250000000000, -3.101562500000, 1491217095
-0.177734375000, 0.456054687500, 0.858642578125, -6.023437500000, 2.250000000000, -3.101562500000, 1491217095
-0.177734375000, 0.456054687500, 0.858642578125, -6.023437500000, 2.250000000000, -3.101562500000, 1491217095
-0.216796875000, 0.456542968750, 0.811035156250, -6.460937500000, -0.187500000000, -4.695312500000, 1491217095
-0.216796875000, 0.456542968750, 0.811035156250, -6.460937500000, -0.187500000000, -4.695312500000, 1491217095
-0.216796875000, 0.456542968750, 0.811035156250, -6.460937500000, -0.187500000000, -4.695312500000, 1491217095
-0.216796875000, 0.456542968750, 0.811035156250, -6.460937500000, -0.187500000000, -4.695312500000, 1491217095
-0.235595703125, 0.409667968750, 0.902099609375, -2.296875000000, 0.000000000000, -3.445312500000, 1491217095
-0.235595703125, 0.409667968750, 0.902099609375, -2.296875000000, 0.000000000000, -3.445312500000, 1491217095
-0.235595703125, 0.409667968750, 0.902099609375, -2.296875000000, 0.000000000000, -3.445312500000, 1491217095
-0.235595703125, 0.409667968750, 0.902099609375, -2.296875000000, 0.000000000000, -3.445312500000, 1491217095
-0.235595703125, 0.409667968750, 0.902099609375, -2.296875000000, 0.000000000000, -3.445312500000, 1491217095
-0.235595703125, 0.409667968750, 0.902099609375, -2.296875000000, 0.000000000000, -3.445312500000, 1491217095
-0.218505859375, 0.435058593750, 0.889404296875, -4.476562500000, 2.148437500000, -3.250000000000, 1491217095
-0.218505859375, 0.435058593750, 0.889404296875, -4.476562500000, 2.148437500000, -3.250000000000, 1491217095
-0.218505859375, 0.435058593750, 0.889404296875, -4.476562500000, 2.148437500000, -3.250000000000, 1491217095
-0.218505859375, 0.435058593750, 0.889404296875, -4.476562500000, 2.148437500000, -3.250000000000, 1491217095
-0.218505859375, 0.435058593750, 0.889404296875, -4.476562500000, 2.148437500000, -3.250000000000, 1491217095
-0.218505859375, 0.435058593750, 0.889404296875, -4.476562500000, 2.148437500000, -3.250000000000, 1491217095
-0.252441406250, 0.435302734375, 0.884277343750, -6.632812500000, -0.757812500000, -3.984375000000, 1491217095
-0.252441406250, 0.435302734375, 0.884277343750, -6.632812500000, -0.757812500000, -3.984375000000, 1491217095
-0.252441406250, 0.435302734375, 0.884277343750, -6.632812500000, -0.757812500000, -3.984375000000, 1491217095
-0.252441406250, 0.435302734375, 0.884277343750, -6.632812500000, -0.757812500000, -3.984375000000, 1491217095
-0.252441406250, 0.435302734375, 0.884277343750, -6.632812500000, -0.757812500000, -3.984375000000, 1491217095
-0.190185546875, 0.395751953125, 0.900390625000, -4.312500000000, 0.585937500000, -6.898437500000, 1491217095
-0.190185546875, 0.395751953125, 0.900390625000, -4.312500000000, 0.585937500000, -6.898437500000, 1491217095
-0.190185546875, 0.395751953125, 0.900390625000, -4.312500000000, 0.585937500000, -6.898437500000, 1491217095
-0.190185546875, 0.395751953125, 0.900390625000, -4.312500000000, 0.585937500000, -6.898437500000, 1491217095
-0.190185546875, 0.395751953125, 0.900390625000, -4.312500000000, 0.585937500000, -6.898437500000, 1491217095
-0.195312500000, 0.415039062500, 0.889648437500, -3.890625000000, -0.460937500000, -4.773437500000, 1491217095
-0.195312500000, 0.415039062500, 0.889648437500, -3.890625000000, -0.460937500000, -4.773437500000, 1491217095
-0.195312500000, 0.415039062500, 0.889648437500, -3.890625000000, -0.460937500000, -4.773437500000, 1491217095
-0.340820312500, 0.412841796875, 0.911621093750, -3.156250000000, -0.179687500000, -3.640625000000, 1491217095
-0.340820312500, 0.412841796875, 0.911621093750, -3.156250000000, -0.179687500000, -3.640625000000, 1491217095
-0.340820312500, 0.412841796875, 0.911621093750, -3.156250000000, -0.179687500000, -3.640625000000, 1491217095
-0.340820312500, 0.412841796875, 0.911621093750, -3.156250000000, -0.179687500000, -3.640625000000, 1491217095
-0.202148437500, 0.415771484375, 0.874267578125, -3.335937500000, -0.140625000000, -3.898437500000, 1491217095
-0.108154296875, 0.449951171875, 0.879882812500, -6.968750000000, -0.640625000000, -3.562500000000, 1491217095
-0.108154296875, 0.449951171875, 0.879882812500, -6.968750000000, -0.640625000000, -3.562500000000, 1491217095
-0.108154296875, 0.449951171875, 0.879882812500, -6.968750000000, -0.640625000000, -3.562500000000, 1491217095
-0.108154296875, 0.449951171875, 0.879882812500, -6.968750000000, -0.640625000000, -3.562500000000, 1491217095
-0.112304687500, 0.416259765625, 0.862792968750, -3.281250000000, -0.929687500000, -3.117187500000, 1491217095
-0.112304687500, 0.416259765625, 0.862792968750, -3.281250000000, -0.929687500000, -3.117187500000, 1491217095
-0.112304687500, 0.416259765625, 0.862792968750, -3.281250000000, -0.929687500000, -3.117187500000, 1491217095
-0.112304687500, 0.416259765625, 0.862792968750, -3.281250000000, -0.929687500000, -3.117187500000, 1491217095
-0.263427734375, 0.465087890625, 0.848876953125, 0.031250000000, 0.492187500000, -4.843750000000, 1491217095
-0.263427734375, 0.465087890625, 0.848876953125, 0.031250000000, 0.492187500000, -4.843750000000, 1491217095
-0.263427734375, 0.465087890625, 0.848876953125, 0.031250000000, 0.492187500000, -4.843750000000, 1491217095
-0.263427734375, 0.465087890625, 0.848876953125, 0.031250000000, 0.492187500000, -4.843750000000, 1491217095
-0.218017578125, 0.441650390625, 0.930419921875, -4.125000000000, 4.351562500000, -3.468750000000, 1491217095
-0.218017578125, 0.441650390625, 0.930419921875, -4.125000000000, 4.351562500000, -3.468750000000, 1491217095
-0.218017578125, 0.441650390625, 0.930419921875, -4.125000000000, 4.351562500000, -3.468750000000, 1491217095
-0.180175781250, 0.408691406250, 0.851806640625, -4.320312500000, -4.015625000000, -6.968750000000, 1491217095
-0.180175781250, 0.408691406250, 0.851806640625, -4.320312500000, -4.015625000000, -6.968750000000, 1491217095
-0.180175781250, 0.408691406250, 0.851806640625, -4.320312500000, -4.015625000000, -6.968750000000, 1491217095
-0.218261718750, 0.511230468750, 0.854003906250, -6.015625000000, -2.945312500000, -3.023437500000, 1491217095
-0.218261718750, 0.511230468750, 0.854003906250, -6.015625000000, -2.945312500000, -3.023437500000, 1491217095
-0.218261718750, 0.511230468750, 0.854003906250, -6.015625000000, -2.945312500000, -3.023437500000, 1491217096
-0.123535156250, 0.408935546875, 0.900146484375, -4.843750000000, 0.429687500000, -2.257812500000, 1491217096
-0.123535156250, 0.408935546875, 0.900146484375, -4.843750000000, 0.429687500000, -2.257812500000, 1491217096
-0.123535156250, 0.408935546875, 0.900146484375, -4.843750000000, 0.429687500000, -2.257812500000, 1491217096
-0.123535156250, 0.408935546875, 0.900146484375, -4.843750000000, 0.429687500000, -2.257812500000, 1491217096
-0.264404296875, 0.507812500000, 0.883300781250, -3.390625000000, -0.734375000000, -3.500000000000, 1491217096
-0.264404296875, 0.507812500000, 0.883300781250, -3.390625000000, -0.734375000000, -3.500000000000, 1491217096
-0.264404296875, 0.507812500000, 0.883300781250, -3.390625000000, -0.734375000000, -3.500000000000, 1491217096
-0.193847656250, 0.458496093750, 0.859619140625, -2.617187500000, 0.882812500000, -1.875000000000, 1491217096
-0.193847656250, 0.458496093750, 0.859619140625, -2.617187500000, 0.882812500000, -1.875000000000, 1491217096
-0.193847656250, 0.458496093750, 0.859619140625, -2.617187500000, 0.882812500000, -1.875000000000, 1491217096
-0.210937500000, 0.355957031250, 0.846679687500, -2.140625000000, -0.507812500000, -4.593750000000, 1491217096
-0.210937500000, 0.355957031250, 0.846679687500, -2.140625000000, -0.507812500000, -4.593750000000, 1491217096
-0.210937500000, 0.355957031250, 0.846679687500, -2.140625000000, -0.507812500000, -4.593750000000, 1491217096
-0.176025390625, 0.495117187500, 0.886230468750, -4.937500000000, -0.773437500000, -2.000000000000, 1491217096
-0.176025390625, 0.495117187500, 0.886230468750, -4.937500000000, -0.773437500000, -2.000000000000, 1491217096
-0.176025390625, 0.495117187500, 0.886230468750, -4.937500000000, -0.773437500000, -2.000000000000, 1491217096
-0.176025390625, 0.495117187500, 0.886230468750, -4.937500000000, -0.773437500000, -2.000000000000, 1491217096
-0.204589843750, 0.444091796875, 0.852294921875, -6.750000000000, -2.429687500000, -3.351562500000, 1491217096
-0.204589843750, 0.444091796875, 0.852294921875, -6.750000000000, -2.429687500000, -3.351562500000, 1491217096
-0.204589843750, 0.444091796875, 0.852294921875, -6.750000000000, -2.429687500000, -3.351562500000, 1491217096
-0.164306640625, 0.418701171875, 0.861816406250, -4.875000000000, 0.312500000000, -6.382812500000, 1491217096
-0.164306640625, 0.418701171875, 0.861816406250, -4.875000000000, 0.312500000000, -6.382812500000, 1491217096
-0.164306640625, 0.418701171875, 0.861816406250, -4.875000000000, 0.312500000000, -6.382812500000, 1491217096
-0.109130859375, 0.581298828125, 0.871582031250, -3.343750000000, 0.828125000000, -1.617187500000, 1491217096
-0.109130859375, 0.581298828125, 0.871582031250, -3.343750000000, 0.828125000000, -1.617187500000, 1491217096
-0.109130859375, 0.581298828125, 0.871582031250, -3.343750000000, 0.828125000000, -1.617187500000, 1491217096
