ACC_X,ACC_Y,ACC_Z,G_X,G_Y,G_Z,Unix Time
-0.043212890625, -0.927978515625, 0.044677734375, -3.046875000000, -1.210937500000, -1.070312500000, 1490693424
-0.043212890625, -0.927978515625, 0.044677734375, -3.046875000000, -1.210937500000, -1.070312500000, 1490693424
-0.043212890625, -0.927978515625, 0.044677734375, -3.046875000000, -1.210937500000, -1.070312500000, 1490693424
-0.075439453125, -0.952636718750, 0.065185546875, -2.234375000000, 8.015625000000, -4.875000000000, 1490693424
-0.075439453125, -0.952636718750, 0.065185546875, -2.234375000000, 8.015625000000, -4.875000000000, 1490693424
-0.075439453125, -0.952636718750, 0.065185546875, -2.234375000000, 8.015625000000, -4.875000000000, 1490693424
-0.142089843750, -0.934814453125, 0.070800781250, -1.757812500000, 5.546875000000, -6.171875000000, 1490693424
-0.142578125000, -0.925537109375, 0.046142578125, -2.218750000000, 6.632812500000, -6.414062500000, 1490693424
-0.142578125000, -0.925537109375, 0.046142578125, -2.218750000000, 6.632812500000, -6.414062500000, 1490693424
-0.142578125000, -0.925537109375, 0.046142578125, -2.218750000000, 6.632812500000, -6.414062500000, 1490693424
-0.142578125000, -0.925537109375, 0.046142578125, -2.218750000000, 6.632812500000, -6.414062500000, 1490693424
-0.061035156250, -1.021484375000, 0.072509765625, -2.710937500000, 3.671875000000, -6.398437500000, 1490693424
-0.126708984375, -0.993652343750, -0.000732421875, -1.351562500000, 5.789062500000, -1.601562500000, 1490693424
-0.126708984375, -0.993652343750, -0.000732421875, -1.351562500000, 5.789062500000, -1.601562500000, 1490693424
-0.126708984375, -0.993652343750, -0.000732421875, -1.351562500000, 5.789062500000, -1.601562500000, 1490693424
-0.126708984375, -0.993652343750, -0.000732421875, -1.351562500000, 5.789062500000, -1.601562500000, 1490693424
-0.052490234375, -0.928222656250, 0.045898437500, -1.210937500000, 5.328125000000, -1.515625000000, 1490693424
-0.052490234375, -0.928222656250, 0.045898437500, -1.210937500000, 5.328125000000, -1.515625000000, 1490693424
-0.052490234375, -0.928222656250, 0.045898437500, -1.210937500000, 5.328125000000, -1.515625000000, 1490693424
-0.052246093750, -1.080322265625, 0.041015625000, -3.945312500000, 2.164062500000, -4.500000000000, 1490693424
-0.106933593750, -0.976074218750, 0.061279296875, -6.296875000000, -0.421875000000, -1.453125000000, 1490693424
-0.149414062500, -1.074707031250, 0.075927734375, -6.890625000000, 0.539062500000, -4.664062500000, 1490693424
-0.149414062500, -1.074707031250, 0.075927734375, -6.890625000000, 0.539062500000, -4.664062500000, 1490693424
-0.149414062500, -1.074707031250, 0.075927734375, -6.890625000000, 0.539062500000, -4.664062500000, 1490693424
-0.149414062500, -1.074707031250, 0.075927734375, -6.890625000000, 0.539062500000, -4.664062500000, 1490693424
-0.106933593750, -0.913330078125, 0.055908203125, -5.429687500000, 0.046875000000, -1.125000000000, 1490693424
-0.087158203125, -0.925537109375, 0.062988281250, -5.679687500000, -1.218750000000, -4.781250000000, 1490693424
-0.087158203125, -0.925537109375, 0.062988281250, -5.679687500000, -1.218750000000, -4.781250000000, 1490693424
-0.087158203125, -0.925537109375, 0.062988281250, -5.679687500000, -1.218750000000, -4.781250000000, 1490693424
-0.087158203125, -0.925537109375, 0.062988281250, -5.679687500000, -1.218750000000, -4.781250000000, 1490693424
-0.087158203125, -0.925537109375, 0.062988281250, -5.679687500000, -1.218750000000, -4.781250000000, 1490693424
-0.094482421875, -1.003906250000, 0.082763671875, -3.273437500000, -6.023437500000, -3.398437500000, 1490693424
-0.094482421875, -1.003906250000, 0.082763671875, -3.273437500000, -6.023437500000, -3.398437500000, 1490693424
-0.094482421875, -1.003906250000, 0.082763671875, -3.273437500000, -6.023437500000, -3.398437500000, 1490693424
-0.094482421875, -1.003906250000, 0.082763671875, -3.273437500000, -6.023437500000, -3.398437500000, 1490693424
-0.051513671875, -1.013671875000, 0.065429687500, -1.460937500000, -4.078125000000, -3.960937500000, 1490693424
-0.051513671875, -1.013671875000, 0.065429687500, -1.460937500000, -4.078125000000, -3.960937500000, 1490693424
-0.051513671875, -1.013671875000, 0.065429687500, -1.460937500000, -4.078125000000, -3.960937500000, 1490693424
-0.051513671875, -1.013671875000, 0.065429687500, -1.460937500000, -4.078125000000, -3.960937500000, 1490693424
-0.128173828125, -1.032714843750, 0.068359375000, -3.507812500000, -2.835937500000, -3.078125000000, 1490693424
-0.128173828125, -1.032714843750, 0.068359375000, -3.507812500000, -2.835937500000, -3.078125000000, 1490693424
-0.128173828125, -1.032714843750, 0.068359375000, -3.507812500000, -2.835937500000, -3.078125000000, 1490693424
-0.053222656250, -1.016113281250, 0.072998046875, -3.945312500000, 1.046875000000, -2.632812500000, 1490693424
-0.053222656250, -1.016113281250, 0.072998046875, -3.945312500000, 1.046875000000, -2.632812500000, 1490693424
-0.053222656250, -1.016113281250, 0.072998046875, -3.945312500000, 1.046875000000, -2.632812500000, 1490693424
-0.080810546875, -0.919189453125, 0.075195312500, 0.070312500000, -0.351562500000, -5.468750000000, 1490693424
-0.080810546875, -0.919189453125, 0.075195312500, 0.070312500000, -0.351562500000, -5.468750000000, 1490693424
-0.080810546875, -0.919189453125, 0.075195312500, 0.070312500000, -0.351562500000, -5.468750000000, 1490693424
-0.108886718750, -1.015625000000, 0.040283203125, 0.226562500000, 1.257812500000, -3.335937500000, 1490693424
-0.108886718750, -1.015625000000, 0.040283203125, 0.226562500000, 1.257812500000, -3.335937500000, 1490693424
-0.108886718750, -1.015625000000, 0.040283203125, 0.226562500000, 1.257812500000, -3.335937500000, 1490693424
-0.108886718750, -1.015625000000, 0.040283203125, 0.226562500000, 1.257812500000, -3.335937500000, 1490693424
-0.077636718750, -0.921142578125, 0.026855468750, -2.210937500000, 2.640625000000, -5.601562500000, 1490693424
-0.077636718750, -0.921142578125, 0.026855468750, -2.210937500000, 2.640625000000, -5.601562500000, 1490693424
-0.077636718750, -0.921142578125, 0.026855468750, -2.210937500000, 2.640625000000, -5.601562500000, 1490693424
-0.138671875000, -1.004150390625, -0.015136718750, -4.625000000000, 4.992187500000, -6.945312500000, 1490693425
-0.138671875000, -1.004150390625, -0.015136718750, -4.625000000000, 4.992187500000, -6.945312500000, 1490693425
-0.138671875000, -1.004150390625, -0.015136718750, -4.625000000000, 4.992187500000, -6.945312500000, 1490693425
-0.149169921875, -1.090087890625, 0.082031250000, -4.953125000000, 2.125000000000, -6.289062500000, 1490693425
-0.149169921875, -1.090087890625, 0.082031250000, -4.953125000000, 2.125000000000, -6.289062500000, 1490693425
-0.149169921875, -1.090087890625, 0.082031250000, -4.953125000000, 2.125000000000, -6.289062500000, 1490693425
-0.067626953125, -1.011230468750, 0.056396484375, -4.250000000000, -2.406250000000, -3.632812500000, 1490693425
-0.067626953125, -1.011230468750, 0.056396484375, -4.250000000000, -2.406250000000, -3.632812500000, 1490693425
-0.067626953125, -1.011230468750, 0.056396484375, -4.250000000000, -2.406250000000, -3.632812500000, 1490693425
-0.067626953125, -1.011230468750, 0.056396484375, -4.250000000000, -2.406250000000, -3.632812500000, 1490693425
-0.069824218750, -0.915771484375, 0.036132812500, -3.242187500000, -1.671875000000, -4.867187500000, 1490693425
-0.069824218750, -0.915771484375, 0.036132812500, -3.242187500000, -1.671875000000, -4.867187500000, 1490693425
-0.069824218750, -0.915771484375, 0.036132812500, -6.562500000000, 2.023437500000, -1.031250000000, 1490693425
-0.082519531250, -0.922363281250, -0.000000000000, -6.562500000000, 2.023437500000, -1.031250000000, 1490693425
-0.082519531250, -0.922363281250, -0.000000000000, -6.562500000000, 2.023437500000, -1.031250000000, 1490693425
-0.082519531250, -0.922363281250, -0.000000000000, -6.562500000000, 2.023437500000, -1.031250000000, 1490693425
-0.082519531250, -0.922363281250, -0.000000000000, -6.562500000000, 2.023437500000, -1.031250000000, 1490693425
-0.082519531250, -0.922363281250, -0.000000000000, -6.562500000000, 2.023437500000, -1.031250000000, 1490693425
-0.149902343750, -0.939208984375, 0.082763671875, -3.500000000000, 0.617187500000, -3.531250000000, 1490693425
-0.103271484375, -1.022949218750, -0.006103515625, -3.820312500000, 0.390625000000, -4.703125000000, 1490693425
-0.103271484375, -1.022949218750, -0.006103515625, -3.820312500000, 0.390625000000, -4.703125000000, 1490693425
-0.103271484375, -1.022949218750, -0.006103515625, -3.820312500000, 0.390625000000, -4.703125000000, 1490693425
-0.103271484375, -1.022949218750, -0.006103515625, -3.820312500000, 0.390625000000, -4.703125000000, 1490693425
-0.059814453125, -1.070312500000, 0.077636718750, -4.859375000000, -1.375000000000, -5.093750000000, 1490693425
-0.059814453125, -1.070312500000, 0.077636718750, -4.859375000000, -1.375000000000, -5.093750000000, 1490693425
-0.059814453125, -1.070312500000, 0.077636718750, -4.859375000000, -1.375000000000, -5.093750000000, 1490693425
-0.059814453125, -1.070312500000, 0.077636718750, -4.859375000000, -1.375000000000, -5.093750000000, 1490693425
-0.048095703125, -1.007568359375, 0.072753906250, -1.843750000000, 0.367187500000, -6.632812500000, 1490693425
-0.138183593750, -1.068847656250, 0.035644531250, -3.054687500000, -0.789062500000, -6.593750000000, 1490693425
-0.138183593750, -1.068847656250, 0.035644531250, -3.054687500000, -0.789062500000, -6.593750000000, 1490693425
-0.138183593750, -1.068847656250, 0.035644531250, -3.054687500000, -0.789062500000, -6.593750000000, 1490693425
-0.092285156250, -0.971923828125, 0.136718750000, -3.914062500000, -2.562500000000, -6.351562500000, 1490693425
-0.067382812500, -1.013916015625, 0.090087890625, -3.460937500000, 2.554687500000, -1.273437500000, 1490693425
-0.067382812500, -1.013916015625, 0.090087890625, -3.460937500000, 2.554687500000, -1.273437500000, 1490693425
-0.067382812500, -1.013916015625, 0.090087890625, -3.460937500000, 2.554687500000, -1.273437500000, 1490693425
-0.067382812500, -1.013916015625, 0.090087890625, -3.460937500000, 2.554687500000, -1.273437500000, 1490693425
-0.105468750000, -1.073974609375, 0.023193359375, -2.851562500000, 1.843750000000, -8.015625000000, 1490693425
-0.105468750000, -1.073974609375, 0.023193359375, -2.851562500000, 1.843750000000, -8.015625000000, 1490693425
-0.105468750000, -1.073974609375, 0.023193359375, -2.851562500000, 1.843750000000, -8.015625000000, 1490693425
-0.047851562500, -0.936035156250, 0.147216796875, -4.101562500000, -2.234375000000, -4.921875000000, 1490693425
-0.047851562500, -0.936035156250, 0.147216796875, -4.101562500000, -2.234375000000, -4.921875000000, 1490693425
-0.047851562500, -0.936035156250, 0.147216796875, -4.101562500000, -2.234375000000, -4.921875000000, 1490693425
-0.092773437500, -1.000976562500, 0.077636718750, -2.921875000000, -0.023437500000, -6.062500000000, 1490693425
-0.092773437500, -1.000976562500, 0.077636718750, -2.921875000000, -0.023437500000, -6.062500000000, 1490693425
-0.092773437500, -1.000976562500, 0.077636718750, -2.921875000000, -0.023437500000, -6.062500000000, 1490693425
-0.043457031250, -1.021484375000, -0.002441406250, -6.992187500000, 2.234375000000, -6.132812500000, 1490693425
-0.043457031250, -1.021484375000, -0.002441406250, -6.992187500000, 2.234375000000, -6.132812500000, 1490693425
-0.043457031250, -1.021484375000, -0.002441406250, -6.992187500000, 2.234375000000, -6.132812500000, 1490693425
-0.043457031250, -1.021484375000, -0.002441406250, -6.992187500000, 2.234375000000, -6.132812500000, 1490693425
-0.034912109375, -0.982910156250, 0.088378906250, -3.953125000000, -2.304687500000, -4.343750000000, 1490693425
-0.034912109375, -0.982910156250, 0.088378906250, -3.953125000000, -2.304687500000, -4.343750000000, 1490693425
-0.034912109375, -0.982910156250, 0.088378906250, -3.953125000000, -2.304687500000, -4.343750000000, 1490693425
-0.102539062500, -1.013427734375, 0.049072265625, -3.632812500000, -1.906250000000, -4.460937500000, 1490693425
-0.102539062500, -1.013427734375, 0.049072265625, -3.632812500000, -1.906250000000, -4.460937500000, 1490693425
-0.102539062500, -1.013427734375, 0.049072265625, -3.632812500000, -1.906250000000, -4.460937500000, 1490693425
-0.086669921875, -1.040039062500, 0.045654296875, -3.125000000000, 0.906250000000, -3.781250000000, 1490693425
-0.086669921875, -1.040039062500, 0.045654296875, -3.125000000000, 0.906250000000, -3.781250000000, 1490693425
-0.086669921875, -1.040039062500, 0.045654296875, -3.125000000000, 0.906250000000, -3.781250000000, 1490693425
-0.090820312500, -0.869140625000, 0.047363281250, -5.117187500000, -2.500000000000, -3.937500000000, 1490693425
-0.090820312500, -0.869140625000, 0.047363281250, -5.117187500000, -2.500000000000, -3.937500000000, 1490693425
-0.090820312500, -0.869140625000, 0.047363281250, -5.117187500000, -2.500000000000, -3.937500000000, 1490693425
-0.090820312500, -0.869140625000, 0.047363281250, -5.117187500000, -2.500000000000, -3.937500000000, 1490693425
-0.055664062500, -1.125976562500, 0.081787109375, -3.734375000000, 2.234375000000, -2.656250000000, 1490693425
-0.055664062500, -1.125976562500, 0.081787109375, -3.734375000000, 2.234375000000, -2.656250000000, 1490693425
-0.055664062500, -1.125976562500, 0.081787109375, -3.734375000000, 2.234375000000, -2.656250000000, 1490693425
-0.074951171875, -0.962402343750, -0.010253906250, -3.632812500000, 2.453125000000, -5.054687500000, 1490693426
-0.074951171875, -0.962402343750, -0.010253906250, -3.632812500000, 2.453125000000, -5.054687500000, 1490693426
-0.074951171875, -0.962402343750, -0.010253906250, -3.632812500000, 2.453125000000, -5.054687500000, 1490693426
-0.122558593750, -0.909423828125, -0.008789062500, -4.554687500000, -0.562500000000, -3.023437500000, 1490693426
-0.122558593750, -0.909423828125, -0.008789062500, -4.554687500000, -0.562500000000, -3.023437500000, 1490693426
-0.122558593750, -0.909423828125, -0.008789062500, -4.554687500000, -0.562500000000, -3.023437500000, 1490693426
-0.060058593750, -1.075683593750, 0.041748046875, -1.859375000000, 0.148437500000, -5.273437500000, 1490693426
-0.060058593750, -1.075683593750, 0.041748046875, -1.859375000000, 0.148437500000, -5.273437500000, 1490693426
-0.060058593750, -1.075683593750, 0.041748046875, -1.859375000000, 0.148437500000, -5.273437500000, 1490693426
-0.060058593750, -1.075683593750, 0.041748046875, -1.859375000000, 0.148437500000, -5.273437500000, 1490693426
-0.114257812500, -0.985595703125, 0.128417968750, -4.312500000000, -0.695312500000, -6.070312500000, 1490693426
-0.114257812500, -0.985595703125, 0.128417968750, -4.312500000000, -0.695312500000, -6.070312500000, 1490693426
-0.114257812500, -0.985595703125, 0.128417968750, -4.312500000000, -0.695312500000, -6.070312500000, 1490693426
-0.068847656250, -0.919189453125, -0.000732421875, -3.546875000000, 0.257812500000, -6.398437500000, 1490693426
-0.068847656250, -0.919189453125, -0.000732421875, -3.546875000000, 0.257812500000, -6.398437500000, 1490693426
-0.068847656250, -0.919189453125, -0.000732421875, -3.546875000000, 0.257812500000, -6.398437500000, 1490693426
-0.145507812500, -0.937011718750, 0.075195312500, -3.601562500000, 2.117187500000, -1.812500000000, 1490693426
-0.145507812500, -0.937011718750, 0.075195312500, -3.601562500000, 2.117187500000, -1.812500000000, 1490693426
-0.145507812500, -0.937011718750, 0.075195312500, -3.601562500000, 2.117187500000, -1.812500000000, 1490693426
-0.130859375000, -0.960205078125, 0.087402343750, -1.218750000000, -2.976562500000, -3.156250000000, 1490693426
-0.064941406250, -0.976562500000, 0.147460937500, -4.562500000000, -0.007812500000, -3.601562500000, 1490693426
-0.064941406250, -0.976562500000, 0.147460937500, -4.562500000000, -0.007812500000, -3.601562500000, 1490693426
-0.064941406250, -0.976562500000, 0.147460937500, -4.562500000000, -0.007812500000, -3.601562500000, 1490693426
-0.061767578125, -1.005371093750, 0.032958984375, -4.828125000000, -0.882812500000, -4.289062500000, 1490693426
-0.061767578125, -1.005371093750, 0.032958984375, -4.828125000000, -0.882812500000, -4.289062500000, 1490693426
-0.061767578125, -1.005371093750, 0.032958984375, -4.828125000000, -0.882812500000, -4.289062500000, 1490693426
-0.061767578125, -1.005371093750, 0.032958984375, -4.828125000000, -0.882812500000, -4.289062500000, 1490693426
-0.061767578125, -1.005371093750, 0.032958984375, -4.828125000000, -0.882812500000, -4.289062500000, 1490693426
-0.076660156250, -0.980957031250, 0.126953125000, -3.101562500000, 2.312500000000, -3.023437500000, 1490693426
-0.076660156250, -0.980957031250, 0.126953125000, -3.101562500000, 2.312500000000, -3.023437500000, 1490693426
-0.076660156250, -0.980957031250, 0.126953125000, -3.101562500000, 2.312500000000, -3.023437500000, 1490693426
-0.076660156250, -0.980957031250, 0.126953125000, -3.101562500000, 2.312500000000, -3.023437500000, 1490693426
-0.046875000000, -0.860595703125, 0.040039062500, -4.781250000000, -2.773437500000, -3.578125000000, 1490693426
-0.042480468750, -1.010742187500, 0.047607421875, -3.945312500000, -0.960937500000, -1.265625000000, 1490693426
-0.042480468750, -1.010742187500, 0.047607421875, -3.945312500000, -0.960937500000, -1.265625000000, 1490693426
-0.042480468750, -1.010742187500, 0.047607421875, -3.945312500000, -0.960937500000, -1.265625000000, 1490693426
-0.056640625000, -1.002685546875, 0.043701171875, -4.921875000000, -0.812500000000, -6.312500000000, 1490693426
-0.111816406250, -0.916992187500, 0.082763671875, -6.039062500000, 0.468750000000, -6.164062500000, 1490693426
-0.111816406250, -0.916992187500, 0.082763671875, -6.039062500000, 0.468750000000, -6.164062500000, 1490693426
-0.111816406250, -0.916992187500, 0.082763671875, -6.039062500000, 0.468750000000, -6.164062500000, 1490693426
-0.111816406250, -0.916992187500, 0.082763671875, -6.039062500000, 0.468750000000, -6.164062500000, 1490693426
-0.111816406250, -0.916992187500, 0.082763671875, -6.039062500000, 0.468750000000, -6.164062500000, 1490693426
-0.051025390625, -0.986328125000, -0.025878906250, -6.070312500000, 0.968750000000, -5.507812500000, 1490693426
-0.051025390625, -0.986328125000, -0.025878906250, -6.070312500000, 0.968750000000, -5.507812500000, 1490693426
-0.051025390625, -0.986328125000, -0.025878906250, -6.070312500000, 0.968750000000, -5.507812500000, 1490693426
-0.134521484375, -1.066406250000, -0.017822265625, -6.875000000000, 4.328125000000, -6.687500000000, 1490693426
-0.134521484375, -1.066406250000, -0.017822265625, -6.875000000000, 4.328125000000, -6.687500000000, 1490693426
-0.134521484375, -1.066406250000, -0.017822265625, -6.875000000000, 4.328125000000, -6.687500000000, 1490693426
-0.134521484375, -1.066406250000, -0.017822265625, -6.875000000000, 4.328125000000, -6.687500000000, 1490693426
-0.012695312500, -0.932128906250, 0.143310546875, -3.695312500000, -0.796875000000, -4.523437500000, 1490693426
-0.012695312500, -0.932128906250, 0.143310546875, -3.695312500000, -0.796875000000, -4.523437500000, 1490693426
-0.012695312500, -0.932128906250, 0.143310546875, -3.695312500000, -0.796875000000, -4.523437500000, 1490693426
-0.188964843750, -0.973876953125, 0.037109375000, -6.062500000000, -1.359375000000, -3.156250000000, 1490693426
-0.188964843750, -0.973876953125, 0.037109375000, -6.062500000000, -1.359375000000, -3.156250000000, 1490693426
-0.188964843750, -0.973876953125, 0.037109375000, -6.062500000000, -1.359375000000, -3.156250000000, 1490693426
-0.066650390625, -0.863525390625, 0.053466796875, -1.843750000000, -2.921875000000, -6.593750000000, 1490693426
-0.066650390625, -0.863525390625, 0.053466796875, -1.843750000000, -2.921875000000, -6.593750000000, 1490693426
-0.066650390625, -0.863525390625, 0.053466796875, -1.843750000000, -2.921875000000, -6.593750000000, 1490693426
0.013183593750, -1.144287109375, 0.031982421875, -4.710937500000, 1.164062500000, -3.492187500000, 1490693426
0.013183593750, -1.144287109375, 0.031982421875, -4.710937500000, 1.164062500000, -3.492187500000, 1490693426
0.013183593750, -1.144287109375, 0.031982421875, -4.710937500000, 1.164062500000, -3.492187500000, 1490693426
0.013183593750, -1.144287109375, 0.031982421875, -4.710937500000, 1.164062500000, -3.492187500000, 1490693426
0.073730468750, -1.082763671875, -0.007080078125, -5.039062500000, 0.820312500000, -3.742187500000, 1490693426
0.073730468750, -1.082763671875, -0.007080078125, -5.039062500000, 0.820312500000, -3.742187500000, 1490693426
0.073730468750, -1.082763671875, -0.007080078125, -5.039062500000, 0.820312500000, -3.742187500000, 1490693426
-0.058105468750, -1.133056640625, 0.067138671875, -4.273437500000, 2.210937500000, -2.882812500000, 1490693426
-0.058105468750, -1.133056640625, 0.067138671875, -4.273437500000, 2.210937500000, -2.882812500000, 1490693426
-0.058105468750, -1.133056640625, 0.067138671875, -4.273437500000, 2.210937500000, -2.882812500000, 1490693426
-0.142578125000, -0.984863281250, 0.063232421875, -2.648437500000, -0.640625000000, -6.304687500000, 1490693427
-0.142578125000, -0.984863281250, 0.063232421875, -2.648437500000, -0.640625000000, -6.304687500000, 1490693427
-0.142578125000, -0.984863281250, 0.063232421875, -2.648437500000, -0.640625000000, -6.304687500000, 1490693427
-0.082031250000, -0.994873046875, 0.135009765625, -4.835937500000, 0.992187500000, -3.562500000000, 1490693427
-0.082031250000, -0.994873046875, 0.135009765625, -4.835937500000, 0.992187500000, -3.562500000000, 1490693427
-0.082031250000, -0.994873046875, 0.135009765625, -4.835937500000, 0.992187500000, -3.562500000000, 1490693427
-0.054443359375, -0.993652343750, 0.142333984375, -3.250000000000, 4.132812500000, -4.304687500000, 1490693427
-0.054443359375, -0.993652343750, 0.142333984375, -3.250000000000, 4.132812500000, -4.304687500000, 1490693427
-0.054443359375, -0.993652343750, 0.142333984375, -3.250000000000, 4.132812500000, -4.304687500000, 1490693427
-0.054443359375, -0.993652343750, 0.142333984375, -3.250000000000, 4.132812500000, -4.304687500000, 1490693427
-0.046142578125, -1.084716796875, 0.074462890625, -5.078125000000, -1.875000000000, -6.835937500000, 1490693427
-0.046142578125, -1.084716796875, 0.074462890625, -5.078125000000, -1.875000000000, -6.835937500000, 1490693427
-0.046142578125, -1.084716796875, 0.074462890625, -5.078125000000, -1.875000000000, -6.835937500000, 1490693427
-0.046142578125, -1.084716796875, 0.074462890625, -5.078125000000, -1.875000000000, -6.835937500000, 1490693427
-0.091064453125, -0.956298828125, 0.081542968750, -3.265625000000, -2.664062500000, -3.687500000000, 1490693427
-0.079101562500, -0.991455078125, 0.093261718750, -4.843750000000, 0.671875000000, -6.234375000000, 1490693427
-0.079101562500, -0.991455078125, 0.093261718750, -4.843750000000, 0.671875000000, -6.234375000000, 1490693427
-0.079101562500, -0.991455078125, 0.093261718750, -4.843750000000, 0.671875000000, -6.234375000000, 1490693427
-0.079101562500, -0.991455078125, 0.093261718750, -4.843750000000, 0.671875000000, -6.234375000000, 1490693427
-0.139404296875, -0.963134765625, 0.076904296875, -4.781250000000, -1.328125000000, -4.960937500000, 1490693427
-0.139404296875, -0.963134765625, 0.076904296875, -4.781250000000, -1.328125000000, -4.960937500000, 1490693427
-0.139404296875, -0.963134765625, 0.076904296875, -4.781250000000, -1.328125000000, -4.960937500000, 1490693427
-0.139404296875, -0.963134765625, 0.076904296875, -4.781250000000, -1.328125000000, -4.960937500000, 1490693427
-0.152099609375, -1.001708984375, 0.076416015625, -3.640625000000, 0.125000000000, -6.570312500000, 1490693427
-0.152099609375, -1.001708984375, 0.076416015625, -3.640625000000, 0.125000000000, -6.570312500000, 1490693427
-0.152099609375, -1.001708984375, 0.076416015625, -3.640625000000, 0.125000000000, -6.570312500000, 1490693427
-0.031250000000, -1.016601562500, 0.089111328125, -3.812500000000, 2.515625000000, -4.632812500000, 1490693427
-0.215576171875, -0.953857421875, 0.038330078125, -4.773437500000, 0.835937500000, -3.570312500000, 1490693427
-0.215576171875, -0.953857421875, 0.038330078125, -4.773437500000, 0.835937500000, -3.570312500000, 1490693427
-0.215576171875, -0.953857421875, 0.038330078125, -4.773437500000, 0.835937500000, -3.570312500000, 1490693427
-0.086181640625, -1.064208984375, 0.110595703125, -3.437500000000, 0.296875000000, -2.875000000000, 1490693427
-0.086181640625, -1.064208984375, 0.110595703125, -3.437500000000, 0.296875000000, -2.875000000000, 1490693427
-0.086181640625, -1.064208984375, 0.110595703125, -3.437500000000, 0.296875000000, -2.875000000000, 1490693427
-0.086181640625, -1.064208984375, 0.110595703125, -3.437500000000, 0.296875000000, -2.875000000000, 1490693427
-0.086181640625, -1.064208984375, 0.110595703125, -3.437500000000, 0.296875000000, -2.875000000000, 1490693427
-0.146728515625, -1.020751953125, 0.034423828125, -3.460937500000, -1.093750000000, -3.453125000000, 1490693427
-0.146728515625, -1.020751953125, 0.034423828125, -3.460937500000, -1.093750000000, -3.453125000000, 1490693427
-0.139892578125, -1.019775390625, 0.129150390625, -6.062500000000, 0.101562500000, -3.515625000000, 1490693427
-0.139892578125, -1.019775390625, 0.129150390625, -6.062500000000, 0.101562500000, -3.515625000000, 1490693427
-0.139892578125, -1.019775390625, 0.129150390625, -6.062500000000, 0.101562500000, -3.515625000000, 1490693427
-0.139892578125, -1.019775390625, 0.129150390625, -6.062500000000, 0.101562500000, -3.515625000000, 1490693427
-0.108886718750, -0.993408203125, -0.023925781250, -6.460937500000, 0.968750000000, -6.093750000000, 1490693427
-0.134033203125, -1.085449218750, 0.045410156250, -6.648437500000, -2.132812500000, -3.742187500000, 1490693427
-0.134033203125, -1.085449218750, 0.045410156250, -6.648437500000, -2.132812500000, -3.742187500000, 1490693427
-0.081787109375, -0.941162109375, -0.003906250000, -6.023437500000, -0.445312500000, -4.718750000000, 1490693427
-0.081787109375, -0.941162109375, -0.003906250000, -6.023437500000, -0.445312500000, -4.718750000000, 1490693427
-0.081787109375, -0.941162109375, -0.003906250000, -6.023437500000, -0.445312500000, -4.718750000000, 1490693427
-0.081787109375, -0.941162109375, -0.003906250000, -6.023437500000, -0.445312500000, -4.718750000000, 1490693427
0.018310546875, -1.007080078125, 0.072509765625, -1.585937500000, 0.500000000000, -1.226562500000, 1490693427
0.002197265625, -0.982910156250, -0.003906250000, 0.203125000000, 2.218750000000, -5.265625000000, 1490693427
0.002197265625, -0.982910156250, -0.003906250000, 0.203125000000, 2.218750000000, -5.265625000000, 1490693427
0.002197265625, -0.982910156250, -0.003906250000, 0.203125000000, 2.218750000000, -5.265625000000, 1490693427
-0.042724609375, -1.047363281250, 0.097412109375, -4.875000000000, -0.734375000000, -3.843750000000, 1490693427
-0.042724609375, -1.047363281250, 0.097412109375, -4.875000000000, -0.734375000000, -3.843750000000, 1490693427
-0.042724609375, -1.047363281250, 0.097412109375, -4.875000000000, -0.734375000000, -3.843750000000, 1490693427
0.002685546875, -0.931152343750, -0.007568359375, -3.140625000000, 1.046875000000, -4.304687500000, 1490693427
0.002685546875, -0.931152343750, -0.007568359375, -3.140625000000, 1.046875000000, -4.304687500000, 1490693427
0.002685546875, -0.931152343750, -0.007568359375, -3.140625000000, 1.046875000000, -4.304687500000, 1490693427
0.002685546875, -0.931152343750, -0.007568359375, -3.140625000000, 1.046875000000, -4.304687500000, 1490693427
0.090332031250, -1.003906250000, 0.035888671875, -2.789062500000, 2.703125000000, -4.859375000000, 1490693427
0.090332031250, -1.003906250000, 0.035888671875, -2.789062500000, 2.703125000000, -4.859375000000, 1490693427
0.090332031250, -1.003906250000, 0.035888671875, -2.789062500000, 2.703125000000, -4.859375000000, 1490693427
-0.039306640625, -1.085449218750, 0.078857421875, -4.359375000000, -4.007812500000, -6.640625000000, 1490693427
-0.039306640625, -1.085449218750, 0.078857421875, -4.359375000000, -4.007812500000, -6.640625000000, 1490693427
-0.039306640625, -1.085449218750, 0.078857421875, -4.359375000000, -4.007812500000, -6.640625000000, 1490693427
-0.104248046875, -1.065429687500, 0.049560546875, -4.984375000000, -2.726562500000, -1.890625000000, 1490693427
-0.104248046875, -1.065429687500, 0.049560546875, -4.984375000000, -2.726562500000, -1.890625000000, 1490693428
-0.104248046875, -1.065429687500, 0.049560546875, -4.984375000000, -2.726562500000, -1.890625000000, 1490693428
-0.050048828125, -0.969482421875, -0.005371093750, -5.312500000000, 2.328125000000, -3.085937500000, 1490693428
-0.050048828125, -0.969482421875, -0.005371093750, -5.312500000000, 2.328125000000, -3.085937500000, 1490693428
-0.050048828125, -0.969482421875, -0.005371093750, -5.312500000000, 2.328125000000, -3.085937500000, 1490693428
-0.050048828125, -0.969482421875, -0.005371093750, -5.312500000000, 2.328125000000, -3.085937500000, 1490693428
-0.038330078125, -0.937500000000, 0.143798828125, -6.968750000000, -4.882812500000, -1.132812500000, 1490693428
-0.038330078125, -0.937500000000, 0.143798828125, -6.968750000000, -4.882812500000, -1.132812500000, 1490693428
-0.038330078125, -0.937500000000, 0.143798828125, -6.968750000000, -4.882812500000, -1.132812500000, 1490693428
-0.020507812500, -0.989746093750, -0.018554687500, -3.804687500000, -2.601562500000, -4.875000000000, 1490693428
-0.020507812500, -0.989746093750, -0.018554687500, -3.804687500000, -2.601562500000, -4.875000000000, 1490693428
-0.020507812500, -0.989746093750, -0.018554687500, -3.804687500000, -2.601562500000, -4.875000000000, 1490693428
-0.094726562500, -1.001953125000, 0.083984375000, -5.164062500000, -1.734375000000, -4.445312500000, 1490693428
-0.094726562500, -1.001953125000, 0.083984375000, -5.164062500000, -1.734375000000, -4.445312500000, 1490693428
-0.094726562500, -1.001953125000, 0.083984375000, -5.164062500000, -1.734375000000, -4.445312500000, 1490693428
0.000244140625, -1.021484375000, 0.060302734375, -5.531250000000, -2.164062500000, -4.156250000000, 1490693428
0.000244140625, -1.021484375000, 0.060302734375, -5.531250000000, -2.164062500000, -4.156250000000, 1490693428
-0.100830078125, -1.027099609375, 0.064453125000, -6.242187500000, -2.312500000000, -6.421875000000, 1490693428
-0.100830078125, -1.027099609375, 0.064453125000, -6.242187500000, -2.312500000000, -6.421875000000, 1490693428
-0.100830078125, -1.027099609375, 0.064453125000, -6.242187500000, -2.312500000000, -6.421875000000, 1490693428
-0.100830078125, -1.027099609375, 0.064453125000, -6.242187500000, -2.312500000000, -6.421875000000, 1490693428
-0.100830078125, -1.027099609375, 0.064453125000, -6.242187500000, -2.312500000000, -6.421875000000, 1490693428
-0.194091796875, -0.987304687500, 0.034912109375, -4.843750000000, -2.039062500000, -4.414062500000, 1490693428
-0.070556640625, -0.937011718750, 0.046875000000, -4.945312500000, -0.828125000000, -1.539062500000, 1490693428
-0.070556640625, -0.937011718750, 0.046875000000, -4.945312500000, -0.828125000000, -1.539062500000, 1490693428
-0.070556640625, -0.937011718750, 0.046875000000, -4.945312500000, -0.828125000000, -1.539062500000, 1490693428
-0.070556640625, -0.937011718750, 0.046875000000, -4.945312500000, -0.828125000000, -1.539062500000, 1490693428
-0.070556640625, -0.937011718750, 0.046875000000, -4.945312500000, -0.828125000000, -1.539062500000, 1490693428
-0.037109375000, -1.030517578125, 0.048583984375, -1.828125000000, 1.609375000000, -1.296875000000, 1490693428
-0.017333984375, -1.073974609375, 0.129638671875, -1.773437500000, 1.859375000000, -1.687500000000, 1490693428
-0.058105468750, -1.021972656250, 0.016113281250, -1.773437500000, 1.859375000000, -1.687500000000, 1490693428
-0.058105468750, -1.021972656250, 0.016113281250, -1.773437500000, 1.859375000000, -1.687500000000, 1490693428
-0.058105468750, -1.021972656250, 0.016113281250, -1.773437500000, 1.859375000000, -1.687500000000, 1490693428
-0.058105468750, -1.021972656250, 0.016113281250, -1.773437500000, 1.859375000000, -1.687500000000, 1490693428
-0.058105468750, -1.021972656250, 0.016113281250, -1.773437500000, 1.859375000000, -1.687500000000, 1490693428
-0.196044921875, -0.929199218750, 0.046875000000, -3.351562500000, 2.929687500000, -4.773437500000, 1490693428
-0.196044921875, -0.929199218750, 0.046875000000, -3.351562500000, 2.929687500000, -4.773437500000, 1490693428
-0.196044921875, -0.929199218750, 0.046875000000, -3.351562500000, 2.929687500000, -4.773437500000, 1490693428
-0.142089843750, -1.003662109375, 0.035156250000, -6.046875000000, 1.445312500000, -3.156250000000, 1490693428
-0.036865234375, -1.011230468750, 0.050537109375, -4.281250000000, 1.710937500000, -1.609375000000, 1490693428
-0.036865234375, -1.011230468750, 0.050537109375, -4.281250000000, 1.710937500000, -1.609375000000, 1490693428
0.003417968750, -1.002441406250, 0.042724609375, -4.640625000000, -2.562500000000, -4.554687500000, 1490693428
0.003417968750, -1.002441406250, 0.042724609375, -4.640625000000, -2.562500000000, -4.554687500000, 1490693428
0.003417968750, -1.002441406250, 0.042724609375, -4.640625000000, -2.562500000000, -4.554687500000, 1490693428
0.003417968750, -1.002441406250, 0.042724609375, -4.640625000000, -2.562500000000, -4.554687500000, 1490693428
0.003417968750, -1.002441406250, 0.042724609375, -4.640625000000, -2.562500000000, -4.554687500000, 1490693428
0.003417968750, -1.002441406250, 0.042724609375, -4.640625000000, -2.562500000000, -4.554687500000, 1490693428
-0.082763671875, -0.984619140625, 0.041992187500, -6.687500000000, -3.882812500000, -4.046875000000, 1490693428
-0.082763671875, -0.984619140625, 0.041992187500, -6.687500000000, -3.882812500000, -4.046875000000, 1490693428
-0.082763671875, -0.984619140625, 0.041992187500, -6.687500000000, -3.882812500000, -4.046875000000, 1490693428
-0.082763671875, -0.984619140625, 0.041992187500, -6.687500000000, -3.882812500000, -4.046875000000, 1490693428
-0.082763671875, -0.953857421875, 0.133789062500, -3.593750000000, -1.382812500000, -1.304687500000, 1490693428
-0.082763671875, -0.953857421875, 0.133789062500, -3.593750000000, -1.382812500000, -1.304687500000, 1490693428
-0.082763671875, -0.953857421875, 0.133789062500, -3.593750000000, -1.382812500000, -1.304687500000, 1490693428
-0.081298828125, -1.072998046875, 0.031494140625, -4.000000000000, -4.179687500000, -3.945312500000, 1490693428
-0.081298828125, -1.072998046875, 0.031494140625, -4.000000000000, -4.179687500000, -3.945312500000, 1490693428
-0.081298828125, -1.072998046875, 0.031494140625, -4.000000000000, -4.179687500000, -3.945312500000, 1490693428
-0.081298828125, -1.072998046875, 0.031494140625, -4.000000000000, -4.179687500000, -3.945312500000, 1490693428
-0.091796875000, -1.032714843750, 0.065185546875, -3.109375000000, 0.789062500000, -4.406250000000, 1490693428
-0.091796875000, -1.032714843750, 0.065185546875, -3.109375000000, 0.789062500000, -4.406250000000, 1490693428
-0.091796875000, -1.032714843750, 0.065185546875, -3.109375000000, 0.789062500000, -4.406250000000, 1490693428
-0.046142578125, -0.931152343750, -0.012939453125, -6.164062500000, -0.570312500000, -3.812500000000, 1490693428
-0.046142578125, -0.931152343750, -0.012939453125, -6.164062500000, -0.570312500000, -3.812500000000, 1490693428
-0.046142578125, -0.931152343750, -0.012939453125, -6.164062500000, -0.570312500000, -3.812500000000, 1490693428
-0.120849609375, -0.943847656250, 0.080078125000, -3.609375000000, 0.015625000000, -4.976562500000, 1490693428
-0.120849609375, -0.943847656250, 0.080078125000, -3.609375000000, 0.015625000000, -4.976562500000, 1490693428
-0.120849609375, -0.943847656250, 0.080078125000, -3.609375000000, 0.015625000000, -4.976562500000, 1490693428
-0.149414062500, -1.020996093750, 0.126953125000, -6.257812500000, -2.226562500000, -3.703125000000, 1490693429
-0.149414062500, -1.020996093750, 0.126953125000, -6.257812500000, -2.226562500000, -3.703125000000, 1490693429
-0.149414062500, -1.020996093750, 0.126953125000, -6.257812500000, -2.226562500000, -3.703125000000, 1490693429
-0.149414062500, -1.020996093750, 0.126953125000, -6.257812500000, -2.226562500000, -3.703125000000, 1490693429
-0.043457031250, -0.984863281250, 0.086181640625, -4.625000000000, 0.031250000000, -1.625000000000, 1490693429
-0.043457031250, -0.984863281250, 0.086181640625, -4.625000000000, 0.031250000000, -1.625000000000, 1490693429
-0.043457031250, -0.984863281250, 0.086181640625, -4.625000000000, 0.031250000000, -1.625000000000, 1490693429
-0.068359375000, -0.996337890625, 0.089599609375, -3.117187500000, 2.703125000000, -3.460937500000, 1490693429
-0.068359375000, -0.996337890625, 0.089599609375, -3.117187500000, 2.703125000000, -3.460937500000, 1490693429
-0.068359375000, -0.996337890625, 0.089599609375, -3.117187500000, 2.703125000000, -3.460937500000, 1490693429
-0.128173828125, -0.919921875000, 0.034912109375, -3.226562500000, 2.804687500000, -3.242187500000, 1490693429
-0.128173828125, -0.919921875000, 0.034912109375, -3.226562500000, 2.804687500000, -3.242187500000, 1490693429
-0.090576171875, -1.076904296875, 0.084228515625, -4.960937500000, 0.468750000000, -6.335937500000, 1490693429
-0.090576171875, -1.076904296875, 0.084228515625, -4.960937500000, 0.468750000000, -6.335937500000, 1490693429
-0.090576171875, -1.076904296875, 0.084228515625, -4.960937500000, 0.468750000000, -6.335937500000, 1490693429
-0.090576171875, -1.076904296875, 0.084228515625, -4.960937500000, 0.468750000000, -6.335937500000, 1490693429
-0.090576171875, -1.076904296875, 0.084228515625, -4.960937500000, 0.468750000000, -6.335937500000, 1490693429
-0.094970703125, -1.008789062500, 0.039306640625, -4.960937500000, -0.109375000000, -6.929687500000, 1490693429
-0.094970703125, -1.008789062500, 0.039306640625, -4.960937500000, -0.109375000000, -6.929687500000, 1490693429
-0.094970703125, -1.008789062500, 0.039306640625, -4.960937500000, -0.109375000000, -6.929687500000, 1490693429
0.018310546875, -0.991210937500, 0.032226562500, -4.460937500000, -0.984375000000, -5.101562500000, 1490693429
0.018310546875, -0.991210937500, 0.032226562500, -4.460937500000, -0.984375000000, -5.101562500000, 1490693429
0.018310546875, -0.991210937500, 0.032226562500, -4.460937500000, -0.984375000000, -5.101562500000, 1490693429
