ACC_X,ACC_Y,ACC_Z,G_X,G_Y,G_Z,Unix Time
-0.125244140625, -0.903320312500, 0.284423828125, -12.984375000000, -12.031250000000, -5.734375000000, 1490693947
-0.125244140625, -0.903320312500, 0.284423828125, -12.984375000000, -12.031250000000, -5.734375000000, 1490693947
-0.125244140625, -0.903320312500, 0.284423828125, -12.984375000000, -12.031250000000, -5.734375000000, 1490693947
-0.041503906250, -0.866455078125, 0.317871093750, -13.515625000000, -8.679687500000, -6.187500000000, 1490693947
-0.041503906250, -0.866455078125, 0.317871093750, -13.515625000000, -8.679687500000, -6.187500000000, 1490693947
-0.041503906250, -0.866455078125, 0.317871093750, -13.515625000000, -8.679687500000, -6.187500000000, 1490693947
-0.100585937500, -0.952148437500, 0.248291015625, -4.687500000000, -4.414062500000, -6.195312500000, 1490693947
-0.100585937500, -0.952148437500, 0.248291015625, -4.687500000000, -4.414062500000, -6.195312500000, 1490693947
-0.100585937500, -0.952148437500, 0.248291015625, -4.687500000000, -4.414062500000, -6.195312500000, 1490693947
-0.100585937500, -0.939208984375, 0.238525390625, -1.312500000000, -4.710937500000, -8.328125000000, 1490693947
-0.100585937500, -0.939208984375, 0.238525390625, -1.312500000000, -4.710937500000, -8.328125000000, 1490693947
-0.100585937500, -0.939208984375, 0.238525390625, -1.312500000000, -4.710937500000, -8.328125000000, 1490693947
-0.100585937500, -0.939208984375, 0.238525390625, -1.312500000000, -4.710937500000, -8.328125000000, 1490693947
-0.043945312500, -1.022705078125, 0.291503906250, -6.445312500000, -6.820312500000, -8.218750000000, 1490693947
-0.043945312500, -1.022705078125, 0.291503906250, -6.445312500000, -6.820312500000, -8.218750000000, 1490693947
-0.043945312500, -1.022705078125, 0.291503906250, -6.445312500000, -6.820312500000, -8.218750000000, 1490693947
-0.049072265625, -0.955078125000, 0.343505859375, -8.593750000000, -4.953125000000, -6.546875000000, 1490693947
-0.049072265625, -0.955078125000, 0.343505859375, -8.593750000000, -4.953125000000, -6.546875000000, 1490693947
-0.049072265625, -0.955078125000, 0.343505859375, -8.593750000000, -4.953125000000, -6.546875000000, 1490693947
-0.133300781250, -0.979980468750, 0.246582031250, -3.500000000000, -3.523437500000, -5.406250000000, 1490693947
-0.180664062500, -0.920898437500, 0.328369140625, -4.171875000000, -3.171875000000, -4.257812500000, 1490693947
-0.180664062500, -0.920898437500, 0.328369140625, -4.171875000000, -3.171875000000, -4.257812500000, 1490693947
-0.180664062500, -0.920898437500, 0.328369140625, -4.171875000000, -3.171875000000, -4.257812500000, 1490693947
-0.143310546875, -0.963867187500, 0.285644531250, -10.296875000000, -6.210937500000, -8.343750000000, 1490693947
-0.143310546875, -0.963867187500, 0.285644531250, -10.296875000000, -6.210937500000, -8.343750000000, 1490693947
-0.143310546875, -0.963867187500, 0.285644531250, -10.296875000000, -6.210937500000, -8.343750000000, 1490693947
-0.064208984375, -1.027099609375, 0.394042968750, -8.273437500000, -4.539062500000, -3.992187500000, 1490693947
-0.172851562500, -0.955810546875, 0.296875000000, -8.273437500000, -4.539062500000, -3.992187500000, 1490693947
-0.172851562500, -0.955810546875, 0.296875000000, -8.273437500000, -4.539062500000, -3.992187500000, 1490693947
-0.152343750000, -0.927246093750, 0.295898437500, -5.937500000000, -1.296875000000, -1.906250000000, 1490693947
-0.079345703125, -0.918701171875, 0.283447265625, -5.250000000000, 0.289062500000, -6.507812500000, 1490693947
-0.079345703125, -0.918701171875, 0.283447265625, -5.250000000000, 0.289062500000, -6.507812500000, 1490693947
-0.079345703125, -0.918701171875, 0.283447265625, -5.250000000000, 0.289062500000, -6.507812500000, 1490693947
-0.079345703125, -0.918701171875, 0.283447265625, -5.250000000000, 0.289062500000, -6.507812500000, 1490693947
-0.079345703125, -0.918701171875, 0.283447265625, -5.250000000000, 0.289062500000, -6.507812500000, 1490693947
-0.135253906250, -0.871337890625, 0.299560546875, -10.546875000000, 0.976562500000, -6.242187500000, 1490693947
-0.135253906250, -0.871337890625, 0.299560546875, -10.546875000000, 0.976562500000, -6.242187500000, 1490693947
-0.135253906250, -0.871337890625, 0.299560546875, -10.546875000000, 0.976562500000, -6.242187500000, 1490693947
-0.135253906250, -0.871337890625, 0.299560546875, -10.546875000000, 0.976562500000, -6.242187500000, 1490693947
-0.102294921875, -0.931152343750, 0.293212890625, -7.031250000000, -4.015625000000, -2.640625000000, 1490693947
-0.102294921875, -0.931152343750, 0.293212890625, -7.031250000000, -4.015625000000, -2.640625000000, 1490693947
-0.102294921875, -0.931152343750, 0.293212890625, -7.031250000000, -4.015625000000, -2.640625000000, 1490693947
-0.112548828125, -1.013671875000, 0.221923828125, 2.945312500000, 2.109375000000, 2.695312500000, 1490693947
-0.112548828125, -1.013671875000, 0.221923828125, 2.945312500000, 2.109375000000, 2.695312500000, 1490693947
-0.112548828125, -1.013671875000, 0.221923828125, 2.945312500000, 2.109375000000, 2.695312500000, 1490693947
-0.108642578125, -0.913818359375, 0.396240234375, -2.828125000000, 1.257812500000, 1.835937500000, 1490693947
-0.108642578125, -0.913818359375, 0.396240234375, -2.828125000000, 1.257812500000, 1.835937500000, 1490693947
-0.108642578125, -0.913818359375, 0.396240234375, -2.828125000000, 1.257812500000, 1.835937500000, 1490693947
-0.108642578125, -0.913818359375, 0.396240234375, -2.828125000000, 1.257812500000, 1.835937500000, 1490693947
-0.199218750000, -0.961425781250, 0.340332031250, -5.671875000000, -2.234375000000, 0.609375000000, 1490693948
-0.199218750000, -0.961425781250, 0.340332031250, -5.671875000000, -2.234375000000, 0.609375000000, 1490693948
-0.199218750000, -0.961425781250, 0.340332031250, -5.671875000000, -2.234375000000, 0.609375000000, 1490693948
-0.071533203125, -0.904541015625, 0.342773437500, -4.140625000000, -4.562500000000, 0.257812500000, 1490693948
-0.071533203125, -0.904541015625, 0.342773437500, -4.140625000000, -4.562500000000, 0.257812500000, 1490693948
-0.071533203125, -0.904541015625, 0.342773437500, -4.140625000000, -4.562500000000, 0.257812500000, 1490693948
-0.060058593750, -0.860595703125, 0.268310546875, 5.210937500000, 1.859375000000, -2.960937500000, 1490693948
-0.060058593750, -0.860595703125, 0.268310546875, 5.210937500000, 1.859375000000, -2.960937500000, 1490693948
-0.060058593750, -0.860595703125, 0.268310546875, 5.210937500000, 1.859375000000, -2.960937500000, 1490693948
0.017089843750, -0.591796875000, 0.246582031250, 46.445312500000, 3.359375000000, 2.218750000000, 1490693948
0.017089843750, -0.591796875000, 0.246582031250, 46.445312500000, 3.359375000000, 2.218750000000, 1490693948
0.017089843750, -0.591796875000, 0.246582031250, 46.445312500000, 3.359375000000, 2.218750000000, 1490693948
0.017089843750, -0.591796875000, 0.246582031250, 46.445312500000, 3.359375000000, 2.218750000000, 1490693948
-0.089111328125, -0.224609375000, 0.157470703125, 44.640625000000, 8.406250000000, 9.390625000000, 1490693948
-0.089111328125, -0.224609375000, 0.157470703125, 44.640625000000, 8.406250000000, 9.390625000000, 1490693948
-0.089111328125, -0.224609375000, 0.157470703125, 44.640625000000, 8.406250000000, 9.390625000000, 1490693948
0.015380859375, -0.085449218750, 0.063720703125, 27.687500000000, -4.648437500000, 46.070312500000, 1490693948
0.015380859375, -0.085449218750, 0.063720703125, 27.687500000000, -4.648437500000, 46.070312500000, 1490693948
0.015380859375, -0.085449218750, 0.063720703125, 27.687500000000, -4.648437500000, 46.070312500000, 1490693948
-0.058105468750, -0.943847656250, -0.096679687500, -118.210937500000, -214.468750000000, 16.929687500000, 1490693948
-0.058105468750, -0.943847656250, -0.096679687500, -118.210937500000, -214.468750000000, 16.929687500000, 1490693948
-0.058105468750, -0.943847656250, -0.096679687500, -118.210937500000, -214.468750000000, 16.929687500000, 1490693948
0.041992187500, -1.616455078125, 0.352294921875, 96.898437500000, 253.992187500000, -53.882812500000, 1490693948
0.041992187500, -1.616455078125, 0.352294921875, 96.898437500000, 253.992187500000, -53.882812500000, 1490693948
0.041992187500, -1.616455078125, 0.352294921875, 96.898437500000, 253.992187500000, -53.882812500000, 1490693948
0.425537109375, -2.387939453125, 0.989990234375, 202.226562500000, 253.992187500000, 79.281250000000, 1490693948
-0.422363281250, -1.988037109375, 0.790283203125, -49.460937500000, 107.148437500000, 78.796875000000, 1490693948
-0.422363281250, -1.988037109375, 0.790283203125, -49.460937500000, 107.148437500000, 78.796875000000, 1490693948
-0.422363281250, -1.988037109375, 0.790283203125, -49.460937500000, 107.148437500000, 78.796875000000, 1490693948
-0.331054687500, -3.505126953125, 0.984375000000, -134.656250000000, -107.320312500000, -11.726562500000, 1490693948
-0.331054687500, -3.505126953125, 0.984375000000, -134.656250000000, -107.320312500000, -11.726562500000, 1490693948
-0.331054687500, -3.505126953125, 0.984375000000, -134.656250000000, -107.320312500000, -11.726562500000, 1490693948
-0.717529296875, -3.042236328125, 0.595947265625, -30.398437500000, -68.695312500000, -107.945312500000, 1490693948
-0.717529296875, -3.042236328125, 0.595947265625, -30.398437500000, -68.695312500000, -107.945312500000, 1490693948
-0.717529296875, -3.042236328125, 0.595947265625, -30.398437500000, -68.695312500000, -107.945312500000, 1490693948
-0.005371093750, -0.343994140625, 0.116943359375, -11.093750000000, -64.976562500000, -46.343750000000, 1490693948
-0.005371093750, -0.343994140625, 0.116943359375, -11.093750000000, -64.976562500000, -46.343750000000, 1490693948
-0.005371093750, -0.343994140625, 0.116943359375, -11.093750000000, -64.976562500000, -46.343750000000, 1490693948
-0.005371093750, -0.343994140625, 0.116943359375, -11.093750000000, -64.976562500000, -46.343750000000, 1490693948
0.105224609375, -0.022705078125, -0.024902343750, -95.773437500000, -73.101562500000, 17.726562500000, 1490693948
0.105224609375, -0.022705078125, -0.024902343750, -95.773437500000, -73.101562500000, 17.726562500000, 1490693948
0.105224609375, -0.022705078125, -0.024902343750, -95.773437500000, -73.101562500000, 17.726562500000, 1490693948
-0.011474609375, 0.200927734375, -0.004882812500, -73.585937500000, -156.593750000000, 51.265625000000, 1490693948
-0.011474609375, 0.200927734375, -0.004882812500, -73.585937500000, -156.593750000000, 51.265625000000, 1490693948
-0.011474609375, 0.200927734375, -0.004882812500, -73.585937500000, -156.593750000000, 51.265625000000, 1490693948
0.145751953125, 0.113281250000, 0.040527343750, -58.523437500000, -174.437500000000, -7.695312500000, 1490693948
0.145751953125, 0.113281250000, 0.040527343750, -58.523437500000, -174.437500000000, -7.695312500000, 1490693948
0.073486328125, -0.071777343750, -0.011962890625, -66.859375000000, -129.601562500000, 5.820312500000, 1490693948
0.073486328125, -0.071777343750, -0.011962890625, -66.859375000000, -129.601562500000, 5.820312500000, 1490693948
0.073486328125, -0.071777343750, -0.011962890625, -66.859375000000, -129.601562500000, 5.820312500000, 1490693948
0.073486328125, -0.071777343750, -0.011962890625, -66.859375000000, -129.601562500000, 5.820312500000, 1490693948
0.073486328125, -0.071777343750, -0.011962890625, -66.859375000000, -129.601562500000, 5.820312500000, 1490693948
0.003173828125, -0.111572265625, -0.073730468750, -117.039062500000, -168.328125000000, 25.703125000000, 1490693948
0.003173828125, -0.111572265625, -0.073730468750, -117.039062500000, -168.328125000000, 25.703125000000, 1490693948
0.003173828125, -0.111572265625, -0.073730468750, -117.039062500000, -168.328125000000, 25.703125000000, 1490693948
0.035400390625, -0.199951171875, 0.037841796875, -99.187500000000, -217.429687500000, 22.820312500000, 1490693948
0.035400390625, -0.199951171875, 0.037841796875, -99.187500000000, -217.429687500000, 22.820312500000, 1490693948
0.035400390625, -0.199951171875, 0.037841796875, -99.187500000000, -217.429687500000, 22.820312500000, 1490693948
0.019042968750, 0.017822265625, 0.082031250000, -49.320312500000, -189.812500000000, 49.609375000000, 1490693948
0.019042968750, 0.017822265625, 0.082031250000, -49.320312500000, -189.812500000000, 49.609375000000, 1490693948
0.019042968750, 0.017822265625, 0.082031250000, -49.320312500000, -189.812500000000, 49.609375000000, 1490693948
0.088623046875, -0.011474609375, -0.022460937500, 1.101562500000, -101.882812500000, 26.960937500000, 1490693948
0.088623046875, -0.011474609375, -0.022460937500, 1.101562500000, -101.882812500000, 26.960937500000, 1490693948
0.088623046875, -0.011474609375, -0.022460937500, 1.101562500000, -101.882812500000, 26.960937500000, 1490693948
0.088623046875, -0.011474609375, -0.022460937500, 1.101562500000, -101.882812500000, 26.960937500000, 1490693948
-0.035400390625, -0.438232421875, 0.011962890625, -86.476562500000, 7.875000000000, 63.726562500000, 1490693948
-0.035400390625, -0.438232421875, 0.011962890625, -86.476562500000, 7.875000000000, 63.726562500000, 1490693948
-0.035400390625, -0.438232421875, 0.011962890625, -86.476562500000, 7.875000000000, 63.726562500000, 1490693949
0.168701171875, -2.867431640625, 0.574707031250, -247.109375000000, 253.992187500000, -65.265625000000, 1490693949
0.168701171875, -2.867431640625, 0.574707031250, -247.109375000000, 253.992187500000, -65.265625000000, 1490693949
0.168701171875, -2.867431640625, 0.574707031250, -247.109375000000, 253.992187500000, -65.265625000000, 1490693949
1.708251953125, -5.166259765625, 4.828125000000, 253.992187500000, 253.992187500000, -53.070312500000, 1490693949
1.708251953125, -5.166259765625, 4.828125000000, 253.992187500000, 253.992187500000, -53.070312500000, 1490693949
1.708251953125, -5.166259765625, 4.828125000000, 253.992187500000, 253.992187500000, -53.070312500000, 1490693949
-0.108886718750, -1.826416015625, -0.091552734375, -256.000000000000, -256.000000000000, -134.062500000000, 1490693949
-0.108886718750, -1.826416015625, -0.091552734375, -256.000000000000, -256.000000000000, -134.062500000000, 1490693949
-0.108886718750, -1.826416015625, -0.091552734375, -256.000000000000, -256.000000000000, -134.062500000000, 1490693949
-0.108886718750, -1.826416015625, -0.091552734375, -256.000000000000, -256.000000000000, -134.062500000000, 1490693949
-0.185546875000, -1.000000000000, 0.391357421875, -38.710937500000, -256.000000000000, -122.085937500000, 1490693949
-0.185546875000, -1.000000000000, 0.391357421875, -38.710937500000, -256.000000000000, -122.085937500000, 1490693949
-0.185546875000, -1.000000000000, 0.391357421875, -38.710937500000, -256.000000000000, -122.085937500000, 1490693949
0.002197265625, -0.324218750000, -0.007812500000, 92.695312500000, -150.875000000000, -50.515625000000, 1490693949
0.002197265625, -0.324218750000, -0.007812500000, 92.695312500000, -150.875000000000, -50.515625000000, 1490693949
0.002197265625, -0.324218750000, -0.007812500000, 92.695312500000, -150.875000000000, -50.515625000000, 1490693949
0.037353515625, -0.129882812500, 0.086669921875, 46.468750000000, -148.007812500000, 21.250000000000, 1490693949
0.037353515625, -0.129882812500, 0.086669921875, 46.468750000000, -148.007812500000, 21.250000000000, 1490693949
0.037353515625, -0.129882812500, 0.086669921875, 46.468750000000, -148.007812500000, 21.250000000000, 1490693949
0.029296875000, 0.022705078125, 0.030029296875, 19.468750000000, -177.187500000000, 0.132812500000, 1490693949
0.029296875000, 0.022705078125, 0.030029296875, 19.468750000000, -177.187500000000, 0.132812500000, 1490693949
0.029296875000, 0.022705078125, 0.030029296875, 19.468750000000, -177.187500000000, 0.132812500000, 1490693949
0.029296875000, 0.022705078125, 0.030029296875, 19.468750000000, -177.187500000000, 0.132812500000, 1490693949
0.020019531250, -0.197265625000, -0.021240234375, -46.750000000000, -133.960937500000, 31.359375000000, 1490693949
0.020019531250, -0.197265625000, -0.021240234375, -46.750000000000, -133.960937500000, 31.359375000000, 1490693949
0.020019531250, -0.197265625000, -0.021240234375, -46.750000000000, -133.960937500000, 31.359375000000, 1490693949
0.081298828125, -0.390625000000, -0.002441406250, -158.312500000000, -14.242187500000, 108.046875000000, 1490693949
0.081298828125, -0.390625000000, -0.002441406250, -158.312500000000, -14.242187500000, 108.046875000000, 1490693949
0.081298828125, -0.390625000000, -0.002441406250, -158.312500000000, -14.242187500000, 108.046875000000, 1490693949
-0.008300781250, -0.749267578125, 0.148437500000, -103.476562500000, 159.539062500000, -5.187500000000, 1490693949
-0.008300781250, -0.749267578125, 0.148437500000, -103.476562500000, 159.539062500000, -5.187500000000, 1490693949
-0.008300781250, -0.749267578125, 0.148437500000, -103.476562500000, 159.539062500000, -5.187500000000, 1490693949
0.188964843750, -1.374511718750, 0.629150390625, 239.117187500000, 253.992187500000, -45.812500000000, 1490693949
0.188964843750, -1.374511718750, 0.629150390625, 239.117187500000, 253.992187500000, -45.812500000000, 1490693949
0.188964843750, -1.374511718750, 0.629150390625, 239.117187500000, 253.992187500000, -45.812500000000, 1490693949
0.188964843750, -1.374511718750, 0.629150390625, 239.117187500000, 253.992187500000, -45.812500000000, 1490693949
-0.874755859375, -2.370849609375, 1.201171875000, 253.992187500000, 253.992187500000, 96.734375000000, 1490693949
-0.874755859375, -2.370849609375, 1.201171875000, 253.992187500000, 253.992187500000, 96.734375000000, 1490693949
-0.874755859375, -2.370849609375, 1.201171875000, 253.992187500000, 253.992187500000, 96.734375000000, 1490693949
-0.235351562500, -1.677246093750, 0.470947265625, -256.000000000000, -256.000000000000, -74.000000000000, 1490693949
-0.235351562500, -1.677246093750, 0.470947265625, -256.000000000000, -256.000000000000, -74.000000000000, 1490693949
-0.235351562500, -1.677246093750, 0.470947265625, -256.000000000000, -256.000000000000, -74.000000000000, 1490693949
-0.278076171875, -1.164062500000, 0.381591796875, -53.203125000000, -159.726562500000, -33.171875000000, 1490693949
-0.278076171875, -1.164062500000, 0.381591796875, -53.203125000000, -159.726562500000, -33.171875000000, 1490693949
-0.278076171875, -1.164062500000, 0.381591796875, -53.203125000000, -159.726562500000, -33.171875000000, 1490693949
-0.056396484375, -0.640869140625, 0.167236328125, 71.265625000000, 73.546875000000, -21.796875000000, 1490693949
-0.056396484375, -0.640869140625, 0.167236328125, 71.265625000000, 73.546875000000, -21.796875000000, 1490693949
-0.056396484375, -0.640869140625, 0.167236328125, 71.265625000000, 73.546875000000, -21.796875000000, 1490693949
-0.056396484375, -0.640869140625, 0.167236328125, 71.265625000000, 73.546875000000, -21.796875000000, 1490693949
0.080566406250, -0.471923828125, 0.270263671875, 91.570312500000, 69.710937500000, 5.492187500000, 1490693949
0.080566406250, -0.471923828125, 0.270263671875, 91.570312500000, 69.710937500000, 5.492187500000, 1490693949
-0.060302734375, -0.384033203125, 0.461914062500, -29.406250000000, 64.828125000000, 56.914062500000, 1490693949
-0.060302734375, -0.384033203125, 0.461914062500, -29.406250000000, 64.828125000000, 56.914062500000, 1490693949
-0.060302734375, -0.384033203125, 0.461914062500, -29.406250000000, 64.828125000000, 56.914062500000, 1490693949
-0.115478515625, -0.392822265625, 0.250244140625, -70.773437500000, 15.101562500000, 28.546875000000, 1490693949
-0.115478515625, -0.392822265625, 0.250244140625, -70.773437500000, 15.101562500000, 28.546875000000, 1490693949
-0.115478515625, -0.392822265625, 0.250244140625, -70.773437500000, 15.101562500000, 28.546875000000, 1490693949
-0.186279296875, -0.803955078125, 0.097656250000, -55.601562500000, 45.171875000000, -10.289062500000, 1490693949
-0.186279296875, -0.803955078125, 0.097656250000, -55.601562500000, 45.171875000000, -10.289062500000, 1490693949
-0.186279296875, -0.803955078125, 0.097656250000, -55.601562500000, 45.171875000000, -10.289062500000, 1490693949
-0.320556640625, -1.122802734375, 0.384765625000, -1.273437500000, 38.054687500000, 0.398437500000, 1490693949
-0.320556640625, -1.122802734375, 0.384765625000, -1.273437500000, 38.054687500000, 0.398437500000, 1490693949
-0.320556640625, -1.122802734375, 0.384765625000, -1.273437500000, 38.054687500000, 0.398437500000, 1490693949
-0.320556640625, -1.122802734375, 0.384765625000, -1.273437500000, 38.054687500000, 0.398437500000, 1490693949
-0.320556640625, -1.122802734375, 0.384765625000, -1.273437500000, 38.054687500000, 0.398437500000, 1490693949
-0.317382812500, -1.170410156250, 0.507568359375, 10.039062500000, -12.593750000000, -2.406250000000, 1490693950
-0.317382812500, -1.170410156250, 0.507568359375, 10.039062500000, -12.593750000000, -2.406250000000, 1490693950
-0.317382812500, -1.170410156250, 0.507568359375, 10.039062500000, -12.593750000000, -2.406250000000, 1490693950
-0.290283203125, -1.067382812500, 0.484619140625, 11.234375000000, -16.164062500000, 0.164062500000, 1490693950
-0.290283203125, -1.067382812500, 0.484619140625, 11.234375000000, -16.164062500000, 0.164062500000, 1490693950
-0.290283203125, -1.067382812500, 0.484619140625, 11.234375000000, -16.164062500000, 0.164062500000, 1490693950
-0.290283203125, -1.067382812500, 0.484619140625, 11.234375000000, -16.164062500000, 0.164062500000, 1490693950
-0.290283203125, -1.067382812500, 0.484619140625, 11.234375000000, -16.164062500000, 0.164062500000, 1490693950
-0.106201171875, -0.878417968750, 0.318359375000, 3.156250000000, -24.234375000000, -10.992187500000, 1490693950
-0.106201171875, -0.878417968750, 0.318359375000, 3.156250000000, -24.234375000000, -10.992187500000, 1490693950
