ACC_X,ACC_Y,ACC_Z,G_X,G_Y,G_Z,Unix Time
-0.207275390625, -0.692138671875, -0.085937500000, -72.312500000000, -47.335937500000, 0.523437500000, 1490695261
-0.207275390625, -0.692138671875, -0.085937500000, -72.312500000000, -47.335937500000, 0.523437500000, 1490695261
-0.207275390625, -0.692138671875, -0.085937500000, -72.312500000000, -47.335937500000, 0.523437500000, 1490695261
-0.215087890625, -0.722412109375, -0.027587890625, -55.164062500000, -69.109375000000, -6.835937500000, 1490695262
-0.215087890625, -0.722412109375, -0.027587890625, -55.164062500000, -69.109375000000, -6.835937500000, 1490695262
-0.215087890625, -0.722412109375, -0.027587890625, -55.164062500000, -69.109375000000, -6.835937500000, 1490695262
-0.215087890625, -0.722412109375, -0.027587890625, -55.164062500000, -69.109375000000, -6.835937500000, 1490695262
-0.003173828125, -0.911621093750, 0.007568359375, 43.617187500000, -17.875000000000, -13.484375000000, 1490695262
-0.003173828125, -0.911621093750, 0.007568359375, 43.617187500000, -17.875000000000, -13.484375000000, 1490695262
-0.003173828125, -0.911621093750, 0.007568359375, 43.617187500000, -17.875000000000, -13.484375000000, 1490695262
0.189941406250, -1.035888671875, 0.275146484375, 205.914062500000, -19.718750000000, 16.828125000000, 1490695262
0.189941406250, -1.035888671875, 0.275146484375, 205.914062500000, -19.718750000000, 16.828125000000, 1490695262
0.189941406250, -1.035888671875, 0.275146484375, 205.914062500000, -19.718750000000, 16.828125000000, 1490695262
-0.114501953125, -0.954101562500, 0.335693359375, 200.773437500000, 81.578125000000, 21.773437500000, 1490695262
-0.114501953125, -0.954101562500, 0.335693359375, 200.773437500000, 81.578125000000, 21.773437500000, 1490695262
-0.159667968750, -1.008300781250, 0.413818359375, 116.882812500000, 19.453125000000, 37.585937500000, 1490695262
-0.083251953125, -0.863525390625, 0.274414062500, -48.804687500000, -54.796875000000, -1.171875000000, 1490695262
-0.036132812500, -0.928222656250, 0.109130859375, -28.382812500000, -32.203125000000, 0.734375000000, 1490695262
-0.036132812500, -0.928222656250, 0.109130859375, -28.382812500000, -32.203125000000, 0.734375000000, 1490695262
-0.036132812500, -0.928222656250, 0.109130859375, -28.382812500000, -32.203125000000, 0.734375000000, 1490695262
0.023925781250, -0.874023437500, 0.130859375000, 7.921875000000, -17.460937500000, -7.164062500000, 1490695262
0.061767578125, -0.801025390625, 0.110107421875, 15.203125000000, -16.671875000000, -5.164062500000, 1490695262
0.061767578125, -0.801025390625, 0.110107421875, 15.203125000000, -16.671875000000, -5.164062500000, 1490695262
0.061767578125, -0.801025390625, 0.110107421875, 15.203125000000, -16.671875000000, -5.164062500000, 1490695262
0.061767578125, -0.801025390625, 0.110107421875, 15.203125000000, -16.671875000000, -5.164062500000, 1490695262
0.061767578125, -0.801025390625, 0.110107421875, 15.203125000000, -16.671875000000, -5.164062500000, 1490695262
-0.073974609375, -1.024902343750, 0.157714843750, -2.593750000000, -8.054687500000, -0.460937500000, 1490695262
-0.073974609375, -1.024902343750, 0.157714843750, -2.593750000000, -8.054687500000, -0.460937500000, 1490695262
-0.138183593750, -1.489013671875, 0.462890625000, -18.500000000000, 4.062500000000, 3.078125000000, 1490695262
-0.138183593750, -1.489013671875, 0.462890625000, -18.500000000000, 4.062500000000, 3.078125000000, 1490695262
-0.138183593750, -1.489013671875, 0.462890625000, -18.500000000000, 4.062500000000, 3.078125000000, 1490695262
-0.138183593750, -1.489013671875, 0.462890625000, -18.500000000000, 4.062500000000, 3.078125000000, 1490695262
-0.138183593750, -1.489013671875, 0.462890625000, -18.500000000000, 4.062500000000, 3.078125000000, 1490695262
-0.057861328125, -1.097900390625, 0.201171875000, -86.234375000000, -37.789062500000, -8.710937500000, 1490695262
-0.057861328125, -1.097900390625, 0.201171875000, -86.234375000000, -37.789062500000, -8.710937500000, 1490695262
-0.057861328125, -1.097900390625, 0.201171875000, -86.234375000000, -37.789062500000, -8.710937500000, 1490695262
0.099853515625, -0.746337890625, 0.033203125000, -74.484375000000, -41.273437500000, -20.726562500000, 1490695262
0.099853515625, -0.746337890625, 0.033203125000, -74.484375000000, -41.273437500000, -20.726562500000, 1490695262
0.099853515625, -0.746337890625, 0.033203125000, -74.484375000000, -41.273437500000, -20.726562500000, 1490695262
0.256103515625, -0.960205078125, -0.077880859375, -77.187500000000, 45.250000000000, -39.539062500000, 1490695262
0.256103515625, -0.960205078125, -0.077880859375, -77.187500000000, 45.250000000000, -39.539062500000, 1490695262
0.256103515625, -0.960205078125, -0.077880859375, -77.187500000000, 45.250000000000, -39.539062500000, 1490695262
0.063232421875, -1.086669921875, -0.071777343750, -51.257812500000, -5.640625000000, 27.398437500000, 1490695262
0.063232421875, -1.086669921875, -0.071777343750, -51.257812500000, -5.640625000000, 27.398437500000, 1490695262
0.063232421875, -1.086669921875, -0.071777343750, -51.257812500000, -5.640625000000, 27.398437500000, 1490695262
0.063232421875, -1.086669921875, -0.071777343750, -51.257812500000, -5.640625000000, 27.398437500000, 1490695262
-0.208007812500, -1.091796875000, 0.195312500000, 151.125000000000, -13.156250000000, 10.687500000000, 1490695262
-0.208007812500, -1.091796875000, 0.195312500000, 151.125000000000, -13.156250000000, 10.687500000000, 1490695262
-0.208007812500, -1.091796875000, 0.195312500000, 151.125000000000, -13.156250000000, 10.687500000000, 1490695262
0.059570312500, -0.909423828125, 0.491699218750, 122.179687500000, 40.406250000000, -40.640625000000, 1490695262
0.059570312500, -0.909423828125, 0.491699218750, 122.179687500000, 40.406250000000, -40.640625000000, 1490695262
0.059570312500, -0.909423828125, 0.491699218750, 122.179687500000, 40.406250000000, -40.640625000000, 1490695262
-0.078125000000, -0.687500000000, 0.300048828125, 19.445312500000, 9.156250000000, -10.906250000000, 1490695262
-0.078125000000, -0.687500000000, 0.300048828125, 19.445312500000, 9.156250000000, -10.906250000000, 1490695262
-0.078125000000, -0.687500000000, 0.300048828125, 19.445312500000, 9.156250000000, -10.906250000000, 1490695262
0.026123046875, -0.955810546875, 0.160156250000, -31.335937500000, 5.445312500000, 1.195312500000, 1490695262
0.026123046875, -0.955810546875, 0.160156250000, -31.335937500000, 5.445312500000, 1.195312500000, 1490695262
0.026123046875, -0.955810546875, 0.160156250000, -31.335937500000, 5.445312500000, 1.195312500000, 1490695262
0.026123046875, -0.955810546875, 0.160156250000, -31.335937500000, 5.445312500000, 1.195312500000, 1490695262
0.001464843750, -0.901855468750, 0.106689453125, -19.601562500000, 3.648437500000, -0.070312500000, 1490695262
0.001464843750, -0.901855468750, 0.106689453125, -19.601562500000, 3.648437500000, -0.070312500000, 1490695262
0.001464843750, -0.901855468750, 0.106689453125, -19.601562500000, 3.648437500000, -0.070312500000, 1490695262
-0.030029296875, -0.938964843750, 0.117187500000, -0.765625000000, -8.226562500000, -6.484375000000, 1490695262
-0.030029296875, -0.938964843750, 0.117187500000, -0.765625000000, -8.226562500000, -6.484375000000, 1490695262
-0.030029296875, -0.938964843750, 0.117187500000, -0.765625000000, -8.226562500000, -6.484375000000, 1490695262
0.071533203125, -1.182373046875, 0.333496093750, 41.226562500000, 8.554687500000, -5.609375000000, 1490695262
0.071533203125, -1.182373046875, 0.333496093750, 41.226562500000, 8.554687500000, -5.609375000000, 1490695262
0.071533203125, -1.182373046875, 0.333496093750, 41.226562500000, 8.554687500000, -5.609375000000, 1490695262
-0.045654296875, -1.383300781250, 0.373046875000, -6.179687500000, 21.843750000000, -10.843750000000, 1490695263
-0.045654296875, -1.383300781250, 0.373046875000, -6.179687500000, 21.843750000000, -10.843750000000, 1490695263
0.006103515625, -1.232910156250, 0.219238281250, -42.781250000000, 19.070312500000, -18.125000000000, 1490695263
0.065673828125, -0.925292968750, 0.120849609375, -77.554687500000, 6.039062500000, -30.382812500000, 1490695263
0.065673828125, -0.925292968750, 0.120849609375, -77.554687500000, 6.039062500000, -30.382812500000, 1490695263
0.065673828125, -0.925292968750, 0.120849609375, -77.554687500000, 6.039062500000, -30.382812500000, 1490695263
0.065673828125, -0.925292968750, 0.120849609375, -77.554687500000, 6.039062500000, -30.382812500000, 1490695263
0.009033203125, -0.893066406250, -0.048339843750, -110.523437500000, -18.015625000000, -19.312500000000, 1490695263
0.009033203125, -0.893066406250, -0.048339843750, -110.523437500000, -18.015625000000, -19.312500000000, 1490695263
0.009033203125, -0.893066406250, -0.048339843750, -110.523437500000, -18.015625000000, -19.312500000000, 1490695263
0.035644531250, -0.799560546875, 0.009033203125, -148.835937500000, -40.335937500000, 3.812500000000, 1490695263
0.035644531250, -0.799560546875, 0.009033203125, -148.835937500000, -40.335937500000, 3.812500000000, 1490695263
0.036865234375, -1.055664062500, 0.047607421875, -126.765625000000, -20.156250000000, 30.359375000000, 1490695263
0.255371093750, -1.088867187500, 0.119384765625, 57.367187500000, -4.648437500000, 16.390625000000, 1490695263
0.255371093750, -1.088867187500, 0.119384765625, 57.367187500000, -4.648437500000, 16.390625000000, 1490695263
0.255371093750, -1.088867187500, 0.119384765625, 57.367187500000, -4.648437500000, 16.390625000000, 1490695263
0.255371093750, -1.088867187500, 0.119384765625, 57.367187500000, -4.648437500000, 16.390625000000, 1490695263
0.011962890625, -0.834716796875, 0.194335937500, 242.601562500000, 53.742187500000, 26.210937500000, 1490695263
0.011962890625, -0.834716796875, 0.194335937500, 242.601562500000, 53.742187500000, 26.210937500000, 1490695263
0.009277343750, -0.868896484375, 0.201416015625, 189.843750000000, 107.421875000000, 18.898437500000, 1490695263
-0.211425781250, -0.826660156250, 0.317138671875, 175.031250000000, 116.375000000000, 12.664062500000, 1490695263
-0.211425781250, -0.826660156250, 0.317138671875, 175.031250000000, 116.375000000000, 12.664062500000, 1490695263
-0.089111328125, -0.897460937500, 0.200439453125, -49.523437500000, -11.890625000000, -7.929687500000, 1490695263
-0.089111328125, -0.897460937500, 0.200439453125, -49.523437500000, -11.890625000000, -7.929687500000, 1490695263
-0.089111328125, -0.897460937500, 0.200439453125, -49.523437500000, -11.890625000000, -7.929687500000, 1490695263
-0.089111328125, -0.897460937500, 0.200439453125, -49.523437500000, -11.890625000000, -7.929687500000, 1490695263
0.125488281250, -0.898193359375, 0.037109375000, -35.835937500000, -8.765625000000, -14.203125000000, 1490695263
0.142578125000, -0.797119140625, 0.196533203125, -32.320312500000, -0.601562500000, -7.351562500000, 1490695263
0.142578125000, -0.797119140625, 0.196533203125, -32.320312500000, -0.601562500000, -7.351562500000, 1490695263
0.142578125000, -0.797119140625, 0.196533203125, -32.320312500000, -0.601562500000, -7.351562500000, 1490695263
0.142578125000, -0.797119140625, 0.196533203125, -32.320312500000, -0.601562500000, -7.351562500000, 1490695263
0.052246093750, -1.041259765625, 0.115234375000, -24.500000000000, 6.296875000000, -2.000000000000, 1490695263
0.064208984375, -1.271728515625, 0.156494140625, 18.507812500000, 5.468750000000, -1.476562500000, 1490695263
0.064208984375, -1.271728515625, 0.156494140625, 18.507812500000, 5.468750000000, -1.476562500000, 1490695263
0.064208984375, -1.271728515625, 0.156494140625, 18.507812500000, 5.468750000000, -1.476562500000, 1490695263
0.064208984375, -1.271728515625, 0.156494140625, 18.507812500000, 5.468750000000, -1.476562500000, 1490695263
0.139160156250, -1.433349609375, 0.434326171875, 1.992187500000, 13.609375000000, -6.578125000000, 1490695263
0.049316406250, -0.997314453125, 0.051269531250, -93.062500000000, -30.101562500000, -42.554687500000, 1490695263
0.049316406250, -0.997314453125, 0.051269531250, -93.062500000000, -30.101562500000, -42.554687500000, 1490695263
0.049316406250, -0.997314453125, 0.051269531250, -93.062500000000, -30.101562500000, -42.554687500000, 1490695263
0.093505859375, -0.797363281250, -0.030029296875, -87.570312500000, -9.882812500000, -23.757812500000, 1490695263
0.169189453125, -0.747070312500, -0.023193359375, -80.414062500000, 33.117187500000, -18.523437500000, 1490695263
0.169189453125, -0.747070312500, -0.023193359375, -80.414062500000, 33.117187500000, -18.523437500000, 1490695263
0.169189453125, -0.747070312500, -0.023193359375, -80.414062500000, 33.117187500000, -18.523437500000, 1490695263
0.169189453125, -0.747070312500, -0.023193359375, -80.414062500000, 33.117187500000, -18.523437500000, 1490695263
0.322509765625, -0.743408203125, -0.088867187500, -61.578125000000, 93.289062500000, -22.703125000000, 1490695263
0.214355468750, -0.778564453125, 0.010742187500, -51.234375000000, 100.835937500000, -7.242187500000, 1490695263
0.214355468750, -0.778564453125, 0.010742187500, -51.234375000000, 100.835937500000, -7.242187500000, 1490695263
0.214355468750, -0.778564453125, 0.010742187500, -51.234375000000, 100.835937500000, -7.242187500000, 1490695263
0.002197265625, -0.999023437500, -0.024414062500, -56.984375000000, 2.109375000000, 66.687500000000, 1490695263
0.002197265625, -0.999023437500, -0.024414062500, -56.984375000000, 2.109375000000, 66.687500000000, 1490695263
0.002197265625, -0.999023437500, -0.024414062500, -56.984375000000, 2.109375000000, 66.687500000000, 1490695263
-0.172851562500, -0.936523437500, 0.276611328125, 144.796875000000, 8.281250000000, -50.093750000000, 1490695263
-0.172851562500, -0.936523437500, 0.276611328125, 144.796875000000, 8.281250000000, -50.093750000000, 1490695263
-0.172851562500, -0.936523437500, 0.276611328125, 144.796875000000, 8.281250000000, -50.093750000000, 1490695263
-0.172851562500, -0.936523437500, 0.276611328125, 144.796875000000, 8.281250000000, -50.093750000000, 1490695263
0.154541015625, -1.003906250000, 0.509277343750, 62.578125000000, 30.046875000000, -27.976562500000, 1490695263
0.154541015625, -1.003906250000, 0.509277343750, 62.578125000000, 30.046875000000, -27.976562500000, 1490695263
0.154541015625, -1.003906250000, 0.509277343750, 62.578125000000, 30.046875000000, -27.976562500000, 1490695263
0.044189453125, -0.864257812500, 0.210937500000, -5.476562500000, 24.976562500000, -7.968750000000, 1490695263
0.044189453125, -0.864257812500, 0.210937500000, -5.476562500000, 24.976562500000, -7.968750000000, 1490695263
0.044189453125, -0.864257812500, 0.210937500000, -5.476562500000, 24.976562500000, -7.968750000000, 1490695263
0.123535156250, -0.963867187500, 0.258544921875, -19.117187500000, 37.562500000000, 6.742187500000, 1490695263
0.123535156250, -0.963867187500, 0.258544921875, -19.117187500000, 37.562500000000, 6.742187500000, 1490695263
0.123535156250, -0.963867187500, 0.258544921875, -19.117187500000, 37.562500000000, 6.742187500000, 1490695263
-0.026367187500, -0.976318359375, 0.121826171875, -21.921875000000, 27.507812500000, -1.882812500000, 1490695263
-0.026367187500, -0.976318359375, 0.121826171875, -21.921875000000, 27.507812500000, -1.882812500000, 1490695263
-0.026367187500, -0.976318359375, 0.121826171875, -21.921875000000, 27.507812500000, -1.882812500000, 1490695263
-0.026367187500, -0.976318359375, 0.121826171875, -21.921875000000, 27.507812500000, -1.882812500000, 1490695263
0.087890625000, -1.073486328125, 0.188964843750, 0.632812500000, 27.000000000000, -4.140625000000, 1490695264
0.087890625000, -1.073486328125, 0.188964843750, 0.632812500000, 27.000000000000, -4.140625000000, 1490695264
0.087890625000, -1.073486328125, 0.188964843750, 0.632812500000, 27.000000000000, -4.140625000000, 1490695264
-0.067138671875, -1.413574218750, 0.406005859375, -1.859375000000, 60.414062500000, -2.500000000000, 1490695264
-0.067138671875, -1.413574218750, 0.406005859375, -1.859375000000, 60.414062500000, -2.500000000000, 1490695264
-0.067138671875, -1.413574218750, 0.406005859375, -1.859375000000, 60.414062500000, -2.500000000000, 1490695264
0.111083984375, -1.350097656250, 0.377197265625, -46.140625000000, 51.570312500000, -14.789062500000, 1490695264
0.111083984375, -1.350097656250, 0.377197265625, -46.140625000000, 51.570312500000, -14.789062500000, 1490695264
-0.155273437500, -0.858642578125, 0.061035156250, -78.117187500000, 47.242187500000, -13.164062500000, 1490695264
-0.155273437500, -0.858642578125, 0.061035156250, -78.117187500000, 47.242187500000, -13.164062500000, 1490695264
-0.155273437500, -0.858642578125, 0.061035156250, -78.117187500000, 47.242187500000, -13.164062500000, 1490695264
-0.155273437500, -0.858642578125, 0.061035156250, -78.117187500000, 47.242187500000, -13.164062500000, 1490695264
-0.059326171875, -0.898681640625, -0.143066406250, -103.312500000000, 27.781250000000, 6.976562500000, 1490695264
-0.059326171875, -0.898681640625, -0.143066406250, -103.312500000000, 27.781250000000, 6.976562500000, 1490695264
-0.059326171875, -0.898681640625, -0.143066406250, -103.312500000000, 27.781250000000, 6.976562500000, 1490695264
-0.059326171875, -0.898681640625, -0.143066406250, -103.312500000000, 27.781250000000, 6.976562500000, 1490695264
-0.087646484375, -1.084960937500, 0.008056640625, -64.289062500000, 61.570312500000, 28.523437500000, 1490695264
-0.087646484375, -1.084960937500, 0.008056640625, -64.289062500000, 61.570312500000, 28.523437500000, 1490695264
-0.087646484375, -1.084960937500, 0.008056640625, -64.289062500000, 61.570312500000, 28.523437500000, 1490695264
0.137939453125, -1.112060546875, 0.239746093750, 89.140625000000, 0.476562500000, 37.984375000000, 1490695264
0.137939453125, -1.112060546875, 0.239746093750, 89.140625000000, 0.476562500000, 37.984375000000, 1490695264
0.137939453125, -1.112060546875, 0.239746093750, 89.140625000000, 0.476562500000, 37.984375000000, 1490695264
0.028076171875, -0.903076171875, 0.181640625000, 112.132812500000, 91.835937500000, 5.648437500000, 1490695264
0.028076171875, -0.903076171875, 0.181640625000, 112.132812500000, 91.835937500000, 5.648437500000, 1490695264
0.028076171875, -0.903076171875, 0.181640625000, 112.132812500000, 91.835937500000, 5.648437500000, 1490695264
0.028076171875, -0.903076171875, 0.181640625000, 112.132812500000, 91.835937500000, 5.648437500000, 1490695264
0.068359375000, -0.847900390625, 0.283203125000, 12.757812500000, 59.210937500000, -4.695312500000, 1490695264
0.068359375000, -0.847900390625, 0.283203125000, 12.757812500000, 59.210937500000, -4.695312500000, 1490695264
0.068359375000, -0.847900390625, 0.283203125000, 12.757812500000, 59.210937500000, -4.695312500000, 1490695264
-0.011230468750, -0.911865234375, 0.254150390625, -42.304687500000, 55.140625000000, -1.960937500000, 1490695264
-0.011230468750, -0.911865234375, 0.254150390625, -42.304687500000, 55.140625000000, -1.960937500000, 1490695264
-0.011230468750, -0.911865234375, 0.254150390625, -42.304687500000, 55.140625000000, -1.960937500000, 1490695264
0.007324218750, -0.949462890625, 0.062011718750, -31.328125000000, 66.859375000000, 0.945312500000, 1490695264
0.007324218750, -0.949462890625, 0.062011718750, -31.328125000000, 66.859375000000, 0.945312500000, 1490695264
0.007324218750, -0.949462890625, 0.062011718750, -31.328125000000, 66.859375000000, 0.945312500000, 1490695264
0.006103515625, -1.177734375000, 0.133300781250, -22.031250000000, 76.875000000000, 10.093750000000, 1490695264
0.006103515625, -1.177734375000, 0.133300781250, -22.031250000000, 76.875000000000, 10.093750000000, 1490695264
0.006103515625, -1.177734375000, 0.133300781250, -22.031250000000, 76.875000000000, 10.093750000000, 1490695264
0.006103515625, -1.177734375000, 0.133300781250, -22.031250000000, 76.875000000000, 10.093750000000, 1490695264
0.014404296875, -1.065673828125, 0.293457031250, -31.367187500000, 77.429687500000, -4.945312500000, 1490695264
0.014404296875, -1.065673828125, 0.293457031250, -31.367187500000, 77.429687500000, -4.945312500000, 1490695264
0.155029296875, -0.858886718750, 0.206298828125, -70.218750000000, 75.343750000000, -0.953125000000, 1490695264
0.103759765625, -0.812011718750, 0.142578125000, -69.335937500000, 85.937500000000, -1.093750000000, 1490695264
0.103759765625, -0.812011718750, 0.142578125000, -69.335937500000, 85.937500000000, -1.093750000000, 1490695264
0.103759765625, -0.812011718750, 0.142578125000, -69.335937500000, 85.937500000000, -1.093750000000, 1490695264
0.291992187500, -0.857421875000, -0.026611328125, -98.562500000000, 161.140625000000, 16.375000000000, 1490695264
0.291992187500, -0.857421875000, -0.026611328125, -98.562500000000, 161.140625000000, 16.375000000000, 1490695264
0.291992187500, -0.857421875000, -0.026611328125, -98.562500000000, 161.140625000000, 16.375000000000, 1490695264
0.291992187500, -0.857421875000, -0.026611328125, -98.562500000000, 161.140625000000, 16.375000000000, 1490695264
0.291992187500, -0.857421875000, -0.026611328125, -98.562500000000, 161.140625000000, 16.375000000000, 1490695264
0.257324218750, -1.108886718750, -0.073486328125, -113.765625000000, 93.968750000000, 83.328125000000, 1490695264
0.257324218750, -1.108886718750, -0.073486328125, -113.765625000000, 93.968750000000, 83.328125000000, 1490695264
0.257324218750, -1.108886718750, -0.073486328125, -113.765625000000, 93.968750000000, 83.328125000000, 1490695264
0.257324218750, -1.108886718750, -0.073486328125, -113.765625000000, 93.968750000000, 83.328125000000, 1490695264
0.257324218750, -1.108886718750, -0.073486328125, -113.765625000000, 93.968750000000, 83.328125000000, 1490695264
-0.066406250000, -1.241943359375, 0.096679687500, 84.617187500000, 106.414062500000, 86.617187500000, 1490695264
-0.066406250000, -1.241943359375, 0.096679687500, 84.617187500000, 106.414062500000, 86.617187500000, 1490695264
-0.066406250000, -1.241943359375, 0.096679687500, 84.617187500000, 106.414062500000, 86.617187500000, 1490695264
0.090087890625, -0.996582031250, 0.272460937500, 122.140625000000, 114.000000000000, -0.773437500000, 1490695264
0.090087890625, -0.996582031250, 0.272460937500, 122.140625000000, 114.000000000000, -0.773437500000, 1490695264
0.090087890625, -0.996582031250, 0.272460937500, 122.140625000000, 114.000000000000, -0.773437500000, 1490695264
0.154052734375, -0.837158203125, 0.301757812500, 86.164062500000, 117.515625000000, 4.125000000000, 1490695264
0.154052734375, -0.837158203125, 0.301757812500, 86.164062500000, 117.515625000000, 4.125000000000, 1490695264
0.154052734375, -0.837158203125, 0.301757812500, 86.164062500000, 117.515625000000, 4.125000000000, 1490695264
0.154052734375, -0.837158203125, 0.301757812500, 86.164062500000, 117.515625000000, 4.125000000000, 1490695264
-0.028564453125, -0.746826171875, 0.242187500000, 5.812500000000, 82.843750000000, 8.132812500000, 1490695264
-0.028564453125, -0.746826171875, 0.242187500000, 5.812500000000, 82.843750000000, 8.132812500000, 1490695265
-0.028564453125, -0.746826171875, 0.242187500000, 5.812500000000, 82.843750000000, 8.132812500000, 1490695265
0.146972656250, -0.755859375000, 0.160888671875, -46.476562500000, 60.773437500000, -2.773437500000, 1490695265
0.146972656250, -0.755859375000, 0.160888671875, -46.476562500000, 60.773437500000, -2.773437500000, 1490695265
0.146972656250, -0.755859375000, 0.160888671875, -46.476562500000, 60.773437500000, -2.773437500000, 1490695265
0.236083984375, -0.877197265625, 0.147460937500, -62.203125000000, 63.992187500000, -1.515625000000, 1490695265
0.236083984375, -0.877197265625, 0.147460937500, -62.203125000000, 63.992187500000, -1.515625000000, 1490695265
0.236083984375, -0.877197265625, 0.147460937500, -62.203125000000, 63.992187500000, -1.515625000000, 1490695265
0.054199218750, -1.079833984375, 0.213134765625, 29.218750000000, 82.750000000000, 15.367187500000, 1490695265
0.054199218750, -1.079833984375, 0.213134765625, 29.218750000000, 82.750000000000, 15.367187500000, 1490695265
0.054199218750, -1.079833984375, 0.213134765625, 29.218750000000, 82.750000000000, 15.367187500000, 1490695265
0.054199218750, -1.079833984375, 0.213134765625, 29.218750000000, 82.750000000000, 15.367187500000, 1490695265
-0.109863281250, -0.975830078125, -0.001953125000, -60.203125000000, 105.773437500000, 3.617187500000, 1490695265
-0.109863281250, -0.975830078125, -0.001953125000, -60.203125000000, 105.773437500000, 3.617187500000, 1490695265
-0.109863281250, -0.975830078125, -0.001953125000, -60.203125000000, 105.773437500000, 3.617187500000, 1490695265
0.429687500000, -0.959716796875, 0.097167968750, -86.625000000000, 127.164062500000, -47.351562500000, 1490695265
0.429687500000, -0.959716796875, 0.097167968750, -86.625000000000, 127.164062500000, -47.351562500000, 1490695265
0.429687500000, -0.959716796875, 0.097167968750, -86.625000000000, 127.164062500000, -47.351562500000, 1490695265
0.482177734375, -1.642333984375, 0.081542968750, -38.406250000000, 245.664062500000, 92.218750000000, 1490695265
0.482177734375, -1.642333984375, 0.081542968750, -38.406250000000, 245.664062500000, 92.218750000000, 1490695265
0.482177734375, -1.642333984375, 0.081542968750, -38.406250000000, 245.664062500000, 92.218750000000, 1490695265
0.176757812500, -1.542236328125, 0.487548828125, 159.078125000000, 168.296875000000, 7.054687500000, 1490695265
0.176757812500, -1.542236328125, 0.487548828125, 159.078125000000, 168.296875000000, 7.054687500000, 1490695265
0.176757812500, -1.542236328125, 0.487548828125, 159.078125000000, 168.296875000000, 7.054687500000, 1490695265
0.176757812500, -1.542236328125, 0.487548828125, 159.078125000000, 168.296875000000, 7.054687500000, 1490695265
0.216796875000, -0.980957031250, 0.386962890625, 15.804687500000, 90.382812500000, -40.085937500000, 1490695265
0.216796875000, -0.980957031250, 0.386962890625, 15.804687500000, 90.382812500000, -40.085937500000, 1490695265
0.216796875000, -0.980957031250, 0.386962890625, 15.804687500000, 90.382812500000, -40.085937500000, 1490695265
0.190917968750, -0.594970703125, 0.040283203125, -106.656250000000, 86.765625000000, -8.984375000000, 1490695265
0.190917968750, -0.594970703125, 0.040283203125, -106.656250000000, 86.765625000000, -8.984375000000, 1490695265
0.190917968750, -0.594970703125, 0.040283203125, -106.656250000000, 86.765625000000, -8.984375000000, 1490695265
0.033203125000, -0.765136718750, 0.078613281250, -182.828125000000, 149.125000000000, 12.468750000000, 1490695265
0.033203125000, -0.765136718750, 0.078613281250, -182.828125000000, 149.125000000000, 12.468750000000, 1490695265
0.033203125000, -0.765136718750, 0.078613281250, -182.828125000000, 149.125000000000, 12.468750000000, 1490695265
0.082763671875, -0.267822265625, 0.010498046875, -40.000000000000, 221.320312500000, -4.234375000000, 1490695265
0.082763671875, -0.267822265625, 0.010498046875, -40.000000000000, 221.320312500000, -4.234375000000, 1490695265
0.082763671875, -0.267822265625, 0.010498046875, -40.000000000000, 221.320312500000, -4.234375000000, 1490695265
-0.004150390625, -0.222167968750, 0.010742187500, -51.593750000000, 231.632812500000, 16.945312500000, 1490695265
0.178955078125, -0.353515625000, -0.040039062500, -67.351562500000, 253.992187500000, 24.382812500000, 1490695265
0.178955078125, -0.353515625000, -0.040039062500, -67.351562500000, 253.992187500000, 24.382812500000, 1490695265
0.419433593750, -1.000976562500, -0.132324218750, -163.039062500000, 253.992187500000, 48.203125000000, 1490695265
0.419433593750, -1.000976562500, -0.132324218750, -163.039062500000, 253.992187500000, 48.203125000000, 1490695265
0.419433593750, -1.000976562500, -0.132324218750, -163.039062500000, 253.992187500000, 48.203125000000, 1490695265
0.419433593750, -1.000976562500, -0.132324218750, -163.039062500000, 253.992187500000, 48.203125000000, 1490695265
0.461425781250, -2.636962890625, -0.068603515625, 240.257812500000, -256.000000000000, 121.039062500000, 1490695265
0.461425781250, -2.636962890625, -0.068603515625, 240.257812500000, -256.000000000000, 121.039062500000, 1490695265
0.461425781250, -2.636962890625, -0.068603515625, 240.257812500000, -256.000000000000, 121.039062500000, 1490695265
-0.174804687500, -2.619140625000, 1.489746093750, 253.992187500000, -238.750000000000, -75.093750000000, 1490695265
-0.174804687500, -2.619140625000, 1.489746093750, 253.992187500000, -238.750000000000, -75.093750000000, 1490695265
-0.004394531250, -0.598632812500, 0.274414062500, -91.625000000000, -113.476562500000, -69.054687500000, 1490695265
-0.004394531250, -0.598632812500, 0.274414062500, -91.625000000000, -113.476562500000, -69.054687500000, 1490695265
-0.004394531250, -0.598632812500, 0.274414062500, -91.625000000000, -113.476562500000, -69.054687500000, 1490695265
-0.004394531250, -0.598632812500, 0.274414062500, -91.625000000000, -113.476562500000, -69.054687500000, 1490695265
-0.004394531250, -0.598632812500, 0.274414062500, -91.625000000000, -113.476562500000, -69.054687500000, 1490695265
-0.010986328125, -0.736816406250, 0.148437500000, -242.765625000000, 190.460937500000, -39.929687500000, 1490695265
-0.010986328125, -0.736816406250, 0.148437500000, -242.765625000000, 190.460937500000, -39.929687500000, 1490695265
-0.010986328125, -0.736816406250, 0.148437500000, -242.765625000000, 190.460937500000, -39.929687500000, 1490695265
0.054443359375, -0.061279296875, -0.102050781250, -174.242187500000, 108.460937500000, -15.093750000000, 1490695265
0.054443359375, -0.061279296875, -0.102050781250, -174.242187500000, 108.460937500000, -15.093750000000, 1490695265
0.054443359375, -0.061279296875, -0.102050781250, -174.242187500000, 108.460937500000, -15.093750000000, 1490695265
-0.067871093750, -0.314697265625, -0.127197265625, -150.945312500000, -63.640625000000, 14.054687500000, 1490695265
-0.067871093750, -0.314697265625, -0.127197265625, -150.945312500000, -63.640625000000, 14.054687500000, 1490695265
-0.067871093750, -0.314697265625, -0.127197265625, -150.945312500000, -63.640625000000, 14.054687500000, 1490695265
-0.067871093750, -0.314697265625, -0.127197265625, -150.945312500000, -63.640625000000, 14.054687500000, 1490695265
-0.034667968750, -1.029541015625, -0.174072265625, -172.382812500000, -128.921875000000, 58.312500000000, 1490695265
-0.034667968750, -1.029541015625, -0.174072265625, -172.382812500000, -128.921875000000, 58.312500000000, 1490695265
-0.034667968750, -1.029541015625, -0.174072265625, -172.382812500000, -128.921875000000, 58.312500000000, 1490695266
-0.164306640625, -2.186767578125, 0.187011718750, 101.328125000000, 6.703125000000, -13.515625000000, 1490695266
-0.164306640625, -2.186767578125, 0.187011718750, 101.328125000000, 6.703125000000, -13.515625000000, 1490695266
-0.164306640625, -2.186767578125, 0.187011718750, 101.328125000000, 6.703125000000, -13.515625000000, 1490695266
-0.483154296875, -2.426269531250, -0.204589843750, 253.992187500000, 54.968750000000, -21.046875000000, 1490695266
-0.483154296875, -2.426269531250, -0.204589843750, 253.992187500000, 54.968750000000, -21.046875000000, 1490695266
-0.483154296875, -2.426269531250, -0.204589843750, 253.992187500000, 54.968750000000, -21.046875000000, 1490695266
-0.084960937500, -1.066406250000, 1.726562500000, -83.242187500000, -131.046875000000, 45.304687500000, 1490695266
-0.084960937500, -1.066406250000, 1.726562500000, -83.242187500000, -131.046875000000, 45.304687500000, 1490695266
-0.084960937500, -1.066406250000, 1.726562500000, -83.242187500000, -131.046875000000, 45.304687500000, 1490695266
-0.084960937500, -1.066406250000, 1.726562500000, -83.242187500000, -131.046875000000, 45.304687500000, 1490695266
0.152832031250, -0.789550781250, 0.060791015625, -256.000000000000, -126.796875000000, 4.828125000000, 1490695266
0.152832031250, -0.789550781250, 0.060791015625, -256.000000000000, -126.796875000000, 4.828125000000, 1490695266
0.152832031250, -0.789550781250, 0.060791015625, -256.000000000000, -126.796875000000, 4.828125000000, 1490695266
0.041259765625, -0.297363281250, 0.061767578125, -256.000000000000, -61.398437500000, 26.484375000000, 1490695266
0.041259765625, -0.297363281250, 0.061767578125, -256.000000000000, -61.398437500000, 26.484375000000, 1490695266
0.041259765625, -0.297363281250, 0.061767578125, -256.000000000000, -61.398437500000, 26.484375000000, 1490695266
0.016113281250, -0.126953125000, 0.003173828125, -184.835937500000, -66.296875000000, 56.492187500000, 1490695266
0.016113281250, -0.126953125000, 0.003173828125, -184.835937500000, -66.296875000000, 56.492187500000, 1490695266
0.016113281250, -0.126953125000, 0.003173828125, -184.835937500000, -66.296875000000, 56.492187500000, 1490695266
0.112304687500, -1.018798828125, -0.143554687500, -140.093750000000, -169.921875000000, -11.585937500000, 1490695266
0.112304687500, -1.018798828125, -0.143554687500, -140.093750000000, -169.921875000000, -11.585937500000, 1490695266
0.112304687500, -1.018798828125, -0.143554687500, -140.093750000000, -169.921875000000, -11.585937500000, 1490695266
0.112304687500, -1.018798828125, -0.143554687500, -140.093750000000, -169.921875000000, -11.585937500000, 1490695266
0.468994140625, -1.337646484375, 0.210449218750, -234.492187500000, 44.773437500000, 62.054687500000, 1490695266
0.468994140625, -1.337646484375, 0.210449218750, -234.492187500000, 44.773437500000, 62.054687500000, 1490695266
0.468994140625, -1.337646484375, 0.210449218750, -234.492187500000, 44.773437500000, 62.054687500000, 1490695266
0.671386718750, -1.743652343750, 0.210937500000, 253.992187500000, -79.429687500000, -2.023437500000, 1490695266
0.671386718750, -1.743652343750, 0.210937500000, 253.992187500000, -79.429687500000, -2.023437500000, 1490695266
0.671386718750, -1.743652343750, 0.210937500000, 253.992187500000, -79.429687500000, -2.023437500000, 1490695266
1.144042968750, -1.968017578125, 2.540283203125, 253.992187500000, 253.992187500000, -256.000000000000, 1490695266
1.144042968750, -1.968017578125, 2.540283203125, 253.992187500000, 253.992187500000, -256.000000000000, 1490695266
1.144042968750, -1.968017578125, 2.540283203125, 253.992187500000, 253.992187500000, -256.000000000000, 1490695266
-0.987548828125, -0.607666015625, 0.832275390625, -256.000000000000, -29.242187500000, -46.226562500000, 1490695266
-0.987548828125, -0.607666015625, 0.832275390625, -256.000000000000, -29.242187500000, -46.226562500000, 1490695266
-0.987548828125, -0.607666015625, 0.832275390625, -256.000000000000, -29.242187500000, -46.226562500000, 1490695266
-0.987548828125, -0.607666015625, 0.832275390625, -256.000000000000, -29.242187500000, -46.226562500000, 1490695266
0.125732421875, -0.208251953125, -0.027832031250, -212.781250000000, -95.960937500000, 58.578125000000, 1490695266
0.125732421875, -0.208251953125, -0.027832031250, -212.781250000000, -95.960937500000, 58.578125000000, 1490695266
0.125732421875, -0.208251953125, -0.027832031250, -212.781250000000, -95.960937500000, 58.578125000000, 1490695266
0.125732421875, -0.208251953125, -0.027832031250, -184.054687500000, -107.757812500000, 40.945312500000, 1490695266
-0.069580078125, -0.370605468750, -0.190429687500, -178.304687500000, -157.250000000000, 31.250000000000, 1490695266
-0.069580078125, -0.370605468750, -0.190429687500, -178.304687500000, -157.250000000000, 31.250000000000, 1490695266
-0.069580078125, -0.370605468750, -0.190429687500, -178.304687500000, -157.250000000000, 31.250000000000, 1490695266
-0.069580078125, -0.370605468750, -0.190429687500, -178.304687500000, -157.250000000000, 31.250000000000, 1490695266
-0.149902343750, -1.017089843750, -0.183593750000, -217.414062500000, -182.695312500000, 17.625000000000, 1490695266
-0.462158203125, -1.533447265625, 0.146728515625, -85.156250000000, -4.765625000000, -20.960937500000, 1490695266
-0.462158203125, -1.533447265625, 0.146728515625, -85.156250000000, -4.765625000000, -20.960937500000, 1490695266
-0.462158203125, -1.533447265625, 0.146728515625, -85.156250000000, -4.765625000000, -20.960937500000, 1490695266
-0.462158203125, -1.533447265625, 0.146728515625, -85.156250000000, -4.765625000000, -20.960937500000, 1490695266
-0.654052734375, -2.117431640625, -0.123535156250, 136.312500000000, 195.257812500000, -94.007812500000, 1490695266
-0.654052734375, -2.117431640625, -0.123535156250, 136.312500000000, 195.257812500000, -94.007812500000, 1490695266
-0.654052734375, -2.117431640625, -0.123535156250, 136.312500000000, 195.257812500000, -94.007812500000, 1490695266
-0.449462890625, -1.739013671875, 0.013916015625, 192.101562500000, 172.375000000000, -39.750000000000, 1490695266
-0.449462890625, -1.739013671875, 0.013916015625, 192.101562500000, 172.375000000000, -39.750000000000, 1490695266
-0.449462890625, -1.739013671875, 0.013916015625, 192.101562500000, 172.375000000000, -39.750000000000, 1490695266
1.856689453125, -2.906982421875, 3.135009765625, 253.992187500000, 31.617187500000, -131.703125000000, 1490695266
1.856689453125, -2.906982421875, 3.135009765625, 253.992187500000, 31.617187500000, -131.703125000000, 1490695266
1.856689453125, -2.906982421875, 3.135009765625, 253.992187500000, 31.617187500000, -131.703125000000, 1490695266
-0.002197265625, -0.449951171875, 0.177978515625, -256.000000000000, 5.976562500000, 37.531250000000, 1490695266
-0.002197265625, -0.449951171875, 0.177978515625, -256.000000000000, 5.976562500000, 37.531250000000, 1490695266
-0.002197265625, -0.449951171875, 0.177978515625, -256.000000000000, 5.976562500000, 37.531250000000, 1490695266
-0.002197265625, -0.449951171875, 0.177978515625, -256.000000000000, 5.976562500000, 37.531250000000, 1490695266
0.057617187500, -0.109863281250, 0.047607421875, -230.320312500000, 48.039062500000, -29.757812500000, 1490695266
0.057617187500, -0.109863281250, 0.047607421875, -230.320312500000, 48.039062500000, -29.757812500000, 1490695266
0.057617187500, -0.109863281250, 0.047607421875, -230.320312500000, 48.039062500000, -29.757812500000, 1490695266
0.024169921875, 0.031005859375, 0.051025390625, -179.320312500000, 35.125000000000, -8.726562500000, 1490695266
0.024169921875, 0.031005859375, 0.051025390625, -179.320312500000, 35.125000000000, -8.726562500000, 1490695267
0.024169921875, 0.031005859375, 0.051025390625, -179.320312500000, 35.125000000000, -8.726562500000, 1490695267
0.272705078125, -1.495605468750, -0.460937500000, -256.000000000000, 137.203125000000, 131.414062500000, 1490695267
0.272705078125, -1.495605468750, -0.460937500000, -256.000000000000, 137.203125000000, 131.414062500000, 1490695267
0.272705078125, -1.495605468750, -0.460937500000, -256.000000000000, 137.203125000000, 131.414062500000, 1490695267
1.071777343750, -2.202148437500, 0.080322265625, 253.992187500000, -256.000000000000, 3.304687500000, 1490695267
1.071777343750, -2.202148437500, 0.080322265625, 253.992187500000, -256.000000000000, 3.304687500000, 1490695267
1.071777343750, -2.202148437500, 0.080322265625, 253.992187500000, -256.000000000000, 3.304687500000, 1490695267
1.071777343750, -2.202148437500, 0.080322265625, 253.992187500000, -256.000000000000, 3.304687500000, 1490695267
0.736572265625, -1.965576171875, 1.118896484375, 253.992187500000, 253.992187500000, -252.804687500000, 1490695267
0.736572265625, -1.965576171875, 1.118896484375, 253.992187500000, 253.992187500000, -252.804687500000, 1490695267
0.736572265625, -1.965576171875, 1.118896484375, 253.992187500000, 253.992187500000, -252.804687500000, 1490695267
-1.262451171875, -1.435791015625, 1.414794921875, 133.375000000000, 253.992187500000, -11.343750000000, 1490695267
-1.262451171875, -1.435791015625, 1.414794921875, 133.375000000000, 253.992187500000, -11.343750000000, 1490695267
-1.262451171875, -1.435791015625, 1.414794921875, 133.375000000000, 253.992187500000, -11.343750000000, 1490695267
0.169433593750, -0.244873046875, 0.250244140625, -256.000000000000, -256.000000000000, -88.742187500000, 1490695267
0.169433593750, -0.244873046875, 0.250244140625, -256.000000000000, -256.000000000000, -88.742187500000, 1490695267
0.169433593750, -0.244873046875, 0.250244140625, -256.000000000000, -256.000000000000, -88.742187500000, 1490695267
0.091308593750, -0.112304687500, 0.089111328125, -206.320312500000, 22.921875000000, 51.992187500000, 1490695267
0.091308593750, -0.112304687500, 0.089111328125, -206.320312500000, 22.921875000000, 51.992187500000, 1490695267
0.091308593750, -0.112304687500, 0.089111328125, -206.320312500000, 22.921875000000, 51.992187500000, 1490695267
0.091308593750, -0.112304687500, 0.089111328125, -206.320312500000, 22.921875000000, 51.992187500000, 1490695267
-0.065673828125, 0.007812500000, -0.072509765625, -155.757812500000, -89.242187500000, 30.398437500000, 1490695267
-0.065673828125, 0.007812500000, -0.072509765625, -155.757812500000, -89.242187500000, 30.398437500000, 1490695267
-0.065673828125, 0.007812500000, -0.072509765625, -155.757812500000, -89.242187500000, 30.398437500000, 1490695267
-0.299804687500, -1.860107421875, -0.443359375000, -256.000000000000, -256.000000000000, 24.507812500000, 1490695267
-0.299804687500, -1.860107421875, -0.443359375000, -256.000000000000, -256.000000000000, 24.507812500000, 1490695267
-0.299804687500, -1.860107421875, -0.443359375000, -256.000000000000, -256.000000000000, 24.507812500000, 1490695267
-0.566894531250, -1.640625000000, 0.073974609375, 145.445312500000, 133.609375000000, -29.859375000000, 1490695267
-0.566894531250, -1.640625000000, 0.073974609375, 145.445312500000, 133.609375000000, -29.859375000000, 1490695267
-0.566894531250, -1.640625000000, 0.073974609375, 145.445312500000, 133.609375000000, -29.859375000000, 1490695267
-0.104980468750, -1.744628906250, -0.072509765625, 153.953125000000, 74.148437500000, -30.046875000000, 1490695267
-0.104980468750, -1.744628906250, -0.072509765625, 153.953125000000, 74.148437500000, -30.046875000000, 1490695267
-0.104980468750, -1.744628906250, -0.072509765625, 153.953125000000, 74.148437500000, -30.046875000000, 1490695267
-0.104980468750, -1.744628906250, -0.072509765625, 153.953125000000, 74.148437500000, -30.046875000000, 1490695267
1.714111328125, -1.839355468750, 1.874023437500, 253.992187500000, 52.304687500000, -57.218750000000, 1490695267
1.714111328125, -1.839355468750, 1.874023437500, 253.992187500000, 52.304687500000, -57.218750000000, 1490695267
1.714111328125, -1.839355468750, 1.874023437500, 253.992187500000, 52.304687500000, -57.218750000000, 1490695267
0.105468750000, -0.503173828125, 0.263671875000, -181.023437500000, 140.281250000000, 39.484375000000, 1490695267
0.105468750000, -0.503173828125, 0.263671875000, -181.023437500000, 140.281250000000, 39.484375000000, 1490695267
0.105468750000, -0.503173828125, 0.263671875000, -181.023437500000, 140.281250000000, 39.484375000000, 1490695267
0.055908203125, -0.083740234375, 0.032470703125, -227.359375000000, 63.140625000000, -22.906250000000, 1490695267
0.055908203125, -0.083740234375, 0.032470703125, -227.359375000000, 63.140625000000, -22.906250000000, 1490695267
0.055908203125, -0.083740234375, 0.032470703125, -227.359375000000, 63.140625000000, -22.906250000000, 1490695267
0.058105468750, -0.072998046875, 0.074707031250, -220.023437500000, 68.234375000000, -22.515625000000, 1490695267
1.183593750000, -2.669677734375, 0.072509765625, -256.000000000000, 253.992187500000, 206.031250000000, 1490695267
1.183593750000, -2.669677734375, 0.072509765625, -256.000000000000, 253.992187500000, 206.031250000000, 1490695267
1.183593750000, -2.669677734375, 0.072509765625, -256.000000000000, 253.992187500000, 206.031250000000, 1490695267
1.183593750000, -2.669677734375, 0.072509765625, -256.000000000000, 253.992187500000, 206.031250000000, 1490695267
1.183593750000, -2.669677734375, 0.072509765625, -256.000000000000, 253.992187500000, 206.031250000000, 1490695267
0.831054687500, -1.910888671875, 0.188232421875, -170.554687500000, 13.359375000000, -35.539062500000, 1490695267
0.831054687500, -1.910888671875, 0.188232421875, -170.554687500000, 13.359375000000, -35.539062500000, 1490695267
0.734130859375, -1.220214843750, 1.223144531250, 253.992187500000, 253.992187500000, -224.851562500000, 1490695267
0.266113281250, -1.347412109375, 1.154785156250, 253.992187500000, 253.992187500000, -224.851562500000, 1490695267
0.266113281250, -1.347412109375, 1.154785156250, 253.992187500000, 253.992187500000, -224.851562500000, 1490695267
0.266113281250, -1.347412109375, 1.154785156250, 253.992187500000, 253.992187500000, -224.851562500000, 1490695267
0.266113281250, -1.347412109375, 1.154785156250, 253.992187500000, 253.992187500000, -224.851562500000, 1490695267
0.266113281250, -1.347412109375, 1.154785156250, 253.992187500000, 253.992187500000, -224.851562500000, 1490695267
-0.379882812500, -0.146484375000, 0.067871093750, -175.164062500000, -256.000000000000, -29.031250000000, 1490695267
-0.379882812500, -0.146484375000, 0.067871093750, -175.164062500000, -256.000000000000, -29.031250000000, 1490695267
-0.379882812500, -0.146484375000, 0.067871093750, -175.164062500000, -256.000000000000, -29.031250000000, 1490695267
-0.029296875000, -0.445800781250, 0.257080078125, -74.203125000000, -256.000000000000, 19.500000000000, 1490695267
-0.029296875000, -0.445800781250, 0.257080078125, -74.203125000000, -256.000000000000, 19.500000000000, 1490695267
-0.029296875000, -0.445800781250, 0.257080078125, -74.203125000000, -256.000000000000, 19.500000000000, 1490695267
-0.103759765625, 0.100341796875, -0.028076171875, -137.476562500000, -60.000000000000, 64.656250000000, 1490695267
-0.103759765625, 0.100341796875, -0.028076171875, -137.476562500000, -60.000000000000, 64.656250000000, 1490695267
-0.103759765625, 0.100341796875, -0.028076171875, -137.476562500000, -60.000000000000, 64.656250000000, 1490695267
-0.007568359375, 0.019531250000, -0.007080078125, -131.218750000000, -46.007812500000, 100.929687500000, 1490695268
-0.007568359375, 0.019531250000, -0.007080078125, -131.218750000000, -46.007812500000, 100.929687500000, 1490695268
-0.007568359375, 0.019531250000, -0.007080078125, -131.218750000000, -46.007812500000, 100.929687500000, 1490695268
0.358642578125, -2.678222656250, 0.666992187500, -256.000000000000, 253.992187500000, 134.515625000000, 1490695268
0.358642578125, -2.678222656250, 0.666992187500, -256.000000000000, 253.992187500000, 134.515625000000, 1490695268
0.358642578125, -2.678222656250, 0.666992187500, -256.000000000000, 253.992187500000, 134.515625000000, 1490695268
0.358642578125, -2.678222656250, 0.666992187500, -256.000000000000, 253.992187500000, 134.515625000000, 1490695268
0.637695312500, -1.799316406250, 0.340332031250, 253.992187500000, 253.992187500000, 215.156250000000, 1490695268
0.637695312500, -1.799316406250, 0.340332031250, 253.992187500000, 253.992187500000, 215.156250000000, 1490695268
0.637695312500, -1.799316406250, 0.340332031250, 253.992187500000, 253.992187500000, 215.156250000000, 1490695268
0.637451171875, -1.810058593750, -0.071533203125, 253.992187500000, 253.992187500000, -82.875000000000, 1490695268
0.637451171875, -1.810058593750, -0.071533203125, 253.992187500000, 253.992187500000, -82.875000000000, 1490695268
0.637451171875, -1.810058593750, -0.071533203125, 253.992187500000, 253.992187500000, -82.875000000000, 1490695268
-0.864501953125, -1.728271484375, 0.923095703125, 204.804687500000, 199.820312500000, 12.890625000000, 1490695268
-0.864501953125, -1.728271484375, 0.923095703125, 204.804687500000, 199.820312500000, 12.890625000000, 1490695268
-0.864501953125, -1.728271484375, 0.923095703125, 204.804687500000, 199.820312500000, 12.890625000000, 1490695268
-0.055664062500, -0.277832031250, 0.334472656250, -126.664062500000, -88.953125000000, -28.000000000000, 1490695268
-0.055664062500, -0.277832031250, 0.334472656250, -126.664062500000, -88.953125000000, -28.000000000000, 1490695268
-0.055664062500, -0.277832031250, 0.334472656250, -126.664062500000, -88.953125000000, -28.000000000000, 1490695268
-0.055664062500, -0.277832031250, 0.334472656250, -126.664062500000, -88.953125000000, -28.000000000000, 1490695268
-0.077636718750, -0.120117187500, 0.083496093750, -208.289062500000, 128.492187500000, -46.890625000000, 1490695268
-0.077636718750, -0.120117187500, 0.083496093750, -208.289062500000, 128.492187500000, -46.890625000000, 1490695268
-0.077636718750, -0.120117187500, 0.083496093750, -208.289062500000, 128.492187500000, -46.890625000000, 1490695268
