ACC_X,ACC_Y,ACC_Z,G_X,G_Y,G_Z,Unix Time
-0.000000000000, -0.929931640625, 0.488037109375, 5.125000000000, -37.648437500000, -22.359375000000, 1490693857
-0.000000000000, -0.929931640625, 0.488037109375, 5.125000000000, -37.648437500000, -22.359375000000, 1490693857
-0.000000000000, -0.929931640625, 0.488037109375, 5.125000000000, -37.648437500000, -22.359375000000, 1490693857
-0.000000000000, -0.929931640625, 0.488037109375, 5.125000000000, -37.648437500000, -22.359375000000, 1490693857
0.033447265625, -0.855712890625, 0.327392578125, -46.250000000000, -44.960937500000, -21.960937500000, 1490693857
0.033447265625, -0.855712890625, 0.327392578125, -46.250000000000, -44.960937500000, -21.960937500000, 1490693857
0.033447265625, -0.855712890625, 0.327392578125, -46.250000000000, -44.960937500000, -21.960937500000, 1490693857
0.033447265625, -0.855712890625, 0.327392578125, -46.250000000000, -44.960937500000, -21.960937500000, 1490693857
0.033447265625, -0.855712890625, 0.327392578125, -46.250000000000, -44.960937500000, -21.960937500000, 1490693857
0.033447265625, -0.855712890625, 0.327392578125, -46.250000000000, -44.960937500000, -21.960937500000, 1490693857
0.191162109375, -1.207031250000, 0.169189453125, -99.328125000000, -69.343750000000, -3.960937500000, 1490693857
0.191162109375, -1.207031250000, 0.169189453125, -99.328125000000, -69.343750000000, -3.960937500000, 1490693857
0.191162109375, -1.207031250000, 0.169189453125, -99.328125000000, -69.343750000000, -3.960937500000, 1490693857
0.191162109375, -1.207031250000, 0.169189453125, -99.328125000000, -69.343750000000, -3.960937500000, 1490693857
0.204589843750, -1.666992187500, 0.227050781250, -97.687500000000, -96.304687500000, -2.203125000000, 1490693857
0.204589843750, -1.666992187500, 0.227050781250, -97.687500000000, -96.304687500000, -2.203125000000, 1490693857
0.410644531250, -1.313964843750, 0.571044921875, 101.937500000000, -8.648437500000, -0.289062500000, 1490693857
0.410644531250, -1.313964843750, 0.571044921875, 101.937500000000, -8.648437500000, -0.289062500000, 1490693857
0.410644531250, -1.313964843750, 0.571044921875, 101.937500000000, -8.648437500000, -0.289062500000, 1490693857
0.410644531250, -1.313964843750, 0.571044921875, 101.937500000000, -8.648437500000, -0.289062500000, 1490693857
0.096679687500, -0.878906250000, 0.437500000000, 67.101562500000, 52.039062500000, -3.625000000000, 1490693857
0.096679687500, -0.878906250000, 0.437500000000, 67.101562500000, 52.039062500000, -3.625000000000, 1490693857
0.096679687500, -0.878906250000, 0.437500000000, 67.101562500000, 52.039062500000, -3.625000000000, 1490693857
0.096679687500, -0.878906250000, 0.437500000000, 67.101562500000, 52.039062500000, -3.625000000000, 1490693857
0.060791015625, -0.789306640625, 0.249755859375, 21.601562500000, 49.664062500000, -12.156250000000, 1490693857
0.060791015625, -0.789306640625, 0.249755859375, 21.601562500000, 49.664062500000, -12.156250000000, 1490693857
0.060791015625, -0.789306640625, 0.249755859375, 21.601562500000, 49.664062500000, -12.156250000000, 1490693857
0.109619140625, -0.791748046875, 0.318847656250, -25.695312500000, 26.687500000000, 0.679687500000, 1490693857
0.109619140625, -0.791748046875, 0.318847656250, -25.695312500000, 26.687500000000, 0.679687500000, 1490693857
0.078857421875, -0.903320312500, 0.114013671875, -41.687500000000, -31.820312500000, -8.546875000000, 1490693857
0.190917968750, -0.543212890625, 0.110839843750, -26.195312500000, -22.156250000000, -20.046875000000, 1490693857
0.190917968750, -0.543212890625, 0.110839843750, -26.195312500000, -22.156250000000, -20.046875000000, 1490693857
0.190917968750, -0.543212890625, 0.110839843750, -26.195312500000, -22.156250000000, -20.046875000000, 1490693857
0.112548828125, -0.754394531250, 0.212158203125, 0.046875000000, -30.671875000000, 6.320312500000, 1490693857
0.112548828125, -0.754394531250, 0.212158203125, 0.046875000000, -30.671875000000, 6.320312500000, 1490693857
0.112548828125, -0.754394531250, 0.212158203125, 0.046875000000, -30.671875000000, 6.320312500000, 1490693857
0.112548828125, -0.754394531250, 0.212158203125, 0.046875000000, -30.671875000000, 6.320312500000, 1490693857
0.112548828125, -0.754394531250, 0.212158203125, 0.046875000000, -30.671875000000, 6.320312500000, 1490693857
0.036376953125, -0.778564453125, 0.287597656250, 53.109375000000, -7.156250000000, -1.015625000000, 1490693857
0.052001953125, -0.723144531250, 0.370117187500, 59.093750000000, -6.421875000000, -10.734375000000, 1490693857
0.052001953125, -0.723144531250, 0.370117187500, 59.093750000000, -6.421875000000, -10.734375000000, 1490693857
0.052001953125, -0.723144531250, 0.370117187500, 59.093750000000, -6.421875000000, -10.734375000000, 1490693857
0.052001953125, -0.723144531250, 0.370117187500, 59.093750000000, -6.421875000000, -10.734375000000, 1490693857
0.385253906250, -0.771972656250, 0.221435546875, 35.781250000000, 25.375000000000, -16.062500000000, 1490693857
0.385253906250, -0.771972656250, 0.221435546875, 35.781250000000, 25.375000000000, -16.062500000000, 1490693857
0.385253906250, -0.771972656250, 0.221435546875, 35.781250000000, 25.375000000000, -16.062500000000, 1490693857
0.385253906250, -0.771972656250, 0.221435546875, 35.781250000000, 25.375000000000, -16.062500000000, 1490693857
0.261962890625, -0.719970703125, 0.296875000000, 17.851562500000, 59.000000000000, 17.398437500000, 1490693857
0.261962890625, -0.719970703125, 0.296875000000, 17.851562500000, 59.000000000000, 17.398437500000, 1490693857
0.261962890625, -0.719970703125, 0.296875000000, 17.851562500000, 59.000000000000, 17.398437500000, 1490693858
0.053222656250, -0.720703125000, 0.245361328125, -18.796875000000, 44.601562500000, 21.273437500000, 1490693858
0.053222656250, -0.720703125000, 0.245361328125, -18.796875000000, 44.601562500000, 21.273437500000, 1490693858
0.053222656250, -0.720703125000, 0.245361328125, -18.796875000000, 44.601562500000, 21.273437500000, 1490693858
0.120117187500, -1.372070312500, 0.186767578125, -71.500000000000, 53.078125000000, 12.640625000000, 1490693858
0.120117187500, -1.372070312500, 0.186767578125, -71.500000000000, 53.078125000000, 12.640625000000, 1490693858
0.120117187500, -1.372070312500, 0.186767578125, -71.500000000000, 53.078125000000, 12.640625000000, 1490693858
0.120117187500, -1.372070312500, 0.186767578125, -71.500000000000, 53.078125000000, 12.640625000000, 1490693858
0.120117187500, -1.372070312500, 0.186767578125, -71.500000000000, 53.078125000000, 12.640625000000, 1490693858
-0.198974609375, -1.628173828125, 0.398437500000, -30.531250000000, 24.625000000000, 31.320312500000, 1490693858
-0.198974609375, -1.628173828125, 0.398437500000, -30.531250000000, 24.625000000000, 31.320312500000, 1490693858
-0.198974609375, -1.628173828125, 0.398437500000, -30.531250000000, 24.625000000000, 31.320312500000, 1490693858
-0.198974609375, -1.628173828125, 0.398437500000, -30.531250000000, 24.625000000000, 31.320312500000, 1490693858
-0.171386718750, -1.753417968750, 0.473388671875, 23.734375000000, 8.835937500000, 11.929687500000, 1490693858
0.029052734375, -1.485595703125, 0.371582031250, 112.093750000000, 21.179687500000, -20.343750000000, 1490693858
0.029052734375, -1.485595703125, 0.371582031250, 112.093750000000, 21.179687500000, -20.343750000000, 1490693858
0.029052734375, -1.485595703125, 0.371582031250, 112.093750000000, 21.179687500000, -20.343750000000, 1490693858
0.055175781250, -1.442871093750, 0.436035156250, 133.757812500000, -4.765625000000, -24.726562500000, 1490693858
0.057373046875, -0.826660156250, 0.301025390625, 41.085937500000, 3.382812500000, -29.757812500000, 1490693858
0.057373046875, -0.826660156250, 0.301025390625, 41.085937500000, 3.382812500000, -29.757812500000, 1490693858
0.051513671875, -0.777099609375, 0.271728515625, 11.515625000000, -13.750000000000, -17.781250000000, 1490693858
0.144042968750, -0.667480468750, 0.227294921875, 2.921875000000, -1.140625000000, -17.906250000000, 1490693858
0.144042968750, -0.667480468750, 0.227294921875, 2.921875000000, -1.140625000000, -17.906250000000, 1490693858
0.144042968750, -0.667480468750, 0.227294921875, 2.921875000000, -1.140625000000, -17.906250000000, 1490693858
0.144042968750, -0.667480468750, 0.227294921875, 2.921875000000, -1.140625000000, -17.906250000000, 1490693858
0.144042968750, -0.667480468750, 0.227294921875, 2.921875000000, -1.140625000000, -17.906250000000, 1490693858
0.065185546875, -0.745117187500, 0.105957031250, -24.132812500000, 9.132812500000, 10.242187500000, 1490693858
0.065185546875, -0.745117187500, 0.105957031250, -24.132812500000, 9.132812500000, 10.242187500000, 1490693858
0.065185546875, -0.745117187500, 0.105957031250, -24.132812500000, 9.132812500000, 10.242187500000, 1490693858
0.065185546875, -0.745117187500, 0.105957031250, -24.132812500000, 9.132812500000, 10.242187500000, 1490693858
0.133056640625, -0.827880859375, 0.132324218750, -21.320312500000, 9.468750000000, 1.015625000000, 1490693858
0.133056640625, -0.827880859375, 0.132324218750, -21.320312500000, 9.468750000000, 1.015625000000, 1490693858
-0.036376953125, -0.927490234375, 0.299316406250, 9.648437500000, 7.625000000000, 10.179687500000, 1490693858
-0.036376953125, -0.927490234375, 0.299316406250, 9.648437500000, 7.625000000000, 10.179687500000, 1490693858
-0.036376953125, -0.927490234375, 0.299316406250, 9.648437500000, 7.625000000000, 10.179687500000, 1490693858
-0.036376953125, -0.927490234375, 0.299316406250, 9.648437500000, 7.625000000000, 10.179687500000, 1490693858
0.017822265625, -0.777587890625, 0.241455078125, 24.742187500000, 20.945312500000, -0.562500000000, 1490693858
-0.076904296875, -0.839843750000, 0.241699218750, 20.953125000000, 18.773437500000, -5.429687500000, 1490693858
-0.076904296875, -0.839843750000, 0.241699218750, 20.953125000000, 18.773437500000, -5.429687500000, 1490693858
-0.076904296875, -0.839843750000, 0.241699218750, 20.953125000000, 18.773437500000, -5.429687500000, 1490693858
-0.039794921875, -0.720947265625, 0.214843750000, 3.875000000000, -12.921875000000, -3.328125000000, 1490693858
-0.039794921875, -0.720947265625, 0.214843750000, 3.875000000000, -12.921875000000, -3.328125000000, 1490693858
-0.039794921875, -0.720947265625, 0.214843750000, 3.875000000000, -12.921875000000, -3.328125000000, 1490693858
-0.050292968750, -0.889892578125, 0.156982421875, 2.773437500000, -32.726562500000, -8.015625000000, 1490693858
-0.050292968750, -0.889892578125, 0.156982421875, 2.773437500000, -32.726562500000, -8.015625000000, 1490693858
-0.050292968750, -0.889892578125, 0.156982421875, 2.773437500000, -32.726562500000, -8.015625000000, 1490693858
0.093261718750, -0.906494140625, 0.239257812500, -0.367187500000, -24.640625000000, -13.500000000000, 1490693858
0.093261718750, -0.906494140625, 0.239257812500, -0.367187500000, -24.640625000000, -13.500000000000, 1490693858
0.093261718750, -0.906494140625, 0.239257812500, -0.367187500000, -24.640625000000, -13.500000000000, 1490693858
0.093261718750, -0.906494140625, 0.239257812500, -0.367187500000, -24.640625000000, -13.500000000000, 1490693858
-0.036132812500, -0.784179687500, 0.391601562500, -10.578125000000, -24.429687500000, -15.257812500000, 1490693858
-0.036132812500, -0.784179687500, 0.391601562500, -10.578125000000, -24.429687500000, -15.257812500000, 1490693858
-0.036132812500, -0.784179687500, 0.391601562500, -10.578125000000, -24.429687500000, -15.257812500000, 1490693858
-0.069091796875, -0.925537109375, 0.313964843750, -32.476562500000, -39.976562500000, -18.812500000000, 1490693858
-0.069091796875, -0.925537109375, 0.313964843750, -32.476562500000, -39.976562500000, -18.812500000000, 1490693858
-0.069091796875, -0.925537109375, 0.313964843750, -32.476562500000, -39.976562500000, -18.812500000000, 1490693858
0.000976562500, -1.274169921875, 0.330810546875, -54.328125000000, -65.289062500000, -9.437500000000, 1490693858
0.000976562500, -1.274169921875, 0.330810546875, -54.328125000000, -65.289062500000, -9.437500000000, 1490693858
0.000976562500, -1.274169921875, 0.330810546875, -54.328125000000, -65.289062500000, -9.437500000000, 1490693858
0.255371093750, -2.065429687500, 0.160400390625, -174.875000000000, -114.570312500000, -0.789062500000, 1490693858
0.255371093750, -2.065429687500, 0.160400390625, -174.875000000000, -114.570312500000, -0.789062500000, 1490693858
0.255371093750, -2.065429687500, 0.160400390625, -174.875000000000, -114.570312500000, -0.789062500000, 1490693858
0.255371093750, -2.065429687500, 0.160400390625, -174.875000000000, -114.570312500000, -0.789062500000, 1490693858
0.303466796875, -1.441162109375, 0.185302734375, -4.390625000000, -57.226562500000, -46.531250000000, 1490693858
0.303466796875, -1.441162109375, 0.185302734375, -4.390625000000, -57.226562500000, -46.531250000000, 1490693858
0.303466796875, -1.441162109375, 0.185302734375, -4.390625000000, -57.226562500000, -46.531250000000, 1490693858
0.396972656250, -1.229248046875, 0.351562500000, 134.398437500000, 8.648437500000, -36.617187500000, 1490693858
0.396972656250, -1.229248046875, 0.351562500000, 134.398437500000, 8.648437500000, -36.617187500000, 1490693859
0.396972656250, -1.229248046875, 0.351562500000, 134.398437500000, 8.648437500000, -36.617187500000, 1490693859
0.272460937500, -0.949707031250, 0.470214843750, 88.437500000000, 83.007812500000, 6.289062500000, 1490693859
0.272460937500, -0.949707031250, 0.470214843750, 88.437500000000, 83.007812500000, 6.289062500000, 1490693859
0.272460937500, -0.949707031250, 0.470214843750, 88.437500000000, 83.007812500000, 6.289062500000, 1490693859
-0.154541015625, -0.770996093750, 0.230224609375, -38.476562500000, 13.945312500000, 3.117187500000, 1490693859
-0.154541015625, -0.770996093750, 0.230224609375, -38.476562500000, 13.945312500000, 3.117187500000, 1490693859
-0.154541015625, -0.770996093750, 0.230224609375, -38.476562500000, 13.945312500000, 3.117187500000, 1490693859
-0.154541015625, -0.770996093750, 0.230224609375, -38.476562500000, 13.945312500000, 3.117187500000, 1490693859
-0.130615234375, -0.805419921875, 0.119628906250, -79.046875000000, -16.429687500000, -2.617187500000, 1490693859
-0.130615234375, -0.805419921875, 0.119628906250, -79.046875000000, -16.429687500000, -2.617187500000, 1490693859
-0.130615234375, -0.805419921875, 0.119628906250, -79.046875000000, -16.429687500000, -2.617187500000, 1490693859
0.058349609375, -0.897460937500, 0.193847656250, -55.531250000000, -49.335937500000, -8.703125000000, 1490693859
0.058349609375, -0.897460937500, 0.193847656250, -55.531250000000, -49.335937500000, -8.703125000000, 1490693859
0.058349609375, -0.897460937500, 0.193847656250, -55.531250000000, -49.335937500000, -8.703125000000, 1490693859
0.102783203125, -0.827636718750, 0.164062500000, 11.648437500000, -23.085937500000, -15.281250000000, 1490693859
0.102783203125, -0.827636718750, 0.164062500000, 11.648437500000, -23.085937500000, -15.281250000000, 1490693859
0.174560546875, -0.666992187500, 0.390625000000, 8.359375000000, -16.351562500000, -13.359375000000, 1490693859
0.174560546875, -0.666992187500, 0.390625000000, 8.359375000000, -16.351562500000, -13.359375000000, 1490693859
0.174560546875, -0.666992187500, 0.390625000000, 8.359375000000, -16.351562500000, -13.359375000000, 1490693859
0.174560546875, -0.666992187500, 0.390625000000, 8.359375000000, -16.351562500000, -13.359375000000, 1490693859
0.158691406250, -0.813476562500, 0.318603515625, 15.804687500000, 12.898437500000, -12.984375000000, 1490693859
0.143798828125, -0.644775390625, 0.254882812500, 27.937500000000, 20.695312500000, -16.296875000000, 1490693859
0.143798828125, -0.644775390625, 0.254882812500, 27.937500000000, 20.695312500000, -16.296875000000, 1490693859
0.143798828125, -0.644775390625, 0.254882812500, 27.937500000000, 20.695312500000, -16.296875000000, 1490693859
0.108886718750, -0.657714843750, 0.234130859375, -12.742187500000, 22.015625000000, -9.570312500000, 1490693859
0.108886718750, -0.657714843750, 0.234130859375, -12.742187500000, 22.015625000000, -9.570312500000, 1490693859
0.108886718750, -0.657714843750, 0.234130859375, -12.742187500000, 22.015625000000, -9.570312500000, 1490693859
0.082519531250, -0.979980468750, 0.377197265625, -19.921875000000, 32.656250000000, 10.398437500000, 1490693859
0.082519531250, -0.979980468750, 0.377197265625, -19.921875000000, 32.656250000000, 10.398437500000, 1490693859
0.082519531250, -0.979980468750, 0.377197265625, -19.921875000000, 32.656250000000, 10.398437500000, 1490693859
-0.068603515625, -0.750244140625, 0.338867187500, -22.375000000000, 24.023437500000, 2.601562500000, 1490693859
-0.068603515625, -0.750244140625, 0.338867187500, -22.375000000000, 24.023437500000, 2.601562500000, 1490693859
-0.068603515625, -0.750244140625, 0.338867187500, -22.375000000000, 24.023437500000, 2.601562500000, 1490693859
0.038330078125, -0.909423828125, 0.170410156250, -70.601562500000, 13.070312500000, 6.593750000000, 1490693859
0.130615234375, -1.138916015625, 0.313964843750, -70.601562500000, 13.070312500000, 6.593750000000, 1490693859
0.130615234375, -1.138916015625, 0.313964843750, -70.601562500000, 13.070312500000, 6.593750000000, 1490693859
0.130615234375, -1.138916015625, 0.313964843750, -70.601562500000, 13.070312500000, 6.593750000000, 1490693859
-0.088378906250, -1.565917968750, 0.573974609375, -33.429687500000, 38.617187500000, -14.265625000000, 1490693859
-0.088378906250, -1.565917968750, 0.573974609375, -33.429687500000, 38.617187500000, -14.265625000000, 1490693859
-0.088378906250, -1.565917968750, 0.573974609375, -33.429687500000, 38.617187500000, -14.265625000000, 1490693859
0.013916015625, -1.269531250000, 0.406738281250, -75.070312500000, 32.820312500000, -24.031250000000, 1490693859
0.087402343750, -1.340332031250, 0.542724609375, 253.992187500000, -26.132812500000, 12.703125000000, 1490693859
0.087402343750, -1.340332031250, 0.542724609375, 253.992187500000, -26.132812500000, 12.703125000000, 1490693859
0.087402343750, -1.340332031250, 0.542724609375, 253.992187500000, -26.132812500000, 12.703125000000, 1490693859
0.087402343750, -1.340332031250, 0.542724609375, 253.992187500000, -26.132812500000, 12.703125000000, 1490693859
0.087402343750, -1.340332031250, 0.542724609375, 253.992187500000, -26.132812500000, 12.703125000000, 1490693859
0.087402343750, -1.340332031250, 0.542724609375, 253.992187500000, -26.132812500000, 12.703125000000, 1490693859
0.079589843750, -0.753173828125, 0.379882812500, 61.367187500000, 44.328125000000, -24.484375000000, 1490693859
0.079589843750, -0.753173828125, 0.379882812500, 61.367187500000, 44.328125000000, -24.484375000000, 1490693859
0.079589843750, -0.753173828125, 0.379882812500, 61.367187500000, 44.328125000000, -24.484375000000, 1490693859
-0.052734375000, -0.689941406250, 0.270507812500, 63.148437500000, 37.976562500000, 6.984375000000, 1490693859
-0.052734375000, -0.689941406250, 0.270507812500, 63.148437500000, 37.976562500000, 6.984375000000, 1490693859
-0.052734375000, -0.689941406250, 0.270507812500, 63.148437500000, 37.976562500000, 6.984375000000, 1490693859
-0.046142578125, -0.700683593750, 0.104248046875, 7.625000000000, 11.601562500000, -0.460937500000, 1490693859
-0.046142578125, -0.700683593750, 0.104248046875, 7.625000000000, 11.601562500000, -0.460937500000, 1490693859
-0.046142578125, -0.700683593750, 0.104248046875, 7.625000000000, 11.601562500000, -0.460937500000, 1490693859
-0.106445312500, -1.198730468750, 0.120849609375, -123.804687500000, -30.671875000000, -20.093750000000, 1490693859
-0.106445312500, -1.198730468750, 0.120849609375, -123.804687500000, -30.671875000000, -20.093750000000, 1490693859
-0.106445312500, -1.198730468750, 0.120849609375, -123.804687500000, -30.671875000000, -20.093750000000, 1490693859
-0.106445312500, -1.198730468750, 0.120849609375, -123.804687500000, -30.671875000000, -20.093750000000, 1490693859
0.017089843750, -0.788574218750, 0.070312500000, 33.007812500000, 23.742187500000, -35.664062500000, 1490693859
0.017089843750, -0.788574218750, 0.070312500000, 33.007812500000, 23.742187500000, -35.664062500000, 1490693859
0.017089843750, -0.788574218750, 0.070312500000, 33.007812500000, 23.742187500000, -35.664062500000, 1490693859
0.023437500000, -1.041503906250, 0.133544921875, -18.554687500000, 42.492187500000, -7.960937500000, 1490693859
0.023437500000, -1.041503906250, 0.133544921875, -18.554687500000, 42.492187500000, -7.960937500000, 1490693859
0.023437500000, -1.041503906250, 0.133544921875, -18.554687500000, 42.492187500000, -7.960937500000, 1490693859
-0.106689453125, -1.030273437500, 0.183349609375, 104.125000000000, 1.515625000000, 19.117187500000, 1490693860
-0.106689453125, -1.030273437500, 0.183349609375, 104.125000000000, 1.515625000000, 19.117187500000, 1490693860
-0.106689453125, -1.030273437500, 0.183349609375, 104.125000000000, 1.515625000000, 19.117187500000, 1490693860
-0.266357421875, -0.963623046875, 0.296142578125, -8.992187500000, -10.890625000000, -2.539062500000, 1490693860
-0.266357421875, -0.963623046875, 0.296142578125, -8.992187500000, -10.890625000000, -2.539062500000, 1490693860
-0.266357421875, -0.963623046875, 0.296142578125, -8.992187500000, -10.890625000000, -2.539062500000, 1490693860
-0.076904296875, -1.024902343750, 0.255859375000, -36.507812500000, -21.609375000000, 3.531250000000, 1490693860
-0.076904296875, -1.024902343750, 0.255859375000, -36.507812500000, -21.609375000000, 3.531250000000, 1490693860
-0.076904296875, -1.024902343750, 0.255859375000, -36.507812500000, -21.609375000000, 3.531250000000, 1490693860
-0.076904296875, -1.024902343750, 0.255859375000, -36.507812500000, -21.609375000000, 3.531250000000, 1490693860
0.007568359375, -1.011718750000, 0.180908203125, -41.765625000000, 1.515625000000, 17.546875000000, 1490693860
0.007568359375, -1.011718750000, 0.180908203125, -41.765625000000, 1.515625000000, 17.546875000000, 1490693860
0.007568359375, -1.011718750000, 0.180908203125, -41.765625000000, 1.515625000000, 17.546875000000, 1490693860
-0.057861328125, -0.767578125000, 0.202392578125, -12.828125000000, -5.867187500000, 10.640625000000, 1490693860
-0.057861328125, -0.767578125000, 0.202392578125, -12.828125000000, -5.867187500000, 10.640625000000, 1490693860
-0.057861328125, -0.767578125000, 0.202392578125, -12.828125000000, -5.867187500000, 10.640625000000, 1490693860
-0.103271484375, -0.788330078125, 0.160400390625, -21.078125000000, -18.843750000000, -0.007812500000, 1490693860
-0.103271484375, -0.788330078125, 0.160400390625, -21.078125000000, -18.843750000000, -0.007812500000, 1490693860
-0.103271484375, -0.788330078125, 0.160400390625, -21.078125000000, -18.843750000000, -0.007812500000, 1490693860
-0.103271484375, -0.788330078125, 0.160400390625, -21.078125000000, -18.843750000000, -0.007812500000, 1490693860
0.022216796875, -0.889404296875, 0.315917968750, 22.937500000000, -5.656250000000, -7.718750000000, 1490693860
0.022216796875, -0.889404296875, 0.315917968750, 22.937500000000, -5.656250000000, -7.718750000000, 1490693860
0.022216796875, -0.889404296875, 0.315917968750, 22.937500000000, -5.656250000000, -7.718750000000, 1490693860
0.045654296875, -0.949218750000, 0.319824218750, -46.859375000000, -41.789062500000, -7.078125000000, 1490693860
0.045654296875, -0.949218750000, 0.319824218750, -46.859375000000, -41.789062500000, -7.078125000000, 1490693860
0.045654296875, -0.949218750000, 0.319824218750, -46.859375000000, -41.789062500000, -7.078125000000, 1490693860
0.134033203125, -2.066406250000, 0.233154296875, -106.601562500000, -120.265625000000, 29.609375000000, 1490693860
0.134033203125, -2.066406250000, 0.233154296875, -106.601562500000, -120.265625000000, 29.609375000000, 1490693860
0.134033203125, -2.066406250000, 0.233154296875, -106.601562500000, -120.265625000000, 29.609375000000, 1490693860
0.180664062500, -1.136230468750, 0.237548828125, 20.617187500000, -56.070312500000, 3.585937500000, 1490693860
0.180664062500, -1.136230468750, 0.237548828125, 20.617187500000, -56.070312500000, 3.585937500000, 1490693860
0.180664062500, -1.136230468750, 0.237548828125, 20.617187500000, -56.070312500000, 3.585937500000, 1490693860
0.180664062500, -1.136230468750, 0.237548828125, 20.617187500000, -56.070312500000, 3.585937500000, 1490693860
-0.008056640625, -0.879882812500, 0.184570312500, 43.570312500000, -64.851562500000, 21.179687500000, 1490693860
-0.008056640625, -0.879882812500, 0.184570312500, 43.570312500000, -64.851562500000, 21.179687500000, 1490693860
-0.010253906250, -0.943603515625, 0.358398437500, 86.843750000000, -9.773437500000, -26.015625000000, 1490693860
-0.010253906250, -0.943603515625, 0.358398437500, 86.843750000000, -9.773437500000, -26.015625000000, 1490693860
-0.010253906250, -0.943603515625, 0.358398437500, 86.843750000000, -9.773437500000, -26.015625000000, 1490693860
-0.010253906250, -0.943603515625, 0.358398437500, 86.843750000000, -9.773437500000, -26.015625000000, 1490693860
0.191406250000, -0.692871093750, 0.248779296875, -55.765625000000, -61.703125000000, -10.429687500000, 1490693860
0.191406250000, -0.692871093750, 0.248779296875, -55.765625000000, -61.703125000000, -10.429687500000, 1490693860
0.191406250000, -0.692871093750, 0.248779296875, -55.765625000000, -61.703125000000, -10.429687500000, 1490693860
0.162109375000, -1.177490234375, 0.193847656250, -72.585937500000, -96.390625000000, -8.437500000000, 1490693860
0.162109375000, -1.177490234375, 0.193847656250, -72.585937500000, -96.390625000000, -8.437500000000, 1490693860
0.162109375000, -1.177490234375, 0.193847656250, -72.585937500000, -96.390625000000, -8.437500000000, 1490693860
0.162109375000, -1.177490234375, 0.193847656250, -72.585937500000, -96.390625000000, -8.437500000000, 1490693860
0.124511718750, -0.983154296875, 0.162841796875, 4.781250000000, -31.718750000000, -25.304687500000, 1490693860
0.124511718750, -0.983154296875, 0.162841796875, 4.781250000000, -31.718750000000, -25.304687500000, 1490693860
0.124511718750, -0.983154296875, 0.162841796875, 4.781250000000, -31.718750000000, -25.304687500000, 1490693860
0.222656250000, -1.017089843750, 0.328369140625, 74.117187500000, -14.109375000000, -22.101562500000, 1490693860
0.222656250000, -1.017089843750, 0.328369140625, 74.117187500000, -14.109375000000, -22.101562500000, 1490693860
0.222656250000, -1.017089843750, 0.328369140625, 74.117187500000, -14.109375000000, -22.101562500000, 1490693860
0.207031250000, -0.904541015625, 0.502685546875, -3.328125000000, 5.125000000000, -5.460937500000, 1490693860
0.056884765625, -0.879394531250, 0.385986328125, -28.085937500000, 8.195312500000, -9.843750000000, 1490693860
0.056884765625, -0.879394531250, 0.385986328125, -28.085937500000, 8.195312500000, -9.843750000000, 1490693860
0.056884765625, -0.879394531250, 0.385986328125, -28.085937500000, 8.195312500000, -9.843750000000, 1490693860
0.083740234375, -0.746582031250, 0.273437500000, -7.851562500000, 12.148437500000, -18.539062500000, 1490693860
0.083740234375, -0.746582031250, 0.273437500000, -7.851562500000, 12.148437500000, -18.539062500000, 1490693860
0.083740234375, -0.746582031250, 0.273437500000, -7.851562500000, 12.148437500000, -18.539062500000, 1490693860
0.083740234375, -0.746582031250, 0.273437500000, -7.851562500000, 12.148437500000, -18.539062500000, 1490693860
0.083740234375, -0.746582031250, 0.273437500000, -7.851562500000, 12.148437500000, -18.539062500000, 1490693860
0.143554687500, -0.471679687500, 0.226562500000, -25.320312500000, -0.601562500000, -28.132812500000, 1490693860
0.143554687500, -0.471679687500, 0.226562500000, -25.320312500000, -0.601562500000, -28.132812500000, 1490693860
0.143554687500, -0.471679687500, 0.226562500000, -25.320312500000, -0.601562500000, -28.132812500000, 1490693860
0.143554687500, -0.471679687500, 0.226562500000, -25.320312500000, -0.601562500000, -28.132812500000, 1490693860
0.164306640625, -0.483886718750, 0.127929687500, -57.218750000000, 40.546875000000, -25.984375000000, 1490693861
0.164306640625, -0.483886718750, 0.127929687500, -57.218750000000, 40.546875000000, -25.984375000000, 1490693861
0.164306640625, -0.483886718750, 0.127929687500, -57.218750000000, 40.546875000000, -25.984375000000, 1490693861
0.074951171875, -0.841308593750, 0.267333984375, 48.132812500000, 15.507812500000, 3.875000000000, 1490693861
0.074951171875, -0.841308593750, 0.267333984375, 48.132812500000, 15.507812500000, 3.875000000000, 1490693861
0.074951171875, -0.841308593750, 0.267333984375, 48.132812500000, 15.507812500000, 3.875000000000, 1490693861
0.148925781250, -0.685302734375, 0.255371093750, 82.890625000000, 75.773437500000, 0.171875000000, 1490693861
0.148925781250, -0.685302734375, 0.255371093750, 82.890625000000, 75.773437500000, 0.171875000000, 1490693861
0.148925781250, -0.685302734375, 0.255371093750, 82.890625000000, 75.773437500000, 0.171875000000, 1490693861
0.148925781250, -0.685302734375, 0.255371093750, 82.890625000000, 75.773437500000, 0.171875000000, 1490693861
