ACC_X,ACC_Y,ACC_Z,G_X,G_Y,G_Z,Unix Time
-0.022216796875, -0.874755859375, -0.050048828125, -149.382812500000, 8.257812500000, 11.718750000000, 1490695197
-0.022216796875, -0.874755859375, -0.050048828125, -149.382812500000, 8.257812500000, 11.718750000000, 1490695197
-0.022216796875, -0.874755859375, -0.050048828125, -149.382812500000, 8.257812500000, 11.718750000000, 1490695197
0.043212890625, -0.989013671875, -0.070556640625, -138.328125000000, -79.195312500000, 24.468750000000, 1490695197
0.043212890625, -0.989013671875, -0.070556640625, -138.328125000000, -79.195312500000, 24.468750000000, 1490695197
0.192138671875, -0.980468750000, 0.041992187500, 101.179687500000, 89.023437500000, -14.937500000000, 1490695197
0.192138671875, -0.980468750000, 0.041992187500, 101.179687500000, 89.023437500000, -14.937500000000, 1490695197
0.192138671875, -0.980468750000, 0.041992187500, 101.179687500000, 89.023437500000, -14.937500000000, 1490695197
0.061035156250, -0.847412109375, 0.124755859375, 150.046875000000, 109.710937500000, -13.812500000000, 1490695197
0.082763671875, -0.886230468750, 0.121337890625, 180.320312500000, 115.320312500000, 5.781250000000, 1490695197
0.082763671875, -0.886230468750, 0.121337890625, 180.320312500000, 115.320312500000, 5.781250000000, 1490695197
0.082763671875, -0.886230468750, 0.121337890625, 180.320312500000, 115.320312500000, 5.781250000000, 1490695197
-0.175537109375, -0.919677734375, 0.435302734375, 120.812500000000, 119.203125000000, 15.531250000000, 1490695197
-0.175537109375, -0.919677734375, 0.435302734375, 120.812500000000, 119.203125000000, 15.531250000000, 1490695197
-0.175537109375, -0.919677734375, 0.435302734375, 120.812500000000, 119.203125000000, 15.531250000000, 1490695197
-0.187988281250, -0.894775390625, 0.461914062500, 51.187500000000, 73.382812500000, 7.664062500000, 1490695197
-0.194091796875, -0.917724609375, 0.280029296875, -33.601562500000, 32.554687500000, 2.585937500000, 1490695197
-0.194091796875, -0.917724609375, 0.280029296875, -33.601562500000, 32.554687500000, 2.585937500000, 1490695197
-0.194091796875, -0.917724609375, 0.280029296875, -33.601562500000, 32.554687500000, 2.585937500000, 1490695197
0.011474609375, -0.816162109375, 0.130615234375, -39.617187500000, 11.507812500000, -8.867187500000, 1490695197
0.011474609375, -0.816162109375, 0.130615234375, -39.617187500000, 11.507812500000, -8.867187500000, 1490695197
0.011474609375, -0.816162109375, 0.130615234375, -39.617187500000, 11.507812500000, -8.867187500000, 1490695197
0.091552734375, -1.134277343750, 0.148925781250, -30.281250000000, 35.593750000000, -12.031250000000, 1490695197
0.091552734375, -1.134277343750, 0.148925781250, -30.281250000000, 35.593750000000, -12.031250000000, 1490695197
0.091552734375, -1.134277343750, 0.148925781250, -30.281250000000, 35.593750000000, -12.031250000000, 1490695197
0.091552734375, -1.134277343750, 0.148925781250, -30.281250000000, 35.593750000000, -12.031250000000, 1490695197
-0.094238281250, -1.244873046875, 0.325683593750, 48.906250000000, 45.507812500000, 6.984375000000, 1490695197
-0.094238281250, -1.244873046875, 0.325683593750, 48.906250000000, 45.507812500000, 6.984375000000, 1490695197
-0.094238281250, -1.244873046875, 0.325683593750, 48.906250000000, 45.507812500000, 6.984375000000, 1490695197
-0.031494140625, -1.150634765625, 0.269042968750, -34.898437500000, 15.695312500000, -27.382812500000, 1490695197
-0.031494140625, -1.150634765625, 0.269042968750, -34.898437500000, 15.695312500000, -27.382812500000, 1490695197
-0.031494140625, -1.150634765625, 0.269042968750, -34.898437500000, 15.695312500000, -27.382812500000, 1490695197
0.075439453125, -0.896240234375, 0.087646484375, -55.000000000000, 17.578125000000, -45.625000000000, 1490695197
0.075439453125, -0.896240234375, 0.087646484375, -55.000000000000, 17.578125000000, -45.625000000000, 1490695197
0.075439453125, -0.896240234375, 0.087646484375, -55.000000000000, 17.578125000000, -45.625000000000, 1490695197
0.075439453125, -0.896240234375, 0.087646484375, -55.000000000000, 17.578125000000, -45.625000000000, 1490695197
0.134765625000, -0.828125000000, -0.025146484375, -11.531250000000, 89.859375000000, -32.484375000000, 1490695197
0.134765625000, -0.828125000000, -0.025146484375, -11.531250000000, 89.859375000000, -32.484375000000, 1490695197
0.189453125000, -0.853027343750, 0.036132812500, -51.976562500000, 94.156250000000, 0.718750000000, 1490695197
0.189453125000, -0.853027343750, 0.036132812500, -51.976562500000, 94.156250000000, 0.718750000000, 1490695197
0.189453125000, -0.853027343750, 0.036132812500, -51.976562500000, 94.156250000000, 0.718750000000, 1490695197
0.189453125000, -0.853027343750, 0.036132812500, -51.976562500000, 94.156250000000, 0.718750000000, 1490695197
-0.103271484375, -1.071533203125, 0.128173828125, 33.765625000000, 84.757812500000, 37.179687500000, 1490695198
-0.103271484375, -1.071533203125, 0.128173828125, 33.765625000000, 84.757812500000, 37.179687500000, 1490695198
-0.103271484375, -1.071533203125, 0.128173828125, 33.765625000000, 84.757812500000, 37.179687500000, 1490695198
-0.082031250000, -0.968017578125, 0.395507812500, 44.718750000000, 71.015625000000, -1.257812500000, 1490695198
-0.082031250000, -0.968017578125, 0.395507812500, 44.718750000000, 71.015625000000, -1.257812500000, 1490695198
-0.082031250000, -0.968017578125, 0.395507812500, 44.718750000000, 71.015625000000, -1.257812500000, 1490695198
-0.082031250000, -0.968017578125, 0.395507812500, 44.718750000000, 71.015625000000, -1.257812500000, 1490695198
-0.087402343750, -0.892089843750, 0.272705078125, -7.554687500000, 50.203125000000, -0.718750000000, 1490695198
-0.021240234375, -0.918945312500, 0.160644531250, -31.398437500000, 46.679687500000, 3.851562500000, 1490695198
-0.021240234375, -0.918945312500, 0.160644531250, -31.398437500000, 46.679687500000, 3.851562500000, 1490695198
-0.021240234375, -0.918945312500, 0.160644531250, -31.398437500000, 46.679687500000, 3.851562500000, 1490695198
-0.021240234375, -0.918945312500, 0.160644531250, -31.398437500000, 46.679687500000, 3.851562500000, 1490695198
-0.021240234375, -0.918945312500, 0.160644531250, -23.250000000000, 44.320312500000, 3.000000000000, 1490695198
-0.065185546875, -0.930175781250, 0.100585937500, -4.734375000000, 36.000000000000, 10.687500000000, 1490695198
-0.065185546875, -0.930175781250, 0.100585937500, -4.734375000000, 36.000000000000, 10.687500000000, 1490695198
-0.065185546875, -0.930175781250, 0.100585937500, -4.734375000000, 36.000000000000, 10.687500000000, 1490695198
0.084716796875, -0.908691406250, 0.132568359375, -19.234375000000, 28.109375000000, 0.578125000000, 1490695198
0.084716796875, -0.908691406250, 0.132568359375, -19.234375000000, 28.109375000000, 0.578125000000, 1490695198
0.084716796875, -0.908691406250, 0.132568359375, -19.234375000000, 28.109375000000, 0.578125000000, 1490695198
0.084716796875, -0.908691406250, 0.132568359375, -19.234375000000, 28.109375000000, 0.578125000000, 1490695198
-0.005859375000, -1.233642578125, 0.272949218750, -4.414062500000, 27.843750000000, 7.687500000000, 1490695198
-0.005859375000, -1.233642578125, 0.272949218750, -4.414062500000, 27.843750000000, 7.687500000000, 1490695198
-0.005859375000, -1.233642578125, 0.272949218750, -4.414062500000, 27.843750000000, 7.687500000000, 1490695198
-0.077392578125, -1.402099609375, 0.246826171875, -8.843750000000, 53.671875000000, 4.226562500000, 1490695198
-0.077392578125, -1.402099609375, 0.246826171875, -8.843750000000, 53.671875000000, 4.226562500000, 1490695198
-0.077392578125, -1.402099609375, 0.246826171875, -8.843750000000, 53.671875000000, 4.226562500000, 1490695198
0.085205078125, -1.045410156250, 0.280273437500, -39.187500000000, 39.750000000000, -2.625000000000, 1490695198
0.085205078125, -1.045410156250, 0.280273437500, -39.187500000000, 39.750000000000, -2.625000000000, 1490695198
0.085205078125, -1.045410156250, 0.280273437500, -39.187500000000, 39.750000000000, -2.625000000000, 1490695198
-0.037109375000, -0.764404296875, 0.006591796875, -69.312500000000, 39.773437500000, 10.953125000000, 1490695198
-0.037109375000, -0.764404296875, 0.006591796875, -69.312500000000, 39.773437500000, 10.953125000000, 1490695198
-0.037109375000, -0.764404296875, 0.006591796875, -69.312500000000, 39.773437500000, 10.953125000000, 1490695198
-0.037109375000, -0.764404296875, 0.006591796875, -69.312500000000, 39.773437500000, 10.953125000000, 1490695198
-0.050048828125, -0.926025390625, -0.049560546875, -116.992187500000, 39.140625000000, -2.890625000000, 1490695198
-0.050048828125, -0.926025390625, -0.049560546875, -116.992187500000, 39.140625000000, -2.890625000000, 1490695198
-0.050048828125, -0.926025390625, -0.049560546875, -116.992187500000, 39.140625000000, -2.890625000000, 1490695198
0.126708984375, -1.140625000000, 0.035400390625, 3.468750000000, 75.195312500000, 3.781250000000, 1490695198
0.126708984375, -1.140625000000, 0.035400390625, 3.468750000000, 75.195312500000, 3.781250000000, 1490695198
0.126708984375, -1.140625000000, 0.035400390625, 3.468750000000, 75.195312500000, 3.781250000000, 1490695198
0.054931640625, -1.152099609375, 0.160400390625, 134.929687500000, 86.351562500000, 23.343750000000, 1490695198
0.054931640625, -1.152099609375, 0.160400390625, 134.929687500000, 86.351562500000, 23.343750000000, 1490695198
0.054931640625, -1.152099609375, 0.160400390625, 134.929687500000, 86.351562500000, 23.343750000000, 1490695198
-0.161132812500, -0.901123046875, 0.220947265625, 48.812500000000, 110.976562500000, 22.570312500000, 1490695198
-0.161132812500, -0.901123046875, 0.220947265625, 48.812500000000, 110.976562500000, 22.570312500000, 1490695198
-0.161132812500, -0.901123046875, 0.220947265625, 48.812500000000, 110.976562500000, 22.570312500000, 1490695198
-0.161132812500, -0.901123046875, 0.220947265625, 48.812500000000, 110.976562500000, 22.570312500000, 1490695198
-0.274902343750, -0.789550781250, 0.325439453125, -36.242187500000, 54.945312500000, -10.242187500000, 1490695198
-0.274902343750, -0.789550781250, 0.325439453125, -36.242187500000, 54.945312500000, -10.242187500000, 1490695198
-0.131835937500, -0.856445312500, 0.061279296875, -46.328125000000, 52.593750000000, -1.460937500000, 1490695198
-0.131835937500, -0.856445312500, 0.061279296875, -46.328125000000, 52.593750000000, -1.460937500000, 1490695198
-0.131835937500, -0.856445312500, 0.061279296875, -46.328125000000, 52.593750000000, -1.460937500000, 1490695198
-0.131835937500, -0.856445312500, 0.061279296875, -46.328125000000, 52.593750000000, -1.460937500000, 1490695198
-0.095703125000, -0.883789062500, 0.134277343750, 9.882812500000, 68.226562500000, -5.968750000000, 1490695198
-0.095703125000, -0.883789062500, 0.134277343750, 9.882812500000, 68.226562500000, -5.968750000000, 1490695198
-0.095703125000, -0.883789062500, 0.134277343750, 9.882812500000, 68.226562500000, -5.968750000000, 1490695198
-0.000976562500, -1.135009765625, 0.274414062500, -19.500000000000, 78.718750000000, 2.101562500000, 1490695198
-0.000976562500, -1.135009765625, 0.274414062500, -19.500000000000, 78.718750000000, 2.101562500000, 1490695198
-0.000976562500, -1.135009765625, 0.274414062500, -19.500000000000, 78.718750000000, 2.101562500000, 1490695198
-0.000976562500, -1.135009765625, 0.274414062500, -19.500000000000, 78.718750000000, 2.101562500000, 1490695198
0.016601562500, -1.592773437500, 0.250488281250, -85.015625000000, 63.750000000000, 22.453125000000, 1490695198
0.016601562500, -1.592773437500, 0.250488281250, -85.015625000000, 63.750000000000, 22.453125000000, 1490695198
0.016601562500, -1.592773437500, 0.250488281250, -85.015625000000, 63.750000000000, 22.453125000000, 1490695198
0.119628906250, -1.051757812500, 0.153320312500, -42.078125000000, 27.273437500000, 44.984375000000, 1490695198
0.119628906250, -1.051757812500, 0.153320312500, -42.078125000000, 27.273437500000, 44.984375000000, 1490695198
0.119628906250, -1.051757812500, 0.153320312500, -42.078125000000, 27.273437500000, 44.984375000000, 1490695198
0.323242187500, -0.619384765625, 0.083740234375, 2.164062500000, 80.273437500000, 12.492187500000, 1490695198
0.323242187500, -0.619384765625, 0.083740234375, 2.164062500000, 80.273437500000, 12.492187500000, 1490695199
0.323242187500, -0.619384765625, 0.083740234375, 2.164062500000, 80.273437500000, 12.492187500000, 1490695199
0.286621093750, -0.946044921875, 0.023925781250, -63.648437500000, 210.117187500000, -5.132812500000, 1490695199
0.286621093750, -0.946044921875, 0.023925781250, -63.648437500000, 210.117187500000, -5.132812500000, 1490695199
0.286621093750, -0.946044921875, 0.023925781250, -63.648437500000, 210.117187500000, -5.132812500000, 1490695199
0.286621093750, -0.946044921875, 0.023925781250, -63.648437500000, 210.117187500000, -5.132812500000, 1490695199
0.183349609375, -1.238037109375, 0.077392578125, -50.507812500000, 99.992187500000, 79.898437500000, 1490695199
0.183349609375, -1.238037109375, 0.077392578125, -50.507812500000, 99.992187500000, 79.898437500000, 1490695199
0.183349609375, -1.238037109375, 0.077392578125, -50.507812500000, 99.992187500000, 79.898437500000, 1490695199
0.048339843750, -1.042236328125, 0.125244140625, 48.625000000000, 125.429687500000, 50.460937500000, 1490695199
0.048339843750, -1.042236328125, 0.125244140625, 48.625000000000, 125.429687500000, 50.460937500000, 1490695199
0.048339843750, -1.042236328125, 0.125244140625, 48.625000000000, 125.429687500000, 50.460937500000, 1490695199
0.114990234375, -0.811279296875, 0.110839843750, 73.914062500000, 137.382812500000, 15.085937500000, 1490695199
0.114990234375, -0.811279296875, 0.110839843750, 73.914062500000, 137.382812500000, 15.085937500000, 1490695199
0.114990234375, -0.811279296875, 0.110839843750, 73.914062500000, 137.382812500000, 15.085937500000, 1490695199
0.144287109375, -0.850341796875, 0.175537109375, 27.835937500000, 149.523437500000, 21.250000000000, 1490695199
0.144287109375, -0.850341796875, 0.175537109375, 27.835937500000, 149.523437500000, 21.250000000000, 1490695199
0.144287109375, -0.850341796875, 0.175537109375, 27.835937500000, 149.523437500000, 21.250000000000, 1490695199
0.144287109375, -0.850341796875, 0.175537109375, 27.835937500000, 149.523437500000, 21.250000000000, 1490695199
0.145019531250, -1.066406250000, 0.272949218750, -29.796875000000, 121.984375000000, 9.570312500000, 1490695199
0.145019531250, -1.066406250000, 0.272949218750, -29.796875000000, 121.984375000000, 9.570312500000, 1490695199
0.145019531250, -1.066406250000, 0.272949218750, -29.796875000000, 121.984375000000, 9.570312500000, 1490695199
0.113769531250, -0.872314453125, 0.043945312500, -34.429687500000, 103.578125000000, 4.929687500000, 1490695199
0.113769531250, -0.872314453125, 0.043945312500, -34.429687500000, 103.578125000000, 4.929687500000, 1490695199
0.113769531250, -0.872314453125, 0.043945312500, -34.429687500000, 103.578125000000, 4.929687500000, 1490695199
0.229003906250, -1.000732421875, 0.106689453125, -24.312500000000, 104.226562500000, 4.593750000000, 1490695199
0.204345703125, -1.059082031250, 0.280029296875, 13.500000000000, 120.070312500000, 8.835937500000, 1490695199
-0.092773437500, -1.233642578125, 0.185302734375, -30.687500000000, 116.937500000000, 13.945312500000, 1490695199
0.112792968750, -0.844238281250, 0.164306640625, -35.664062500000, 70.093750000000, -40.632812500000, 1490695199
0.112792968750, -0.844238281250, 0.164306640625, -35.664062500000, 70.093750000000, -40.632812500000, 1490695199
0.112792968750, -0.844238281250, 0.164306640625, -35.664062500000, 70.093750000000, -40.632812500000, 1490695199
0.113281250000, -0.905517578125, 0.171630859375, -40.296875000000, 103.429687500000, -41.390625000000, 1490695199
0.190429687500, -0.968017578125, -0.012207031250, -24.828125000000, 96.445312500000, -2.406250000000, 1490695199
0.190429687500, -0.968017578125, -0.012207031250, -24.828125000000, 96.445312500000, -2.406250000000, 1490695199
0.190429687500, -0.968017578125, -0.012207031250, -24.828125000000, 96.445312500000, -2.406250000000, 1490695199
0.190429687500, -0.968017578125, -0.012207031250, -24.828125000000, 96.445312500000, -2.406250000000, 1490695199
0.190429687500, -0.968017578125, -0.012207031250, -24.828125000000, 96.445312500000, -2.406250000000, 1490695199
-0.087646484375, -0.788574218750, -0.003662109375, -32.734375000000, 59.390625000000, 23.632812500000, 1490695199
0.090087890625, -0.860595703125, 0.012939453125, -72.437500000000, 64.804687500000, 6.125000000000, 1490695199
0.090087890625, -0.860595703125, 0.012939453125, -72.437500000000, 64.804687500000, 6.125000000000, 1490695199
0.090087890625, -0.860595703125, 0.012939453125, -72.437500000000, 64.804687500000, 6.125000000000, 1490695199
0.090087890625, -0.860595703125, 0.012939453125, -72.437500000000, 64.804687500000, 6.125000000000, 1490695199
0.090087890625, -0.860595703125, 0.012939453125, -72.437500000000, 64.804687500000, 6.125000000000, 1490695199
0.090087890625, -0.860595703125, 0.012939453125, -72.437500000000, 64.804687500000, 6.125000000000, 1490695199
0.090087890625, -0.860595703125, 0.012939453125, -72.437500000000, 64.804687500000, 6.125000000000, 1490695199
-0.025390625000, -0.979248046875, 0.189453125000, 109.851562500000, 104.406250000000, 34.312500000000, 1490695199
-0.025390625000, -0.979248046875, 0.189453125000, 109.851562500000, 104.406250000000, 34.312500000000, 1490695199
-0.025390625000, -0.979248046875, 0.189453125000, 109.851562500000, 104.406250000000, 34.312500000000, 1490695199
-0.025390625000, -0.979248046875, 0.189453125000, 109.851562500000, 104.406250000000, 34.312500000000, 1490695199
-0.025390625000, -0.979248046875, 0.189453125000, 109.851562500000, 104.406250000000, 34.312500000000, 1490695199
-0.075683593750, -1.006103515625, 0.353515625000, 82.281250000000, 126.867187500000, 10.554687500000, 1490695199
-0.075683593750, -1.006103515625, 0.353515625000, 82.281250000000, 126.867187500000, 10.554687500000, 1490695199
-0.075683593750, -1.006103515625, 0.353515625000, 82.281250000000, 126.867187500000, 10.554687500000, 1490695199
-0.075683593750, -1.006103515625, 0.353515625000, 82.281250000000, 126.867187500000, 10.554687500000, 1490695199
-0.036376953125, -0.961669921875, 0.116699218750, -45.000000000000, 74.851562500000, -6.140625000000, 1490695199
-0.036376953125, -0.961669921875, 0.116699218750, -45.000000000000, 74.851562500000, -6.140625000000, 1490695199
-0.036376953125, -0.961669921875, 0.116699218750, -45.000000000000, 74.851562500000, -6.140625000000, 1490695199
-0.036376953125, -0.961669921875, 0.116699218750, -45.000000000000, 74.851562500000, -6.140625000000, 1490695199
-0.154296875000, -0.924560546875, -0.001220703125, -32.343750000000, 33.953125000000, 5.468750000000, 1490695199
-0.154296875000, -0.924560546875, -0.001220703125, -32.343750000000, 33.953125000000, 5.468750000000, 1490695199
-0.154296875000, -0.924560546875, -0.001220703125, -32.343750000000, 33.953125000000, 5.468750000000, 1490695199
-0.273437500000, -0.971679687500, 0.191162109375, 30.515625000000, 24.890625000000, 1.414062500000, 1490695199
-0.273437500000, -0.971679687500, 0.191162109375, 30.515625000000, 24.890625000000, 1.414062500000, 1490695199
-0.273437500000, -0.971679687500, 0.191162109375, 30.515625000000, 24.890625000000, 1.414062500000, 1490695199
-0.086425781250, -0.872558593750, 0.243652343750, 31.945312500000, 11.164062500000, -15.664062500000, 1490695199
-0.086425781250, -0.872558593750, 0.243652343750, 31.945312500000, 11.164062500000, -15.664062500000, 1490695199
-0.086425781250, -0.872558593750, 0.243652343750, 31.945312500000, 11.164062500000, -15.664062500000, 1490695199
-0.081542968750, -1.230224609375, 0.192382812500, -25.281250000000, -10.593750000000, -21.070312500000, 1490695200
-0.081542968750, -1.230224609375, 0.192382812500, -25.281250000000, -10.593750000000, -21.070312500000, 1490695200
-0.023193359375, -1.226562500000, 0.257812500000, -2.906250000000, 30.289062500000, -23.828125000000, 1490695200
0.163574218750, -1.696533203125, 0.379150390625, -2.906250000000, 30.289062500000, -23.828125000000, 1490695200
0.135009765625, -0.911132812500, 0.162841796875, -51.828125000000, -30.710937500000, 8.593750000000, 1490695200
0.135009765625, -0.911132812500, 0.162841796875, -51.828125000000, -30.710937500000, 8.593750000000, 1490695200
0.135009765625, -0.911132812500, 0.162841796875, -51.828125000000, -30.710937500000, 8.593750000000, 1490695200
0.135009765625, -0.911132812500, 0.162841796875, -51.828125000000, -30.710937500000, 8.593750000000, 1490695200
0.135009765625, -0.911132812500, 0.162841796875, -51.828125000000, -30.710937500000, 8.593750000000, 1490695200
0.127197265625, -0.789306640625, -0.087402343750, -124.562500000000, 6.617187500000, -9.179687500000, 1490695200
0.127197265625, -0.789306640625, -0.087402343750, -124.562500000000, 6.617187500000, -9.179687500000, 1490695200
0.127197265625, -0.789306640625, -0.087402343750, -124.562500000000, 6.617187500000, -9.179687500000, 1490695200
0.127197265625, -0.789306640625, -0.087402343750, -124.562500000000, 6.617187500000, -9.179687500000, 1490695200
0.052734375000, -0.854736328125, -0.041259765625, -114.335937500000, -41.367187500000, 36.773437500000, 1490695200
0.052734375000, -0.854736328125, -0.041259765625, -114.335937500000, -41.367187500000, 36.773437500000, 1490695200
0.052734375000, -0.854736328125, -0.041259765625, -114.335937500000, -41.367187500000, 36.773437500000, 1490695200
0.052734375000, -0.854736328125, -0.041259765625, -114.335937500000, -41.367187500000, 36.773437500000, 1490695200
-0.192626953125, -1.095458984375, 0.203857421875, -16.406250000000, -63.656250000000, 58.734375000000, 1490695200
-0.192626953125, -1.095458984375, 0.203857421875, -16.406250000000, -63.656250000000, 58.734375000000, 1490695200
-0.192626953125, -1.095458984375, 0.203857421875, -16.406250000000, -63.656250000000, 58.734375000000, 1490695200
-0.055419921875, -1.002197265625, 0.196289062500, 131.750000000000, -5.890625000000, -29.898437500000, 1490695200
-0.055419921875, -1.002197265625, 0.196289062500, 131.750000000000, -5.890625000000, -29.898437500000, 1490695200
0.058105468750, -1.031982421875, 0.454833984375, 82.429687500000, -5.687500000000, -16.773437500000, 1490695200
0.058105468750, -1.031982421875, 0.454833984375, 82.429687500000, -5.687500000000, -16.773437500000, 1490695200
0.058105468750, -1.031982421875, 0.454833984375, 82.429687500000, -5.687500000000, -16.773437500000, 1490695200
0.093994140625, -0.856201171875, 0.286376953125, -10.671875000000, -31.914062500000, 8.367187500000, 1490695200
0.093994140625, -0.856201171875, 0.286376953125, -10.671875000000, -31.914062500000, 8.367187500000, 1490695200
0.093994140625, -0.856201171875, 0.286376953125, -10.671875000000, -31.914062500000, 8.367187500000, 1490695200
0.093994140625, -0.856201171875, 0.286376953125, -10.671875000000, -31.914062500000, 8.367187500000, 1490695200
0.070068359375, -0.833251953125, 0.168212890625, -9.796875000000, -19.414062500000, 18.328125000000, 1490695200
0.070068359375, -0.833251953125, 0.168212890625, -9.796875000000, -19.414062500000, 18.328125000000, 1490695200
0.070068359375, -0.833251953125, 0.168212890625, -9.796875000000, -19.414062500000, 18.328125000000, 1490695200
0.070068359375, -0.833251953125, 0.168212890625, -9.796875000000, -19.414062500000, 18.328125000000, 1490695200
0.023193359375, -0.787597656250, 0.255859375000, -8.093750000000, -27.843750000000, 14.390625000000, 1490695200
0.199462890625, -1.072509765625, 0.325439453125, 2.945312500000, -12.914062500000, -45.054687500000, 1490695200
0.199462890625, -1.072509765625, 0.325439453125, 2.945312500000, -12.914062500000, -45.054687500000, 1490695200
0.199462890625, -1.072509765625, 0.325439453125, 2.945312500000, -12.914062500000, -45.054687500000, 1490695200
0.199462890625, -1.072509765625, 0.325439453125, 2.945312500000, -12.914062500000, -45.054687500000, 1490695200
0.199462890625, -1.072509765625, 0.325439453125, 2.945312500000, -12.914062500000, -45.054687500000, 1490695200
-0.066406250000, -1.677734375000, 0.320068359375, -41.328125000000, 16.585937500000, 22.945312500000, 1490695200
-0.066406250000, -1.677734375000, 0.320068359375, -41.328125000000, 16.585937500000, 22.945312500000, 1490695200
-0.066406250000, -1.677734375000, 0.320068359375, -41.328125000000, 16.585937500000, 22.945312500000, 1490695200
-0.066406250000, -1.677734375000, 0.320068359375, -41.328125000000, 16.585937500000, 22.945312500000, 1490695200
0.089111328125, -0.978271484375, 0.189453125000, -63.757812500000, -9.046875000000, -34.382812500000, 1490695200
0.089111328125, -0.978271484375, 0.189453125000, -63.757812500000, -9.046875000000, -34.382812500000, 1490695200
0.089111328125, -0.978271484375, 0.189453125000, -63.757812500000, -9.046875000000, -34.382812500000, 1490695200
-0.127197265625, -0.818115234375, 0.002685546875, -89.875000000000, -3.460937500000, 3.265625000000, 1490695200
-0.127197265625, -0.818115234375, 0.002685546875, -89.875000000000, -3.460937500000, 3.265625000000, 1490695200
-0.127197265625, -0.818115234375, 0.002685546875, -89.875000000000, -3.460937500000, 3.265625000000, 1490695200
0.020263671875, -0.863281250000, -0.126708984375, -92.867187500000, -106.015625000000, 16.757812500000, 1490695200
0.020263671875, -0.863281250000, -0.126708984375, -92.867187500000, -106.015625000000, 16.757812500000, 1490695200
0.020263671875, -0.863281250000, -0.126708984375, -92.867187500000, -106.015625000000, 16.757812500000, 1490695200
0.203613281250, -0.933593750000, 0.123779296875, 55.023437500000, -17.007812500000, -29.125000000000, 1490695200
0.203613281250, -0.933593750000, 0.123779296875, 55.023437500000, -17.007812500000, -29.125000000000, 1490695200
0.203613281250, -0.933593750000, 0.123779296875, 55.023437500000, -17.007812500000, -29.125000000000, 1490695200
0.203613281250, -0.933593750000, 0.123779296875, 55.023437500000, -17.007812500000, -29.125000000000, 1490695200
0.041259765625, -0.947021484375, 0.061523437500, 143.476562500000, 31.921875000000, -20.945312500000, 1490695200
0.041259765625, -0.947021484375, 0.061523437500, 143.476562500000, 31.921875000000, -20.945312500000, 1490695200
0.041259765625, -0.947021484375, 0.061523437500, 143.476562500000, 31.921875000000, -20.945312500000, 1490695200
0.011718750000, -0.837402343750, 0.339599609375, 118.570312500000, -28.742187500000, -18.773437500000, 1490695200
0.011718750000, -0.837402343750, 0.339599609375, 118.570312500000, -28.742187500000, -18.773437500000, 1490695200
0.011718750000, -0.837402343750, 0.339599609375, 118.570312500000, -28.742187500000, -18.773437500000, 1490695200
0.021728515625, -0.863037109375, 0.300781250000, -30.953125000000, -23.976562500000, -9.101562500000, 1490695200
0.021728515625, -0.863037109375, 0.300781250000, -30.953125000000, -23.976562500000, -9.101562500000, 1490695200
0.021728515625, -0.863037109375, 0.300781250000, -30.953125000000, -23.976562500000, -9.101562500000, 1490695200
-0.080810546875, -0.981445312500, 0.207763671875, -54.890625000000, -15.578125000000, -11.882812500000, 1490695201
-0.080810546875, -0.981445312500, 0.207763671875, -54.890625000000, -15.578125000000, -11.882812500000, 1490695201
-0.080810546875, -0.981445312500, 0.207763671875, -54.890625000000, -15.578125000000, -11.882812500000, 1490695201
-0.126464843750, -0.844726562500, 0.146972656250, -15.367187500000, -24.992187500000, -26.585937500000, 1490695201
-0.126464843750, -0.844726562500, 0.146972656250, -15.367187500000, -24.992187500000, -26.585937500000, 1490695201
-0.126464843750, -0.844726562500, 0.146972656250, -15.367187500000, -24.992187500000, -26.585937500000, 1490695201
-0.126464843750, -0.844726562500, 0.146972656250, -15.367187500000, -24.992187500000, -26.585937500000, 1490695201
-0.053955078125, -1.194824218750, 0.160888671875, 14.351562500000, -14.703125000000, -39.218750000000, 1490695201
-0.053955078125, -1.194824218750, 0.160888671875, 14.351562500000, -14.703125000000, -39.218750000000, 1490695201
-0.053955078125, -1.194824218750, 0.160888671875, 14.351562500000, -14.703125000000, -39.218750000000, 1490695201
-0.008789062500, -1.422851562500, 0.491455078125, 16.031250000000, 13.718750000000, -5.078125000000, 1490695201
-0.008789062500, -1.422851562500, 0.491455078125, 16.031250000000, 13.718750000000, -5.078125000000, 1490695201
-0.008789062500, -1.422851562500, 0.491455078125, 16.031250000000, 13.718750000000, -5.078125000000, 1490695201
-0.071289062500, -0.803222656250, 0.141845703125, -132.781250000000, -24.695312500000, -15.898437500000, 1490695201
-0.071289062500, -0.803222656250, 0.141845703125, -132.781250000000, -24.695312500000, -15.898437500000, 1490695201
-0.071289062500, -0.803222656250, 0.141845703125, -132.781250000000, -24.695312500000, -15.898437500000, 1490695201
-0.071289062500, -0.803222656250, 0.141845703125, -132.781250000000, -24.695312500000, -15.898437500000, 1490695201
0.009033203125, -0.875732421875, 0.025146484375, -113.640625000000, 36.960937500000, -6.906250000000, 1490695201
0.009033203125, -0.875732421875, 0.025146484375, -113.640625000000, 36.960937500000, -6.906250000000, 1490695201
0.072265625000, -0.912597656250, -0.037841796875, -15.609375000000, 47.960937500000, 31.812500000000, 1490695201
0.072265625000, -0.912597656250, -0.037841796875, -15.609375000000, 47.960937500000, 31.812500000000, 1490695201
0.072265625000, -0.912597656250, -0.037841796875, -15.609375000000, 47.960937500000, 31.812500000000, 1490695201
-0.215332031250, -1.006347656250, -0.034912109375, 86.281250000000, 18.734375000000, 40.375000000000, 1490695201
-0.107421875000, -0.963623046875, -0.027587890625, 86.281250000000, 18.734375000000, 40.375000000000, 1490695201
-0.107421875000, -0.963623046875, -0.027587890625, 86.281250000000, 18.734375000000, 40.375000000000, 1490695201
-0.107421875000, -0.963623046875, -0.027587890625, 86.281250000000, 18.734375000000, 40.375000000000, 1490695201
-0.140869140625, -0.937011718750, 0.443115234375, 187.851562500000, 57.687500000000, -5.203125000000, 1490695201
-0.140869140625, -0.937011718750, 0.443115234375, 187.851562500000, 57.687500000000, -5.203125000000, 1490695201
-0.140869140625, -0.937011718750, 0.443115234375, 187.851562500000, 57.687500000000, -5.203125000000, 1490695201
-0.140869140625, -0.937011718750, 0.443115234375, 187.851562500000, 57.687500000000, -5.203125000000, 1490695201
-0.040283203125, -0.804199218750, 0.510253906250, 6.289062500000, -17.109375000000, -7.203125000000, 1490695201
-0.040283203125, -0.804199218750, 0.510253906250, 6.289062500000, -17.109375000000, -7.203125000000, 1490695201
-0.040283203125, -0.804199218750, 0.510253906250, 6.289062500000, -17.109375000000, -7.203125000000, 1490695201
-0.026123046875, -0.910400390625, 0.267089843750, -77.210937500000, -18.726562500000, -13.718750000000, 1490695201
-0.026123046875, -0.910400390625, 0.267089843750, -77.210937500000, -18.726562500000, -13.718750000000, 1490695201
-0.026123046875, -0.910400390625, 0.267089843750, -77.210937500000, -18.726562500000, -13.718750000000, 1490695201
0.019531250000, -0.968750000000, 0.093017578125, -40.500000000000, 0.953125000000, -3.171875000000, 1490695201
0.019531250000, -0.968750000000, 0.093017578125, -40.500000000000, 0.953125000000, -3.171875000000, 1490695201
0.019531250000, -0.968750000000, 0.093017578125, -40.500000000000, 0.953125000000, -3.171875000000, 1490695201
-0.083251953125, -1.036865234375, 0.086425781250, 5.578125000000, 11.335937500000, -4.484375000000, 1490695201
-0.083251953125, -1.036865234375, 0.086425781250, 5.578125000000, 11.335937500000, -4.484375000000, 1490695201
-0.083251953125, -1.036865234375, 0.086425781250, 5.578125000000, 11.335937500000, -4.484375000000, 1490695201
-0.083251953125, -1.036865234375, 0.086425781250, 5.578125000000, 11.335937500000, -4.484375000000, 1490695201
0.042236328125, -1.241699218750, 0.426269531250, 42.000000000000, 27.265625000000, -13.250000000000, 1490695201
0.042236328125, -1.241699218750, 0.426269531250, 42.000000000000, 27.265625000000, -13.250000000000, 1490695201
0.042236328125, -1.241699218750, 0.426269531250, 42.000000000000, 27.265625000000, -13.250000000000, 1490695201
-0.133789062500, -1.257568359375, 0.489746093750, -28.468750000000, 13.390625000000, -0.109375000000, 1490695201
-0.133789062500, -1.257568359375, 0.489746093750, -28.468750000000, 13.390625000000, -0.109375000000, 1490695201
-0.133789062500, -1.257568359375, 0.489746093750, -28.468750000000, 13.390625000000, -0.109375000000, 1490695201
-0.163574218750, -1.031250000000, 0.250976562500, -88.859375000000, 3.609375000000, -15.773437500000, 1490695201
-0.163574218750, -1.031250000000, 0.250976562500, -88.859375000000, 3.609375000000, -15.773437500000, 1490695201
-0.163574218750, -1.031250000000, 0.250976562500, -88.859375000000, 3.609375000000, -15.773437500000, 1490695201
-0.159423828125, -0.790527343750, 0.008789062500, -91.484375000000, -26.921875000000, 15.023437500000, 1490695201
-0.159423828125, -0.790527343750, 0.008789062500, -91.484375000000, -26.921875000000, 15.023437500000, 1490695201
-0.159423828125, -0.790527343750, 0.008789062500, -91.484375000000, -26.921875000000, 15.023437500000, 1490695201
-0.193603515625, -0.915039062500, -0.091552734375, -43.273437500000, -48.132812500000, -0.570312500000, 1490695201
-0.193603515625, -0.915039062500, -0.091552734375, -43.273437500000, -48.132812500000, -0.570312500000, 1490695201
-0.193603515625, -0.915039062500, -0.091552734375, -43.273437500000, -48.132812500000, -0.570312500000, 1490695201
-0.193603515625, -0.915039062500, -0.091552734375, -43.273437500000, -48.132812500000, -0.570312500000, 1490695201
0.056884765625, -0.943603515625, 0.161865234375, 150.117187500000, 8.335937500000, 6.203125000000, 1490695201
0.056884765625, -0.943603515625, 0.161865234375, 150.117187500000, 8.335937500000, 6.203125000000, 1490695201
0.056884765625, -0.943603515625, 0.161865234375, 150.117187500000, 8.335937500000, 6.203125000000, 1490695201
-0.280517578125, -0.948486328125, 0.452392578125, 32.125000000000, 26.085937500000, 28.828125000000, 1490695201
-0.280517578125, -0.948486328125, 0.452392578125, 32.125000000000, 26.085937500000, 28.828125000000, 1490695201
-0.280517578125, -0.948486328125, 0.452392578125, 32.125000000000, 26.085937500000, 28.828125000000, 1490695201
-0.280517578125, -0.948486328125, 0.452392578125, 32.125000000000, 26.085937500000, 28.828125000000, 1490695201
-0.280517578125, -0.948486328125, 0.452392578125, 32.125000000000, 26.085937500000, 28.828125000000, 1490695201
-0.280517578125, -0.948486328125, 0.452392578125, 32.125000000000, 26.085937500000, 28.828125000000, 1490695201
-0.127685546875, -0.921875000000, 0.227783203125, -53.000000000000, -11.960937500000, -9.257812500000, 1490695202
0.005859375000, -1.027099609375, 0.229980468750, -53.000000000000, -11.960937500000, -9.257812500000, 1490695202
0.005859375000, -1.027099609375, 0.229980468750, -53.000000000000, -11.960937500000, -9.257812500000, 1490695202
0.005859375000, -1.027099609375, 0.229980468750, -53.000000000000, -11.960937500000, -9.257812500000, 1490695202
-0.071289062500, -0.958740234375, 0.256347656250, -20.570312500000, 4.937500000000, -11.125000000000, 1490695202
-0.071289062500, -0.958740234375, 0.256347656250, -20.570312500000, 4.937500000000, -11.125000000000, 1490695202
-0.071289062500, -0.958740234375, 0.256347656250, -20.570312500000, 4.937500000000, -11.125000000000, 1490695202
0.086914062500, -0.919433593750, 0.200195312500, -4.601562500000, 15.289062500000, -13.289062500000, 1490695202
0.086914062500, -0.919433593750, 0.200195312500, -4.601562500000, 15.289062500000, -13.289062500000, 1490695202
0.086914062500, -0.919433593750, 0.200195312500, -4.601562500000, 15.289062500000, -13.289062500000, 1490695202
-0.255859375000, -1.118652343750, 0.358642578125, -0.320312500000, 27.898437500000, -0.265625000000, 1490695202
-0.255859375000, -1.118652343750, 0.358642578125, -0.320312500000, 27.898437500000, -0.265625000000, 1490695202
-0.255859375000, -1.118652343750, 0.358642578125, -0.320312500000, 27.898437500000, -0.265625000000, 1490695202
-0.216308593750, -1.037109375000, 0.229003906250, -74.156250000000, -22.085937500000, -18.515625000000, 1490695202
-0.216308593750, -1.037109375000, 0.229003906250, -74.156250000000, -22.085937500000, -18.515625000000, 1490695202
-0.216308593750, -1.037109375000, 0.229003906250, -74.156250000000, -22.085937500000, -18.515625000000, 1490695202
-0.216308593750, -1.037109375000, 0.229003906250, -74.156250000000, -22.085937500000, -18.515625000000, 1490695202
0.067382812500, -0.946044921875, 0.055175781250, -83.492187500000, -35.492187500000, -18.203125000000, 1490695202
0.067382812500, -0.946044921875, 0.055175781250, -83.492187500000, -35.492187500000, -18.203125000000, 1490695202
0.067382812500, -0.946044921875, 0.055175781250, -83.492187500000, -35.492187500000, -18.203125000000, 1490695202
0.026855468750, -0.842773437500, -0.001220703125, -39.593750000000, -7.109375000000, -27.468750000000, 1490695202
0.026855468750, -0.842773437500, -0.001220703125, -39.593750000000, -7.109375000000, -27.468750000000, 1490695202
0.067138671875, -0.986083984375, 0.070800781250, 25.289062500000, 7.398437500000, 44.359375000000, 1490695202
0.067138671875, -0.986083984375, 0.070800781250, 25.289062500000, 7.398437500000, 44.359375000000, 1490695202
0.067138671875, -0.986083984375, 0.070800781250, 25.289062500000, 7.398437500000, 44.359375000000, 1490695202
0.067138671875, -0.986083984375, 0.070800781250, 25.289062500000, 7.398437500000, 44.359375000000, 1490695202
0.067138671875, -0.986083984375, 0.070800781250, 25.289062500000, 7.398437500000, 44.359375000000, 1490695202
-0.271484375000, -1.146484375000, 0.208007812500, 95.710937500000, 16.812500000000, 49.632812500000, 1490695202
-0.271484375000, -1.146484375000, 0.208007812500, 95.710937500000, 16.812500000000, 49.632812500000, 1490695202
-0.271484375000, -1.146484375000, 0.208007812500, 95.710937500000, 16.812500000000, 49.632812500000, 1490695202
0.008789062500, -1.013183593750, 0.379150390625, 89.515625000000, 70.742187500000, -12.023437500000, 1490695202
0.008789062500, -1.013183593750, 0.379150390625, 89.515625000000, 70.742187500000, -12.023437500000, 1490695202
0.008789062500, -1.013183593750, 0.379150390625, 89.515625000000, 70.742187500000, -12.023437500000, 1490695202
0.079345703125, -0.798095703125, 0.342285156250, -14.234375000000, -17.507812500000, -15.132812500000, 1490695202
0.079345703125, -0.798095703125, 0.342285156250, -14.234375000000, -17.507812500000, -15.132812500000, 1490695202
0.079345703125, -0.798095703125, 0.342285156250, -14.234375000000, -17.507812500000, -15.132812500000, 1490695202
0.065673828125, -0.913818359375, 0.162841796875, -20.718750000000, -0.960937500000, -7.390625000000, 1490695202
0.065673828125, -0.913818359375, 0.162841796875, -20.718750000000, -0.960937500000, -7.390625000000, 1490695202
0.065673828125, -0.913818359375, 0.162841796875, -20.718750000000, -0.960937500000, -7.390625000000, 1490695202
0.065673828125, -0.913818359375, 0.162841796875, -20.718750000000, -0.960937500000, -7.390625000000, 1490695202
0.080566406250, -0.904541015625, 0.262939453125, -2.054687500000, 4.945312500000, 0.421875000000, 1490695202
0.080566406250, -0.904541015625, 0.262939453125, -2.054687500000, 4.945312500000, 0.421875000000, 1490695202
0.080566406250, -0.904541015625, 0.262939453125, -2.054687500000, 4.945312500000, 0.421875000000, 1490695202
0.063476562500, -1.092285156250, 0.228515625000, -12.257812500000, 11.335937500000, 1.250000000000, 1490695202
0.063476562500, -1.092285156250, 0.228515625000, -12.257812500000, 11.335937500000, 1.250000000000, 1490695202
0.063476562500, -1.092285156250, 0.228515625000, -12.257812500000, 11.335937500000, 1.250000000000, 1490695202
0.050781250000, -1.094238281250, 0.305908203125, 10.593750000000, 30.679687500000, -2.593750000000, 1490695202
0.050781250000, -1.094238281250, 0.305908203125, 10.593750000000, 30.679687500000, -2.593750000000, 1490695202
0.050781250000, -1.094238281250, 0.305908203125, 10.593750000000, 30.679687500000, -2.593750000000, 1490695202
-0.077636718750, -1.139404296875, 0.306640625000, -54.242187500000, 38.078125000000, -3.046875000000, 1490695202
-0.077636718750, -1.139404296875, 0.306640625000, -54.242187500000, 38.078125000000, -3.046875000000, 1490695202
-0.077636718750, -1.139404296875, 0.306640625000, -54.242187500000, 38.078125000000, -3.046875000000, 1490695202
-0.077636718750, -1.139404296875, 0.306640625000, -54.242187500000, 38.078125000000, -3.046875000000, 1490695202
0.099609375000, -0.806152343750, 0.130859375000, -73.390625000000, 43.351562500000, -4.460937500000, 1490695202
0.099609375000, -0.806152343750, 0.130859375000, -73.390625000000, 43.351562500000, -4.460937500000, 1490695202
0.099609375000, -0.806152343750, 0.130859375000, -73.390625000000, 43.351562500000, -4.460937500000, 1490695202
-0.070800781250, -0.941162109375, -0.063476562500, -93.343750000000, 30.187500000000, 17.109375000000, 1490695202
-0.070800781250, -0.941162109375, -0.063476562500, -93.343750000000, 30.187500000000, 17.109375000000, 1490695202
-0.070800781250, -0.941162109375, -0.063476562500, -93.343750000000, 30.187500000000, 17.109375000000, 1490695202
0.201416015625, -1.086669921875, 0.216796875000, 133.171875000000, 85.242187500000, 11.726562500000, 1490695202
0.201416015625, -1.086669921875, 0.216796875000, 133.171875000000, 85.242187500000, 11.726562500000, 1490695202
0.201416015625, -1.086669921875, 0.216796875000, 133.171875000000, 85.242187500000, 11.726562500000, 1490695202
0.201416015625, -1.086669921875, 0.216796875000, 133.171875000000, 85.242187500000, 11.726562500000, 1490695202
-0.066894531250, -0.820312500000, 0.291748046875, 117.804687500000, 122.875000000000, 32.828125000000, 1490695202
-0.066894531250, -0.820312500000, 0.291748046875, 117.804687500000, 122.875000000000, 32.828125000000, 1490695202
-0.066894531250, -0.820312500000, 0.291748046875, 117.804687500000, 122.875000000000, 32.828125000000, 1490695202
-0.066894531250, -0.820312500000, 0.291748046875, 117.804687500000, 122.875000000000, 32.828125000000, 1490695203
-0.066894531250, -0.820312500000, 0.291748046875, 117.804687500000, 122.875000000000, 32.828125000000, 1490695203
-0.118652343750, -0.867431640625, 0.343017578125, -12.687500000000, 53.523437500000, -0.359375000000, 1490695203
-0.118652343750, -0.867431640625, 0.343017578125, -12.687500000000, 53.523437500000, -0.359375000000, 1490695203
-0.118652343750, -0.867431640625, 0.343017578125, -12.687500000000, 53.523437500000, -0.359375000000, 1490695203
-0.118652343750, -0.867431640625, 0.343017578125, -12.687500000000, 53.523437500000, -0.359375000000, 1490695203
0.014404296875, -0.985839843750, 0.204833984375, -47.476562500000, 54.953125000000, -12.539062500000, 1490695203
0.014404296875, -0.985839843750, 0.204833984375, -47.476562500000, 54.953125000000, -12.539062500000, 1490695203
0.014404296875, -0.985839843750, 0.204833984375, -47.476562500000, 54.953125000000, -12.539062500000, 1490695203
0.072021484375, -0.930419921875, 0.106933593750, 1.953125000000, 64.421875000000, -8.679687500000, 1490695203
0.072021484375, -0.930419921875, 0.106933593750, 1.953125000000, 64.421875000000, -8.679687500000, 1490695203
0.072021484375, -0.930419921875, 0.106933593750, 1.953125000000, 64.421875000000, -8.679687500000, 1490695203
0.072021484375, -0.930419921875, 0.106933593750, 1.953125000000, 64.421875000000, -8.679687500000, 1490695203
0.041503906250, -0.925537109375, 0.213623046875, -1.000000000000, 72.242187500000, -6.664062500000, 1490695203
0.041503906250, -0.925537109375, 0.213623046875, -1.000000000000, 72.242187500000, -6.664062500000, 1490695203
0.041503906250, -0.925537109375, 0.213623046875, -1.000000000000, 72.242187500000, -6.664062500000, 1490695203
-0.126220703125, -1.201904296875, 0.328125000000, 0.375000000000, 66.000000000000, 7.632812500000, 1490695203
-0.126220703125, -1.201904296875, 0.328125000000, 0.375000000000, 66.000000000000, 7.632812500000, 1490695203
-0.126220703125, -1.201904296875, 0.328125000000, 0.375000000000, 66.000000000000, 7.632812500000, 1490695203
-0.146240234375, -1.463867187500, 0.286376953125, -49.859375000000, 64.398437500000, -8.828125000000, 1490695203
-0.146240234375, -1.463867187500, 0.286376953125, -49.859375000000, 64.398437500000, -8.828125000000, 1490695203
-0.146240234375, -1.463867187500, 0.286376953125, -49.859375000000, 64.398437500000, -8.828125000000, 1490695203
0.199707031250, -0.921630859375, 0.099121093750, -54.757812500000, 43.523437500000, -24.273437500000, 1490695203
0.199707031250, -0.921630859375, 0.099121093750, -54.757812500000, 43.523437500000, -24.273437500000, 1490695203
0.199707031250, -0.921630859375, 0.099121093750, -54.757812500000, 43.523437500000, -24.273437500000, 1490695203
0.199707031250, -0.921630859375, 0.099121093750, -54.757812500000, 43.523437500000, -24.273437500000, 1490695203
0.289550781250, -0.609375000000, 0.044921875000, -23.703125000000, 88.437500000000, -30.148437500000, 1490695203
0.289550781250, -0.609375000000, 0.044921875000, -23.703125000000, 88.437500000000, -30.148437500000, 1490695203
0.289550781250, -0.609375000000, 0.044921875000, -23.703125000000, 88.437500000000, -30.148437500000, 1490695203
0.247802734375, -0.858886718750, 0.043945312500, -24.242187500000, 173.984375000000, -11.000000000000, 1490695203
0.247802734375, -0.858886718750, 0.043945312500, -24.242187500000, 173.984375000000, -11.000000000000, 1490695203
0.247802734375, -0.858886718750, 0.043945312500, -24.242187500000, 173.984375000000, -11.000000000000, 1490695203
-0.030273437500, -1.189453125000, 0.087646484375, -49.656250000000, 80.195312500000, 67.023437500000, 1490695203
-0.030273437500, -1.189453125000, 0.087646484375, -49.656250000000, 80.195312500000, 67.023437500000, 1490695203
-0.030273437500, -1.189453125000, 0.087646484375, -49.656250000000, 80.195312500000, 67.023437500000, 1490695203
-0.213867187500, -1.141357421875, 0.102050781250, 71.117187500000, 65.335937500000, 6.843750000000, 1490695203
-0.213867187500, -1.141357421875, 0.102050781250, 71.117187500000, 65.335937500000, 6.843750000000, 1490695203
-0.213867187500, -1.141357421875, 0.102050781250, 71.117187500000, 65.335937500000, 6.843750000000, 1490695203
-0.087646484375, -1.068847656250, 0.190185546875, 74.265625000000, 92.210937500000, -19.656250000000, 1490695203
-0.087646484375, -1.068847656250, 0.190185546875, 74.265625000000, 92.210937500000, -19.656250000000, 1490695203
-0.087646484375, -1.068847656250, 0.190185546875, 74.265625000000, 92.210937500000, -19.656250000000, 1490695203
-0.087646484375, -1.068847656250, 0.190185546875, 74.265625000000, 92.210937500000, -19.656250000000, 1490695203
-0.128417968750, -0.789062500000, 0.236083984375, 23.273437500000, 64.695312500000, 17.531250000000, 1490695203
-0.128417968750, -0.789062500000, 0.236083984375, 23.273437500000, 64.695312500000, 17.531250000000, 1490695203
-0.128417968750, -0.789062500000, 0.236083984375, 23.273437500000, 64.695312500000, 17.531250000000, 1490695203
-0.194824218750, -0.822265625000, 0.059814453125, -60.125000000000, 3.531250000000, 1.687500000000, 1490695203
-0.194824218750, -0.822265625000, 0.059814453125, -60.125000000000, 3.531250000000, 1.687500000000, 1490695203
-0.194824218750, -0.822265625000, 0.059814453125, -60.125000000000, 3.531250000000, 1.687500000000, 1490695203
-0.140136718750, -1.098876953125, -0.022705078125, -69.140625000000, -23.921875000000, 0.343750000000, 1490695203
-0.140136718750, -1.098876953125, -0.022705078125, -69.140625000000, -23.921875000000, 0.343750000000, 1490695203
-0.140136718750, -1.098876953125, -0.022705078125, -69.140625000000, -23.921875000000, 0.343750000000, 1490695203
-0.140136718750, -1.098876953125, -0.022705078125, -69.140625000000, -23.921875000000, 0.343750000000, 1490695203
0.065429687500, -1.113037109375, 0.133300781250, 57.781250000000, -1.960937500000, -30.250000000000, 1490695203
0.065429687500, -1.113037109375, 0.133300781250, 57.781250000000, -1.960937500000, -30.250000000000, 1490695203
0.065429687500, -1.113037109375, 0.133300781250, 57.781250000000, -1.960937500000, -30.250000000000, 1490695203
0.235107421875, -1.072265625000, 0.100341796875, 69.367187500000, 78.492187500000, -23.390625000000, 1490695203
0.235107421875, -1.072265625000, 0.100341796875, 69.367187500000, 78.492187500000, -23.390625000000, 1490695203
0.235107421875, -1.072265625000, 0.100341796875, 69.367187500000, 78.492187500000, -23.390625000000, 1490695203
-0.207031250000, -0.615478515625, 0.112304687500, -1.828125000000, 17.109375000000, 29.460937500000, 1490695203
-0.207031250000, -0.615478515625, 0.112304687500, -1.828125000000, 17.109375000000, 29.460937500000, 1490695203
-0.207031250000, -0.615478515625, 0.112304687500, -1.828125000000, 17.109375000000, 29.460937500000, 1490695203
-0.218994140625, -1.131591796875, 0.069335937500, -119.289062500000, -3.468750000000, 5.312500000000, 1490695203
-0.218994140625, -1.131591796875, 0.069335937500, -119.289062500000, -3.468750000000, 5.312500000000, 1490695203
-0.218994140625, -1.131591796875, 0.069335937500, -119.289062500000, -3.468750000000, 5.312500000000, 1490695203
-0.233154296875, -1.127197265625, -0.020263671875, -70.851562500000, -11.210937500000, -3.390625000000, 1490695203
-0.271972656250, -1.052978515625, -0.020996093750, -37.156250000000, -1.226562500000, -8.296875000000, 1490695203
-0.271972656250, -1.052978515625, -0.020996093750, -37.156250000000, -1.226562500000, -8.296875000000, 1490695203
-0.271972656250, -1.052978515625, -0.020996093750, -37.156250000000, -1.226562500000, -8.296875000000, 1490695203
-0.144531250000, -1.143066406250, 0.132568359375, 42.578125000000, 50.539062500000, -24.875000000000, 1490695204
-0.144531250000, -1.143066406250, 0.132568359375, 42.578125000000, 50.539062500000, -24.875000000000, 1490695204
-0.144531250000, -1.143066406250, 0.132568359375, 42.578125000000, 50.539062500000, -24.875000000000, 1490695204
-0.188964843750, -1.033203125000, 0.255371093750, 95.382812500000, 22.851562500000, -1.281250000000, 1490695204
-0.188964843750, -1.033203125000, 0.255371093750, 95.382812500000, 22.851562500000, -1.281250000000, 1490695204
-0.188964843750, -1.033203125000, 0.255371093750, 95.382812500000, 22.851562500000, -1.281250000000, 1490695204
-0.067626953125, -0.808837890625, 0.222167968750, -47.734375000000, 12.421875000000, 6.367187500000, 1490695204
-0.067626953125, -0.808837890625, 0.222167968750, -47.734375000000, 12.421875000000, 6.367187500000, 1490695204
-0.067626953125, -0.808837890625, 0.222167968750, -47.734375000000, 12.421875000000, 6.367187500000, 1490695204
-0.067626953125, -0.808837890625, 0.222167968750, -47.734375000000, 12.421875000000, 6.367187500000, 1490695204
-0.121337890625, -1.005859375000, 0.056152343750, -103.914062500000, 27.304687500000, 6.632812500000, 1490695204
-0.121337890625, -1.005859375000, 0.056152343750, -103.914062500000, 27.304687500000, 6.632812500000, 1490695204
-0.121337890625, -1.005859375000, 0.056152343750, -103.914062500000, 27.304687500000, 6.632812500000, 1490695204
-0.244384765625, -0.919677734375, -0.016357421875, -51.656250000000, 24.921875000000, 8.109375000000, 1490695204
-0.244384765625, -0.919677734375, -0.016357421875, -51.656250000000, 24.921875000000, 8.109375000000, 1490695204
-0.339599609375, -1.063964843750, 0.072021484375, 36.375000000000, 14.304687500000, 9.296875000000, 1490695204
-0.339599609375, -1.063964843750, 0.072021484375, 36.375000000000, 14.304687500000, 9.296875000000, 1490695204
-0.339599609375, -1.063964843750, 0.072021484375, 36.375000000000, 14.304687500000, 9.296875000000, 1490695204
-0.339599609375, -1.063964843750, 0.072021484375, 36.375000000000, 14.304687500000, 9.296875000000, 1490695204
-0.270263671875, -1.096191406250, 0.190185546875, 48.632812500000, 3.117187500000, 1.210937500000, 1490695204
-0.137207031250, -0.949218750000, 0.061767578125, -23.726562500000, -36.054687500000, -5.007812500000, 1490695204
-0.137207031250, -0.949218750000, 0.061767578125, -23.726562500000, -36.054687500000, -5.007812500000, 1490695204
-0.137207031250, -0.949218750000, 0.061767578125, -23.726562500000, -36.054687500000, -5.007812500000, 1490695204
-0.137207031250, -0.949218750000, 0.061767578125, -23.726562500000, -36.054687500000, -5.007812500000, 1490695204
-0.137207031250, -0.949218750000, 0.061767578125, -23.726562500000, -36.054687500000, -5.007812500000, 1490695204
-0.083007812500, -1.027587890625, 0.092773437500, -20.890625000000, -32.093750000000, -8.578125000000, 1490695204
-0.134033203125, -0.923339843750, 0.089111328125, -3.742187500000, -25.109375000000, -6.078125000000, 1490695204
-0.134033203125, -0.923339843750, 0.089111328125, -3.742187500000, -25.109375000000, -6.078125000000, 1490695204
-0.147216796875, -0.960693359375, 0.121093750000, -1.554687500000, -22.226562500000, -7.546875000000, 1490695204
-0.090576171875, -0.911376953125, 0.217285156250, 2.812500000000, -19.468750000000, -11.007812500000, 1490695204
-0.090576171875, -0.911376953125, 0.217285156250, 2.812500000000, -19.468750000000, -11.007812500000, 1490695204
-0.090576171875, -0.911376953125, 0.217285156250, 2.812500000000, -19.468750000000, -11.007812500000, 1490695204
-0.089111328125, -0.927734375000, 0.209960937500, 9.875000000000, -12.976562500000, -18.726562500000, 1490695204
-0.089111328125, -0.927734375000, 0.209960937500, 9.875000000000, -12.976562500000, -18.726562500000, 1490695204
-0.089111328125, -0.927734375000, 0.209960937500, 9.875000000000, -12.976562500000, -18.726562500000, 1490695204
-0.089111328125, -0.927734375000, 0.209960937500, 9.875000000000, -12.976562500000, -18.726562500000, 1490695204
-0.086181640625, -0.953369140625, 0.103515625000, 20.085937500000, -10.687500000000, -4.390625000000, 1490695204
-0.086181640625, -0.953369140625, 0.103515625000, 20.085937500000, -10.687500000000, -4.390625000000, 1490695204
-0.086181640625, -0.953369140625, 0.103515625000, 20.085937500000, -10.687500000000, -4.390625000000, 1490695204
-0.120117187500, -0.944580078125, 0.117675781250, -6.945312500000, -16.851562500000, -7.312500000000, 1490695204
-0.120117187500, -0.944580078125, 0.117675781250, -6.945312500000, -16.851562500000, -7.312500000000, 1490695204
-0.120117187500, -0.944580078125, 0.117675781250, -6.945312500000, -16.851562500000, -7.312500000000, 1490695204
-0.138427734375, -0.979980468750, 0.207763671875, -12.187500000000, -10.562500000000, -4.500000000000, 1490695204
-0.138427734375, -0.979980468750, 0.207763671875, -12.187500000000, -10.562500000000, -4.500000000000, 1490695204
-0.138427734375, -0.979980468750, 0.207763671875, -12.187500000000, -10.562500000000, -4.500000000000, 1490695204
0.001708984375, -0.940917968750, 0.199951171875, 4.125000000000, 4.960937500000, -0.898437500000, 1490695204
0.001708984375, -0.940917968750, 0.199951171875, 4.125000000000, 4.960937500000, -0.898437500000, 1490695204
0.001708984375, -0.940917968750, 0.199951171875, 4.125000000000, 4.960937500000, -0.898437500000, 1490695204
0.001708984375, -0.940917968750, 0.199951171875, 4.125000000000, 4.960937500000, -0.898437500000, 1490695204
-0.152587890625, -0.922363281250, 0.205566406250, -11.375000000000, 4.093750000000, 4.687500000000, 1490695204
-0.152587890625, -0.922363281250, 0.205566406250, -11.375000000000, 4.093750000000, 4.687500000000, 1490695204
-0.152587890625, -0.922363281250, 0.205566406250, -11.375000000000, 4.093750000000, 4.687500000000, 1490695204
-0.120117187500, -1.026855468750, 0.133789062500, -12.164062500000, 1.601562500000, -4.945312500000, 1490695204
-0.120117187500, -1.026855468750, 0.133789062500, -12.164062500000, 1.601562500000, -4.945312500000, 1490695204
-0.120117187500, -1.026855468750, 0.133789062500, -12.164062500000, 1.601562500000, -4.945312500000, 1490695204
-0.137207031250, -0.982666015625, 0.105224609375, 11.796875000000, 6.765625000000, 0.882812500000, 1490695204
-0.137207031250, -0.982666015625, 0.105224609375, 11.796875000000, 6.765625000000, 0.882812500000, 1490695204
-0.137207031250, -0.982666015625, 0.105224609375, 11.796875000000, 6.765625000000, 0.882812500000, 1490695204
-0.120361328125, -0.974609375000, 0.268798828125, -1.328125000000, 5.492187500000, 1.867187500000, 1490695204
-0.120361328125, -0.974609375000, 0.268798828125, -1.328125000000, 5.492187500000, 1.867187500000, 1490695204
-0.120361328125, -0.974609375000, 0.268798828125, -1.328125000000, 5.492187500000, 1.867187500000, 1490695204
-0.120361328125, -0.974609375000, 0.268798828125, -1.328125000000, 5.492187500000, 1.867187500000, 1490695204
-0.148437500000, -0.972412109375, 0.096923828125, -15.273437500000, -4.148437500000, -0.539062500000, 1490695204
-0.148437500000, -0.972412109375, 0.096923828125, -15.273437500000, -4.148437500000, -0.539062500000, 1490695204
-0.148437500000, -0.972412109375, 0.096923828125, -15.273437500000, -4.148437500000, -0.539062500000, 1490695204
-0.109130859375, -1.024169921875, 0.142578125000, -7.125000000000, -13.804687500000, -6.757812500000, 1490695204
-0.109130859375, -1.024169921875, 0.142578125000, -7.125000000000, -13.804687500000, -6.757812500000, 1490695204
-0.109130859375, -1.024169921875, 0.142578125000, -7.125000000000, -13.804687500000, -6.757812500000, 1490695205
-0.118896484375, -0.919189453125, 0.280517578125, -9.945312500000, -3.992187500000, -1.937500000000, 1490695205
-0.132080078125, -1.028076171875, 0.174804687500, -20.609375000000, -8.679687500000, -6.039062500000, 1490695205
-0.132080078125, -1.028076171875, 0.174804687500, -20.609375000000, -8.679687500000, -6.039062500000, 1490695205
-0.132080078125, -1.028076171875, 0.174804687500, -20.609375000000, -8.679687500000, -6.039062500000, 1490695205
-0.149902343750, -1.003906250000, 0.152587890625, -15.484375000000, -8.195312500000, -4.601562500000, 1490695205
-0.149902343750, -1.003906250000, 0.152587890625, -15.484375000000, -8.195312500000, -4.601562500000, 1490695205
-0.149902343750, -1.003906250000, 0.152587890625, -15.484375000000, -8.195312500000, -4.601562500000, 1490695205
-0.149902343750, -1.003906250000, 0.152587890625, -15.484375000000, -8.195312500000, -4.601562500000, 1490695205
-0.149902343750, -1.003906250000, 0.152587890625, -15.484375000000, -8.195312500000, -4.601562500000, 1490695205
-0.149902343750, -1.003906250000, 0.152587890625, -15.484375000000, -8.195312500000, -4.601562500000, 1490695205
-0.048828125000, -0.875000000000, 0.123779296875, -4.750000000000, -4.625000000000, -4.687500000000, 1490695205
-0.131103515625, -1.025878906250, 0.152099609375, -3.328125000000, -4.671875000000, -4.664062500000, 1490695205
-0.131103515625, -1.025878906250, 0.152099609375, -3.328125000000, -4.671875000000, -4.664062500000, 1490695205
-0.131103515625, -1.025878906250, 0.152099609375, -3.328125000000, -4.671875000000, -4.664062500000, 1490695205
-0.131103515625, -1.025878906250, 0.152099609375, -3.328125000000, -4.671875000000, -4.664062500000, 1490695205
-0.131103515625, -1.025878906250, 0.152099609375, -3.328125000000, -4.671875000000, -4.664062500000, 1490695205
-0.187500000000, -0.995117187500, 0.178955078125, -6.812500000000, -2.312500000000, -4.914062500000, 1490695205
-0.187500000000, -0.995117187500, 0.178955078125, -6.812500000000, -2.312500000000, -4.914062500000, 1490695205
-0.187500000000, -0.995117187500, 0.178955078125, -6.812500000000, -2.312500000000, -4.914062500000, 1490695205
-0.187500000000, -0.995117187500, 0.178955078125, -6.812500000000, -2.312500000000, -4.914062500000, 1490695205
-0.091064453125, -1.003662109375, 0.166748046875, -4.523437500000, 4.515625000000, -3.273437500000, 1490695205
-0.091064453125, -1.003662109375, 0.166748046875, -4.523437500000, 4.515625000000, -3.273437500000, 1490695205
-0.091064453125, -1.003662109375, 0.166748046875, -4.523437500000, 4.515625000000, -3.273437500000, 1490695205
-0.129150390625, -0.925048828125, 0.099853515625, -9.781250000000, 1.375000000000, -4.835937500000, 1490695205
-0.129150390625, -0.925048828125, 0.099853515625, -9.781250000000, 1.375000000000, -4.835937500000, 1490695205
-0.129150390625, -0.925048828125, 0.099853515625, -9.781250000000, 1.375000000000, -4.835937500000, 1490695205
-0.038085937500, -0.933105468750, 0.172119140625, -11.078125000000, 4.546875000000, -4.171875000000, 1490695205
-0.038085937500, -0.933105468750, 0.172119140625, -11.078125000000, 4.546875000000, -4.171875000000, 1490695205
-0.038085937500, -0.933105468750, 0.172119140625, -11.078125000000, 4.546875000000, -4.171875000000, 1490695205
-0.041503906250, -0.982666015625, 0.272460937500, -7.039062500000, 5.750000000000, -1.000000000000, 1490695205
-0.041503906250, -0.982666015625, 0.272460937500, -7.039062500000, 5.750000000000, -1.000000000000, 1490695205
-0.041503906250, -0.982666015625, 0.272460937500, -7.039062500000, 5.750000000000, -1.000000000000, 1490695205
-0.041503906250, -0.982666015625, 0.272460937500, -7.039062500000, 5.750000000000, -1.000000000000, 1490695205
-0.083496093750, -1.004882812500, 0.111816406250, -14.648437500000, 4.976562500000, -2.007812500000, 1490695205
-0.083496093750, -1.004882812500, 0.111816406250, -14.648437500000, 4.976562500000, -2.007812500000, 1490695205
-0.083496093750, -1.004882812500, 0.111816406250, -14.648437500000, 4.976562500000, -2.007812500000, 1490695205
-0.105712890625, -0.963134765625, 0.255371093750, -5.796875000000, 8.117187500000, -1.125000000000, 1490695205
-0.105712890625, -0.963134765625, 0.255371093750, -5.796875000000, 8.117187500000, -1.125000000000, 1490695205
-0.105712890625, -0.963134765625, 0.255371093750, -5.796875000000, 8.117187500000, -1.125000000000, 1490695205
-0.046875000000, -1.045410156250, 0.212158203125, 4.390625000000, 5.375000000000, -4.593750000000, 1490695205
-0.152343750000, -1.013427734375, 0.206054687500, 6.546875000000, 4.398437500000, -1.101562500000, 1490695205
-0.152343750000, -1.013427734375, 0.206054687500, 6.546875000000, 4.398437500000, -1.101562500000, 1490695205
-0.152343750000, -1.013427734375, 0.206054687500, 6.546875000000, 4.398437500000, -1.101562500000, 1490695205
-0.153808593750, -1.026611328125, 0.267822265625, 5.296875000000, 2.609375000000, -5.328125000000, 1490695205
-0.153808593750, -1.026611328125, 0.267822265625, 5.296875000000, 2.609375000000, -5.328125000000, 1490695205
-0.153808593750, -1.026611328125, 0.267822265625, 5.296875000000, 2.609375000000, -5.328125000000, 1490695205
-0.153808593750, -1.026611328125, 0.267822265625, 5.296875000000, 2.609375000000, -5.328125000000, 1490695205
-0.123535156250, -1.017089843750, 0.277343750000, 0.218750000000, -2.554687500000, -3.632812500000, 1490695205
-0.123535156250, -1.017089843750, 0.277343750000, 0.218750000000, -2.554687500000, -3.632812500000, 1490695205
-0.148437500000, -0.924560546875, 0.262207031250, -2.109375000000, -0.695312500000, -5.710937500000, 1490695205
-0.148437500000, -0.924560546875, 0.262207031250, -2.109375000000, -0.695312500000, -5.710937500000, 1490695205
-0.148437500000, -0.924560546875, 0.262207031250, -2.109375000000, -0.695312500000, -5.710937500000, 1490695205
-0.052978515625, -1.029052734375, 0.100097656250, -2.414062500000, 2.304687500000, -2.695312500000, 1490695205
-0.154541015625, -0.978515625000, 0.113281250000, -1.148437500000, 4.679687500000, -1.234375000000, 1490695205
-0.154541015625, -0.978515625000, 0.113281250000, -1.148437500000, 4.679687500000, -1.234375000000, 1490695205
-0.154541015625, -0.978515625000, 0.113281250000, -1.148437500000, 4.679687500000, -1.234375000000, 1490695205
-0.154541015625, -0.978515625000, 0.113281250000, -1.148437500000, 4.679687500000, -1.234375000000, 1490695205
-0.154541015625, -0.978515625000, 0.113281250000, -1.148437500000, 4.679687500000, -1.234375000000, 1490695205
-0.051269531250, -0.926513671875, 0.186523437500, -1.898437500000, 8.687500000000, -2.515625000000, 1490695205
-0.051269531250, -0.926513671875, 0.186523437500, -1.898437500000, 8.687500000000, -2.515625000000, 1490695205
-0.095703125000, -1.063720703125, 0.147460937500, -4.164062500000, 5.000000000000, 2.031250000000, 1490695205
-0.095703125000, -1.063720703125, 0.147460937500, -4.164062500000, 5.000000000000, 2.031250000000, 1490695205
-0.095703125000, -1.063720703125, 0.147460937500, -4.164062500000, 5.000000000000, 2.031250000000, 1490695205
-0.095703125000, -1.063720703125, 0.147460937500, -4.164062500000, 5.000000000000, 2.031250000000, 1490695205
-0.095703125000, -1.063720703125, 0.147460937500, -4.164062500000, 5.000000000000, 2.031250000000, 1490695205
-0.011962890625, -0.974121093750, 0.252441406250, -4.625000000000, 6.609375000000, -0.945312500000, 1490695206
-0.011962890625, -0.974121093750, 0.252441406250, -4.625000000000, 6.609375000000, -0.945312500000, 1490695206
-0.011962890625, -0.974121093750, 0.252441406250, -4.625000000000, 6.609375000000, -0.945312500000, 1490695206
-0.127685546875, -0.804687500000, 0.161132812500, -7.101562500000, 6.328125000000, -2.625000000000, 1490695206
-0.127685546875, -0.804687500000, 0.161132812500, -7.101562500000, 6.328125000000, -2.625000000000, 1490695206
-0.127685546875, -0.804687500000, 0.161132812500, -7.101562500000, 6.328125000000, -2.625000000000, 1490695206
-0.120605468750, -0.933105468750, 0.157714843750, -4.304687500000, 3.375000000000, -2.992187500000, 1490695206
-0.120605468750, -0.933105468750, 0.157714843750, -4.304687500000, 3.375000000000, -2.992187500000, 1490695206
-0.120605468750, -0.933105468750, 0.157714843750, -4.304687500000, 3.375000000000, -2.992187500000, 1490695206
-0.120605468750, -0.933105468750, 0.157714843750, -4.304687500000, 3.375000000000, -2.992187500000, 1490695206
-0.147216796875, -0.872558593750, 0.161132812500, -1.882812500000, 4.437500000000, -4.585937500000, 1490695206
-0.147216796875, -0.872558593750, 0.161132812500, -1.882812500000, 4.437500000000, -4.585937500000, 1490695206
-0.147216796875, -0.872558593750, 0.161132812500, -1.882812500000, 4.437500000000, -4.585937500000, 1490695206
-0.204833984375, -0.982910156250, 0.128173828125, -3.210937500000, 4.640625000000, -3.625000000000, 1490695206
-0.036865234375, -1.003173828125, 0.205322265625, -8.976562500000, -2.968750000000, -3.671875000000, 1490695206
-0.036865234375, -1.003173828125, 0.205322265625, -8.976562500000, -2.968750000000, -3.671875000000, 1490695206
-0.036865234375, -1.003173828125, 0.205322265625, -8.976562500000, -2.968750000000, -3.671875000000, 1490695206
-0.036865234375, -1.003173828125, 0.205322265625, -8.976562500000, -2.968750000000, -3.671875000000, 1490695206
-0.036865234375, -1.003173828125, 0.205322265625, -8.976562500000, -2.968750000000, -3.671875000000, 1490695206
-0.057617187500, -0.932128906250, 0.172607421875, -6.875000000000, -6.351562500000, -6.617187500000, 1490695206
-0.057617187500, -0.932128906250, 0.172607421875, -6.875000000000, -6.351562500000, -6.617187500000, 1490695206
-0.057617187500, -0.932128906250, 0.172607421875, -6.875000000000, -6.351562500000, -6.617187500000, 1490695206
-0.057617187500, -0.932128906250, 0.172607421875, -6.875000000000, -6.351562500000, -6.617187500000, 1490695206
-0.110595703125, -1.020996093750, 0.161621093750, -4.593750000000, -8.718750000000, -3.804687500000, 1490695206
-0.110595703125, -1.020996093750, 0.161621093750, -4.593750000000, -8.718750000000, -3.804687500000, 1490695206
-0.110595703125, -1.020996093750, 0.161621093750, -4.593750000000, -8.718750000000, -3.804687500000, 1490695206
-0.104736328125, -0.981933593750, 0.197509765625, -1.937500000000, -7.195312500000, -8.015625000000, 1490695206
-0.104736328125, -0.981933593750, 0.197509765625, -1.937500000000, -7.195312500000, -8.015625000000, 1490695206
-0.104736328125, -0.981933593750, 0.197509765625, -1.937500000000, -7.195312500000, -8.015625000000, 1490695206
-0.104736328125, -0.981933593750, 0.197509765625, -1.937500000000, -7.195312500000, -8.015625000000, 1490695206
-0.093994140625, -0.918701171875, 0.175537109375, -6.945312500000, -7.492187500000, -8.070312500000, 1490695206
-0.093994140625, -0.918701171875, 0.175537109375, -6.945312500000, -7.492187500000, -8.070312500000, 1490695206
-0.093994140625, -0.918701171875, 0.175537109375, -6.945312500000, -7.492187500000, -8.070312500000, 1490695206
-0.093994140625, -0.918701171875, 0.175537109375, -6.945312500000, -7.492187500000, -8.070312500000, 1490695206
-0.093994140625, -0.918701171875, 0.175537109375, -6.945312500000, -7.492187500000, -8.070312500000, 1490695206
-0.061523437500, -0.868652343750, 0.211425781250, -8.234375000000, -5.585937500000, -3.218750000000, 1490695206
-0.061523437500, -0.868652343750, 0.211425781250, -8.234375000000, -5.585937500000, -3.218750000000, 1490695206
-0.061523437500, -0.868652343750, 0.211425781250, -8.234375000000, -5.585937500000, -3.218750000000, 1490695206
-0.061523437500, -0.868652343750, 0.211425781250, -8.234375000000, -5.585937500000, -3.218750000000, 1490695206
-0.048583984375, -0.940917968750, 0.156494140625, -3.726562500000, -8.421875000000, -1.453125000000, 1490695206
-0.048583984375, -0.940917968750, 0.156494140625, -3.726562500000, -8.421875000000, -1.453125000000, 1490695206
-0.048583984375, -0.940917968750, 0.156494140625, -3.726562500000, -8.421875000000, -1.453125000000, 1490695206
-0.100830078125, -1.009521484375, 0.277832031250, 0.882812500000, -3.984375000000, -2.250000000000, 1490695206
-0.100830078125, -1.009521484375, 0.277832031250, -0.804687500000, -3.921875000000, -2.789062500000, 1490695206
-0.119384765625, -0.923095703125, 0.277343750000, 2.015625000000, -1.820312500000, -0.343750000000, 1490695206
-0.119384765625, -0.923095703125, 0.277343750000, 2.015625000000, -1.820312500000, -0.343750000000, 1490695206
-0.119384765625, -0.923095703125, 0.277343750000, 2.015625000000, -1.820312500000, -0.343750000000, 1490695206
-0.119384765625, -0.923095703125, 0.277343750000, 2.015625000000, -1.820312500000, -0.343750000000, 1490695206
-0.119384765625, -0.923095703125, 0.277343750000, 2.015625000000, -1.820312500000, -0.343750000000, 1490695206
-0.139160156250, -1.025390625000, 0.159423828125, -0.406250000000, 0.945312500000, 2.312500000000, 1490695206
-0.139160156250, -1.025390625000, 0.159423828125, -0.406250000000, 0.945312500000, 2.312500000000, 1490695206
-0.139160156250, -1.025390625000, 0.159423828125, -0.406250000000, 0.945312500000, 2.312500000000, 1490695206
-0.056152343750, -1.006835937500, 0.121337890625, -0.265625000000, 2.078125000000, -0.757812500000, 1490695206
-0.056152343750, -1.006835937500, 0.121337890625, -0.265625000000, 2.078125000000, -0.757812500000, 1490695206
-0.056152343750, -1.006835937500, 0.121337890625, -0.265625000000, 2.078125000000, -0.757812500000, 1490695206
-0.092285156250, -0.941162109375, 0.178466796875, 0.062500000000, 3.875000000000, -0.148437500000, 1490695206
-0.092285156250, -0.941162109375, 0.178466796875, 0.062500000000, 3.875000000000, -0.148437500000, 1490695206
-0.092285156250, -0.941162109375, 0.178466796875, 0.062500000000, 3.875000000000, -0.148437500000, 1490695206
-0.133544921875, -0.937011718750, 0.112304687500, 2.351562500000, 8.710937500000, 0.132812500000, 1490695206
-0.133544921875, -0.937011718750, 0.112304687500, 2.351562500000, 8.710937500000, 0.132812500000, 1490695206
-0.133544921875, -0.937011718750, 0.112304687500, 2.351562500000, 8.710937500000, 0.132812500000, 1490695206
-0.133544921875, -0.937011718750, 0.112304687500, 2.351562500000, 8.710937500000, 0.132812500000, 1490695206
-0.056396484375, -1.066406250000, 0.211669921875, 2.398437500000, 8.085937500000, -0.515625000000, 1490695206
-0.056396484375, -1.066406250000, 0.211669921875, 2.398437500000, 8.085937500000, -0.515625000000, 1490695206
-0.140136718750, -0.989501953125, 0.196289062500, -4.484375000000, 6.554687500000, -2.968750000000, 1490695206
-0.140136718750, -0.989501953125, 0.196289062500, -4.484375000000, 6.554687500000, -2.968750000000, 1490695206
-0.140136718750, -0.989501953125, 0.196289062500, -4.484375000000, 6.554687500000, -2.968750000000, 1490695207
-0.140136718750, -0.989501953125, 0.196289062500, -4.484375000000, 6.554687500000, -2.968750000000, 1490695207
-0.072998046875, -0.916992187500, 0.190917968750, -4.539062500000, 4.187500000000, -2.585937500000, 1490695207
-0.072998046875, -0.916992187500, 0.190917968750, -4.539062500000, 4.187500000000, -2.585937500000, 1490695207
-0.026367187500, -0.999511718750, 0.101318359375, -1.820312500000, 5.031250000000, -2.281250000000, 1490695207
-0.026367187500, -0.999511718750, 0.101318359375, -1.820312500000, 5.031250000000, -2.281250000000, 1490695207
-0.026367187500, -0.999511718750, 0.101318359375, -1.820312500000, 5.031250000000, -2.281250000000, 1490695207
-0.026367187500, -0.999511718750, 0.101318359375, -1.820312500000, 5.031250000000, -2.281250000000, 1490695207
-0.026367187500, -0.999511718750, 0.101318359375, -1.820312500000, 5.031250000000, -2.281250000000, 1490695207
-0.122802734375, -1.023681640625, 0.215332031250, -1.734375000000, 7.085937500000, -0.320312500000, 1490695207
-0.122802734375, -1.023681640625, 0.215332031250, -1.734375000000, 7.085937500000, -0.320312500000, 1490695207
-0.122802734375, -1.023681640625, 0.215332031250, -1.734375000000, 7.085937500000, -0.320312500000, 1490695207
-0.026367187500, -1.019042968750, 0.152343750000, -4.710937500000, 8.492187500000, 1.382812500000, 1490695207
-0.026367187500, -1.019042968750, 0.152343750000, -4.710937500000, 8.492187500000, 1.382812500000, 1490695207
-0.026367187500, -1.019042968750, 0.152343750000, -4.710937500000, 8.492187500000, 1.382812500000, 1490695207
-0.062011718750, -1.019042968750, 0.110351562500, -12.890625000000, 6.507812500000, 1.234375000000, 1490695207
-0.062011718750, -1.019042968750, 0.110351562500, -12.890625000000, 6.507812500000, 1.234375000000, 1490695207
-0.062011718750, -1.019042968750, 0.110351562500, -12.890625000000, 6.507812500000, 1.234375000000, 1490695207
-0.062011718750, -1.019042968750, 0.110351562500, -12.890625000000, 6.507812500000, 1.234375000000, 1490695207
-0.129882812500, -0.997802734375, 0.126220703125, -12.492187500000, 5.101562500000, 4.515625000000, 1490695207
-0.129882812500, -0.997802734375, 0.126220703125, -12.492187500000, 5.101562500000, 4.515625000000, 1490695207
-0.129882812500, -0.997802734375, 0.126220703125, -12.492187500000, 5.101562500000, 4.515625000000, 1490695207
-0.136474609375, -1.024169921875, 0.156982421875, -11.281250000000, 5.710937500000, -0.765625000000, 1490695207
-0.136474609375, -1.024169921875, 0.156982421875, -11.281250000000, 5.710937500000, -0.765625000000, 1490695207
-0.136474609375, -1.024169921875, 0.156982421875, -11.281250000000, 5.710937500000, -0.765625000000, 1490695207
-0.045898437500, -1.001708984375, 0.123535156250, -11.414062500000, 5.445312500000, 0.921875000000, 1490695207
-0.045898437500, -1.001708984375, 0.123535156250, -11.414062500000, 5.445312500000, 0.921875000000, 1490695207
-0.059570312500, -1.031005859375, 0.277343750000, -10.265625000000, 10.812500000000, -0.289062500000, 1490695207
0.021240234375, -0.921386718750, 0.195556640625, -5.359375000000, 10.968750000000, 2.343750000000, 1490695207
0.021240234375, -0.921386718750, 0.195556640625, -5.359375000000, 10.968750000000, 2.343750000000, 1490695207
0.021240234375, -0.921386718750, 0.195556640625, -5.359375000000, 10.968750000000, 2.343750000000, 1490695207
0.011474609375, -0.928466796875, 0.187011718750, -2.734375000000, 14.507812500000, 2.968750000000, 1490695207
0.011474609375, -0.928466796875, 0.187011718750, -2.734375000000, 14.507812500000, 2.968750000000, 1490695207
0.011474609375, -0.928466796875, 0.187011718750, -2.734375000000, 14.507812500000, 2.968750000000, 1490695207
0.011474609375, -0.928466796875, 0.187011718750, -2.734375000000, 14.507812500000, 2.968750000000, 1490695207
0.008789062500, -1.003906250000, 0.217529296875, -4.632812500000, 14.242187500000, 12.296875000000, 1490695207
0.008789062500, -1.003906250000, 0.217529296875, -4.632812500000, 14.242187500000, 12.296875000000, 1490695207
0.008789062500, -1.003906250000, 0.217529296875, -4.632812500000, 14.242187500000, 12.296875000000, 1490695207
-0.031494140625, -0.995849609375, 0.150634765625, -4.734375000000, 16.109375000000, 5.804687500000, 1490695207
-0.031494140625, -0.995849609375, 0.150634765625, -4.734375000000, 16.109375000000, 5.804687500000, 1490695207
-0.031494140625, -0.995849609375, 0.150634765625, -4.734375000000, 16.109375000000, 5.804687500000, 1490695207
0.029296875000, -1.011718750000, 0.121826171875, -9.921875000000, 9.890625000000, -0.148437500000, 1490695207
0.029296875000, -1.011718750000, 0.121826171875, -9.921875000000, 9.890625000000, -0.148437500000, 1490695207
0.029296875000, -1.011718750000, 0.121826171875, -9.921875000000, 9.890625000000, -0.148437500000, 1490695207
0.029296875000, -1.011718750000, 0.121826171875, -9.921875000000, 9.890625000000, -0.148437500000, 1490695207
-0.038574218750, -0.965820312500, 0.175781250000, -9.515625000000, 12.968750000000, 1.367187500000, 1490695207
-0.038574218750, -0.965820312500, 0.175781250000, -9.515625000000, 12.968750000000, 1.367187500000, 1490695207
-0.038574218750, -0.965820312500, 0.175781250000, -9.515625000000, 12.968750000000, 1.367187500000, 1490695207
-0.078613281250, -1.015136718750, 0.198486328125, -3.343750000000, 8.695312500000, 4.343750000000, 1490695207
-0.078613281250, -1.015136718750, 0.198486328125, -3.343750000000, 8.695312500000, 4.343750000000, 1490695207
-0.078613281250, -1.015136718750, 0.198486328125, -3.343750000000, 8.695312500000, 4.343750000000, 1490695207
-0.078613281250, -1.015136718750, 0.198486328125, -3.343750000000, 8.695312500000, 4.343750000000, 1490695207
-0.078613281250, -1.015136718750, 0.198486328125, -3.343750000000, 8.695312500000, 4.343750000000, 1490695207
-0.142822265625, -1.068115234375, 0.216796875000, -2.335937500000, 7.171875000000, 2.476562500000, 1490695207
-0.001464843750, -0.870361328125, 0.180908203125, -2.648437500000, 5.453125000000, -1.164062500000, 1490695207
-0.001464843750, -0.870361328125, 0.180908203125, -2.648437500000, 5.453125000000, -1.164062500000, 1490695207
-0.070556640625, -0.917724609375, 0.239501953125, -2.257812500000, 5.062500000000, -1.703125000000, 1490695207
-0.070556640625, -0.917724609375, 0.239501953125, -2.257812500000, 5.062500000000, -1.703125000000, 1490695207
-0.070556640625, -0.917724609375, 0.239501953125, -2.257812500000, 5.062500000000, -1.703125000000, 1490695207
-0.070556640625, -0.917724609375, 0.239501953125, -2.257812500000, 5.062500000000, -1.703125000000, 1490695207
-0.070556640625, -0.917724609375, 0.239501953125, -2.257812500000, 5.062500000000, -1.703125000000, 1490695207
-0.073242187500, -0.965087890625, 0.168701171875, 0.367187500000, 6.414062500000, -0.781250000000, 1490695207
-0.084472656250, -0.940917968750, 0.159179687500, 0.109375000000, 3.875000000000, -2.343750000000, 1490695207
0.005615234375, -0.996582031250, 0.209472656250, -2.156250000000, 10.218750000000, -2.593750000000, 1490695207
0.005615234375, -0.996582031250, 0.209472656250, -2.156250000000, 10.218750000000, -2.593750000000, 1490695207
0.005615234375, -0.996582031250, 0.209472656250, -2.156250000000, 10.218750000000, -2.593750000000, 1490695207
0.005615234375, -0.996582031250, 0.209472656250, -2.156250000000, 10.218750000000, -2.593750000000, 1490695207
-0.056396484375, -1.063964843750, 0.181152343750, -2.148437500000, 9.226562500000, -2.718750000000, 1490695208
-0.071289062500, -0.859863281250, 0.188232421875, -5.531250000000, 5.914062500000, 2.132812500000, 1490695208
-0.032714843750, -1.001953125000, 0.212158203125, -3.703125000000, 5.843750000000, 2.289062500000, 1490695208
-0.080566406250, -1.010009765625, 0.170410156250, -2.976562500000, 5.625000000000, 0.273437500000, 1490695208
-0.080566406250, -1.010009765625, 0.170410156250, -2.976562500000, 5.625000000000, 0.273437500000, 1490695208
-0.080566406250, -1.010009765625, 0.170410156250, -2.976562500000, 5.625000000000, 0.273437500000, 1490695208
-0.080566406250, -1.010009765625, 0.170410156250, -2.976562500000, 5.625000000000, 0.273437500000, 1490695208
-0.080566406250, -1.010009765625, 0.170410156250, -2.976562500000, 5.625000000000, 0.273437500000, 1490695208
-0.035888671875, -0.917480468750, 0.135986328125, -2.257812500000, 8.531250000000, -0.742187500000, 1490695208
-0.127441406250, -0.978271484375, 0.269775390625, -2.429687500000, 3.726562500000, -4.625000000000, 1490695208
-0.127441406250, -0.978271484375, 0.269775390625, -2.429687500000, 3.726562500000, -4.625000000000, 1490695208
-0.127441406250, -0.978271484375, 0.269775390625, -2.429687500000, 3.726562500000, -4.625000000000, 1490695208
-0.127441406250, -0.978271484375, 0.269775390625, -2.429687500000, 3.726562500000, -4.625000000000, 1490695208
-0.039794921875, -0.998779296875, 0.185058593750, -8.929687500000, 3.859375000000, -6.976562500000, 1490695208
-0.039794921875, -0.998779296875, 0.185058593750, -8.929687500000, 3.859375000000, -6.976562500000, 1490695208
-0.039794921875, -0.998779296875, 0.185058593750, -8.929687500000, 3.859375000000, -6.976562500000, 1490695208
-0.039794921875, -0.998779296875, 0.185058593750, -8.929687500000, 3.859375000000, -6.976562500000, 1490695208
-0.027099609375, -0.924804687500, 0.139404296875, -6.125000000000, 6.906250000000, -4.218750000000, 1490695208
-0.027099609375, -0.924804687500, 0.139404296875, -6.125000000000, 6.906250000000, -4.218750000000, 1490695208
-0.027099609375, -0.924804687500, 0.139404296875, -6.125000000000, 6.906250000000, -4.218750000000, 1490695208
-0.010986328125, -0.916992187500, 0.258544921875, -5.585937500000, 8.000000000000, -2.453125000000, 1490695208
-0.010986328125, -0.916992187500, 0.258544921875, -5.585937500000, 8.000000000000, -2.453125000000, 1490695208
-0.010986328125, -0.916992187500, 0.258544921875, -5.585937500000, 8.000000000000, -2.453125000000, 1490695208
-0.125976562500, -0.915283203125, 0.213623046875, -8.992187500000, 6.554687500000, -2.742187500000, 1490695208
-0.125976562500, -0.915283203125, 0.213623046875, -8.992187500000, 6.554687500000, -2.742187500000, 1490695208
-0.125976562500, -0.915283203125, 0.213623046875, -8.992187500000, 6.554687500000, -2.742187500000, 1490695208
