ACC_X,ACC_Y,ACC_Z,G_X,G_Y,G_Z,Unix Time
-0.133789062500, -0.917724609375, 0.067626953125, -5.335937500000, -4.304687500000, -3.718750000000, 1490693430
-0.133789062500, -0.917724609375, 0.067626953125, -5.335937500000, -4.304687500000, -3.718750000000, 1490693430
-0.133789062500, -0.917724609375, 0.067626953125, -5.335937500000, -4.304687500000, -3.718750000000, 1490693430
-0.133789062500, -0.917724609375, 0.067626953125, -5.335937500000, -4.304687500000, -3.718750000000, 1490693430
0.010253906250, -0.866699218750, 0.084228515625, -3.437500000000, -3.390625000000, -3.656250000000, 1490693430
0.010253906250, -0.866699218750, 0.084228515625, -3.437500000000, -3.390625000000, -3.656250000000, 1490693430
0.010253906250, -0.866699218750, 0.084228515625, -3.437500000000, -3.390625000000, -3.656250000000, 1490693430
-0.027099609375, -1.010742187500, 0.039306640625, -4.859375000000, 0.500000000000, -1.992187500000, 1490693430
-0.027099609375, -1.010742187500, 0.039306640625, -4.859375000000, 0.500000000000, -1.992187500000, 1490693430
-0.027099609375, -1.010742187500, 0.039306640625, -4.859375000000, 0.500000000000, -1.992187500000, 1490693430
-0.126708984375, -0.922363281250, -0.026611328125, -4.085937500000, 4.273437500000, -3.914062500000, 1490693430
-0.126708984375, -0.922363281250, -0.026611328125, -4.085937500000, 4.273437500000, -3.914062500000, 1490693430
-0.126708984375, -0.922363281250, -0.026611328125, -4.085937500000, 4.273437500000, -3.914062500000, 1490693430
-0.037841796875, -0.932617187500, -0.029541015625, -1.226562500000, 3.632812500000, -2.523437500000, 1490693430
-0.037841796875, -0.932617187500, -0.029541015625, -1.226562500000, 3.632812500000, -2.523437500000, 1490693430
-0.037841796875, -0.932617187500, -0.029541015625, -1.226562500000, 3.632812500000, -2.523437500000, 1490693430
-0.134277343750, -1.022460937500, -0.020751953125, -2.429687500000, 4.125000000000, -6.929687500000, 1490693430
-0.131591796875, -1.034179687500, 0.094970703125, -2.429687500000, 4.125000000000, -6.929687500000, 1490693430
-0.131591796875, -1.034179687500, 0.094970703125, -2.429687500000, 4.125000000000, -6.929687500000, 1490693430
-0.131591796875, -1.034179687500, 0.094970703125, -2.429687500000, 4.125000000000, -6.929687500000, 1490693430
-0.131591796875, -1.034179687500, 0.094970703125, -2.429687500000, 4.125000000000, -6.929687500000, 1490693430
-0.131591796875, -1.034179687500, 0.094970703125, -2.429687500000, 4.125000000000, -6.929687500000, 1490693430
-0.131591796875, -1.034179687500, 0.094970703125, -2.429687500000, 4.125000000000, -6.929687500000, 1490693430
0.018066406250, -0.915283203125, 0.046142578125, -1.406250000000, 2.429687500000, -1.453125000000, 1490693430
0.018066406250, -0.915283203125, 0.046142578125, -1.406250000000, 2.429687500000, -1.453125000000, 1490693430
0.024414062500, -1.016601562500, 0.057617187500, -6.203125000000, -0.296875000000, -5.578125000000, 1490693430
0.024414062500, -1.016601562500, 0.057617187500, -6.203125000000, -0.296875000000, -5.578125000000, 1490693430
0.024414062500, -1.016601562500, 0.057617187500, -6.203125000000, -0.296875000000, -5.578125000000, 1490693430
0.024414062500, -1.016601562500, 0.057617187500, -6.203125000000, -0.296875000000, -5.578125000000, 1490693430
0.024414062500, -1.016601562500, 0.057617187500, -6.203125000000, -0.296875000000, -5.578125000000, 1490693430
-0.056396484375, -1.011230468750, 0.036865234375, -3.953125000000, 0.656250000000, -3.328125000000, 1490693430
-0.056396484375, -1.011230468750, 0.036865234375, -3.953125000000, 0.656250000000, -3.328125000000, 1490693430
-0.056396484375, -1.011230468750, 0.036865234375, -3.953125000000, 0.656250000000, -3.328125000000, 1490693430
-0.098388671875, -1.010253906250, 0.085205078125, -3.562500000000, -3.406250000000, -5.398437500000, 1490693430
-0.098388671875, -1.010253906250, 0.085205078125, -3.562500000000, -3.406250000000, -5.398437500000, 1490693430
-0.098388671875, -1.010253906250, 0.085205078125, -3.562500000000, -3.406250000000, -5.398437500000, 1490693430
-0.037841796875, -1.016113281250, 0.200683593750, -6.492187500000, -6.171875000000, -6.101562500000, 1490693430
-0.037841796875, -1.016113281250, 0.200683593750, -6.492187500000, -6.171875000000, -6.101562500000, 1490693430
-0.037841796875, -1.016113281250, 0.200683593750, -6.492187500000, -6.171875000000, -6.101562500000, 1490693430
-0.055664062500, -0.935058593750, 0.040527343750, -5.593750000000, -4.226562500000, -4.625000000000, 1490693430
-0.055664062500, -0.935058593750, 0.040527343750, -5.593750000000, -4.226562500000, -4.625000000000, 1490693430
-0.055664062500, -0.935058593750, 0.040527343750, -5.593750000000, -4.226562500000, -4.625000000000, 1490693430
-0.055664062500, -0.935058593750, 0.040527343750, -5.593750000000, -4.226562500000, -4.625000000000, 1490693430
-0.066894531250, -0.918212890625, 0.036621093750, -6.328125000000, -0.656250000000, -3.687500000000, 1490693431
-0.066894531250, -0.918212890625, 0.036621093750, -6.328125000000, -0.656250000000, -3.687500000000, 1490693431
-0.066894531250, -0.918212890625, 0.036621093750, -6.328125000000, -0.656250000000, -3.687500000000, 1490693431
-0.140869140625, -0.974853515625, 0.065917968750, -6.570312500000, -2.429687500000, -3.179687500000, 1490693431
-0.140869140625, -0.974853515625, 0.065917968750, -6.570312500000, -2.429687500000, -3.179687500000, 1490693431
-0.140869140625, -0.974853515625, 0.065917968750, -6.570312500000, -2.429687500000, -3.179687500000, 1490693431
-0.037841796875, -0.979492187500, 0.061279296875, -4.796875000000, -2.726562500000, -3.054687500000, 1490693431
-0.037841796875, -0.979492187500, 0.061279296875, -4.796875000000, -2.726562500000, -3.054687500000, 1490693431
-0.089111328125, -0.993896484375, 0.053955078125, -4.031250000000, 4.390625000000, -3.179687500000, 1490693431
-0.089111328125, -0.993896484375, 0.053955078125, -4.031250000000, 4.390625000000, -3.179687500000, 1490693431
-0.089111328125, -0.993896484375, 0.053955078125, -4.031250000000, 4.390625000000, -3.179687500000, 1490693431
-0.089111328125, -0.993896484375, 0.053955078125, -4.031250000000, 4.390625000000, -3.179687500000, 1490693431
-0.089111328125, -0.993896484375, 0.053955078125, -4.031250000000, 4.390625000000, -3.179687500000, 1490693431
-0.043457031250, -1.052490234375, 0.029541015625, -4.445312500000, 6.695312500000, -5.359375000000, 1490693431
-0.043457031250, -1.052490234375, 0.029541015625, -4.445312500000, 6.695312500000, -5.359375000000, 1490693431
-0.043457031250, -1.052490234375, 0.029541015625, -4.445312500000, 6.695312500000, -5.359375000000, 1490693431
-0.031738281250, -0.935791015625, 0.085693359375, -4.937500000000, 5.570312500000, -3.203125000000, 1490693431
-0.031738281250, -0.935791015625, 0.085693359375, -4.937500000000, 5.570312500000, -3.203125000000, 1490693431
-0.031738281250, -0.935791015625, 0.085693359375, -4.937500000000, 5.570312500000, -3.203125000000, 1490693431
-0.052246093750, -0.987304687500, 0.052490234375, -1.750000000000, 2.382812500000, -4.453125000000, 1490693431
-0.052246093750, -0.987304687500, 0.052490234375, -1.750000000000, 2.382812500000, -4.453125000000, 1490693431
-0.052246093750, -0.987304687500, 0.052490234375, -1.750000000000, 2.382812500000, -4.453125000000, 1490693431
-0.143554687500, -1.021728515625, 0.047363281250, -1.835937500000, -1.445312500000, -3.468750000000, 1490693431
-0.143554687500, -1.021728515625, 0.047363281250, -1.835937500000, -1.445312500000, -3.468750000000, 1490693431
-0.143554687500, -1.021728515625, 0.047363281250, -1.835937500000, -1.445312500000, -3.468750000000, 1490693431
-0.143554687500, -1.021728515625, 0.047363281250, -1.835937500000, -1.445312500000, -3.468750000000, 1490693431
0.024658203125, -0.925048828125, 0.128906250000, -6.273437500000, -1.289062500000, -6.406250000000, 1490693431
0.024658203125, -0.925048828125, 0.128906250000, -6.273437500000, -1.289062500000, -6.406250000000, 1490693431
0.024658203125, -0.925048828125, 0.128906250000, -6.273437500000, -1.289062500000, -6.406250000000, 1490693431
-0.144042968750, -0.971923828125, 0.053955078125, -4.757812500000, -1.500000000000, -3.265625000000, 1490693431
-0.144042968750, -0.971923828125, 0.053955078125, -4.757812500000, -1.500000000000, -3.265625000000, 1490693431
-0.144042968750, -0.971923828125, 0.053955078125, -4.757812500000, -1.500000000000, -3.265625000000, 1490693431
-0.028808593750, -1.067138671875, 0.050537109375, -6.226562500000, -1.906250000000, -6.578125000000, 1490693431
-0.081787109375, -1.024169921875, 0.086914062500, -6.429687500000, -3.867187500000, -4.101562500000, 1490693431
-0.081787109375, -1.024169921875, 0.086914062500, -6.429687500000, -3.867187500000, -4.101562500000, 1490693431
-0.107421875000, -1.014404296875, 0.129882812500, -6.093750000000, 0.085937500000, -4.625000000000, 1490693431
-0.107421875000, -1.014404296875, 0.129882812500, -6.093750000000, 0.085937500000, -4.625000000000, 1490693431
-0.107421875000, -1.014404296875, 0.129882812500, -6.093750000000, 0.085937500000, -4.625000000000, 1490693431
-0.107421875000, -1.014404296875, 0.129882812500, -6.093750000000, 0.085937500000, -4.625000000000, 1490693431
-0.107421875000, -1.014404296875, 0.129882812500, -6.093750000000, 0.085937500000, -4.625000000000, 1490693431
-0.068115234375, -0.929199218750, 0.069335937500, -4.789062500000, 0.867187500000, -5.585937500000, 1490693431
-0.068115234375, -0.929199218750, 0.069335937500, -4.789062500000, 0.867187500000, -5.585937500000, 1490693431
-0.068115234375, -0.929199218750, 0.069335937500, -4.789062500000, 0.867187500000, -5.585937500000, 1490693431
-0.068115234375, -0.929199218750, 0.069335937500, -4.789062500000, 0.867187500000, -5.585937500000, 1490693431
-0.068115234375, -0.929199218750, 0.069335937500, -4.789062500000, 0.867187500000, -5.585937500000, 1490693431
-0.141113281250, -1.062744140625, 0.146728515625, -4.265625000000, 3.617187500000, -3.031250000000, 1490693431
-0.034179687500, -1.030273437500, 0.061523437500, -1.601562500000, 3.187500000000, -5.039062500000, 1490693431
-0.034179687500, -1.030273437500, 0.061523437500, -1.601562500000, 3.187500000000, -5.039062500000, 1490693431
-0.034179687500, -1.030273437500, 0.061523437500, -1.601562500000, 3.187500000000, -5.039062500000, 1490693431
0.070556640625, -0.992919921875, 0.074707031250, -2.726562500000, 1.757812500000, -3.195312500000, 1490693431
0.070556640625, -0.992919921875, 0.074707031250, -2.726562500000, 1.757812500000, -3.195312500000, 1490693431
0.070556640625, -0.992919921875, 0.074707031250, -2.726562500000, 1.757812500000, -3.195312500000, 1490693431
0.070556640625, -0.992919921875, 0.074707031250, -2.726562500000, 1.757812500000, -3.195312500000, 1490693431
0.070556640625, -0.992919921875, 0.074707031250, -2.726562500000, 1.757812500000, -3.195312500000, 1490693431
0.027099609375, -0.979248046875, 0.089599609375, -4.523437500000, 2.484375000000, -6.656250000000, 1490693431
0.027099609375, -0.979248046875, 0.089599609375, -4.523437500000, 2.484375000000, -6.656250000000, 1490693431
0.027099609375, -0.979248046875, 0.089599609375, -4.523437500000, 2.484375000000, -6.656250000000, 1490693431
0.027099609375, -0.979248046875, 0.089599609375, -4.523437500000, 2.484375000000, -6.656250000000, 1490693431
-0.054931640625, -0.978271484375, 0.073242187500, -4.210937500000, 1.515625000000, -6.742187500000, 1490693431
-0.054931640625, -0.978271484375, 0.073242187500, -4.210937500000, 1.515625000000, -6.742187500000, 1490693431
-0.054931640625, -0.978271484375, 0.073242187500, -4.210937500000, 1.515625000000, -6.742187500000, 1490693431
-0.062744140625, -0.951660156250, 0.143798828125, -6.421875000000, 2.648437500000, -3.828125000000, 1490693431
-0.062744140625, -0.951660156250, 0.143798828125, -6.421875000000, 2.648437500000, -3.828125000000, 1490693431
-0.062744140625, -0.951660156250, 0.143798828125, -6.421875000000, 2.648437500000, -3.828125000000, 1490693431
-0.062744140625, -0.951660156250, 0.143798828125, -6.421875000000, 2.648437500000, -3.828125000000, 1490693431
-0.076660156250, -0.999755859375, -0.000244140625, -3.570312500000, 0.585937500000, -3.585937500000, 1490693431
-0.076660156250, -0.999755859375, -0.000244140625, -3.570312500000, 0.585937500000, -3.585937500000, 1490693431
-0.076660156250, -0.999755859375, -0.000244140625, -3.570312500000, 0.585937500000, -3.585937500000, 1490693432
-0.064697265625, -0.986328125000, 0.083496093750, -3.257812500000, -2.539062500000, -4.828125000000, 1490693432
0.002441406250, -0.984375000000, -0.007812500000, -7.117187500000, -1.414062500000, -3.117187500000, 1490693432
0.002441406250, -0.984375000000, -0.007812500000, -7.117187500000, -1.414062500000, -3.117187500000, 1490693432
0.002441406250, -0.984375000000, -0.007812500000, -7.117187500000, -1.414062500000, -3.117187500000, 1490693432
-0.034667968750, -1.001953125000, 0.135253906250, -5.382812500000, -4.125000000000, -2.523437500000, 1490693432
-0.087646484375, -0.977783203125, -0.002197265625, -6.414062500000, -1.890625000000, -4.734375000000, 1490693432
-0.087646484375, -0.977783203125, -0.002197265625, -6.414062500000, -1.890625000000, -4.734375000000, 1490693432
-0.095947265625, -1.028320312500, 0.016845703125, -6.804687500000, -2.335937500000, -6.187500000000, 1490693432
-0.095947265625, -1.028320312500, 0.016845703125, -6.804687500000, -2.335937500000, -6.187500000000, 1490693432
-0.095947265625, -1.028320312500, 0.016845703125, -6.804687500000, -2.335937500000, -6.187500000000, 1490693432
-0.095947265625, -1.028320312500, 0.016845703125, -6.804687500000, -2.335937500000, -6.187500000000, 1490693432
-0.153320312500, -0.997070312500, 0.113525390625, -5.078125000000, 0.476562500000, -5.000000000000, 1490693432
-0.032714843750, -0.985351562500, -0.004882812500, -6.882812500000, 0.257812500000, -4.437500000000, 1490693432
-0.032714843750, -0.985351562500, -0.004882812500, -6.882812500000, 0.257812500000, -4.437500000000, 1490693432
-0.032714843750, -0.985351562500, -0.004882812500, -6.882812500000, 0.257812500000, -4.437500000000, 1490693432
-0.032714843750, -0.985351562500, -0.004882812500, -6.882812500000, 0.257812500000, -4.437500000000, 1490693432
-0.092773437500, -1.010986328125, 0.052490234375, -1.164062500000, -2.468750000000, -4.726562500000, 1490693432
-0.092773437500, -1.010986328125, 0.052490234375, -1.164062500000, -2.468750000000, -4.726562500000, 1490693432
-0.092773437500, -1.010986328125, 0.052490234375, -1.164062500000, -2.468750000000, -4.726562500000, 1490693432
-0.036621093750, -1.002685546875, 0.061767578125, -3.640625000000, -0.617187500000, -6.179687500000, 1490693432
-0.036621093750, -1.002685546875, 0.061767578125, -3.640625000000, -0.617187500000, -6.179687500000, 1490693432
-0.036621093750, -1.002685546875, 0.061767578125, -3.640625000000, -0.617187500000, -6.179687500000, 1490693432
-0.036621093750, -1.002685546875, 0.061767578125, -3.640625000000, -0.617187500000, -6.179687500000, 1490693432
-0.036132812500, -1.014892578125, 0.048339843750, -4.273437500000, 3.562500000000, 0.007812500000, 1490693432
-0.036132812500, -1.014892578125, 0.048339843750, -4.273437500000, 3.562500000000, 0.007812500000, 1490693432
-0.036132812500, -1.014892578125, 0.048339843750, -4.273437500000, 3.562500000000, 0.007812500000, 1490693432
-0.043212890625, -1.002197265625, 0.134277343750, -2.296875000000, 6.773437500000, -4.593750000000, 1490693432
-0.043212890625, -1.002197265625, 0.134277343750, -2.296875000000, 6.773437500000, -4.593750000000, 1490693432
-0.043212890625, -1.002197265625, 0.134277343750, -2.296875000000, 6.773437500000, -4.593750000000, 1490693432
-0.089111328125, -0.984863281250, 0.030761718750, -4.046875000000, 3.484375000000, -3.617187500000, 1490693432
-0.089111328125, -0.984863281250, 0.030761718750, -4.046875000000, 3.484375000000, -3.617187500000, 1490693432
-0.072265625000, -0.933105468750, 0.094726562500, -4.570312500000, 4.148437500000, -4.398437500000, 1490693432
-0.072265625000, -0.933105468750, 0.094726562500, -4.570312500000, 4.148437500000, -4.398437500000, 1490693432
-0.072265625000, -0.933105468750, 0.094726562500, -4.570312500000, 4.148437500000, -4.398437500000, 1490693432
-0.072265625000, -0.933105468750, 0.094726562500, -4.570312500000, 4.148437500000, -4.398437500000, 1490693432
-0.072265625000, -0.933105468750, 0.094726562500, -4.570312500000, 4.148437500000, -4.398437500000, 1490693432
-0.059082031250, -1.088378906250, 0.042724609375, -3.304687500000, 1.546875000000, -4.656250000000, 1490693432
-0.090576171875, -1.055908203125, 0.136230468750, -6.750000000000, -1.546875000000, -8.015625000000, 1490693432
-0.090576171875, -1.055908203125, 0.136230468750, -6.750000000000, -1.546875000000, -8.015625000000, 1490693432
-0.090576171875, -1.055908203125, 0.136230468750, -6.750000000000, -1.546875000000, -8.015625000000, 1490693432
-0.090576171875, -1.055908203125, 0.136230468750, -6.750000000000, -1.546875000000, -8.015625000000, 1490693432
-0.090576171875, -1.055908203125, 0.136230468750, -6.750000000000, -1.546875000000, -8.015625000000, 1490693432
-0.016601562500, -0.990234375000, 0.137695312500, -3.367187500000, -1.000000000000, -3.125000000000, 1490693432
-0.069335937500, -1.125488281250, -0.006347656250, -6.343750000000, -2.710937500000, -3.078125000000, 1490693432
-0.069335937500, -1.125488281250, -0.006347656250, -6.343750000000, -2.710937500000, -3.078125000000, 1490693432
-0.148681640625, -1.013671875000, 0.033203125000, -6.539062500000, -2.078125000000, -8.593750000000, 1490693432
0.023437500000, -1.088623046875, 0.052001953125, -4.593750000000, -2.195312500000, -4.867187500000, 1490693432
0.023437500000, -1.088623046875, 0.052001953125, -4.593750000000, -2.195312500000, -4.867187500000, 1490693432
0.023437500000, -1.088623046875, 0.052001953125, -4.593750000000, -2.195312500000, -4.867187500000, 1490693432
-0.087646484375, -0.991455078125, 0.062011718750, -6.578125000000, 0.398437500000, -4.859375000000, 1490693432
-0.087646484375, -0.991455078125, 0.062011718750, -6.578125000000, 0.398437500000, -4.859375000000, 1490693432
-0.087646484375, -0.991455078125, 0.062011718750, -6.578125000000, 0.398437500000, -4.859375000000, 1490693432
-0.028808593750, -1.082763671875, 0.136718750000, -6.812500000000, 2.718750000000, -1.851562500000, 1490693432
-0.028808593750, -1.082763671875, 0.136718750000, -6.812500000000, 2.718750000000, -1.851562500000, 1490693432
-0.028808593750, -1.082763671875, 0.136718750000, -6.812500000000, 2.718750000000, -1.851562500000, 1490693432
-0.028808593750, -1.082763671875, 0.136718750000, -6.812500000000, 2.718750000000, -1.851562500000, 1490693432
-0.028808593750, -1.082763671875, 0.136718750000, -6.812500000000, 2.718750000000, -1.851562500000, 1490693432
0.019775390625, -0.990722656250, 0.031982421875, -3.953125000000, -1.625000000000, -4.554687500000, 1490693432
-0.051025390625, -0.969238281250, 0.041503906250, -3.351562500000, -4.523437500000, -4.078125000000, 1490693432
-0.051025390625, -0.969238281250, 0.041503906250, -3.351562500000, -4.523437500000, -4.078125000000, 1490693432
-0.051025390625, -0.969238281250, 0.041503906250, -3.351562500000, -4.523437500000, -4.078125000000, 1490693432
-0.051025390625, -0.969238281250, 0.041503906250, -3.351562500000, -4.523437500000, -4.078125000000, 1490693432
-0.055664062500, -0.867431640625, -0.022460937500, -4.906250000000, -1.937500000000, -8.562500000000, 1490693432
-0.055664062500, -0.867431640625, -0.022460937500, -4.906250000000, -1.937500000000, -8.562500000000, 1490693432
-0.055664062500, -0.867431640625, -0.022460937500, -4.906250000000, -1.937500000000, -8.562500000000, 1490693432
0.015380859375, -0.978515625000, -0.001708984375, -6.140625000000, -2.804687500000, -1.750000000000, 1490693433
0.015380859375, -0.978515625000, -0.001708984375, -6.140625000000, -2.804687500000, -1.750000000000, 1490693433
0.015380859375, -0.978515625000, -0.001708984375, -6.140625000000, -2.804687500000, -1.750000000000, 1490693433
-0.098144531250, -1.020751953125, 0.088867187500, -3.835937500000, 0.835937500000, -2.898437500000, 1490693433
-0.098144531250, -1.020751953125, 0.088867187500, -3.835937500000, 0.835937500000, -2.898437500000, 1490693433
-0.098144531250, -1.020751953125, 0.088867187500, -3.835937500000, 0.835937500000, -2.898437500000, 1490693433
-0.047363281250, -1.007324218750, -0.007812500000, -1.132812500000, -0.632812500000, -4.132812500000, 1490693433
-0.047363281250, -1.007324218750, -0.007812500000, -1.132812500000, -0.632812500000, -4.132812500000, 1490693433
-0.047363281250, -1.007324218750, -0.007812500000, -1.132812500000, -0.632812500000, -4.132812500000, 1490693433
-0.047363281250, -1.007324218750, -0.007812500000, -1.132812500000, -0.632812500000, -4.132812500000, 1490693433
-0.153076171875, -0.923828125000, 0.053466796875, -1.023437500000, 0.882812500000, -8.343750000000, 1490693433
-0.153076171875, -0.923828125000, 0.053466796875, -1.023437500000, 0.882812500000, -8.343750000000, 1490693433
-0.153076171875, -0.923828125000, 0.053466796875, -1.023437500000, 0.882812500000, -8.343750000000, 1490693433
-0.139648437500, -0.935546875000, -0.012695312500, -1.968750000000, 5.953125000000, -5.132812500000, 1490693433
-0.139648437500, -0.935546875000, -0.012695312500, -1.968750000000, 5.953125000000, -5.132812500000, 1490693433
-0.139648437500, -0.935546875000, -0.012695312500, -1.968750000000, 5.953125000000, -5.132812500000, 1490693433
-0.044433593750, -0.927978515625, 0.052978515625, -4.468750000000, 3.835937500000, -3.320312500000, 1490693433
-0.044433593750, -0.927978515625, 0.052978515625, -4.468750000000, 3.835937500000, -3.320312500000, 1490693433
-0.044433593750, -0.927978515625, 0.052978515625, -4.468750000000, 3.835937500000, -3.320312500000, 1490693433
0.010742187500, -1.064208984375, 0.054687500000, -4.546875000000, -0.367187500000, -4.765625000000, 1490693433
0.010742187500, -1.064208984375, 0.054687500000, -4.546875000000, -0.367187500000, -4.765625000000, 1490693433
0.010742187500, -1.064208984375, 0.054687500000, -4.546875000000, -0.367187500000, -4.765625000000, 1490693433
0.010742187500, -1.064208984375, 0.054687500000, -4.546875000000, -0.367187500000, -4.765625000000, 1490693433
0.000488281250, -0.929199218750, 0.096679687500, -4.609375000000, -2.281250000000, -2.070312500000, 1490693433
0.000488281250, -0.929199218750, 0.096679687500, -4.609375000000, -2.281250000000, -2.070312500000, 1490693433
0.000488281250, -0.929199218750, 0.096679687500, -4.609375000000, -2.281250000000, -2.070312500000, 1490693433
-0.145507812500, -0.999511718750, 0.078857421875, -3.640625000000, -0.468750000000, -4.367187500000, 1490693433
-0.145507812500, -0.999511718750, 0.078857421875, -3.640625000000, -0.468750000000, -4.367187500000, 1490693433
-0.145507812500, -0.999511718750, 0.078857421875, -3.640625000000, -0.468750000000, -4.367187500000, 1490693433
-0.057861328125, -0.988525390625, 0.054931640625, -6.531250000000, -0.070312500000, -4.109375000000, 1490693433
-0.057861328125, -0.988525390625, 0.054931640625, -6.531250000000, -0.070312500000, -4.109375000000, 1490693433
-0.057861328125, -0.988525390625, 0.054931640625, -6.531250000000, -0.070312500000, -4.109375000000, 1490693433
-0.018798828125, -0.976562500000, 0.075927734375, -6.343750000000, -1.515625000000, -3.117187500000, 1490693433
-0.128173828125, -1.021972656250, -0.013671875000, -6.898437500000, -3.234375000000, -1.851562500000, 1490693433
-0.039550781250, -1.069580078125, 0.043701171875, -5.093750000000, -3.062500000000, -6.812500000000, 1490693433
-0.039550781250, -1.069580078125, 0.043701171875, -5.093750000000, -3.062500000000, -6.812500000000, 1490693433
-0.039550781250, -1.069580078125, 0.043701171875, -5.093750000000, -3.062500000000, -6.812500000000, 1490693433
-0.039550781250, -1.069580078125, 0.043701171875, -5.093750000000, -3.062500000000, -6.812500000000, 1490693433
-0.039550781250, -1.069580078125, 0.043701171875, -5.093750000000, -3.062500000000, -6.812500000000, 1490693433
-0.091796875000, -1.074951171875, -0.007080078125, -6.765625000000, -3.664062500000, -3.781250000000, 1490693433
-0.091796875000, -1.074951171875, -0.007080078125, -6.765625000000, -3.664062500000, -3.781250000000, 1490693433
-0.091796875000, -1.074951171875, -0.007080078125, -6.765625000000, -3.664062500000, -3.781250000000, 1490693433
-0.091796875000, -1.074951171875, -0.007080078125, -6.765625000000, -3.664062500000, -3.781250000000, 1490693433
-0.091796875000, -1.074951171875, -0.007080078125, -6.765625000000, -3.664062500000, -3.781250000000, 1490693433
-0.091796875000, -1.074951171875, -0.007080078125, -6.765625000000, -3.664062500000, -3.781250000000, 1490693433
-0.085449218750, -0.925537109375, 0.035888671875, -3.593750000000, -1.078125000000, -6.281250000000, 1490693433
-0.085449218750, -0.925537109375, 0.035888671875, -3.593750000000, -1.078125000000, -6.281250000000, 1490693433
-0.085449218750, -0.925537109375, 0.035888671875, -3.593750000000, -1.078125000000, -6.281250000000, 1490693433
-0.085449218750, -0.925537109375, 0.035888671875, -3.593750000000, -1.078125000000, -6.281250000000, 1490693433
-0.131835937500, -0.956054687500, -0.004150390625, -3.632812500000, -0.203125000000, -3.578125000000, 1490693433
-0.131835937500, -0.956054687500, -0.004150390625, -3.632812500000, -0.203125000000, -3.578125000000, 1490693433
-0.131835937500, -0.956054687500, -0.004150390625, -3.632812500000, -0.203125000000, -3.578125000000, 1490693433
-0.036376953125, -1.021484375000, 0.067138671875, -1.281250000000, 0.226562500000, -4.078125000000, 1490693433
-0.036376953125, -1.021484375000, 0.067138671875, -1.281250000000, 0.226562500000, -4.078125000000, 1490693433
-0.036376953125, -1.021484375000, 0.067138671875, -1.281250000000, 0.226562500000, -4.078125000000, 1490693433
-0.041503906250, -0.965332031250, 0.097900390625, -1.507812500000, 2.054687500000, -6.351562500000, 1490693433
-0.041503906250, -0.965332031250, 0.097900390625, -1.507812500000, 2.054687500000, -6.351562500000, 1490693433
-0.041503906250, -0.965332031250, 0.097900390625, -1.507812500000, 2.054687500000, -6.351562500000, 1490693433
0.016845703125, -1.030029296875, 0.093750000000, -1.984375000000, 1.562500000000, -3.164062500000, 1490693433
0.016845703125, -1.030029296875, 0.093750000000, -1.984375000000, 1.562500000000, -3.164062500000, 1490693433
0.016845703125, -1.030029296875, 0.093750000000, -1.984375000000, 1.562500000000, -3.164062500000, 1490693433
0.016845703125, -1.030029296875, 0.093750000000, -1.984375000000, 1.562500000000, -3.164062500000, 1490693433
0.018310546875, -0.971435546875, 0.040527343750, -1.718750000000, 4.554687500000, -3.796875000000, 1490693433
0.018310546875, -0.971435546875, 0.040527343750, -1.718750000000, 4.554687500000, -3.796875000000, 1490693433
0.018310546875, -0.971435546875, 0.040527343750, -1.718750000000, 4.554687500000, -3.796875000000, 1490693433
-0.082763671875, -1.003662109375, -0.016845703125, -4.859375000000, 4.265625000000, -1.632812500000, 1490693433
-0.082763671875, -1.003662109375, -0.016845703125, -4.859375000000, 4.265625000000, -1.632812500000, 1490693433
-0.082763671875, -1.003662109375, -0.016845703125, -4.859375000000, 4.265625000000, -1.632812500000, 1490693434
-0.018554687500, -0.913330078125, 0.010742187500, -3.359375000000, 1.304687500000, -3.039062500000, 1490693434
-0.018554687500, -0.913330078125, 0.010742187500, -3.359375000000, 1.304687500000, -3.039062500000, 1490693434
-0.018554687500, -0.913330078125, 0.010742187500, -3.359375000000, 1.304687500000, -3.039062500000, 1490693434
-0.087646484375, -0.961914062500, 0.072753906250, -6.039062500000, -2.429687500000, -4.601562500000, 1490693434
-0.087646484375, -0.961914062500, 0.072753906250, -6.039062500000, -2.429687500000, -4.601562500000, 1490693434
-0.087646484375, -0.961914062500, 0.072753906250, -6.039062500000, -2.429687500000, -4.601562500000, 1490693434
-0.087646484375, -0.961914062500, 0.072753906250, -6.039062500000, -2.429687500000, -4.601562500000, 1490693434
-0.153076171875, -1.050048828125, 0.085693359375, -6.546875000000, -0.718750000000, -6.453125000000, 1490693434
-0.153076171875, -1.050048828125, 0.085693359375, -6.546875000000, -0.718750000000, -6.453125000000, 1490693434
-0.153076171875, -1.050048828125, 0.085693359375, -6.546875000000, -0.718750000000, -6.453125000000, 1490693434
-0.136718750000, -0.943359375000, 0.135253906250, -3.320312500000, -1.968750000000, -4.312500000000, 1490693434
-0.136718750000, -0.943359375000, 0.135253906250, -3.320312500000, -1.968750000000, -4.312500000000, 1490693434
-0.136718750000, -0.943359375000, 0.135253906250, -3.320312500000, -1.968750000000, -4.312500000000, 1490693434
-0.014404296875, -0.984375000000, 0.091552734375, -6.640625000000, -1.117187500000, -6.718750000000, 1490693434
-0.014404296875, -0.984375000000, 0.091552734375, -6.640625000000, -1.117187500000, -6.718750000000, 1490693434
-0.128906250000, -0.931152343750, 0.064697265625, -6.734375000000, 0.687500000000, -4.625000000000, 1490693434
-0.128906250000, -0.931152343750, 0.064697265625, -6.734375000000, 0.687500000000, -4.625000000000, 1490693434
-0.128906250000, -0.931152343750, 0.064697265625, -6.734375000000, 0.687500000000, -4.625000000000, 1490693434
-0.128906250000, -0.931152343750, 0.064697265625, -6.734375000000, 0.687500000000, -4.625000000000, 1490693434
-0.071777343750, -0.976806640625, 0.091064453125, -6.343750000000, 0.320312500000, -4.539062500000, 1490693434
-0.071777343750, -0.976806640625, 0.091064453125, -6.343750000000, 0.320312500000, -4.539062500000, 1490693434
-0.071777343750, -0.976806640625, 0.091064453125, -6.343750000000, 0.320312500000, -4.539062500000, 1490693434
-0.084716796875, -0.925048828125, 0.085205078125, -4.921875000000, -3.023437500000, -4.640625000000, 1490693434
-0.084716796875, -0.925048828125, 0.085205078125, -4.921875000000, -3.023437500000, -4.640625000000, 1490693434
-0.084716796875, -0.925048828125, 0.085205078125, -4.921875000000, -3.023437500000, -4.640625000000, 1490693434
-0.084716796875, -0.925048828125, 0.085205078125, -4.921875000000, -3.023437500000, -4.640625000000, 1490693434
-0.074218750000, -0.952636718750, 0.133789062500, -3.484375000000, -2.226562500000, -8.835937500000, 1490693434
-0.074218750000, -0.952636718750, 0.133789062500, -3.484375000000, -2.226562500000, -8.835937500000, 1490693434
-0.141357421875, -1.016601562500, 0.028564453125, -4.632812500000, -0.367187500000, -5.007812500000, 1490693434
-0.141357421875, -1.016601562500, 0.028564453125, -4.632812500000, -0.367187500000, -5.007812500000, 1490693434
-0.037597656250, -0.968017578125, 0.082519531250, -1.953125000000, -0.203125000000, -6.226562500000, 1490693434
-0.037597656250, -0.968017578125, 0.082519531250, -1.953125000000, -0.203125000000, -6.226562500000, 1490693434
-0.037597656250, -0.968017578125, 0.082519531250, -1.953125000000, -0.203125000000, -6.226562500000, 1490693434
-0.037597656250, -0.968017578125, 0.082519531250, -1.953125000000, -0.203125000000, -6.226562500000, 1490693434
-0.093750000000, -0.954345703125, 0.135498046875, -1.687500000000, 0.851562500000, -6.648437500000, 1490693434
-0.080078125000, -0.988525390625, 0.050537109375, -3.085937500000, -2.093750000000, -4.593750000000, 1490693434
-0.080078125000, -0.988525390625, 0.050537109375, -3.085937500000, -2.093750000000, -4.593750000000, 1490693434
-0.080078125000, -0.988525390625, 0.050537109375, -3.085937500000, -2.093750000000, -4.593750000000, 1490693434
-0.080078125000, -0.988525390625, 0.050537109375, -3.085937500000, -2.093750000000, -4.593750000000, 1490693434
-0.090820312500, -0.989257812500, 0.125732421875, -4.890625000000, 0.960937500000, -4.757812500000, 1490693434
-0.049072265625, -1.009033203125, 0.133789062500, -4.906250000000, 4.562500000000, -5.851562500000, 1490693434
-0.091308593750, -1.026123046875, 0.049804687500, -4.906250000000, 4.562500000000, -5.851562500000, 1490693434
-0.091308593750, -1.026123046875, 0.049804687500, -4.906250000000, 4.562500000000, -5.851562500000, 1490693434
-0.037353515625, -0.928466796875, -0.010253906250, -3.070312500000, 2.351562500000, -3.812500000000, 1490693434
-0.091796875000, -1.001708984375, -0.008056640625, -3.812500000000, 1.851562500000, -5.218750000000, 1490693434
-0.091796875000, -1.001708984375, -0.008056640625, -3.812500000000, 1.851562500000, -5.218750000000, 1490693434
-0.091796875000, -1.001708984375, -0.008056640625, -3.812500000000, 1.851562500000, -5.218750000000, 1490693434
-0.091796875000, -1.001708984375, -0.008056640625, -3.812500000000, 1.851562500000, -5.218750000000, 1490693434
-0.091796875000, -1.001708984375, -0.008056640625, -3.812500000000, 1.851562500000, -5.218750000000, 1490693434
-0.046386718750, -1.080078125000, 0.044921875000, -3.234375000000, 0.203125000000, -4.343750000000, 1490693434
-0.046386718750, -1.080078125000, 0.044921875000, -3.234375000000, 0.203125000000, -4.343750000000, 1490693434
-0.046386718750, -1.080078125000, 0.044921875000, -3.234375000000, 0.203125000000, -4.343750000000, 1490693434
-0.049072265625, -1.027587890625, 0.088378906250, -4.664062500000, -1.109375000000, -6.570312500000, 1490693434
-0.049072265625, -1.027587890625, 0.088378906250, -4.664062500000, -1.109375000000, -6.570312500000, 1490693434
-0.049072265625, -1.027587890625, 0.088378906250, -4.664062500000, -1.109375000000, -6.570312500000, 1490693434
-0.154296875000, -1.062744140625, 0.062011718750, -6.695312500000, -1.382812500000, -4.531250000000, 1490693434
-0.154296875000, -1.062744140625, 0.062011718750, -6.695312500000, -1.382812500000, -4.531250000000, 1490693434
-0.154296875000, -1.062744140625, 0.062011718750, -6.695312500000, -1.382812500000, -4.531250000000, 1490693434
-0.154296875000, -1.062744140625, 0.062011718750, -6.695312500000, -1.382812500000, -4.531250000000, 1490693434
-0.104003906250, -1.030761718750, 0.089599609375, -6.093750000000, -0.468750000000, -4.171875000000, 1490693434
-0.104003906250, -1.030761718750, 0.089599609375, -6.093750000000, -0.468750000000, -4.171875000000, 1490693434
-0.104003906250, -1.030761718750, 0.089599609375, -6.093750000000, -0.468750000000, -4.171875000000, 1490693434
0.028808593750, -1.066406250000, 0.138671875000, -3.812500000000, -0.460937500000, -7.000000000000, 1490693434
0.028808593750, -1.066406250000, 0.138671875000, -3.812500000000, -0.460937500000, -7.000000000000, 1490693434
0.028808593750, -1.066406250000, 0.138671875000, -3.812500000000, -0.460937500000, -7.000000000000, 1490693434
-0.133300781250, -0.932617187500, 0.054443359375, -3.929687500000, 0.765625000000, -3.210937500000, 1490693435
-0.133300781250, -0.932617187500, 0.054443359375, -3.929687500000, 0.765625000000, -3.210937500000, 1490693435
-0.133300781250, -0.932617187500, 0.054443359375, -3.929687500000, 0.765625000000, -3.210937500000, 1490693435
-0.066162109375, -0.991943359375, 0.027099609375, -2.000000000000, 2.828125000000, -4.117187500000, 1490693435
-0.066162109375, -0.991943359375, 0.027099609375, -2.000000000000, 2.828125000000, -4.117187500000, 1490693435
-0.066162109375, -0.991943359375, 0.027099609375, -2.000000000000, 2.828125000000, -4.117187500000, 1490693435
-0.066162109375, -0.991943359375, 0.027099609375, -2.000000000000, 2.828125000000, -4.117187500000, 1490693435
-0.148437500000, -0.976074218750, -0.024169921875, -4.250000000000, 0.195312500000, -3.835937500000, 1490693435
-0.148437500000, -0.976074218750, -0.024169921875, -4.250000000000, 0.195312500000, -3.835937500000, 1490693435
-0.148437500000, -0.976074218750, -0.024169921875, -4.250000000000, 0.195312500000, -3.835937500000, 1490693435
