ACC_X,ACC_Y,ACC_Z,G_X,G_Y,G_Z,Unix Time
-0.075927734375, -1.028564453125, 0.197265625000, -5.101562500000, 0.421875000000, -3.445312500000, 1490695561
-0.075927734375, -1.028564453125, 0.197265625000, -5.101562500000, 0.421875000000, -3.445312500000, 1490695561
-0.075927734375, -1.028564453125, 0.197265625000, -5.101562500000, 0.421875000000, -3.445312500000, 1490695561
-0.025634765625, -1.030761718750, 0.160156250000, -6.257812500000, -0.109375000000, -4.531250000000, 1490695561
-0.025634765625, -1.030761718750, 0.160156250000, -6.257812500000, -0.109375000000, -4.531250000000, 1490695561
-0.025634765625, -1.030761718750, 0.160156250000, -6.257812500000, -0.109375000000, -4.531250000000, 1490695561
-0.000488281250, -1.003906250000, 0.207519531250, -4.125000000000, 0.937500000000, -2.046875000000, 1490695561
-0.000488281250, -1.003906250000, 0.207519531250, -4.125000000000, 0.937500000000, -2.046875000000, 1490695561
-0.000488281250, -1.003906250000, 0.207519531250, -4.125000000000, 0.937500000000, -2.046875000000, 1490695561
-0.017578125000, -0.938720703125, 0.222167968750, -5.765625000000, 2.859375000000, -1.867187500000, 1490695561
-0.017578125000, -0.938720703125, 0.222167968750, -5.765625000000, 2.859375000000, -1.867187500000, 1490695561
-0.017578125000, -0.938720703125, 0.222167968750, -5.765625000000, 2.859375000000, -1.867187500000, 1490695561
-0.017578125000, -0.938720703125, 0.222167968750, -5.765625000000, 2.859375000000, -1.867187500000, 1490695561
-0.051269531250, -0.916992187500, 0.159912109375, -6.023437500000, 2.656250000000, -3.085937500000, 1490695561
-0.051269531250, -0.916992187500, 0.159912109375, -6.023437500000, 2.656250000000, -3.085937500000, 1490695561
-0.051269531250, -0.916992187500, 0.159912109375, -6.023437500000, 2.656250000000, -3.085937500000, 1490695561
0.064941406250, -1.000000000000, 0.101318359375, -1.210937500000, -0.835937500000, -2.085937500000, 1490695561
0.064941406250, -1.000000000000, 0.101318359375, -1.210937500000, -0.835937500000, -2.085937500000, 1490695561
0.064941406250, -1.000000000000, 0.101318359375, -1.210937500000, -0.835937500000, -2.085937500000, 1490695561
0.009033203125, -0.935058593750, 0.210693359375, -1.429687500000, 2.203125000000, -4.398437500000, 1490695561
0.009033203125, -0.935058593750, 0.210693359375, -1.429687500000, 2.203125000000, -4.398437500000, 1490695561
0.009033203125, -0.935058593750, 0.210693359375, -1.429687500000, 2.203125000000, -4.398437500000, 1490695561
0.009033203125, -0.935058593750, 0.210693359375, -1.429687500000, 2.203125000000, -4.398437500000, 1490695561
-0.027587890625, -0.930664062500, 0.251464843750, -3.359375000000, 2.085937500000, -4.796875000000, 1490695561
-0.027587890625, -0.930664062500, 0.251464843750, -3.359375000000, 2.085937500000, -4.796875000000, 1490695561
-0.027587890625, -0.930664062500, 0.251464843750, -3.359375000000, 2.085937500000, -4.796875000000, 1490695561
-0.027587890625, -0.986572265625, 0.217285156250, -1.664062500000, 0.968750000000, -1.617187500000, 1490695561
-0.027587890625, -0.986572265625, 0.217285156250, -1.664062500000, 0.968750000000, -1.617187500000, 1490695561
-0.027587890625, -0.986572265625, 0.217285156250, -1.664062500000, 0.968750000000, -1.617187500000, 1490695561
0.070800781250, -1.077880859375, 0.208007812500, -4.804687500000, 0.640625000000, -4.859375000000, 1490695561
0.070800781250, -1.077880859375, 0.208007812500, -4.804687500000, 0.640625000000, -4.859375000000, 1490695561
0.070800781250, -1.077880859375, 0.208007812500, -4.804687500000, 0.640625000000, -4.859375000000, 1490695561
0.057373046875, -0.923095703125, 0.200683593750, -3.164062500000, 0.929687500000, -2.765625000000, 1490695561
0.057373046875, -0.923095703125, 0.200683593750, -3.164062500000, 0.929687500000, -2.765625000000, 1490695561
0.057373046875, -0.923095703125, 0.200683593750, -3.164062500000, 0.929687500000, -2.765625000000, 1490695561
0.057373046875, -0.923095703125, 0.200683593750, -3.164062500000, 0.929687500000, -2.765625000000, 1490695561
-0.001708984375, -0.906738281250, 0.267578125000, -6.085937500000, 0.421875000000, -1.710937500000, 1490695561
-0.001708984375, -0.906738281250, 0.267578125000, -6.085937500000, 0.421875000000, -1.710937500000, 1490695561
-0.001708984375, -0.906738281250, 0.267578125000, -6.085937500000, 0.421875000000, -1.710937500000, 1490695561
0.071777343750, -1.001220703125, 0.162353515625, -3.085937500000, -2.203125000000, -1.234375000000, 1490695561
0.071777343750, -1.001220703125, 0.162353515625, -3.085937500000, -2.203125000000, -1.234375000000, 1490695561
0.071777343750, -1.001220703125, 0.162353515625, -3.085937500000, -2.203125000000, -1.234375000000, 1490695561
0.073486328125, -0.927246093750, 0.160400390625, -4.523437500000, -2.617187500000, -1.179687500000, 1490695561
0.073486328125, -0.927246093750, 0.160400390625, -4.523437500000, -2.617187500000, -1.179687500000, 1490695561
0.073486328125, -0.927246093750, 0.160400390625, -4.523437500000, -2.617187500000, -1.179687500000, 1490695561
-0.027832031250, -1.087646484375, 0.203613281250, -2.609375000000, 0.312500000000, -4.539062500000, 1490695561
-0.027832031250, -1.087646484375, 0.203613281250, -2.609375000000, 0.312500000000, -4.539062500000, 1490695561
-0.027832031250, -1.087646484375, 0.203613281250, -2.609375000000, 0.312500000000, -4.539062500000, 1490695561
-0.027832031250, -1.087646484375, 0.203613281250, -2.609375000000, 0.312500000000, -4.539062500000, 1490695561
0.063232421875, -1.026367187500, 0.123779296875, -2.960937500000, -1.765625000000, -6.328125000000, 1490695561
0.063232421875, -1.026367187500, 0.123779296875, -2.960937500000, -1.765625000000, -6.328125000000, 1490695561
0.063232421875, -1.026367187500, 0.123779296875, -2.960937500000, -1.765625000000, -6.328125000000, 1490695561
-0.045898437500, -1.026367187500, 0.112060546875, -1.445312500000, 0.421875000000, -4.625000000000, 1490695561
-0.045898437500, -1.026367187500, 0.112060546875, -1.445312500000, 0.421875000000, -4.625000000000, 1490695561
-0.045898437500, -1.026367187500, 0.112060546875, -1.445312500000, 0.421875000000, -4.625000000000, 1490695561
0.010009765625, -1.091308593750, 0.100097656250, -2.539062500000, -2.734375000000, -3.312500000000, 1490695561
0.010009765625, -1.091308593750, 0.100097656250, -2.539062500000, -2.734375000000, -3.312500000000, 1490695561
0.010009765625, -1.091308593750, 0.100097656250, -2.539062500000, -2.734375000000, -3.312500000000, 1490695561
-0.084472656250, -1.074707031250, 0.191650390625, 6.265625000000, -2.007812500000, -3.195312500000, 1490695561
-0.084472656250, -1.074707031250, 0.191650390625, 6.265625000000, -2.007812500000, -3.195312500000, 1490695561
-0.084472656250, -1.074707031250, 0.191650390625, 6.265625000000, -2.007812500000, -3.195312500000, 1490695562
-0.084472656250, -1.074707031250, 0.191650390625, 6.265625000000, -2.007812500000, -3.195312500000, 1490695562
-0.019042968750, -0.927246093750, 0.122070312500, 7.414062500000, 2.125000000000, -2.875000000000, 1490695562
-0.019042968750, -0.927246093750, 0.122070312500, 7.414062500000, 2.125000000000, -2.875000000000, 1490695562
-0.019042968750, -0.927246093750, 0.122070312500, 7.414062500000, 2.125000000000, -2.875000000000, 1490695562
-0.022460937500, -0.955078125000, 0.131591796875, 8.710937500000, 2.421875000000, -2.351562500000, 1490695562
-0.022460937500, -0.955078125000, 0.131591796875, 8.710937500000, 2.421875000000, -2.351562500000, 1490695562
-0.004394531250, -0.936035156250, 0.031494140625, 15.125000000000, 1.015625000000, -1.359375000000, 1490695562
-0.004394531250, -0.936035156250, 0.031494140625, 15.125000000000, 1.015625000000, -1.359375000000, 1490695562
-0.004394531250, -0.936035156250, 0.031494140625, 15.125000000000, 1.015625000000, -1.359375000000, 1490695562
-0.004394531250, -0.936035156250, 0.031494140625, 15.125000000000, 1.015625000000, -1.359375000000, 1490695562
0.031250000000, -0.859375000000, 0.115234375000, 32.664062500000, 2.312500000000, -2.804687500000, 1490695562
0.031250000000, -0.859375000000, 0.115234375000, 32.664062500000, 2.312500000000, -2.804687500000, 1490695562
0.031250000000, -0.859375000000, 0.115234375000, 32.664062500000, 2.312500000000, -2.804687500000, 1490695562
0.031250000000, -0.859375000000, 0.115234375000, 32.664062500000, 2.312500000000, -2.804687500000, 1490695562
0.149414062500, -0.864501953125, -0.026611328125, 39.664062500000, -1.203125000000, -0.921875000000, 1490695562
0.149414062500, -0.864501953125, -0.026611328125, 39.664062500000, -1.203125000000, -0.921875000000, 1490695562
0.149414062500, -0.864501953125, -0.026611328125, 39.664062500000, -1.203125000000, -0.921875000000, 1490695562
0.084960937500, -0.794677734375, -0.066894531250, 52.164062500000, -7.468750000000, 2.968750000000, 1490695562
0.084960937500, -0.794677734375, -0.066894531250, 52.164062500000, -7.468750000000, 2.968750000000, 1490695562
0.084960937500, -0.794677734375, -0.066894531250, 52.164062500000, -7.468750000000, 2.968750000000, 1490695562
-0.006591796875, -0.721923828125, -0.020751953125, 49.601562500000, -13.828125000000, 2.234375000000, 1490695562
-0.006591796875, -0.721923828125, -0.020751953125, 49.601562500000, -13.828125000000, 2.234375000000, 1490695562
0.014160156250, -0.614501953125, -0.033935546875, 23.843750000000, -43.757812500000, 5.281250000000, 1490695562
0.014160156250, -0.614501953125, -0.033935546875, 23.843750000000, -43.757812500000, 5.281250000000, 1490695562
0.014160156250, -0.614501953125, -0.033935546875, 23.843750000000, -43.757812500000, 5.281250000000, 1490695562
-0.015380859375, -0.616210937500, -0.092285156250, 24.109375000000, -64.062500000000, 22.468750000000, 1490695562
0.029541015625, -0.687255859375, -0.097412109375, 29.343750000000, -77.140625000000, 8.343750000000, 1490695562
0.029541015625, -0.687255859375, -0.097412109375, 29.343750000000, -77.140625000000, 8.343750000000, 1490695562
-0.088378906250, -0.728271484375, -0.066406250000, 44.164062500000, -99.328125000000, -10.007812500000, 1490695562
-0.137451171875, -0.636718750000, 0.023681640625, 103.546875000000, -128.390625000000, -30.078125000000, 1490695562
-0.137451171875, -0.636718750000, 0.023681640625, 103.546875000000, -128.390625000000, -30.078125000000, 1490695562
-0.137451171875, -0.636718750000, 0.023681640625, 103.546875000000, -128.390625000000, -30.078125000000, 1490695562
-0.137451171875, -0.636718750000, 0.023681640625, 103.546875000000, -128.390625000000, -30.078125000000, 1490695562
0.027099609375, -0.671386718750, -0.022460937500, 177.054687500000, -141.078125000000, -78.562500000000, 1490695562
0.027099609375, -0.671386718750, -0.022460937500, 177.054687500000, -141.078125000000, -78.562500000000, 1490695562
0.027099609375, -0.671386718750, -0.022460937500, 177.054687500000, -141.078125000000, -78.562500000000, 1490695562
-0.153808593750, -0.623291015625, 0.066894531250, 41.359375000000, -168.765625000000, -23.500000000000, 1490695562
-0.153808593750, -0.623291015625, 0.066894531250, 41.359375000000, -168.765625000000, -23.500000000000, 1490695562
-0.153808593750, -0.623291015625, 0.066894531250, 41.359375000000, -168.765625000000, -23.500000000000, 1490695562
-0.153808593750, -0.623291015625, 0.066894531250, 41.359375000000, -168.765625000000, -23.500000000000, 1490695562
-0.162841796875, -0.701171875000, 0.035400390625, 42.281250000000, -86.828125000000, -41.382812500000, 1490695562
-0.162841796875, -0.701171875000, 0.035400390625, 42.281250000000, -86.828125000000, -41.382812500000, 1490695562
-0.162841796875, -0.701171875000, 0.035400390625, 42.281250000000, -86.828125000000, -41.382812500000, 1490695562
-0.113525390625, -0.661621093750, 0.025634765625, -26.468750000000, -44.000000000000, -18.882812500000, 1490695562
-0.113525390625, -0.661621093750, 0.025634765625, -26.468750000000, -44.000000000000, -18.882812500000, 1490695562
-0.113525390625, -0.661621093750, 0.025634765625, -26.468750000000, -44.000000000000, -18.882812500000, 1490695562
-0.198242187500, -1.012451171875, -0.045166015625, -114.554687500000, -1.914062500000, 7.093750000000, 1490695562
-0.198242187500, -1.012451171875, -0.045166015625, -114.554687500000, -1.914062500000, 7.093750000000, 1490695562
-0.298583984375, -1.493408203125, 0.134277343750, -187.539062500000, 253.992187500000, 18.757812500000, 1490695562
-0.298583984375, -1.493408203125, 0.134277343750, -187.539062500000, 253.992187500000, 18.757812500000, 1490695562
-0.298583984375, -1.493408203125, 0.134277343750, -187.539062500000, 253.992187500000, 18.757812500000, 1490695562
-0.298583984375, -1.493408203125, 0.134277343750, -187.539062500000, 253.992187500000, 18.757812500000, 1490695562
-0.279541015625, -1.617675781250, 0.071533203125, -155.218750000000, 253.992187500000, -19.992187500000, 1490695562
-0.279541015625, -1.617675781250, 0.071533203125, -155.218750000000, 253.992187500000, -19.992187500000, 1490695562
-0.279541015625, -1.617675781250, 0.071533203125, -155.218750000000, 253.992187500000, -19.992187500000, 1490695562
-0.279541015625, -1.617675781250, 0.071533203125, -155.218750000000, 253.992187500000, -19.992187500000, 1490695562
-0.332519531250, -1.780029296875, -0.150878906250, -247.656250000000, 167.125000000000, -64.531250000000, 1490695562
-0.332519531250, -1.780029296875, -0.150878906250, -247.656250000000, 167.125000000000, -64.531250000000, 1490695562
-0.332519531250, -1.780029296875, -0.150878906250, -247.656250000000, 167.125000000000, -64.531250000000, 1490695562
-0.141357421875, -1.731201171875, -0.056640625000, -157.851562500000, -51.117187500000, 10.617187500000, 1490695562
-0.141357421875, -1.731201171875, -0.056640625000, -157.851562500000, -51.117187500000, 10.617187500000, 1490695562
-0.141357421875, -1.731201171875, -0.056640625000, -157.851562500000, -51.117187500000, 10.617187500000, 1490695562
-0.078125000000, -1.634277343750, 0.132324218750, -129.070312500000, -176.796875000000, 22.289062500000, 1490695562
-0.078125000000, -1.634277343750, 0.132324218750, -129.070312500000, -176.796875000000, 22.289062500000, 1490695562
-0.078125000000, -1.634277343750, 0.132324218750, -129.070312500000, -176.796875000000, 22.289062500000, 1490695562
-0.078125000000, -1.634277343750, 0.132324218750, -129.070312500000, -176.796875000000, 22.289062500000, 1490695562
-0.294189453125, -1.509521484375, 0.201171875000, 107.132812500000, 8.695312500000, -14.203125000000, 1490695563
-0.294189453125, -1.509521484375, 0.201171875000, 107.132812500000, 8.695312500000, -14.203125000000, 1490695563
-0.294189453125, -1.509521484375, 0.201171875000, 107.132812500000, 8.695312500000, -14.203125000000, 1490695563
-0.485839843750, -1.688964843750, 0.059082031250, 203.718750000000, 118.656250000000, 22.406250000000, 1490695563
-0.485839843750, -1.688964843750, 0.059082031250, 203.718750000000, 118.656250000000, 22.406250000000, 1490695563
-0.485839843750, -1.688964843750, 0.059082031250, 203.718750000000, 118.656250000000, 22.406250000000, 1490695563
-0.552001953125, -1.466064453125, 0.005126953125, 86.429687500000, 2.109375000000, 9.789062500000, 1490695563
-0.552001953125, -1.466064453125, 0.005126953125, 86.429687500000, 2.109375000000, 9.789062500000, 1490695563
-0.552001953125, -1.466064453125, 0.005126953125, 86.429687500000, 2.109375000000, 9.789062500000, 1490695563
-0.452392578125, -1.385009765625, -0.002197265625, 130.460937500000, -34.890625000000, 2.742187500000, 1490695563
-0.452392578125, -1.385009765625, -0.002197265625, 130.460937500000, -34.890625000000, 2.742187500000, 1490695563
-0.452392578125, -1.385009765625, -0.002197265625, 130.460937500000, -34.890625000000, 2.742187500000, 1490695563
-0.166992187500, -1.323730468750, 0.080566406250, 149.726562500000, -35.187500000000, 3.445312500000, 1490695563
-0.166992187500, -1.323730468750, 0.080566406250, 149.726562500000, -35.187500000000, 3.445312500000, 1490695563
-0.166992187500, -1.323730468750, 0.080566406250, 149.726562500000, -35.187500000000, 3.445312500000, 1490695563
-0.166992187500, -1.323730468750, 0.080566406250, 149.726562500000, -35.187500000000, 3.445312500000, 1490695563
-0.194335937500, -1.077880859375, 0.139892578125, 87.742187500000, -119.117187500000, 24.335937500000, 1490695563
-0.194335937500, -1.077880859375, 0.139892578125, 87.742187500000, -119.117187500000, 24.335937500000, 1490695563
-0.194335937500, -1.077880859375, 0.139892578125, 87.742187500000, -119.117187500000, 24.335937500000, 1490695563
0.028564453125, -0.996337890625, 0.015625000000, 53.804687500000, -154.796875000000, 48.328125000000, 1490695563
0.028564453125, -0.996337890625, 0.015625000000, 53.804687500000, -154.796875000000, 48.328125000000, 1490695563
0.225830078125, -0.847412109375, 0.093017578125, 31.046875000000, -66.085937500000, 37.539062500000, 1490695563
0.225830078125, -0.847412109375, 0.093017578125, 31.046875000000, -66.085937500000, 37.539062500000, 1490695563
0.225830078125, -0.847412109375, 0.093017578125, 31.046875000000, -66.085937500000, 37.539062500000, 1490695563
0.225830078125, -0.847412109375, 0.093017578125, 31.046875000000, -66.085937500000, 37.539062500000, 1490695563
0.225830078125, -0.847412109375, 0.093017578125, 31.046875000000, -66.085937500000, 37.539062500000, 1490695563
0.269287109375, -0.998291015625, -0.010009765625, -47.078125000000, -66.007812500000, 20.718750000000, 1490695563
0.269287109375, -0.998291015625, -0.010009765625, -47.078125000000, -66.007812500000, 20.718750000000, 1490695563
0.269287109375, -0.998291015625, -0.010009765625, -47.078125000000, -66.007812500000, 20.718750000000, 1490695563
0.214355468750, -1.212402343750, -0.093017578125, -112.843750000000, 5.367187500000, 69.656250000000, 1490695563
0.214355468750, -1.212402343750, -0.093017578125, -112.843750000000, 5.367187500000, 69.656250000000, 1490695563
0.214355468750, -1.212402343750, -0.093017578125, -112.843750000000, 5.367187500000, 69.656250000000, 1490695563
0.156005859375, -1.043701171875, -0.069580078125, -161.460937500000, -63.921875000000, 31.960937500000, 1490695563
0.156005859375, -1.043701171875, -0.069580078125, -161.460937500000, -63.921875000000, 31.960937500000, 1490695563
-0.214355468750, -1.077880859375, 0.000976562500, -63.773437500000, -39.148437500000, 16.851562500000, 1490695563
-0.214355468750, -1.077880859375, 0.000976562500, -63.773437500000, -39.148437500000, 16.851562500000, 1490695563
-0.214355468750, -1.077880859375, 0.000976562500, -63.773437500000, -39.148437500000, 16.851562500000, 1490695563
-0.214355468750, -1.077880859375, 0.000976562500, -63.773437500000, -39.148437500000, 16.851562500000, 1490695563
-0.214355468750, -1.077880859375, 0.000976562500, -63.773437500000, -39.148437500000, 16.851562500000, 1490695563
-0.166992187500, -0.784423828125, 0.009033203125, -70.945312500000, -42.531250000000, 87.718750000000, 1490695563
-0.166992187500, -0.784423828125, 0.009033203125, -70.945312500000, -42.531250000000, 87.718750000000, 1490695563
-0.166992187500, -0.784423828125, 0.009033203125, -70.945312500000, -42.531250000000, 87.718750000000, 1490695563
-0.097412109375, -0.859863281250, -0.022460937500, -135.742187500000, -87.156250000000, 58.976562500000, 1490695563
-0.097412109375, -0.859863281250, -0.022460937500, -135.742187500000, -87.156250000000, 58.976562500000, 1490695563
-0.097412109375, -0.859863281250, -0.022460937500, -135.742187500000, -87.156250000000, 58.976562500000, 1490695563
-0.114746093750, -0.770751953125, -0.017822265625, -113.992187500000, -42.789062500000, 82.078125000000, 1490695563
-0.114746093750, -0.770751953125, -0.017822265625, -113.992187500000, -42.789062500000, 82.078125000000, 1490695563
-0.114746093750, -0.770751953125, -0.017822265625, -113.992187500000, -42.789062500000, 82.078125000000, 1490695563
-0.014892578125, -0.697021484375, 0.070556640625, -106.031250000000, 20.781250000000, 109.984375000000, 1490695563
-0.014892578125, -0.697021484375, 0.070556640625, -106.031250000000, 20.781250000000, 109.984375000000, 1490695563
0.157226562500, -0.568847656250, -0.088867187500, -30.070312500000, 77.492187500000, -5.351562500000, 1490695563
0.157226562500, -0.568847656250, -0.088867187500, -30.070312500000, 77.492187500000, -5.351562500000, 1490695563
0.157226562500, -0.568847656250, -0.088867187500, -30.070312500000, 77.492187500000, -5.351562500000, 1490695563
0.050781250000, -0.407470703125, 0.062744140625, 12.062500000000, 56.976562500000, -1.890625000000, 1490695563
0.050781250000, -0.407470703125, 0.062744140625, 12.062500000000, 56.976562500000, -1.890625000000, 1490695563
0.050781250000, -0.407470703125, 0.062744140625, 12.062500000000, 56.976562500000, -1.890625000000, 1490695563
0.050781250000, -0.407470703125, 0.062744140625, 12.062500000000, 56.976562500000, -1.890625000000, 1490695563
0.050781250000, -0.407470703125, 0.062744140625, 12.062500000000, 56.976562500000, -1.890625000000, 1490695563
0.377929687500, -0.756347656250, -0.039794921875, 16.335937500000, -20.804687500000, -46.765625000000, 1490695563
0.377929687500, -0.756347656250, -0.039794921875, 16.335937500000, -20.804687500000, -46.765625000000, 1490695563
0.377929687500, -0.756347656250, -0.039794921875, 16.335937500000, -20.804687500000, -46.765625000000, 1490695563
0.091064453125, -1.278564453125, 0.633789062500, 253.992187500000, 253.992187500000, -195.046875000000, 1490695563
0.091064453125, -1.278564453125, 0.633789062500, 253.992187500000, 253.992187500000, -195.046875000000, 1490695563
0.091064453125, -1.278564453125, 0.633789062500, 253.992187500000, 253.992187500000, -195.046875000000, 1490695563
0.091064453125, -1.278564453125, 0.633789062500, 253.992187500000, 253.992187500000, -195.046875000000, 1490695563
-0.699707031250, -1.152343750000, 0.781494140625, -29.164062500000, 253.992187500000, -143.140625000000, 1490695563
-0.699707031250, -1.152343750000, 0.781494140625, -29.164062500000, 253.992187500000, -143.140625000000, 1490695563
-0.699707031250, -1.152343750000, 0.781494140625, -29.164062500000, 253.992187500000, -143.140625000000, 1490695563
0.073242187500, -1.251953125000, 0.591796875000, -183.718750000000, -256.000000000000, -18.953125000000, 1490695564
0.073242187500, -1.251953125000, 0.591796875000, -183.718750000000, -256.000000000000, -18.953125000000, 1490695564
0.073242187500, -1.251953125000, 0.591796875000, -183.718750000000, -256.000000000000, -18.953125000000, 1490695564
0.002197265625, -1.001953125000, -0.012695312500, -138.539062500000, 72.281250000000, -53.078125000000, 1490695564
0.002197265625, -1.001953125000, -0.012695312500, -138.539062500000, 72.281250000000, -53.078125000000, 1490695564
0.002197265625, -1.001953125000, -0.012695312500, -138.539062500000, 72.281250000000, -53.078125000000, 1490695564
-0.126953125000, -0.985351562500, 0.004882812500, 0.195312500000, -43.046875000000, -3.789062500000, 1490695564
-0.126953125000, -0.985351562500, 0.004882812500, 0.195312500000, -43.046875000000, -3.789062500000, 1490695564
-0.126953125000, -0.985351562500, 0.004882812500, 0.195312500000, -43.046875000000, -3.789062500000, 1490695564
-0.126953125000, -0.985351562500, 0.004882812500, 0.195312500000, -43.046875000000, -3.789062500000, 1490695564
-0.157714843750, -0.890869140625, 0.128173828125, 36.859375000000, -20.671875000000, -14.171875000000, 1490695564
-0.157714843750, -0.890869140625, 0.128173828125, 36.859375000000, -20.671875000000, -14.171875000000, 1490695564
-0.053466796875, -0.923828125000, 0.378662109375, -2.328125000000, -2.781250000000, -14.101562500000, 1490695564
-0.053466796875, -0.923828125000, 0.378662109375, -2.328125000000, -2.781250000000, -14.101562500000, 1490695564
-0.053466796875, -0.923828125000, 0.378662109375, -2.328125000000, -2.781250000000, -14.101562500000, 1490695564
-0.079345703125, -1.024414062500, 0.228271484375, -15.968750000000, -13.492187500000, 4.226562500000, 1490695564
-0.114257812500, -0.976074218750, 0.095214843750, -25.562500000000, -26.476562500000, 2.664062500000, 1490695564
-0.114257812500, -0.976074218750, 0.095214843750, -25.562500000000, -26.476562500000, 2.664062500000, 1490695564
-0.114257812500, -0.976074218750, 0.095214843750, -25.562500000000, -26.476562500000, 2.664062500000, 1490695564
-0.025146484375, -0.918701171875, 0.043945312500, -23.632812500000, -6.187500000000, -2.210937500000, 1490695564
-0.025146484375, -0.918701171875, 0.043945312500, -23.632812500000, -6.187500000000, -2.210937500000, 1490695564
0.027343750000, -0.990234375000, 0.094726562500, 24.281250000000, 5.523437500000, -2.585937500000, 1490695564
0.027343750000, -0.990234375000, 0.094726562500, 24.281250000000, 5.523437500000, -2.585937500000, 1490695564
0.027343750000, -0.990234375000, 0.094726562500, 24.281250000000, 5.523437500000, -2.585937500000, 1490695564
0.027343750000, -0.990234375000, 0.094726562500, 24.281250000000, 5.523437500000, -2.585937500000, 1490695564
-0.050048828125, -1.046386718750, 0.332763671875, 32.460937500000, 8.187500000000, 1.882812500000, 1490695564
-0.050048828125, -1.046386718750, 0.332763671875, 32.460937500000, 8.187500000000, 1.882812500000, 1490695564
-0.050048828125, -1.046386718750, 0.332763671875, 32.460937500000, 8.187500000000, 1.882812500000, 1490695564
-0.050048828125, -1.046386718750, 0.332763671875, 32.460937500000, 8.187500000000, 1.882812500000, 1490695564
-0.253173828125, -0.993164062500, 0.268310546875, -8.265625000000, 1.781250000000, -0.406250000000, 1490695564
-0.253173828125, -0.993164062500, 0.268310546875, -8.265625000000, 1.781250000000, -0.406250000000, 1490695564
-0.253173828125, -0.993164062500, 0.268310546875, -8.265625000000, 1.781250000000, -0.406250000000, 1490695564
-0.092773437500, -1.017578125000, 0.200927734375, -28.109375000000, 10.929687500000, -5.250000000000, 1490695564
-0.092773437500, -1.017578125000, 0.200927734375, -28.109375000000, 10.929687500000, -5.250000000000, 1490695564
-0.092773437500, -1.017578125000, 0.200927734375, -28.109375000000, 10.929687500000, -5.250000000000, 1490695564
-0.092773437500, -1.017578125000, 0.200927734375, -28.109375000000, 10.929687500000, -5.250000000000, 1490695564
-0.173095703125, -1.022949218750, 0.190917968750, -9.867187500000, 7.390625000000, -1.890625000000, 1490695564
-0.173095703125, -1.022949218750, 0.190917968750, -9.867187500000, 7.390625000000, -1.890625000000, 1490695564
-0.173095703125, -1.022949218750, 0.190917968750, -9.867187500000, 7.390625000000, -1.890625000000, 1490695564
-0.031250000000, -1.025878906250, 0.123046875000, 1.976562500000, 16.437500000000, -2.617187500000, 1490695564
-0.031250000000, -1.025878906250, 0.123046875000, 1.976562500000, 16.437500000000, -2.617187500000, 1490695564
-0.031250000000, -1.025878906250, 0.123046875000, 1.976562500000, 16.437500000000, -2.617187500000, 1490695564
-0.109619140625, -0.977294921875, 0.222900390625, -4.023437500000, 9.312500000000, -2.867187500000, 1490695564
-0.109619140625, -0.977294921875, 0.222900390625, -4.023437500000, 9.312500000000, -2.867187500000, 1490695564
-0.109619140625, -0.977294921875, 0.222900390625, -4.023437500000, 9.312500000000, -2.867187500000, 1490695564
-0.109619140625, -1.077148437500, 0.252685546875, -8.992187500000, -0.250000000000, 0.765625000000, 1490695564
-0.109619140625, -1.077148437500, 0.252685546875, -8.992187500000, -0.250000000000, 0.765625000000, 1490695564
-0.109619140625, -1.077148437500, 0.252685546875, -8.992187500000, -0.250000000000, 0.765625000000, 1490695564
-0.109619140625, -1.077148437500, 0.252685546875, -8.992187500000, -0.250000000000, 0.765625000000, 1490695564
-0.208007812500, -0.907714843750, 0.200683593750, -6.156250000000, -3.265625000000, -4.906250000000, 1490695564
-0.208007812500, -0.907714843750, 0.200683593750, -6.156250000000, -3.265625000000, -4.906250000000, 1490695564
-0.208007812500, -0.907714843750, 0.200683593750, -6.156250000000, -3.265625000000, -4.906250000000, 1490695564
-0.171142578125, -1.028564453125, 0.216064453125, 1.242187500000, -5.132812500000, -0.289062500000, 1490695564
-0.171142578125, -1.028564453125, 0.216064453125, 1.242187500000, -5.132812500000, -0.289062500000, 1490695564
-0.171142578125, -1.028564453125, 0.216064453125, 1.242187500000, -5.132812500000, -0.289062500000, 1490695564
-0.110107421875, -0.981445312500, 0.109863281250, 1.687500000000, -7.421875000000, 2.835937500000, 1490695564
-0.110107421875, -0.981445312500, 0.109863281250, 1.687500000000, -7.421875000000, 2.835937500000, 1490695564
-0.110107421875, -0.981445312500, 0.109863281250, 1.687500000000, -7.421875000000, 2.835937500000, 1490695564
-0.025146484375, -0.978515625000, 0.106201171875, -3.898437500000, -7.992187500000, 0.507812500000, 1490695564
-0.025146484375, -0.978515625000, 0.106201171875, -3.898437500000, -7.992187500000, 0.507812500000, 1490695564
-0.025146484375, -0.978515625000, 0.106201171875, -3.898437500000, -7.992187500000, 0.507812500000, 1490695564
-0.025146484375, -0.978515625000, 0.106201171875, -3.898437500000, -7.992187500000, 0.507812500000, 1490695564
-0.103271484375, -1.016113281250, 0.116455078125, -2.320312500000, -8.101562500000, -0.671875000000, 1490695564
-0.103271484375, -1.016113281250, 0.116455078125, -2.320312500000, -8.101562500000, -0.671875000000, 1490695564
-0.103271484375, -1.016113281250, 0.116455078125, -2.320312500000, -8.101562500000, -0.671875000000, 1490695564
0.008789062500, -1.062744140625, 0.119140625000, 0.375000000000, -14.859375000000, 0.921875000000, 1490695565
0.008789062500, -1.062744140625, 0.119140625000, 0.375000000000, -14.859375000000, 0.921875000000, 1490695565
0.008789062500, -1.062744140625, 0.119140625000, 0.375000000000, -14.859375000000, 0.921875000000, 1490695565
0.015380859375, -1.026855468750, 0.122558593750, 4.906250000000, -11.085937500000, -2.460937500000, 1490695565
0.015380859375, -1.026855468750, 0.122558593750, 4.906250000000, -11.085937500000, -2.460937500000, 1490695565
0.015380859375, -1.026855468750, 0.122558593750, 4.906250000000, -11.085937500000, -2.460937500000, 1490695565
0.003662109375, -0.923095703125, 0.181640625000, 6.468750000000, 0.125000000000, -4.257812500000, 1490695565
0.003662109375, -0.923095703125, 0.181640625000, 6.468750000000, 0.125000000000, -4.257812500000, 1490695565
0.003662109375, -0.923095703125, 0.181640625000, 6.468750000000, 0.125000000000, -4.257812500000, 1490695565
-0.127441406250, -0.957519531250, 0.261718750000, -10.539062500000, 10.335937500000, -1.804687500000, 1490695565
-0.127441406250, -0.957519531250, 0.261718750000, -10.539062500000, 10.335937500000, -1.804687500000, 1490695565
-0.127441406250, -0.957519531250, 0.261718750000, -10.539062500000, 10.335937500000, -1.804687500000, 1490695565
-0.127441406250, -0.957519531250, 0.261718750000, -10.539062500000, 10.335937500000, -1.804687500000, 1490695565
-0.038574218750, -0.916503906250, 0.109863281250, -14.218750000000, 11.695312500000, -1.296875000000, 1490695565
-0.038574218750, -0.916503906250, 0.109863281250, -14.218750000000, 11.695312500000, -1.296875000000, 1490695565
-0.038574218750, -0.916503906250, 0.109863281250, -14.218750000000, 11.695312500000, -1.296875000000, 1490695565
-0.034912109375, -0.999755859375, 0.171386718750, -7.492187500000, 13.289062500000, -2.062500000000, 1490695565
-0.034912109375, -0.999755859375, 0.171386718750, -7.492187500000, 13.289062500000, -2.062500000000, 1490695565
-0.034912109375, -0.999755859375, 0.171386718750, -7.492187500000, 13.289062500000, -2.062500000000, 1490695565
-0.055175781250, -1.002685546875, 0.197265625000, -7.132812500000, 18.617187500000, 1.156250000000, 1490695565
-0.055175781250, -1.002685546875, 0.197265625000, -7.132812500000, 18.617187500000, 1.156250000000, 1490695565
-0.055175781250, -1.002685546875, 0.197265625000, -7.132812500000, 18.617187500000, 1.156250000000, 1490695565
-0.055175781250, -1.002685546875, 0.197265625000, -7.132812500000, 18.617187500000, 1.156250000000, 1490695565
-0.010742187500, -0.873779296875, 0.200439453125, -14.476562500000, 20.328125000000, 2.562500000000, 1490695565
-0.010742187500, -0.873779296875, 0.200439453125, -14.476562500000, 20.328125000000, 2.562500000000, 1490695565
-0.010742187500, -0.873779296875, 0.200439453125, -14.476562500000, 20.328125000000, 2.562500000000, 1490695565
-0.128662109375, -1.003906250000, 0.098388671875, -12.875000000000, 18.164062500000, 4.031250000000, 1490695565
-0.128662109375, -1.003906250000, 0.098388671875, -12.875000000000, 18.164062500000, 4.031250000000, 1490695565
-0.128662109375, -1.003906250000, 0.098388671875, -12.875000000000, 18.164062500000, 4.031250000000, 1490695565
-0.188720703125, -1.010986328125, 0.203369140625, -3.562500000000, 14.375000000000, 1.195312500000, 1490695565
-0.188720703125, -1.010986328125, 0.203369140625, -3.562500000000, 14.375000000000, 1.195312500000, 1490695565
-0.188720703125, -1.010986328125, 0.203369140625, -3.562500000000, 14.375000000000, 1.195312500000, 1490695565
-0.139404296875, -0.915771484375, 0.194580078125, -4.757812500000, 9.226562500000, 1.953125000000, 1490695565
-0.139404296875, -0.915771484375, 0.194580078125, -4.757812500000, 9.226562500000, 1.953125000000, 1490695565
0.006591796875, -0.947509765625, 0.176513671875, -8.679687500000, 1.187500000000, -2.203125000000, 1490695565
0.006591796875, -0.947509765625, 0.176513671875, -8.679687500000, 1.187500000000, -2.203125000000, 1490695565
0.006591796875, -0.947509765625, 0.176513671875, -8.679687500000, 1.187500000000, -2.203125000000, 1490695565
0.006591796875, -0.947509765625, 0.176513671875, -8.679687500000, 1.187500000000, -2.203125000000, 1490695565
-0.141601562500, -0.913574218750, 0.163330078125, -8.421875000000, 4.148437500000, -2.984375000000, 1490695565
-0.141601562500, -0.913574218750, 0.163330078125, -8.421875000000, 4.148437500000, -2.984375000000, 1490695565
-0.141601562500, -0.913574218750, 0.163330078125, -8.421875000000, 4.148437500000, -2.984375000000, 1490695565
-0.141601562500, -0.913574218750, 0.163330078125, -8.421875000000, 4.148437500000, -2.984375000000, 1490695565
-0.063232421875, -1.000732421875, 0.197753906250, -2.953125000000, 2.187500000000, -2.195312500000, 1490695565
-0.063232421875, -1.000732421875, 0.197753906250, -2.953125000000, 2.187500000000, -2.195312500000, 1490695565
-0.063232421875, -1.000732421875, 0.197753906250, -2.953125000000, 2.187500000000, -2.195312500000, 1490695565
-0.041503906250, -0.908691406250, 0.202880859375, -2.710937500000, -0.328125000000, 0.062500000000, 1490695565
-0.105712890625, -0.919677734375, 0.162353515625, -3.226562500000, -1.882812500000, -0.695312500000, 1490695565
-0.105712890625, -0.919677734375, 0.162353515625, -3.226562500000, -1.882812500000, -0.695312500000, 1490695565
-0.105712890625, -0.919677734375, 0.162353515625, -3.226562500000, -1.882812500000, -0.695312500000, 1490695565
-0.105712890625, -0.919677734375, 0.162353515625, -3.226562500000, -1.882812500000, -0.695312500000, 1490695565
-0.105712890625, -0.919677734375, 0.162353515625, -3.226562500000, -1.882812500000, -0.695312500000, 1490695565
-0.105712890625, -0.919677734375, 0.162353515625, -3.226562500000, -1.882812500000, -0.695312500000, 1490695565
0.019042968750, -1.145019531250, 0.313232421875, -4.546875000000, 0.703125000000, -4.062500000000, 1490695565
0.019042968750, -1.145019531250, 0.313232421875, -4.546875000000, 0.703125000000, -4.062500000000, 1490695565
0.019042968750, -1.145019531250, 0.313232421875, -4.546875000000, 0.703125000000, -4.062500000000, 1490695565
0.019042968750, -1.145019531250, 0.313232421875, -4.546875000000, 0.703125000000, -4.062500000000, 1490695565
0.019042968750, -1.145019531250, 0.313232421875, -4.546875000000, 0.703125000000, -4.062500000000, 1490695565
0.019042968750, -1.145019531250, 0.313232421875, -4.546875000000, 0.703125000000, -4.062500000000, 1490695565
0.019042968750, -1.145019531250, 0.313232421875, -4.546875000000, 0.703125000000, -4.062500000000, 1490695565
-0.126464843750, -0.870117187500, 0.206298828125, -2.937500000000, -0.710937500000, -2.710937500000, 1490695565
-0.126464843750, -0.870117187500, 0.206298828125, -2.937500000000, -0.710937500000, -2.710937500000, 1490695565
-0.126464843750, -0.870117187500, 0.206298828125, -2.937500000000, -0.710937500000, -2.710937500000, 1490695565
-0.130126953125, -0.910644531250, 0.184326171875, 0.437500000000, 1.093750000000, 2.359375000000, 1490695565
-0.130126953125, -0.910644531250, 0.184326171875, 0.437500000000, 1.093750000000, 2.359375000000, 1490695565
-0.130126953125, -0.910644531250, 0.184326171875, 0.437500000000, 1.093750000000, 2.359375000000, 1490695565
-0.069335937500, -0.908203125000, 0.191406250000, -2.242187500000, -2.226562500000, 0.156250000000, 1490695565
-0.069335937500, -0.908203125000, 0.191406250000, -2.242187500000, -2.226562500000, 0.156250000000, 1490695565
-0.069335937500, -0.908203125000, 0.191406250000, -2.242187500000, -2.226562500000, 0.156250000000, 1490695565
-0.087890625000, -0.922851562500, 0.162841796875, -6.382812500000, -0.460937500000, -1.296875000000, 1490695566
-0.087890625000, -0.922851562500, 0.162841796875, -6.382812500000, -0.460937500000, -1.296875000000, 1490695566
-0.087890625000, -0.922851562500, 0.162841796875, -6.382812500000, -0.460937500000, -1.296875000000, 1490695566
0.009277343750, -0.929931640625, 0.170654296875, -4.421875000000, -0.984375000000, 0.203125000000, 1490695566
0.009277343750, -0.929931640625, 0.170654296875, -4.421875000000, -0.984375000000, 0.203125000000, 1490695566
0.009277343750, -0.929931640625, 0.170654296875, -4.421875000000, -0.984375000000, 0.203125000000, 1490695566
0.009277343750, -0.929931640625, 0.170654296875, -4.421875000000, -0.984375000000, 0.203125000000, 1490695566
0.071777343750, -0.989990234375, 0.205566406250, -0.015625000000, 4.710937500000, -2.804687500000, 1490695566
0.071777343750, -0.989990234375, 0.205566406250, -0.015625000000, 4.710937500000, -2.804687500000, 1490695566
0.071777343750, -0.989990234375, 0.205566406250, -0.015625000000, 4.710937500000, -2.804687500000, 1490695566
-0.088378906250, -1.001953125000, 0.207519531250, 1.437500000000, 3.851562500000, 0.265625000000, 1490695566
-0.088378906250, -1.001953125000, 0.207519531250, 1.437500000000, 3.851562500000, 0.265625000000, 1490695566
-0.088378906250, -1.001953125000, 0.207519531250, 1.437500000000, 3.851562500000, 0.265625000000, 1490695566
-0.151123046875, -0.977294921875, 0.203857421875, -2.359375000000, 4.867187500000, -1.289062500000, 1490695566
-0.151123046875, -0.977294921875, 0.203857421875, -2.359375000000, 4.867187500000, -1.289062500000, 1490695566
-0.151123046875, -0.977294921875, 0.203857421875, -2.359375000000, 4.867187500000, -1.289062500000, 1490695566
0.015869140625, -0.995117187500, 0.205322265625, -8.484375000000, 2.710937500000, -1.046875000000, 1490695566
0.015869140625, -0.995117187500, 0.205322265625, -8.484375000000, 2.710937500000, -1.046875000000, 1490695566
0.015869140625, -0.995117187500, 0.205322265625, -8.484375000000, 2.710937500000, -1.046875000000, 1490695566
-0.063964843750, -0.987060546875, 0.216064453125, -7.359375000000, 1.015625000000, -1.718750000000, 1490695566
-0.134521484375, -0.919433593750, 0.161621093750, -10.328125000000, 1.554687500000, -1.851562500000, 1490695566
-0.134521484375, -0.919433593750, 0.161621093750, -10.328125000000, 1.554687500000, -1.851562500000, 1490695566
-0.012451171875, -1.026123046875, 0.250976562500, -8.351562500000, 4.609375000000, -2.203125000000, 1490695566
0.030273437500, -1.064941406250, 0.181152343750, -3.843750000000, 4.203125000000, -0.726562500000, 1490695566
0.030273437500, -1.064941406250, 0.181152343750, -3.843750000000, 4.203125000000, -0.726562500000, 1490695566
0.030273437500, -1.064941406250, 0.181152343750, -3.843750000000, 4.203125000000, -0.726562500000, 1490695566
0.008300781250, -1.031982421875, 0.153564453125, -4.000000000000, 3.062500000000, -1.523437500000, 1490695566
0.008300781250, -1.031982421875, 0.153564453125, -4.000000000000, 3.062500000000, -1.523437500000, 1490695566
0.008300781250, -1.031982421875, 0.153564453125, -4.000000000000, 3.062500000000, -1.523437500000, 1490695566
0.006835937500, -0.979736328125, 0.179931640625, -5.289062500000, 3.968750000000, -4.937500000000, 1490695566
0.006835937500, -0.979736328125, 0.179931640625, -5.289062500000, 3.968750000000, -4.937500000000, 1490695566
0.006835937500, -0.979736328125, 0.179931640625, -5.289062500000, 3.968750000000, -4.937500000000, 1490695566
0.006835937500, -0.979736328125, 0.179931640625, -5.289062500000, 3.968750000000, -4.937500000000, 1490695566
