ACC_X,ACC_Y,ACC_Z,G_X,G_Y,G_Z,Unix Time
-0.046142578125, -0.277832031250, 0.975097656250, -4.382812500000, -2.687500000000, -4.343750000000, 1490694125
-0.046142578125, -0.277832031250, 0.975097656250, -4.382812500000, -2.687500000000, -4.343750000000, 1490694125
-0.046142578125, -0.277832031250, 0.975097656250, -4.382812500000, -2.687500000000, -4.343750000000, 1490694125
-0.086425781250, -0.222656250000, 1.023681640625, -3.734375000000, -2.648437500000, -4.101562500000, 1490694125
-0.086425781250, -0.222656250000, 1.023681640625, -3.734375000000, -2.648437500000, -4.101562500000, 1490694125
-0.035156250000, -0.243652343750, 1.025390625000, -3.554687500000, 2.132812500000, -3.109375000000, 1490694125
-0.035156250000, -0.243652343750, 1.025390625000, -3.554687500000, 2.132812500000, -3.109375000000, 1490694125
-0.035156250000, -0.243652343750, 1.025390625000, -3.554687500000, 2.132812500000, -3.109375000000, 1490694125
-0.035156250000, -0.243652343750, 1.025390625000, -3.554687500000, 2.132812500000, -3.109375000000, 1490694125
-0.151611328125, -0.278564453125, 1.020263671875, -3.835937500000, -0.242187500000, -4.703125000000, 1490694125
-0.151611328125, -0.278564453125, 1.020263671875, -3.835937500000, -0.242187500000, -4.703125000000, 1490694125
-0.151611328125, -0.278564453125, 1.020263671875, -3.835937500000, -0.242187500000, -4.703125000000, 1490694125
-0.084228515625, -0.317138671875, 1.008056640625, -3.195312500000, -2.109375000000, -3.507812500000, 1490694125
-0.084228515625, -0.317138671875, 1.008056640625, -3.195312500000, -2.109375000000, -3.507812500000, 1490694125
0.002197265625, -0.247802734375, 0.908691406250, -4.304687500000, -0.304687500000, -3.257812500000, 1490694125
-0.086425781250, -0.202880859375, 0.964111328125, -4.304687500000, -0.304687500000, -3.257812500000, 1490694125
-0.086425781250, -0.202880859375, 0.964111328125, -4.304687500000, -0.304687500000, -3.257812500000, 1490694125
-0.086425781250, -0.202880859375, 0.964111328125, -4.304687500000, -0.304687500000, -3.257812500000, 1490694125
-0.086425781250, -0.202880859375, 0.964111328125, -4.304687500000, -0.304687500000, -3.257812500000, 1490694125
-0.144775390625, -0.268554687500, 0.985839843750, -3.437500000000, 0.015625000000, -1.296875000000, 1490694125
-0.144775390625, -0.268554687500, 0.985839843750, -3.437500000000, 0.015625000000, -1.296875000000, 1490694125
-0.144775390625, -0.268554687500, 0.985839843750, -3.437500000000, 0.015625000000, -1.296875000000, 1490694125
0.015869140625, -0.156494140625, 1.024414062500, -4.710937500000, -0.921875000000, -3.593750000000, 1490694125
0.015869140625, -0.156494140625, 1.024414062500, -4.710937500000, -0.921875000000, -3.593750000000, 1490694125
0.015869140625, -0.156494140625, 1.024414062500, -4.710937500000, -0.921875000000, -3.593750000000, 1490694125
0.015869140625, -0.156494140625, 1.024414062500, -4.710937500000, -0.921875000000, -3.593750000000, 1490694125
0.011474609375, -0.281250000000, 1.079589843750, -1.179687500000, -0.906250000000, -3.570312500000, 1490694125
0.011474609375, -0.281250000000, 1.079589843750, -1.179687500000, -0.906250000000, -3.570312500000, 1490694125
0.011474609375, -0.281250000000, 1.079589843750, -1.179687500000, -0.906250000000, -3.570312500000, 1490694125
-0.054199218750, -0.226562500000, 1.024414062500, -1.945312500000, -0.039062500000, -6.531250000000, 1490694126
-0.054199218750, -0.226562500000, 1.024414062500, -1.945312500000, -0.039062500000, -6.531250000000, 1490694126
-0.054199218750, -0.226562500000, 1.024414062500, -1.945312500000, -0.039062500000, -6.531250000000, 1490694126
-0.136230468750, -0.220947265625, 0.998291015625, -5.000000000000, 0.234375000000, -1.617187500000, 1490694126
-0.136230468750, -0.220947265625, 0.998291015625, -5.000000000000, 0.234375000000, -1.617187500000, 1490694126
-0.136230468750, -0.220947265625, 0.998291015625, -5.000000000000, 0.234375000000, -1.617187500000, 1490694126
-0.111328125000, -0.212158203125, 1.021972656250, -1.476562500000, 0.304687500000, -3.507812500000, 1490694126
-0.111328125000, -0.212158203125, 1.021972656250, -1.476562500000, 0.304687500000, -3.507812500000, 1490694126
-0.111328125000, -0.212158203125, 1.021972656250, -1.476562500000, 0.304687500000, -3.507812500000, 1490694126
-0.000976562500, -0.268798828125, 0.968261718750, -3.156250000000, 0.414062500000, -1.085937500000, 1490694126
-0.000976562500, -0.268798828125, 0.968261718750, -3.156250000000, 0.414062500000, -1.085937500000, 1490694126
-0.000976562500, -0.268798828125, 0.968261718750, -3.156250000000, 0.414062500000, -1.085937500000, 1490694126
-0.000976562500, -0.268798828125, 0.968261718750, -3.156250000000, 0.414062500000, -1.085937500000, 1490694126
-0.047851562500, -0.273681640625, 0.932617187500, -3.195312500000, -2.054687500000, -3.960937500000, 1490694126
-0.047851562500, -0.273681640625, 0.932617187500, -3.195312500000, -2.054687500000, -3.960937500000, 1490694126
-0.047851562500, -0.273681640625, 0.932617187500, -3.195312500000, -2.054687500000, -3.960937500000, 1490694126
-0.068603515625, -0.317138671875, 1.079345703125, -3.562500000000, 0.898437500000, -3.156250000000, 1490694126
-0.068603515625, -0.317138671875, 1.079345703125, -3.562500000000, 0.898437500000, -3.156250000000, 1490694126
-0.068603515625, -0.317138671875, 1.079345703125, -3.562500000000, 0.898437500000, -3.156250000000, 1490694126
-0.068603515625, -0.317138671875, 1.079345703125, -3.562500000000, 0.898437500000, -3.156250000000, 1490694126
-0.068603515625, -0.317138671875, 1.079345703125, -3.562500000000, 0.898437500000, -3.156250000000, 1490694126
-0.068603515625, -0.317138671875, 1.079345703125, -3.562500000000, 0.898437500000, -3.156250000000, 1490694126
-0.068603515625, -0.317138671875, 1.079345703125, -3.562500000000, 0.898437500000, -3.156250000000, 1490694126
-0.151367187500, -0.244873046875, 1.069824218750, -3.765625000000, 0.726562500000, -3.343750000000, 1490694126
-0.151367187500, -0.244873046875, 1.069824218750, -3.765625000000, 0.726562500000, -3.343750000000, 1490694126
-0.151367187500, -0.244873046875, 1.069824218750, -3.765625000000, 0.726562500000, -3.343750000000, 1490694126
-0.151367187500, -0.244873046875, 1.069824218750, -3.765625000000, 0.726562500000, -3.343750000000, 1490694126
-0.066650390625, -0.226074218750, 1.006103515625, -3.804687500000, -2.054687500000, -4.273437500000, 1490694126
-0.148925781250, -0.235595703125, 0.933349609375, -3.804687500000, -2.054687500000, -4.273437500000, 1490694126
-0.148925781250, -0.235595703125, 0.933349609375, -3.804687500000, -2.054687500000, -4.273437500000, 1490694126
-0.148925781250, -0.235595703125, 0.933349609375, -3.804687500000, -2.054687500000, -4.273437500000, 1490694126
-0.148925781250, -0.235595703125, 0.933349609375, -3.804687500000, -2.054687500000, -4.273437500000, 1490694126
-0.032470703125, -0.337158203125, 1.001953125000, -3.976562500000, 0.000000000000, -3.070312500000, 1490694126
-0.032470703125, -0.337158203125, 1.001953125000, -3.976562500000, 0.000000000000, -3.070312500000, 1490694126
-0.032470703125, -0.337158203125, 1.001953125000, -3.976562500000, 0.000000000000, -3.070312500000, 1490694126
-0.032470703125, -0.337158203125, 1.001953125000, -3.976562500000, 0.000000000000, -3.070312500000, 1490694126
-0.043701171875, -0.243896484375, 0.972656250000, -3.039062500000, 0.281250000000, -3.132812500000, 1490694126
-0.043701171875, -0.243896484375, 0.972656250000, -3.039062500000, 0.281250000000, -3.132812500000, 1490694126
-0.043701171875, -0.243896484375, 0.972656250000, -3.039062500000, 0.281250000000, -3.132812500000, 1490694126
0.002441406250, -0.243652343750, 0.925537109375, -4.796875000000, -0.328125000000, -1.195312500000, 1490694126
0.002441406250, -0.243652343750, 0.925537109375, -4.796875000000, -0.328125000000, -1.195312500000, 1490694126
0.002441406250, -0.243652343750, 0.925537109375, -4.796875000000, -0.328125000000, -1.195312500000, 1490694126
0.002441406250, -0.243652343750, 0.925537109375, -4.796875000000, -0.328125000000, -1.195312500000, 1490694126
0.002441406250, -0.243652343750, 0.925537109375, -4.796875000000, -0.328125000000, -1.195312500000, 1490694126
0.002441406250, -0.243652343750, 0.925537109375, -4.796875000000, -0.328125000000, -1.195312500000, 1490694126
-0.056152343750, -0.162841796875, 1.085937500000, -4.257812500000, -2.140625000000, -4.796875000000, 1490694126
-0.056152343750, -0.162841796875, 1.085937500000, -4.257812500000, -2.140625000000, -4.796875000000, 1490694126
-0.056152343750, -0.162841796875, 1.085937500000, -4.257812500000, -2.140625000000, -4.796875000000, 1490694126
-0.056152343750, -0.162841796875, 1.085937500000, -4.257812500000, -2.140625000000, -4.796875000000, 1490694126
-0.056640625000, -0.339599609375, 1.009033203125, -1.828125000000, -0.484375000000, -2.789062500000, 1490694126
-0.056640625000, -0.339599609375, 1.009033203125, -1.828125000000, -0.484375000000, -2.789062500000, 1490694126
-0.056640625000, -0.339599609375, 1.009033203125, -1.828125000000, -0.484375000000, -2.789062500000, 1490694126
-0.133300781250, -0.177490234375, 0.971923828125, -4.195312500000, 0.359375000000, -3.859375000000, 1490694126
-0.133300781250, -0.177490234375, 0.971923828125, -4.195312500000, 0.359375000000, -3.859375000000, 1490694126
-0.133300781250, -0.177490234375, 0.971923828125, -4.195312500000, 0.359375000000, -3.859375000000, 1490694126
0.018554687500, -0.275878906250, 0.927001953125, -3.390625000000, 2.421875000000, -3.500000000000, 1490694126
0.018554687500, -0.275878906250, 0.927001953125, -3.390625000000, 2.421875000000, -3.500000000000, 1490694126
0.018554687500, -0.275878906250, 0.927001953125, -3.390625000000, 2.421875000000, -3.500000000000, 1490694126
-0.050048828125, -0.271972656250, 1.063232421875, -3.421875000000, 0.132812500000, -1.765625000000, 1490694126
-0.085205078125, -0.241699218750, 0.924804687500, -4.296875000000, -0.257812500000, -4.867187500000, 1490694126
-0.132568359375, -0.279541015625, 0.969970703125, -3.187500000000, 0.382812500000, -1.835937500000, 1490694126
-0.132568359375, -0.279541015625, 0.969970703125, -3.187500000000, 0.382812500000, -1.835937500000, 1490694126
-0.132568359375, -0.279541015625, 0.969970703125, -3.187500000000, 0.382812500000, -1.835937500000, 1490694126
-0.132568359375, -0.279541015625, 0.969970703125, -3.187500000000, 0.382812500000, -1.835937500000, 1490694126
-0.132568359375, -0.279541015625, 0.969970703125, -3.187500000000, 0.382812500000, -1.835937500000, 1490694126
-0.138183593750, -0.246093750000, 0.860839843750, -4.859375000000, 2.421875000000, -1.828125000000, 1490694127
-0.138183593750, -0.246093750000, 0.860839843750, -4.859375000000, 2.421875000000, -1.828125000000, 1490694127
-0.079589843750, -0.234130859375, 1.070068359375, -3.726562500000, -0.914062500000, -3.984375000000, 1490694127
-0.065429687500, -0.248779296875, 1.010742187500, -4.375000000000, -0.984375000000, -4.843750000000, 1490694127
-0.065429687500, -0.248779296875, 1.010742187500, -4.375000000000, -0.984375000000, -4.843750000000, 1490694127
0.014404296875, -0.226074218750, 1.048583984375, -4.898437500000, 2.500000000000, -1.664062500000, 1490694127
0.014404296875, -0.226074218750, 1.048583984375, -4.898437500000, 2.500000000000, -1.664062500000, 1490694127
0.014404296875, -0.226074218750, 1.048583984375, -4.898437500000, 2.500000000000, -1.664062500000, 1490694127
0.014404296875, -0.226074218750, 1.048583984375, -4.898437500000, 2.500000000000, -1.664062500000, 1490694127
0.014404296875, -0.226074218750, 1.048583984375, -4.898437500000, 2.500000000000, -1.664062500000, 1490694127
0.014404296875, -0.226074218750, 1.048583984375, -4.898437500000, 2.500000000000, -1.664062500000, 1490694127
0.014404296875, -0.226074218750, 1.048583984375, -4.898437500000, 2.500000000000, -1.664062500000, 1490694127
0.014404296875, -0.226074218750, 1.048583984375, -4.898437500000, 2.500000000000, -1.664062500000, 1490694127
-0.076416015625, -0.318359375000, 1.020751953125, -3.679687500000, -0.476562500000, -3.195312500000, 1490694127
-0.076416015625, -0.318359375000, 1.020751953125, -3.679687500000, -0.476562500000, -3.195312500000, 1490694127
-0.076416015625, -0.318359375000, 1.020751953125, -3.679687500000, -0.476562500000, -3.195312500000, 1490694127
-0.069824218750, -0.244628906250, 1.021240234375, -3.179687500000, 0.296875000000, -4.304687500000, 1490694127
-0.069824218750, -0.244628906250, 1.021240234375, -3.179687500000, 0.296875000000, -4.304687500000, 1490694127
-0.069824218750, -0.244628906250, 1.021240234375, -3.179687500000, 0.296875000000, -4.304687500000, 1490694127
-0.090820312500, -0.314453125000, 1.005859375000, -3.835937500000, -2.234375000000, -4.953125000000, 1490694127
-0.090820312500, -0.314453125000, 1.005859375000, -3.835937500000, -2.234375000000, -4.953125000000, 1490694127
-0.090820312500, -0.314453125000, 1.005859375000, -3.835937500000, -2.234375000000, -4.953125000000, 1490694127
-0.090820312500, -0.314453125000, 1.005859375000, -3.835937500000, -2.234375000000, -4.953125000000, 1490694127
-0.047363281250, -0.254882812500, 1.003417968750, -1.867187500000, -1.132812500000, -4.476562500000, 1490694127
-0.047363281250, -0.254882812500, 1.003417968750, -1.867187500000, -1.132812500000, -4.476562500000, 1490694127
-0.047363281250, -0.254882812500, 1.003417968750, -1.867187500000, -1.132812500000, -4.476562500000, 1490694127
-0.041503906250, -0.279541015625, 0.994384765625, -4.476562500000, 2.093750000000, -3.625000000000, 1490694127
-0.041503906250, -0.279541015625, 0.994384765625, -4.476562500000, 2.093750000000, -3.625000000000, 1490694127
-0.041503906250, -0.279541015625, 0.994384765625, -4.476562500000, 2.093750000000, -3.625000000000, 1490694127
0.037597656250, -0.317626953125, 1.011962890625, -1.578125000000, -2.156250000000, -1.609375000000, 1490694127
0.037597656250, -0.317626953125, 1.011962890625, -1.578125000000, -2.156250000000, -1.609375000000, 1490694127
0.037597656250, -0.317626953125, 1.011962890625, -1.578125000000, -2.156250000000, -1.609375000000, 1490694127
-0.065673828125, -0.222900390625, 0.961181640625, -4.335937500000, 0.257812500000, -4.007812500000, 1490694127
-0.065673828125, -0.222900390625, 0.961181640625, -4.335937500000, 0.257812500000, -4.007812500000, 1490694127
-0.065673828125, -0.222900390625, 0.961181640625, -4.335937500000, 0.257812500000, -4.007812500000, 1490694127
-0.065673828125, -0.222900390625, 0.961181640625, -4.335937500000, 0.257812500000, -4.007812500000, 1490694127
0.000732421875, -0.315673828125, 1.031738281250, -3.328125000000, -0.039062500000, -1.468750000000, 1490694127
0.000732421875, -0.315673828125, 1.031738281250, -3.328125000000, -0.039062500000, -1.468750000000, 1490694127
0.000732421875, -0.315673828125, 1.031738281250, -3.328125000000, -0.039062500000, -1.468750000000, 1490694127
-0.077636718750, -0.166015625000, 0.984619140625, -4.531250000000, 0.671875000000, -6.500000000000, 1490694127
-0.077636718750, -0.166015625000, 0.984619140625, -4.531250000000, 0.671875000000, -6.500000000000, 1490694127
-0.019287109375, -0.248046875000, 0.976318359375, -3.523437500000, -0.250000000000, -1.039062500000, 1490694127
-0.019287109375, -0.248046875000, 0.976318359375, -3.523437500000, -0.250000000000, -1.039062500000, 1490694127
-0.066406250000, -0.268310546875, 1.004394531250, -3.335937500000, -0.140625000000, -4.109375000000, 1490694127
-0.066406250000, -0.268310546875, 1.004394531250, -3.335937500000, -0.140625000000, -4.109375000000, 1490694127
-0.066406250000, -0.268310546875, 1.004394531250, -3.335937500000, -0.140625000000, -4.109375000000, 1490694127
-0.066406250000, -0.268310546875, 1.004394531250, -3.335937500000, -0.140625000000, -4.109375000000, 1490694127
-0.066406250000, -0.268310546875, 1.004394531250, -3.335937500000, -0.140625000000, -4.109375000000, 1490694127
-0.051269531250, -0.245117187500, 1.008544921875, -6.140625000000, 0.414062500000, 0.523437500000, 1490694127
-0.035156250000, -0.185302734375, 0.978027343750, -6.109375000000, 0.242187500000, -4.375000000000, 1490694127
-0.035156250000, -0.185302734375, 0.978027343750, -6.109375000000, 0.242187500000, -4.375000000000, 1490694127
-0.035156250000, -0.185302734375, 0.978027343750, -6.109375000000, 0.242187500000, -4.375000000000, 1490694127
-0.028320312500, -0.168945312500, 1.023925781250, -6.078125000000, 0.937500000000, -4.882812500000, 1490694127
-0.028320312500, -0.168945312500, 1.023925781250, -6.078125000000, 0.937500000000, -4.882812500000, 1490694127
-0.028320312500, -0.168945312500, 1.023925781250, -6.078125000000, 0.937500000000, -4.882812500000, 1490694127
-0.034179687500, -0.313720703125, 0.972167968750, -4.343750000000, 2.468750000000, -4.468750000000, 1490694127
-0.034179687500, -0.313720703125, 0.972167968750, -4.343750000000, 2.468750000000, -4.468750000000, 1490694127
-0.034179687500, -0.313720703125, 0.972167968750, -4.343750000000, 2.468750000000, -4.468750000000, 1490694127
-0.082275390625, -0.244140625000, 0.984863281250, -4.710937500000, 0.148437500000, -3.507812500000, 1490694127
-0.082275390625, -0.244140625000, 0.984863281250, -4.710937500000, 0.148437500000, -3.507812500000, 1490694127
-0.082275390625, -0.244140625000, 0.984863281250, -4.710937500000, 0.148437500000, -3.507812500000, 1490694127
-0.082275390625, -0.244140625000, 0.984863281250, -4.710937500000, 0.148437500000, -3.507812500000, 1490694127
-0.100097656250, -0.325195312500, 1.027343750000, -3.109375000000, -2.367187500000, -3.445312500000, 1490694127
-0.100097656250, -0.325195312500, 1.027343750000, -3.109375000000, -2.367187500000, -3.445312500000, 1490694127
-0.100097656250, -0.325195312500, 1.027343750000, -3.109375000000, -2.367187500000, -3.445312500000, 1490694127
-0.096191406250, -0.323486328125, 0.976562500000, -1.156250000000, 0.570312500000, -6.789062500000, 1490694127
-0.096191406250, -0.323486328125, 0.976562500000, -1.156250000000, 0.570312500000, -6.789062500000, 1490694127
-0.096191406250, -0.323486328125, 0.976562500000, -1.156250000000, 0.570312500000, -6.789062500000, 1490694127
-0.071289062500, -0.264648437500, 0.987304687500, -3.531250000000, 2.148437500000, -3.539062500000, 1490694128
-0.071289062500, -0.264648437500, 0.987304687500, -3.531250000000, 2.148437500000, -3.539062500000, 1490694128
-0.071289062500, -0.264648437500, 0.987304687500, -3.531250000000, 2.148437500000, -3.539062500000, 1490694128
-0.039306640625, -0.251220703125, 1.004882812500, -3.414062500000, 0.140625000000, -1.632812500000, 1490694128
-0.039306640625, -0.251220703125, 1.004882812500, -3.414062500000, 0.140625000000, -1.632812500000, 1490694128
-0.039306640625, -0.251220703125, 1.004882812500, -3.414062500000, 0.140625000000, -1.632812500000, 1490694128
-0.039306640625, -0.251220703125, 1.004882812500, -3.414062500000, 0.140625000000, -1.632812500000, 1490694128
-0.147949218750, -0.329589843750, 0.996582031250, -3.617187500000, 0.789062500000, -3.882812500000, 1490694128
-0.147949218750, -0.329589843750, 0.996582031250, -3.617187500000, 0.789062500000, -3.882812500000, 1490694128
-0.147949218750, -0.329589843750, 0.996582031250, -3.617187500000, 0.789062500000, -3.882812500000, 1490694128
-0.025146484375, -0.267822265625, 1.038085937500, -3.921875000000, -0.281250000000, -4.859375000000, 1490694128
-0.025146484375, -0.267822265625, 1.038085937500, -3.921875000000, -0.281250000000, -4.859375000000, 1490694128
-0.025146484375, -0.267822265625, 1.038085937500, -3.921875000000, -0.281250000000, -4.859375000000, 1490694128
-0.067382812500, -0.264160156250, 1.002197265625, -3.210937500000, -2.179687500000, -3.203125000000, 1490694128
-0.067382812500, -0.264160156250, 1.002197265625, -3.210937500000, -2.179687500000, -3.203125000000, 1490694128
-0.067382812500, -0.264160156250, 1.002197265625, -3.210937500000, -2.179687500000, -3.203125000000, 1490694128
-0.034667968750, -0.216064453125, 0.915039062500, -3.828125000000, -0.875000000000, -3.382812500000, 1490694128
-0.034667968750, -0.216064453125, 0.915039062500, -3.828125000000, -0.875000000000, -3.382812500000, 1490694128
-0.034667968750, -0.216064453125, 0.915039062500, -3.828125000000, -0.875000000000, -3.382812500000, 1490694128
-0.034667968750, -0.216064453125, 0.915039062500, -3.828125000000, -0.875000000000, -3.382812500000, 1490694128
-0.125000000000, -0.255371093750, 1.017333984375, -4.859375000000, -2.070312500000, -4.328125000000, 1490694128
-0.125000000000, -0.255371093750, 1.017333984375, -4.859375000000, -2.070312500000, -4.328125000000, 1490694128
-0.125000000000, -0.255371093750, 1.017333984375, -4.859375000000, -2.070312500000, -4.328125000000, 1490694128
-0.155761718750, -0.327636718750, 1.067382812500, -4.648437500000, -0.445312500000, -4.617187500000, 1490694128
-0.155761718750, -0.327636718750, 1.067382812500, -4.648437500000, -0.445312500000, -4.617187500000, 1490694128
-0.155761718750, -0.327636718750, 1.067382812500, -4.648437500000, -0.445312500000, -4.617187500000, 1490694128
-0.080810546875, -0.292236328125, 1.021240234375, -4.679687500000, -0.921875000000, -4.859375000000, 1490694128
-0.080810546875, -0.292236328125, 1.021240234375, -4.679687500000, -0.921875000000, -4.859375000000, 1490694128
-0.080810546875, -0.292236328125, 1.021240234375, -4.679687500000, -0.921875000000, -4.859375000000, 1490694128
-0.080810546875, -0.292236328125, 1.021240234375, -4.679687500000, -0.921875000000, -4.859375000000, 1490694128
-0.080810546875, -0.292236328125, 1.021240234375, -4.679687500000, -0.921875000000, -4.859375000000, 1490694128
-0.080810546875, -0.292236328125, 1.021240234375, -4.679687500000, -0.921875000000, -4.859375000000, 1490694128
-0.031982421875, -0.284667968750, 1.010009765625, -3.625000000000, 0.968750000000, -1.226562500000, 1490694128
-0.135009765625, -0.245117187500, 1.064941406250, -4.601562500000, 0.851562500000, -4.851562500000, 1490694128
-0.135009765625, -0.245117187500, 1.064941406250, -4.601562500000, 0.851562500000, -4.851562500000, 1490694128
-0.135009765625, -0.245117187500, 1.064941406250, -4.601562500000, 0.851562500000, -4.851562500000, 1490694128
-0.110839843750, -0.249755859375, 0.970214843750, -3.875000000000, -0.968750000000, -1.257812500000, 1490694128
-0.110839843750, -0.249755859375, 0.970214843750, -3.875000000000, -0.968750000000, -1.257812500000, 1490694128
-0.110839843750, -0.249755859375, 0.970214843750, -3.875000000000, -0.968750000000, -1.257812500000, 1490694128
-0.065185546875, -0.231933593750, 0.929687500000, -6.421875000000, -0.578125000000, -2.890625000000, 1490694128
-0.034912109375, -0.256591796875, 1.015136718750, -3.375000000000, -2.640625000000, -3.398437500000, 1490694128
-0.034912109375, -0.256591796875, 1.015136718750, -3.375000000000, -2.640625000000, -3.398437500000, 1490694128
-0.080078125000, -0.161865234375, 1.066406250000, -3.851562500000, 0.226562500000, -3.570312500000, 1490694128
-0.080078125000, -0.161865234375, 1.066406250000, -3.851562500000, 0.226562500000, -3.570312500000, 1490694128
-0.080078125000, -0.161865234375, 1.066406250000, -3.851562500000, 0.226562500000, -3.570312500000, 1490694128
-0.080078125000, -0.161865234375, 1.066406250000, -3.851562500000, 0.226562500000, -3.570312500000, 1490694128
-0.082031250000, -0.242919921875, 1.013183593750, -6.312500000000, 2.250000000000, -4.765625000000, 1490694128
-0.082031250000, -0.242919921875, 1.013183593750, -6.312500000000, 2.250000000000, -4.765625000000, 1490694128
-0.082031250000, -0.242919921875, 1.013183593750, -6.312500000000, 2.250000000000, -4.765625000000, 1490694128
-0.082031250000, -0.242919921875, 1.013183593750, -6.312500000000, 2.250000000000, -4.765625000000, 1490694128
-0.085449218750, -0.282714843750, 0.995361328125, -6.578125000000, 0.164062500000, -4.976562500000, 1490694128
-0.085449218750, -0.282714843750, 0.995361328125, -6.578125000000, 0.164062500000, -4.976562500000, 1490694128
-0.085449218750, -0.282714843750, 0.995361328125, -6.578125000000, 0.164062500000, -4.976562500000, 1490694128
-0.085449218750, -0.282714843750, 0.995361328125, -6.578125000000, 0.164062500000, -4.976562500000, 1490694128
-0.085449218750, -0.282714843750, 0.995361328125, -6.578125000000, 0.164062500000, -4.976562500000, 1490694128
-0.086425781250, -0.259277343750, 0.914550781250, -6.140625000000, 0.460937500000, -1.593750000000, 1490694128
-0.086425781250, -0.259277343750, 0.914550781250, -6.140625000000, 0.460937500000, -1.593750000000, 1490694128
-0.086425781250, -0.259277343750, 0.914550781250, -6.140625000000, 0.460937500000, -1.593750000000, 1490694128
0.007568359375, -0.247070312500, 1.031005859375, -4.179687500000, 0.796875000000, -1.750000000000, 1490694128
0.007568359375, -0.247070312500, 1.031005859375, -4.179687500000, 0.796875000000, -1.750000000000, 1490694128
0.007568359375, -0.247070312500, 1.031005859375, -4.179687500000, 0.796875000000, -1.750000000000, 1490694128
0.007568359375, -0.247070312500, 1.031005859375, -4.179687500000, 0.796875000000, -1.750000000000, 1490694128
-0.060791015625, -0.326904296875, 0.979492187500, -3.195312500000, 0.570312500000, -2.828125000000, 1490694128
-0.060791015625, -0.326904296875, 0.979492187500, -3.195312500000, 0.570312500000, -2.828125000000, 1490694128
-0.060791015625, -0.326904296875, 0.979492187500, -3.195312500000, 0.570312500000, -2.828125000000, 1490694128
-0.101318359375, -0.316894531250, 1.078369140625, -6.414062500000, 0.937500000000, -5.742187500000, 1490694128
-0.101318359375, -0.316894531250, 1.078369140625, -6.414062500000, 0.937500000000, -5.742187500000, 1490694128
-0.101318359375, -0.316894531250, 1.078369140625, -6.414062500000, 0.937500000000, -5.742187500000, 1490694128
-0.036865234375, -0.235595703125, 1.072021484375, -6.359375000000, -0.390625000000, -3.187500000000, 1490694129
-0.036865234375, -0.235595703125, 1.072021484375, -6.359375000000, -0.390625000000, -3.187500000000, 1490694129
-0.036865234375, -0.235595703125, 1.072021484375, -6.359375000000, -0.390625000000, -3.187500000000, 1490694129
-0.036865234375, -0.235595703125, 1.072021484375, -6.359375000000, -0.390625000000, -3.187500000000, 1490694129
0.021240234375, -0.228759765625, 0.915283203125, -3.320312500000, -0.492187500000, -5.046875000000, 1490694129
0.021240234375, -0.228759765625, 0.915283203125, -3.320312500000, -0.492187500000, -5.046875000000, 1490694129
0.021240234375, -0.228759765625, 0.915283203125, -3.320312500000, -0.492187500000, -5.046875000000, 1490694129
-0.089843750000, -0.258544921875, 0.993164062500, -5.335937500000, 2.007812500000, -6.031250000000, 1490694129
-0.089843750000, -0.258544921875, 0.993164062500, -5.335937500000, 2.007812500000, -6.031250000000, 1490694129
-0.089843750000, -0.258544921875, 0.993164062500, -5.335937500000, 2.007812500000, -6.031250000000, 1490694129
-0.083740234375, -0.281494140625, 1.024169921875, -6.671875000000, -2.734375000000, -6.234375000000, 1490694129
-0.083740234375, -0.281494140625, 1.024169921875, -6.671875000000, -2.734375000000, -6.234375000000, 1490694129
-0.083740234375, -0.281494140625, 1.024169921875, -6.671875000000, -2.734375000000, -6.234375000000, 1490694129
-0.032714843750, -0.171142578125, 0.910644531250, 4.179687500000, 0.296875000000, -10.578125000000, 1490694129
-0.032714843750, -0.171142578125, 0.910644531250, 4.179687500000, 0.296875000000, -10.578125000000, 1490694129
-0.032714843750, -0.171142578125, 0.910644531250, 4.179687500000, 0.296875000000, -10.578125000000, 1490694129
-0.032714843750, -0.171142578125, 0.910644531250, 4.179687500000, 0.296875000000, -10.578125000000, 1490694129
-0.081298828125, -0.271972656250, 0.845703125000, 11.914062500000, -1.132812500000, -6.593750000000, 1490694129
-0.081298828125, -0.271972656250, 0.845703125000, 11.914062500000, -1.132812500000, -6.593750000000, 1490694129
-0.081298828125, -0.271972656250, 0.845703125000, 11.914062500000, -1.132812500000, -6.593750000000, 1490694129
-0.012207031250, -0.053222656250, 0.961181640625, 32.320312500000, 1.226562500000, -4.210937500000, 1490694129
-0.012207031250, -0.053222656250, 0.961181640625, 32.320312500000, 1.226562500000, -4.210937500000, 1490694129
-0.012207031250, -0.053222656250, 0.961181640625, 32.320312500000, 1.226562500000, -4.210937500000, 1490694129
-0.146484375000, -0.513671875000, 1.153076171875, 57.390625000000, 14.156250000000, 4.109375000000, 1490694129
-0.053466796875, -0.490478515625, 1.035400390625, 54.343750000000, 13.953125000000, 4.265625000000, 1490694129
-0.053466796875, -0.490478515625, 1.035400390625, 54.343750000000, 13.953125000000, 4.265625000000, 1490694129
-0.053466796875, -0.490478515625, 1.035400390625, 54.343750000000, 13.953125000000, 4.265625000000, 1490694129
-0.103027343750, -0.434814453125, 0.976806640625, 45.742187500000, 14.671875000000, 4.023437500000, 1490694129
-0.139892578125, -0.461914062500, 1.131103515625, 45.398437500000, 13.304687500000, 8.992187500000, 1490694129
-0.139892578125, -0.461914062500, 1.131103515625, 45.398437500000, 13.304687500000, 8.992187500000, 1490694129
-0.139892578125, -0.461914062500, 1.131103515625, 45.398437500000, 13.304687500000, 8.992187500000, 1490694129
-0.139892578125, -0.461914062500, 1.131103515625, 35.351562500000, 11.867187500000, 3.031250000000, 1490694129
-0.034912109375, -0.531250000000, 1.008789062500, 34.570312500000, 11.296875000000, -4.195312500000, 1490694129
-0.034912109375, -0.531250000000, 1.008789062500, 34.570312500000, 11.296875000000, -4.195312500000, 1490694129
-0.034912109375, -0.531250000000, 1.008789062500, 34.570312500000, 11.296875000000, -4.195312500000, 1490694129
-0.034912109375, -0.531250000000, 1.008789062500, 34.570312500000, 11.296875000000, -4.195312500000, 1490694129
-0.126464843750, -0.460693359375, 1.018554687500, 35.726562500000, 9.242187500000, -5.562500000000, 1490694129
-0.126464843750, -0.460693359375, 1.018554687500, 35.726562500000, 9.242187500000, -5.562500000000, 1490694129
-0.126464843750, -0.460693359375, 1.018554687500, 35.726562500000, 9.242187500000, -5.562500000000, 1490694129
-0.215576171875, -0.471435546875, 0.845458984375, 44.281250000000, 2.203125000000, 2.976562500000, 1490694129
-0.215576171875, -0.471435546875, 0.845458984375, 44.281250000000, 2.203125000000, 2.976562500000, 1490694129
-0.215576171875, -0.471435546875, 0.845458984375, 44.281250000000, 2.203125000000, 2.976562500000, 1490694129
-0.215576171875, -0.471435546875, 0.845458984375, 44.281250000000, 2.203125000000, 2.976562500000, 1490694129
-0.115966796875, -0.504394531250, 0.919189453125, 29.570312500000, -8.703125000000, 6.265625000000, 1490694129
-0.115966796875, -0.504394531250, 0.919189453125, 29.570312500000, -8.703125000000, 6.265625000000, 1490694129
-0.115966796875, -0.504394531250, 0.919189453125, 29.570312500000, -8.703125000000, 6.265625000000, 1490694129
0.087646484375, -0.478027343750, 0.883056640625, 52.320312500000, -6.093750000000, 8.539062500000, 1490694129
0.087646484375, -0.478027343750, 0.883056640625, 52.320312500000, -6.093750000000, 8.539062500000, 1490694129
0.087646484375, -0.478027343750, 0.883056640625, 52.320312500000, -6.093750000000, 8.539062500000, 1490694129
-0.134765625000, -0.595214843750, 0.880859375000, 60.132812500000, 1.992187500000, 8.531250000000, 1490694129
-0.134765625000, -0.595214843750, 0.880859375000, 60.132812500000, 1.992187500000, 8.531250000000, 1490694129
-0.134765625000, -0.595214843750, 0.880859375000, 60.132812500000, 1.992187500000, 8.531250000000, 1490694129
-0.087646484375, -0.498535156250, 0.729736328125, 74.187500000000, 17.945312500000, 7.242187500000, 1490694129
-0.087646484375, -0.498535156250, 0.729736328125, 74.187500000000, 17.945312500000, 7.242187500000, 1490694129
-0.087646484375, -0.498535156250, 0.729736328125, 74.187500000000, 17.945312500000, 7.242187500000, 1490694129
-0.087646484375, -0.498535156250, 0.729736328125, 74.187500000000, 17.945312500000, 7.242187500000, 1490694129
-0.031738281250, -0.492675781250, 0.646728515625, 72.742187500000, 9.015625000000, 0.375000000000, 1490694129
-0.031738281250, -0.492675781250, 0.646728515625, 72.742187500000, 9.015625000000, 0.375000000000, 1490694129
-0.031738281250, -0.492675781250, 0.646728515625, 72.742187500000, 9.015625000000, 0.375000000000, 1490694129
-0.035888671875, -0.668945312500, 0.526367187500, 82.898437500000, 13.382812500000, 11.304687500000, 1490694129
-0.035888671875, -0.668945312500, 0.526367187500, 82.898437500000, 13.382812500000, 11.304687500000, 1490694129
-0.035888671875, -0.668945312500, 0.526367187500, 82.898437500000, 13.382812500000, 11.304687500000, 1490694129
0.012451171875, -0.723632812500, 0.418701171875, 93.812500000000, 17.726562500000, 11.710937500000, 1490694129
0.012451171875, -0.723632812500, 0.418701171875, 93.812500000000, 17.726562500000, 11.710937500000, 1490694129
0.012451171875, -0.723632812500, 0.418701171875, 93.812500000000, 17.726562500000, 11.710937500000, 1490694129
-0.069824218750, -0.808593750000, 0.418701171875, 76.773437500000, 9.039062500000, -2.312500000000, 1490694129
-0.069824218750, -0.808593750000, 0.418701171875, 76.773437500000, 9.039062500000, -2.312500000000, 1490694130
-0.069824218750, -0.808593750000, 0.418701171875, 76.773437500000, 9.039062500000, -2.312500000000, 1490694130
-0.069824218750, -0.808593750000, 0.418701171875, 76.773437500000, 9.039062500000, -2.312500000000, 1490694130
-0.092773437500, -0.945312500000, 0.410888671875, 74.523437500000, 15.015625000000, -0.601562500000, 1490694130
-0.092773437500, -0.945312500000, 0.410888671875, 74.523437500000, 15.015625000000, -0.601562500000, 1490694130
-0.092773437500, -0.945312500000, 0.410888671875, 74.523437500000, 15.015625000000, -0.601562500000, 1490694130
-0.109863281250, -0.908691406250, 0.459960937500, 60.578125000000, 17.445312500000, 4.007812500000, 1490694130
-0.109863281250, -0.908691406250, 0.459960937500, 60.578125000000, 17.445312500000, 4.007812500000, 1490694130
-0.109863281250, -0.908691406250, 0.459960937500, 60.578125000000, 17.445312500000, 4.007812500000, 1490694130
-0.137939453125, -0.921875000000, 0.416015625000, 51.460937500000, 20.093750000000, 4.070312500000, 1490694130
-0.042968750000, -0.932617187500, 0.306640625000, 23.695312500000, 15.437500000000, 5.265625000000, 1490694130
-0.042968750000, -0.932617187500, 0.306640625000, 23.695312500000, 15.437500000000, 5.265625000000, 1490694130
-0.042968750000, -0.932617187500, 0.306640625000, 23.695312500000, 15.437500000000, 5.265625000000, 1490694130
-0.042968750000, -0.932617187500, 0.306640625000, 23.695312500000, 15.437500000000, 5.265625000000, 1490694130
-0.071044921875, -0.859375000000, 0.339355468750, 34.796875000000, 14.023437500000, 9.109375000000, 1490694130
-0.056884765625, -1.000244140625, 0.321533203125, 44.164062500000, 16.125000000000, 7.359375000000, 1490694130
-0.079589843750, -0.997802734375, 0.265380859375, 22.453125000000, 0.000000000000, 11.843750000000, 1490694130
-0.079589843750, -0.997802734375, 0.265380859375, 22.453125000000, 0.000000000000, 11.843750000000, 1490694130
-0.079589843750, -0.997802734375, 0.265380859375, 22.453125000000, 0.000000000000, 11.843750000000, 1490694130
-0.079589843750, -0.997802734375, 0.265380859375, 22.453125000000, 0.000000000000, 11.843750000000, 1490694130
-0.079589843750, -0.997802734375, 0.265380859375, 22.453125000000, 0.000000000000, 11.843750000000, 1490694130
-0.079589843750, -0.997802734375, 0.265380859375, 22.453125000000, 0.000000000000, 11.843750000000, 1490694130
-0.064697265625, -0.987548828125, 0.399414062500, 31.117187500000, 6.539062500000, 9.765625000000, 1490694130
-0.020996093750, -1.067382812500, 0.218994140625, 37.507812500000, -1.039062500000, 13.296875000000, 1490694130
-0.020996093750, -1.067382812500, 0.218994140625, 37.507812500000, -1.039062500000, 13.296875000000, 1490694130
-0.020996093750, -1.067382812500, 0.218994140625, 37.507812500000, -1.039062500000, 13.296875000000, 1490694130
-0.020996093750, -1.067382812500, 0.218994140625, 37.507812500000, -1.039062500000, 13.296875000000, 1490694130
-0.020996093750, -1.067382812500, 0.218994140625, 37.507812500000, -1.039062500000, 13.296875000000, 1490694130
-0.020996093750, -1.067382812500, 0.218994140625, 37.507812500000, -1.039062500000, 13.296875000000, 1490694130
0.070312500000, -0.998046875000, 0.262695312500, 26.648437500000, -9.570312500000, 17.890625000000, 1490694130
0.070312500000, -0.998046875000, 0.262695312500, 26.648437500000, -9.570312500000, 17.890625000000, 1490694130
0.070312500000, -0.998046875000, 0.262695312500, 26.648437500000, -9.570312500000, 17.890625000000, 1490694130
-0.072998046875, -1.018554687500, 0.172119140625, 21.398437500000, -8.664062500000, 21.578125000000, 1490694130
-0.072998046875, -1.018554687500, 0.172119140625, 21.398437500000, -8.664062500000, 21.578125000000, 1490694130
0.075439453125, -0.969726562500, 0.134521484375, 39.250000000000, -3.570312500000, 9.039062500000, 1490694130
0.075439453125, -0.969726562500, 0.134521484375, 39.250000000000, -3.570312500000, 9.039062500000, 1490694130
0.075439453125, -0.969726562500, 0.134521484375, 39.250000000000, -3.570312500000, 9.039062500000, 1490694130
0.075439453125, -0.969726562500, 0.134521484375, 39.250000000000, -3.570312500000, 9.039062500000, 1490694130
-0.006103515625, -0.962890625000, 0.052978515625, 43.265625000000, -0.539062500000, 4.953125000000, 1490694130
-0.006103515625, -0.962890625000, 0.052978515625, 43.265625000000, -0.539062500000, 4.953125000000, 1490694130
-0.006103515625, -0.962890625000, 0.052978515625, 43.265625000000, -0.539062500000, 4.953125000000, 1490694130
-0.006103515625, -0.962890625000, 0.052978515625, 43.265625000000, -0.539062500000, 4.953125000000, 1490694130
0.014892578125, -0.980712890625, -0.000244140625, 33.617187500000, -2.773437500000, 1.359375000000, 1490694130
0.014892578125, -0.980712890625, -0.000244140625, 33.617187500000, -2.773437500000, 1.359375000000, 1490694130
0.014892578125, -0.980712890625, -0.000244140625, 33.617187500000, -2.773437500000, 1.359375000000, 1490694130
-0.000244140625, -0.930419921875, -0.028320312500, 32.289062500000, -2.796875000000, 4.945312500000, 1490694130
-0.000244140625, -0.930419921875, -0.028320312500, 32.289062500000, -2.796875000000, 4.945312500000, 1490694130
-0.000244140625, -0.930419921875, -0.028320312500, 32.289062500000, -2.796875000000, 4.945312500000, 1490694130
-0.000000000000, -0.846435546875, 0.012451171875, 23.695312500000, 0.359375000000, 1.500000000000, 1490694130
-0.000000000000, -0.846435546875, 0.012451171875, 23.695312500000, 0.359375000000, 1.500000000000, 1490694130
-0.000000000000, -0.846435546875, 0.012451171875, 23.695312500000, 0.359375000000, 1.500000000000, 1490694130
0.047119140625, -0.978271484375, 0.029541015625, 22.125000000000, -2.867187500000, 4.210937500000, 1490694130
0.137939453125, -0.909179687500, -0.073730468750, 11.039062500000, -4.187500000000, -0.593750000000, 1490694130
-0.026367187500, -0.911132812500, -0.033935546875, 3.523437500000, -10.000000000000, -2.859375000000, 1490694130
-0.000244140625, -0.913085937500, -0.118896484375, 3.523437500000, -10.000000000000, -2.859375000000, 1490694130
-0.000244140625, -0.913085937500, -0.118896484375, 3.523437500000, -10.000000000000, -2.859375000000, 1490694130
-0.000244140625, -0.913085937500, -0.118896484375, 3.523437500000, -10.000000000000, -2.859375000000, 1490694130
-0.000244140625, -0.913085937500, -0.118896484375, 3.523437500000, -10.000000000000, -2.859375000000, 1490694130
0.028320312500, -0.918212890625, -0.044433593750, -2.546875000000, -14.203125000000, -6.835937500000, 1490694130
0.028320312500, -0.918212890625, -0.044433593750, -2.546875000000, -14.203125000000, -6.835937500000, 1490694130
0.028320312500, -0.918212890625, -0.044433593750, -2.546875000000, -14.203125000000, -6.835937500000, 1490694130
0.028320312500, -0.918212890625, -0.044433593750, -2.546875000000, -14.203125000000, -6.835937500000, 1490694130
0.028320312500, -0.918212890625, -0.044433593750, -2.546875000000, -14.203125000000, -6.835937500000, 1490694130
0.134033203125, -1.084960937500, 0.019287109375, -43.367187500000, 4.781250000000, 1.476562500000, 1490694130
0.134033203125, -1.084960937500, 0.019287109375, -43.367187500000, 4.781250000000, 1.476562500000, 1490694130
0.134033203125, -1.084960937500, 0.019287109375, -43.367187500000, 4.781250000000, 1.476562500000, 1490694131
0.134033203125, -1.084960937500, 0.019287109375, -43.367187500000, 4.781250000000, 1.476562500000, 1490694131
-0.127197265625, -1.071289062500, 0.167968750000, -120.609375000000, -47.968750000000, -12.171875000000, 1490694131
-0.127197265625, -1.071289062500, 0.167968750000, -120.609375000000, -47.968750000000, -12.171875000000, 1490694131
-0.127197265625, -1.071289062500, 0.167968750000, -120.609375000000, -47.968750000000, -12.171875000000, 1490694131
-0.127197265625, -1.071289062500, 0.167968750000, -120.609375000000, -47.968750000000, -12.171875000000, 1490694131
0.130859375000, -1.060302734375, 0.184814453125, -126.820312500000, -75.820312500000, -7.257812500000, 1490694131
0.130859375000, -1.060302734375, 0.184814453125, -126.820312500000, -75.820312500000, -7.257812500000, 1490694131
0.130859375000, -1.060302734375, 0.184814453125, -126.820312500000, -75.820312500000, -7.257812500000, 1490694131
0.053955078125, -0.993164062500, 0.049072265625, -38.828125000000, -82.593750000000, -15.687500000000, 1490694131
0.053955078125, -0.993164062500, 0.049072265625, -38.828125000000, -82.593750000000, -15.687500000000, 1490694131
0.053955078125, -0.993164062500, 0.049072265625, -38.828125000000, -82.593750000000, -15.687500000000, 1490694131
0.038574218750, -1.050537109375, 0.098388671875, 6.617187500000, -5.906250000000, 1.773437500000, 1490694131
0.044921875000, -0.969726562500, -0.028808593750, 11.000000000000, -1.648437500000, 6.359375000000, 1490694131
0.044921875000, -0.969726562500, -0.028808593750, 11.000000000000, -1.648437500000, 6.359375000000, 1490694131
0.044921875000, -0.969726562500, -0.028808593750, 11.000000000000, -1.648437500000, 6.359375000000, 1490694131
0.044921875000, -0.969726562500, -0.028808593750, 11.000000000000, -1.648437500000, 6.359375000000, 1490694131
0.044921875000, -0.969726562500, -0.028808593750, 11.000000000000, -1.648437500000, 6.359375000000, 1490694131
0.044921875000, -0.969726562500, -0.028808593750, 11.000000000000, -1.648437500000, 6.359375000000, 1490694131
0.099853515625, -0.999267578125, 0.150390625000, 22.148437500000, -1.492187500000, 4.906250000000, 1490694131
0.099853515625, -0.999267578125, 0.150390625000, 22.148437500000, -1.492187500000, 4.906250000000, 1490694131
0.099853515625, -0.999267578125, 0.150390625000, 22.148437500000, -1.492187500000, 4.906250000000, 1490694131
0.059326171875, -0.972900390625, 0.096435546875, 26.351562500000, -7.984375000000, -1.742187500000, 1490694131
0.059326171875, -0.972900390625, 0.096435546875, 26.351562500000, -7.984375000000, -1.742187500000, 1490694131
0.103027343750, -1.013671875000, 0.107666015625, 31.578125000000, -0.367187500000, -4.750000000000, 1490694131
0.117187500000, -1.009277343750, 0.114746093750, 26.796875000000, 4.328125000000, -0.515625000000, 1490694131
0.117187500000, -1.009277343750, 0.114746093750, 26.796875000000, 4.328125000000, -0.515625000000, 1490694131
0.117187500000, -1.009277343750, 0.114746093750, 11.875000000000, 6.945312500000, 4.835937500000, 1490694131
0.094970703125, -0.937255859375, 0.095458984375, -2.093750000000, 7.164062500000, 14.867187500000, 1490694131
0.094970703125, -0.937255859375, 0.095458984375, -2.093750000000, 7.164062500000, 14.867187500000, 1490694131
0.094970703125, -0.937255859375, 0.095458984375, -2.093750000000, 7.164062500000, 14.867187500000, 1490694131
0.094970703125, -0.937255859375, 0.095458984375, -2.093750000000, 7.164062500000, 14.867187500000, 1490694131
0.200439453125, -1.019287109375, 0.083251953125, -1.593750000000, -1.390625000000, 13.343750000000, 1490694131
0.200439453125, -1.019287109375, 0.083251953125, -1.593750000000, -1.390625000000, 13.343750000000, 1490694131
0.200439453125, -1.019287109375, 0.083251953125, -1.593750000000, -1.390625000000, 13.343750000000, 1490694131
0.200439453125, -1.019287109375, 0.083251953125, -1.593750000000, -1.390625000000, 13.343750000000, 1490694131
0.200439453125, -1.019287109375, 0.083251953125, -1.593750000000, -1.390625000000, 13.343750000000, 1490694131
0.200439453125, -1.019287109375, 0.083251953125, -1.593750000000, -1.390625000000, 13.343750000000, 1490694131
0.107421875000, -1.044677734375, 0.093750000000, -16.601562500000, 3.054687500000, 5.257812500000, 1490694131
0.107421875000, -1.044677734375, 0.093750000000, -16.601562500000, 3.054687500000, 5.257812500000, 1490694131
0.107421875000, -1.044677734375, 0.093750000000, -16.601562500000, 3.054687500000, 5.257812500000, 1490694131
0.107421875000, -1.044677734375, 0.093750000000, -16.601562500000, 3.054687500000, 5.257812500000, 1490694131
0.143554687500, -1.031005859375, 0.096923828125, -10.085937500000, -14.070312500000, 2.210937500000, 1490694131
0.143554687500, -1.031005859375, 0.096923828125, -10.085937500000, -14.070312500000, 2.210937500000, 1490694131
0.143554687500, -1.031005859375, 0.096923828125, -10.085937500000, -14.070312500000, 2.210937500000, 1490694131
0.175048828125, -0.923095703125, 0.086669921875, -16.195312500000, -20.015625000000, -0.320312500000, 1490694131
0.175048828125, -0.923095703125, 0.086669921875, -16.195312500000, -20.015625000000, -0.320312500000, 1490694131
0.175048828125, -0.923095703125, 0.086669921875, -16.195312500000, -20.015625000000, -0.320312500000, 1490694131
0.131591796875, -1.003173828125, 0.121093750000, -16.507812500000, -5.695312500000, -2.828125000000, 1490694131
0.131591796875, -1.003173828125, 0.121093750000, -16.507812500000, -5.695312500000, -2.828125000000, 1490694131
0.131591796875, -1.003173828125, 0.121093750000, -16.507812500000, -5.695312500000, -2.828125000000, 1490694131
0.206054687500, -1.155761718750, 0.138916015625, -7.562500000000, 10.015625000000, 0.406250000000, 1490694131
0.206054687500, -1.155761718750, 0.138916015625, -7.562500000000, 10.015625000000, 0.406250000000, 1490694131
0.206054687500, -1.155761718750, 0.138916015625, -7.562500000000, 10.015625000000, 0.406250000000, 1490694131
0.143066406250, -0.928710937500, 0.037353515625, -6.234375000000, 22.031250000000, -2.515625000000, 1490694131
0.143066406250, -0.928710937500, 0.037353515625, -6.234375000000, 22.031250000000, -2.515625000000, 1490694131
0.143066406250, -0.928710937500, 0.037353515625, -6.234375000000, 22.031250000000, -2.515625000000, 1490694131
0.143066406250, -0.928710937500, 0.037353515625, -6.234375000000, 22.031250000000, -2.515625000000, 1490694131
0.058105468750, -1.072265625000, 0.136474609375, -8.976562500000, 9.500000000000, -4.734375000000, 1490694131
0.058105468750, -1.072265625000, 0.136474609375, -8.976562500000, 9.500000000000, -4.734375000000, 1490694131
0.058105468750, -1.072265625000, 0.136474609375, -8.976562500000, 9.500000000000, -4.734375000000, 1490694131
0.209472656250, -0.978027343750, 0.048583984375, -8.453125000000, -5.414062500000, -6.882812500000, 1490694131
0.209472656250, -0.978027343750, 0.048583984375, -8.453125000000, -5.414062500000, -6.882812500000, 1490694131
0.209472656250, -0.978027343750, 0.048583984375, -8.453125000000, -5.414062500000, -6.882812500000, 1490694131
0.253662109375, -0.975830078125, 0.100341796875, -3.281250000000, -8.226562500000, -1.906250000000, 1490694131
0.253662109375, -0.975830078125, 0.100341796875, -3.281250000000, -8.226562500000, -1.906250000000, 1490694131
0.253662109375, -0.975830078125, 0.100341796875, -3.281250000000, -8.226562500000, -1.906250000000, 1490694131
0.253662109375, -0.975830078125, 0.100341796875, -3.281250000000, -8.226562500000, -1.906250000000, 1490694131
0.251953125000, -1.030273437500, 0.083251953125, -3.375000000000, 7.156250000000, 2.000000000000, 1490694132
0.251953125000, -1.030273437500, 0.083251953125, -3.375000000000, 7.156250000000, 2.000000000000, 1490694132
0.251953125000, -1.030273437500, 0.083251953125, -3.375000000000, 7.156250000000, 2.000000000000, 1490694132
0.153808593750, -1.057617187500, -0.027587890625, -0.101562500000, 14.507812500000, -2.101562500000, 1490694132
0.153808593750, -1.057617187500, -0.027587890625, -0.101562500000, 14.507812500000, -2.101562500000, 1490694132
0.153808593750, -1.057617187500, -0.027587890625, -0.101562500000, 14.507812500000, -2.101562500000, 1490694132
0.203857421875, -1.020507812500, 0.091308593750, 1.851562500000, -1.945312500000, -4.140625000000, 1490694132
0.203857421875, -1.020507812500, 0.091308593750, 1.851562500000, -1.945312500000, -4.140625000000, 1490694132
0.203857421875, -1.020507812500, 0.091308593750, 1.851562500000, -1.945312500000, -4.140625000000, 1490694132
0.188964843750, -1.012939453125, 0.032958984375, -1.609375000000, -29.828125000000, -7.179687500000, 1490694132
0.188964843750, -1.012939453125, 0.032958984375, -1.609375000000, -29.828125000000, -7.179687500000, 1490694132
0.188964843750, -1.012939453125, 0.032958984375, -1.609375000000, -29.828125000000, -7.179687500000, 1490694132
0.188964843750, -1.012939453125, 0.032958984375, -1.609375000000, -29.828125000000, -7.179687500000, 1490694132
0.091064453125, -1.030273437500, 0.096679687500, -2.773437500000, -29.617187500000, -6.500000000000, 1490694132
0.091064453125, -1.030273437500, 0.096679687500, -2.773437500000, -29.617187500000, -6.500000000000, 1490694132
0.091064453125, -1.030273437500, 0.096679687500, -2.773437500000, -29.617187500000, -6.500000000000, 1490694132
0.085937500000, -1.024414062500, 0.117431640625, 1.304687500000, -5.632812500000, -6.929687500000, 1490694132
0.085937500000, -1.024414062500, 0.117431640625, 1.304687500000, -5.632812500000, -6.929687500000, 1490694132
0.085937500000, -1.024414062500, 0.117431640625, 1.304687500000, -5.632812500000, -6.929687500000, 1490694132
0.151123046875, -0.985107421875, -0.022949218750, 1.320312500000, 3.031250000000, -6.500000000000, 1490694132
0.213867187500, -1.029541015625, 0.043701171875, 7.492187500000, 33.007812500000, -1.500000000000, 1490694132
0.213867187500, -1.029541015625, 0.043701171875, 7.492187500000, 33.007812500000, -1.500000000000, 1490694132
0.213867187500, -1.029541015625, 0.043701171875, 7.492187500000, 33.007812500000, -1.500000000000, 1490694132
0.213867187500, -1.029541015625, 0.043701171875, 7.492187500000, 33.007812500000, -1.500000000000, 1490694132
0.213867187500, -1.029541015625, 0.043701171875, 7.492187500000, 33.007812500000, -1.500000000000, 1490694132
0.263427734375, -0.974121093750, 0.078125000000, 3.718750000000, 4.867187500000, -5.953125000000, 1490694132
0.263427734375, -0.974121093750, 0.078125000000, 3.718750000000, 4.867187500000, -5.953125000000, 1490694132
0.263427734375, -0.974121093750, 0.078125000000, 3.718750000000, 4.867187500000, -5.953125000000, 1490694132
0.263427734375, -0.974121093750, 0.078125000000, 3.718750000000, 4.867187500000, -5.953125000000, 1490694132
0.197021484375, -0.936035156250, 0.042236328125, -7.046875000000, -23.593750000000, -8.656250000000, 1490694132
0.197021484375, -0.936035156250, 0.042236328125, -7.046875000000, -23.593750000000, -8.656250000000, 1490694132
0.197021484375, -0.936035156250, 0.042236328125, -7.046875000000, -23.593750000000, -8.656250000000, 1490694132
0.099609375000, -1.026855468750, 0.147949218750, 2.390625000000, -31.085937500000, -8.507812500000, 1490694132
0.099609375000, -1.026855468750, 0.147949218750, 2.390625000000, -31.085937500000, -8.507812500000, 1490694132
0.099609375000, -1.026855468750, 0.147949218750, 2.390625000000, -31.085937500000, -8.507812500000, 1490694132
0.052978515625, -0.996582031250, 0.111816406250, -6.593750000000, 3.203125000000, -8.250000000000, 1490694132
0.052978515625, -0.996582031250, 0.111816406250, -6.593750000000, 3.203125000000, -8.250000000000, 1490694132
0.153320312500, -0.908203125000, 0.141845703125, -9.375000000000, 20.359375000000, -4.625000000000, 1490694132
0.153320312500, -0.908203125000, 0.141845703125, -9.375000000000, 20.359375000000, -4.625000000000, 1490694132
0.153320312500, -0.908203125000, 0.141845703125, -9.375000000000, 20.359375000000, -4.625000000000, 1490694132
0.105468750000, -1.070312500000, 0.041015625000, -8.000000000000, 11.937500000000, -4.554687500000, 1490694132
0.132324218750, -1.004882812500, 0.092773437500, -10.367187500000, 5.281250000000, 0.085937500000, 1490694132
0.132324218750, -1.004882812500, 0.092773437500, -10.367187500000, 5.281250000000, 0.085937500000, 1490694132
0.132324218750, -1.004882812500, 0.092773437500, -10.367187500000, 5.281250000000, 0.085937500000, 1490694132
0.132324218750, -1.004882812500, 0.092773437500, -10.367187500000, 5.281250000000, 0.085937500000, 1490694132
0.111816406250, -1.016357421875, 0.076416015625, -9.632812500000, -3.312500000000, -6.156250000000, 1490694132
0.111816406250, -1.016357421875, 0.076416015625, -9.632812500000, -3.312500000000, -6.156250000000, 1490694132
0.055664062500, -0.918701171875, 0.127197265625, -12.664062500000, -12.335937500000, -7.343750000000, 1490694132
0.055664062500, -0.918701171875, 0.127197265625, -12.664062500000, -12.335937500000, -7.343750000000, 1490694132
0.055664062500, -0.918701171875, 0.127197265625, -12.664062500000, -12.335937500000, -7.343750000000, 1490694132
0.055664062500, -0.918701171875, 0.127197265625, -12.664062500000, -12.335937500000, -7.343750000000, 1490694132
0.055664062500, -0.918701171875, 0.127197265625, -12.664062500000, -12.335937500000, -7.343750000000, 1490694132
0.142333984375, -0.995117187500, 0.138671875000, -8.000000000000, -7.117187500000, -9.335937500000, 1490694132
0.142333984375, -0.995117187500, 0.138671875000, -8.000000000000, -7.117187500000, -9.335937500000, 1490694132
0.142333984375, -0.995117187500, 0.138671875000, -8.000000000000, -7.117187500000, -9.335937500000, 1490694132
0.032958984375, -1.024169921875, 0.047851562500, -10.250000000000, -4.968750000000, -8.117187500000, 1490694132
0.032958984375, -1.024169921875, 0.047851562500, -10.250000000000, -4.968750000000, -8.117187500000, 1490694132
0.032958984375, -1.024169921875, 0.047851562500, -10.250000000000, -4.968750000000, -8.117187500000, 1490694132
0.159667968750, -1.030761718750, -0.002441406250, -10.562500000000, 2.960937500000, -5.960937500000, 1490694132
0.159667968750, -1.030761718750, -0.002441406250, -10.562500000000, 2.960937500000, -5.960937500000, 1490694132
0.120605468750, -0.999267578125, 0.087402343750, -6.125000000000, 11.203125000000, -3.125000000000, 1490694132
0.149169921875, -0.976318359375, 0.051269531250, -3.937500000000, 12.460937500000, -3.828125000000, 1490694132
0.149169921875, -0.976318359375, 0.051269531250, -3.937500000000, 12.460937500000, -3.828125000000, 1490694133
0.091796875000, -1.010009765625, 0.050781250000, -1.843750000000, 6.875000000000, -5.984375000000, 1490694133
0.183593750000, -1.027099609375, 0.056396484375, -2.218750000000, -5.765625000000, -6.906250000000, 1490694133
0.183593750000, -1.027099609375, 0.056396484375, -2.218750000000, -5.765625000000, -6.906250000000, 1490694133
0.183593750000, -1.027099609375, 0.056396484375, -2.218750000000, -5.765625000000, -6.906250000000, 1490694133
0.047851562500, -1.025878906250, 0.199707031250, -0.914062500000, -6.718750000000, -6.703125000000, 1490694133
0.129394531250, -0.979736328125, 0.098876953125, 6.687500000000, -3.007812500000, -6.250000000000, 1490694133
0.129394531250, -0.979736328125, 0.098876953125, 6.687500000000, -3.007812500000, -6.250000000000, 1490694133
0.129394531250, -0.979736328125, 0.098876953125, 6.687500000000, -3.007812500000, -6.250000000000, 1490694133
0.129394531250, -0.979736328125, 0.098876953125, 6.687500000000, -3.007812500000, -6.250000000000, 1490694133
0.129394531250, -0.979736328125, 0.098876953125, 6.687500000000, -3.007812500000, -6.250000000000, 1490694133
0.148681640625, -0.872070312500, 0.141601562500, 3.687500000000, 3.242187500000, -2.562500000000, 1490694133
0.148681640625, -0.872070312500, 0.141601562500, 3.687500000000, 3.242187500000, -2.562500000000, 1490694133
0.148681640625, -0.872070312500, 0.141601562500, 3.687500000000, 3.242187500000, -2.562500000000, 1490694133
0.148681640625, -0.872070312500, 0.141601562500, 3.687500000000, 3.242187500000, -2.562500000000, 1490694133
0.095458984375, -0.979980468750, 0.096435546875, 3.148437500000, 8.507812500000, -3.187500000000, 1490694133
0.058105468750, -0.992919921875, 0.035888671875, 3.250000000000, 7.085937500000, -4.375000000000, 1490694133
0.058105468750, -0.992919921875, 0.035888671875, 3.250000000000, 7.085937500000, -4.375000000000, 1490694133
0.058105468750, -0.992919921875, 0.035888671875, 3.250000000000, 7.085937500000, -4.375000000000, 1490694133
0.096191406250, -1.063964843750, 0.045898437500, 2.007812500000, 4.851562500000, -4.656250000000, 1490694133
0.096191406250, -1.063964843750, 0.045898437500, 2.007812500000, 4.851562500000, -4.656250000000, 1490694133
0.096191406250, -1.063964843750, 0.045898437500, 2.007812500000, 4.851562500000, -4.656250000000, 1490694133
0.034423828125, -0.914550781250, 0.119140625000, -1.835937500000, 0.476562500000, 0.562500000000, 1490694133
0.034423828125, -0.914550781250, 0.119140625000, -1.835937500000, 0.476562500000, 0.562500000000, 1490694133
0.034423828125, -0.914550781250, 0.119140625000, -1.835937500000, 0.476562500000, 0.562500000000, 1490694133
