ACC_X,ACC_Y,ACC_Z,G_X,G_Y,G_Z,Unix Time
0.510742187500, -0.808593750000, -0.276855468750, -13.789062500000, -41.437500000000, 18.164062500000, 1491821059
0.510742187500, -0.808593750000, -0.276855468750, -13.789062500000, -41.437500000000, 18.164062500000, 1491821059
0.510742187500, -0.808593750000, -0.276855468750, -13.789062500000, -41.437500000000, 18.164062500000, 1491821059
0.403076171875, -0.860839843750, -0.219238281250, 3.078125000000, -2.460937500000, -17.101562500000, 1491821059
0.403076171875, -0.860839843750, -0.219238281250, 3.078125000000, -2.460937500000, -17.101562500000, 1491821059
0.403076171875, -0.860839843750, -0.219238281250, 3.078125000000, -2.460937500000, -17.101562500000, 1491821059
0.403076171875, -0.860839843750, -0.219238281250, 3.078125000000, -2.460937500000, -17.101562500000, 1491821059
0.570556640625, -0.893554687500, -0.238281250000, 3.960937500000, 16.875000000000, -22.398437500000, 1491821059
0.570556640625, -0.893554687500, -0.238281250000, 3.960937500000, 16.875000000000, -22.398437500000, 1491821059
0.359619140625, -0.877685546875, -0.273437500000, -14.382812500000, -10.062500000000, 0.015625000000, 1491821059
0.359619140625, -0.877685546875, -0.273437500000, -14.382812500000, -10.062500000000, 0.015625000000, 1491821059
0.359619140625, -0.877685546875, -0.273437500000, -14.382812500000, -10.062500000000, 0.015625000000, 1491821059
0.359619140625, -0.877685546875, -0.273437500000, -14.382812500000, -10.062500000000, 0.015625000000, 1491821059
0.347656250000, -0.880859375000, -0.186279296875, -20.000000000000, -10.398437500000, -2.390625000000, 1491821059
0.347656250000, -0.880859375000, -0.186279296875, -20.000000000000, -10.398437500000, -2.390625000000, 1491821059
0.347656250000, -0.880859375000, -0.186279296875, -20.000000000000, -10.398437500000, -2.390625000000, 1491821059
0.347656250000, -0.880859375000, -0.186279296875, -20.000000000000, -10.398437500000, -2.390625000000, 1491821059
0.431396484375, -0.868408203125, -0.249755859375, -20.031250000000, 0.140625000000, -11.695312500000, 1491821059
0.431396484375, -0.868408203125, -0.249755859375, -20.031250000000, 0.140625000000, -11.695312500000, 1491821059
0.431396484375, -0.868408203125, -0.249755859375, -20.031250000000, 0.140625000000, -11.695312500000, 1491821059
0.463867187500, -0.942626953125, -0.275878906250, -16.039062500000, -2.054687500000, -9.632812500000, 1491821059
0.463867187500, -0.942626953125, -0.275878906250, -16.039062500000, -2.054687500000, -9.632812500000, 1491821059
0.463867187500, -0.942626953125, -0.275878906250, -16.039062500000, -2.054687500000, -9.632812500000, 1491821059
0.521240234375, -0.967285156250, -0.157714843750, -11.601562500000, -6.640625000000, -7.585937500000, 1491821059
0.521240234375, -0.967285156250, -0.157714843750, -11.601562500000, -6.640625000000, -7.585937500000, 1491821059
0.521240234375, -0.967285156250, -0.157714843750, -11.601562500000, -6.640625000000, -7.585937500000, 1491821059
0.442382812500, -0.784912109375, -0.104492187500, -19.117187500000, -4.804687500000, -6.218750000000, 1491821059
0.442382812500, -0.784912109375, -0.104492187500, -19.117187500000, -4.804687500000, -6.218750000000, 1491821059
0.442382812500, -0.784912109375, -0.104492187500, -19.117187500000, -4.804687500000, -6.218750000000, 1491821059
0.442382812500, -0.784912109375, -0.104492187500, -19.117187500000, -4.804687500000, -6.218750000000, 1491821059
0.441894531250, -0.861572265625, -0.250976562500, -15.312500000000, -4.734375000000, -2.460937500000, 1491821059
0.441894531250, -0.861572265625, -0.250976562500, -15.312500000000, -4.734375000000, -2.460937500000, 1491821059
0.441894531250, -0.861572265625, -0.250976562500, -15.312500000000, -4.734375000000, -2.460937500000, 1491821059
0.442382812500, -0.856201171875, -0.157714843750, -11.429687500000, -3.093750000000, -7.421875000000, 1491821059
0.442382812500, -0.856201171875, -0.157714843750, -11.429687500000, -3.093750000000, -7.421875000000, 1491821059
0.442382812500, -0.856201171875, -0.157714843750, -11.429687500000, -3.093750000000, -7.421875000000, 1491821059
0.372070312500, -0.903320312500, -0.261474609375, -6.460937500000, 2.429687500000, -8.468750000000, 1491821059
0.372070312500, -0.903320312500, -0.261474609375, -6.460937500000, 2.429687500000, -8.468750000000, 1491821059
0.372070312500, -0.903320312500, -0.261474609375, -6.460937500000, 2.429687500000, -8.468750000000, 1491821059
0.234619140625, -0.904296875000, -0.156494140625, -7.367187500000, 3.484375000000, -4.296875000000, 1491821059
0.234619140625, -0.904296875000, -0.156494140625, -7.367187500000, 3.484375000000, -4.296875000000, 1491821059
0.234619140625, -0.904296875000, -0.156494140625, -7.367187500000, 3.484375000000, -4.296875000000, 1491821059
0.234619140625, -0.904296875000, -0.156494140625, -7.367187500000, 3.484375000000, -4.296875000000, 1491821059
0.347900390625, -0.943847656250, -0.269042968750, -5.195312500000, 7.601562500000, -6.062500000000, 1491821059
0.347900390625, -0.943847656250, -0.269042968750, -5.195312500000, 7.601562500000, -6.062500000000, 1491821059
0.347900390625, -0.943847656250, -0.269042968750, -5.195312500000, 7.601562500000, -6.062500000000, 1491821059
0.239990234375, -0.871582031250, -0.201660156250, 0.226562500000, 5.921875000000, -6.718750000000, 1491821059
0.381835937500, -0.958007812500, -0.202880859375, -4.835937500000, 2.992187500000, -3.554687500000, 1491821060
0.381835937500, -0.958007812500, -0.202880859375, -4.835937500000, 2.992187500000, -3.554687500000, 1491821060
0.381835937500, -0.958007812500, -0.202880859375, -4.835937500000, 2.992187500000, -3.554687500000, 1491821060
0.373535156250, -0.872314453125, -0.173095703125, -3.859375000000, 3.054687500000, -1.984375000000, 1491821060
0.373535156250, -0.872314453125, -0.173095703125, -3.859375000000, 3.054687500000, -1.984375000000, 1491821060
0.373535156250, -0.872314453125, -0.173095703125, -3.859375000000, 3.054687500000, -1.984375000000, 1491821060
0.373535156250, -0.872314453125, -0.173095703125, -3.859375000000, 3.054687500000, -1.984375000000, 1491821060
0.373535156250, -0.872314453125, -0.173095703125, -3.859375000000, 3.054687500000, -1.984375000000, 1491821060
0.373535156250, -0.872314453125, -0.173095703125, -3.859375000000, 3.054687500000, -1.984375000000, 1491821060
0.345458984375, -0.955810546875, -0.264892578125, -4.914062500000, 7.656250000000, -7.984375000000, 1491821060
0.345458984375, -0.955810546875, -0.264892578125, -4.914062500000, 7.656250000000, -7.984375000000, 1491821060
0.345458984375, -0.955810546875, -0.264892578125, -4.914062500000, 7.656250000000, -7.984375000000, 1491821060
0.368408203125, -0.945800781250, -0.170166015625, -8.140625000000, 3.164062500000, -5.539062500000, 1491821060
0.368408203125, -0.945800781250, -0.170166015625, -8.140625000000, 3.164062500000, -5.539062500000, 1491821060
0.368408203125, -0.945800781250, -0.170166015625, -8.140625000000, 3.164062500000, -5.539062500000, 1491821060
0.398193359375, -0.961425781250, -0.162841796875, -4.257812500000, 2.554687500000, -8.273437500000, 1491821060
0.398193359375, -0.961425781250, -0.162841796875, -4.257812500000, 2.554687500000, -8.273437500000, 1491821060
0.398193359375, -0.961425781250, -0.162841796875, -4.257812500000, 2.554687500000, -8.273437500000, 1491821060
0.298828125000, -0.941894531250, -0.194824218750, -6.648437500000, -4.328125000000, 0.843750000000, 1491821060
0.298828125000, -0.941894531250, -0.194824218750, -6.648437500000, -4.328125000000, 0.843750000000, 1491821060
0.298828125000, -0.941894531250, -0.194824218750, -6.648437500000, -4.328125000000, 0.843750000000, 1491821060
0.298828125000, -0.941894531250, -0.194824218750, -6.648437500000, -4.328125000000, 0.843750000000, 1491821060
0.343994140625, -0.872070312500, -0.159179687500, -5.929687500000, -4.921875000000, 2.203125000000, 1491821060
0.343994140625, -0.872070312500, -0.159179687500, -5.929687500000, -4.921875000000, 2.203125000000, 1491821060
0.343994140625, -0.872070312500, -0.159179687500, -5.929687500000, -4.921875000000, 2.203125000000, 1491821060
0.384277343750, -0.848388671875, -0.210205078125, -5.890625000000, -5.406250000000, 1.562500000000, 1491821060
0.384277343750, -0.848388671875, -0.210205078125, -5.890625000000, -5.406250000000, 1.562500000000, 1491821060
0.384277343750, -0.848388671875, -0.210205078125, -5.890625000000, -5.406250000000, 1.562500000000, 1491821060
0.393310546875, -1.004638671875, -0.199707031250, -6.429687500000, -6.671875000000, 2.265625000000, 1491821060
0.393310546875, -1.004638671875, -0.199707031250, -6.429687500000, -6.671875000000, 2.265625000000, 1491821060
0.393310546875, -1.004638671875, -0.199707031250, -6.429687500000, -6.671875000000, 2.265625000000, 1491821060
0.362304687500, -0.964599609375, -0.259277343750, -6.132812500000, -3.843750000000, -2.351562500000, 1491821060
0.362304687500, -0.964599609375, -0.259277343750, -6.132812500000, -3.843750000000, -2.351562500000, 1491821060
0.362304687500, -0.964599609375, -0.259277343750, -6.132812500000, -3.843750000000, -2.351562500000, 1491821060
0.362304687500, -0.964599609375, -0.259277343750, -6.132812500000, -3.843750000000, -2.351562500000, 1491821060
0.421875000000, -0.781982421875, -0.119140625000, -3.679687500000, -6.671875000000, -1.125000000000, 1491821060
0.421875000000, -0.781982421875, -0.119140625000, -3.679687500000, -6.671875000000, -1.125000000000, 1491821060
0.421875000000, -0.781982421875, -0.119140625000, -3.679687500000, -6.671875000000, -1.125000000000, 1491821060
0.437011718750, -0.958251953125, -0.233154296875, -10.031250000000, 0.210937500000, -0.148437500000, 1491821060
0.437011718750, -0.958251953125, -0.233154296875, -10.031250000000, 0.210937500000, -0.148437500000, 1491821060
0.437011718750, -0.958251953125, -0.233154296875, -10.031250000000, 0.210937500000, -0.148437500000, 1491821060
0.368652343750, -0.911376953125, -0.115234375000, -7.187500000000, -3.523437500000, -1.375000000000, 1491821060
0.368652343750, -0.911376953125, -0.115234375000, -7.187500000000, -3.523437500000, -1.375000000000, 1491821060
0.368652343750, -0.911376953125, -0.115234375000, -7.187500000000, -3.523437500000, -1.375000000000, 1491821060
0.362548828125, -0.851562500000, -0.163330078125, -5.062500000000, -1.914062500000, -4.742187500000, 1491821060
0.362548828125, -0.851562500000, -0.163330078125, -5.062500000000, -1.914062500000, -4.742187500000, 1491821060
0.362548828125, -0.851562500000, -0.163330078125, -5.062500000000, -1.914062500000, -4.742187500000, 1491821060
0.362548828125, -0.851562500000, -0.163330078125, -5.062500000000, -1.914062500000, -4.742187500000, 1491821060
0.402832031250, -0.884521484375, -0.217773437500, -7.757812500000, -1.976562500000, -1.953125000000, 1491821060
0.402832031250, -0.884521484375, -0.217773437500, -7.757812500000, -1.976562500000, -1.953125000000, 1491821060
0.402832031250, -0.884521484375, -0.217773437500, -7.757812500000, -1.976562500000, -1.953125000000, 1491821060
0.423339843750, -0.954345703125, -0.211914062500, -3.054687500000, -4.851562500000, -3.109375000000, 1491821060
0.423339843750, -0.954345703125, -0.211914062500, -3.054687500000, -4.851562500000, -3.109375000000, 1491821060
0.423339843750, -0.954345703125, -0.211914062500, -3.054687500000, -4.851562500000, -3.109375000000, 1491821060
0.448242187500, -0.882324218750, -0.195800781250, -4.179687500000, -2.640625000000, -3.359375000000, 1491821060
0.448242187500, -0.882324218750, -0.195800781250, -4.179687500000, -2.640625000000, -3.359375000000, 1491821060
0.448242187500, -0.882324218750, -0.195800781250, -4.179687500000, -2.640625000000, -3.359375000000, 1491821060
0.300292968750, -0.865478515625, -0.121826171875, -1.773437500000, 0.984375000000, -4.156250000000, 1491821060
0.300292968750, -0.865478515625, -0.121826171875, -1.773437500000, 0.984375000000, -4.156250000000, 1491821060
0.300292968750, -0.865478515625, -0.121826171875, -1.773437500000, 0.984375000000, -4.156250000000, 1491821060
0.300292968750, -0.865478515625, -0.121826171875, -1.773437500000, 0.984375000000, -4.156250000000, 1491821060
0.364990234375, -0.854003906250, -0.178466796875, 0.460937500000, 2.250000000000, -6.617187500000, 1491821060
0.364990234375, -0.854003906250, -0.178466796875, 0.460937500000, 2.250000000000, -6.617187500000, 1491821060
0.364990234375, -0.854003906250, -0.178466796875, 0.460937500000, 2.250000000000, -6.617187500000, 1491821060
0.462890625000, -0.843994140625, -0.120849609375, -0.890625000000, 1.476562500000, -4.179687500000, 1491821060
0.462890625000, -0.843994140625, -0.120849609375, -0.890625000000, 1.476562500000, -4.179687500000, 1491821060
0.462890625000, -0.843994140625, -0.120849609375, -0.890625000000, 1.476562500000, -4.179687500000, 1491821060
0.378906250000, -0.950439453125, -0.192871093750, -1.789062500000, -0.984375000000, -3.789062500000, 1491821060
0.378906250000, -0.950439453125, -0.192871093750, -1.789062500000, -0.984375000000, -3.789062500000, 1491821060
0.378906250000, -0.950439453125, -0.192871093750, -1.789062500000, -0.984375000000, -3.789062500000, 1491821060
0.464599609375, -0.883544921875, -0.254638671875, -4.671875000000, -2.695312500000, -5.054687500000, 1491821061
0.464599609375, -0.883544921875, -0.254638671875, -4.671875000000, -2.695312500000, -5.054687500000, 1491821061
0.464599609375, -0.883544921875, -0.254638671875, -4.671875000000, -2.695312500000, -5.054687500000, 1491821061
0.464599609375, -0.883544921875, -0.254638671875, -4.671875000000, -2.695312500000, -5.054687500000, 1491821061
0.465576171875, -0.865966796875, -0.198242187500, -4.796875000000, -5.835937500000, -3.601562500000, 1491821061
0.465576171875, -0.865966796875, -0.198242187500, -4.796875000000, -5.835937500000, -3.601562500000, 1491821061
0.465576171875, -0.865966796875, -0.198242187500, -4.796875000000, -5.835937500000, -3.601562500000, 1491821061
0.382080078125, -0.960205078125, -0.164794921875, -4.585937500000, -3.351562500000, -4.929687500000, 1491821061
0.382080078125, -0.960205078125, -0.164794921875, -4.585937500000, -3.351562500000, -4.929687500000, 1491821061
0.382080078125, -0.960205078125, -0.164794921875, -4.585937500000, -3.351562500000, -4.929687500000, 1491821061
0.461669921875, -0.938232421875, -0.213134765625, -6.507812500000, -4.773437500000, -1.953125000000, 1491821061
0.461669921875, -0.938232421875, -0.213134765625, -6.507812500000, -4.773437500000, -1.953125000000, 1491821061
0.461669921875, -0.938232421875, -0.213134765625, -6.507812500000, -4.773437500000, -1.953125000000, 1491821061
0.354492187500, -0.950927734375, -0.193359375000, -6.414062500000, 0.382812500000, -4.695312500000, 1491821061
0.354492187500, -0.950927734375, -0.193359375000, -6.414062500000, 0.382812500000, -4.695312500000, 1491821061
0.354492187500, -0.950927734375, -0.193359375000, -6.414062500000, 0.382812500000, -4.695312500000, 1491821061
0.354492187500, -0.950927734375, -0.193359375000, -6.414062500000, 0.382812500000, -4.695312500000, 1491821061
0.296142578125, -0.958984375000, -0.207275390625, -7.171875000000, 6.187500000000, -1.710937500000, 1491821061
0.296142578125, -0.958984375000, -0.207275390625, -7.171875000000, 6.187500000000, -1.710937500000, 1491821061
0.296142578125, -0.958984375000, -0.207275390625, -7.171875000000, 6.187500000000, -1.710937500000, 1491821061
0.437744140625, -0.838134765625, -0.185302734375, -6.023437500000, 0.132812500000, -4.710937500000, 1491821061
0.437744140625, -0.838134765625, -0.185302734375, -6.023437500000, 0.132812500000, -4.710937500000, 1491821061
0.437744140625, -0.838134765625, -0.185302734375, -6.023437500000, 0.132812500000, -4.710937500000, 1491821061
0.466552734375, -0.859619140625, -0.199218750000, -4.140625000000, 0.945312500000, -3.765625000000, 1491821061
0.466552734375, -0.859619140625, -0.199218750000, -4.140625000000, 0.945312500000, -3.765625000000, 1491821061
0.466552734375, -0.859619140625, -0.199218750000, -4.140625000000, 0.945312500000, -3.765625000000, 1491821061
0.443847656250, -0.868164062500, -0.201416015625, -8.093750000000, -3.132812500000, -2.898437500000, 1491821061
0.443847656250, -0.868164062500, -0.201416015625, -8.093750000000, -3.132812500000, -2.898437500000, 1491821061
0.443847656250, -0.868164062500, -0.201416015625, -8.093750000000, -3.132812500000, -2.898437500000, 1491821061
0.418701171875, -0.862304687500, -0.211914062500, -4.328125000000, 3.320312500000, -3.992187500000, 1491821061
0.418701171875, -0.862304687500, -0.211914062500, -4.328125000000, 3.320312500000, -3.992187500000, 1491821061
0.418701171875, -0.862304687500, -0.211914062500, -4.328125000000, 3.320312500000, -3.992187500000, 1491821061
0.418701171875, -0.862304687500, -0.211914062500, -4.328125000000, 3.320312500000, -3.992187500000, 1491821061
0.392089843750, -0.959472656250, -0.189941406250, -1.210937500000, -4.375000000000, -5.726562500000, 1491821061
0.392089843750, -0.959472656250, -0.189941406250, -1.210937500000, -4.375000000000, -5.726562500000, 1491821061
0.392089843750, -0.959472656250, -0.189941406250, -1.210937500000, -4.375000000000, -5.726562500000, 1491821061
0.381591796875, -0.864257812500, -0.189208984375, -2.835937500000, -0.453125000000, -8.273437500000, 1491821061
0.381591796875, -0.864257812500, -0.189208984375, -2.835937500000, -0.453125000000, -8.273437500000, 1491821061
0.381591796875, -0.864257812500, -0.189208984375, -2.835937500000, -0.453125000000, -8.273437500000, 1491821061
0.369873046875, -0.901855468750, -0.192382812500, 2.890625000000, 0.687500000000, -6.734375000000, 1491821061
0.369873046875, -0.901855468750, -0.192382812500, 2.890625000000, 0.687500000000, -6.734375000000, 1491821061
0.369873046875, -0.901855468750, -0.192382812500, 2.890625000000, 0.687500000000, -6.734375000000, 1491821061
0.369873046875, -0.901855468750, -0.192382812500, 2.890625000000, 0.687500000000, -6.734375000000, 1491821061
0.392333984375, -0.910644531250, -0.171875000000, 4.750000000000, -1.320312500000, -5.367187500000, 1491821061
0.392333984375, -0.910644531250, -0.171875000000, 4.750000000000, -1.320312500000, -5.367187500000, 1491821061
0.392333984375, -0.910644531250, -0.171875000000, 4.750000000000, -1.320312500000, -5.367187500000, 1491821061
0.394531250000, -0.905273437500, -0.108886718750, 4.070312500000, -4.109375000000, -8.515625000000, 1491821061
0.394531250000, -0.905273437500, -0.108886718750, 4.070312500000, -4.109375000000, -8.515625000000, 1491821061
0.394531250000, -0.905273437500, -0.108886718750, 4.070312500000, -4.109375000000, -8.515625000000, 1491821061
0.304199218750, -0.871093750000, -0.162597656250, 3.601562500000, -3.796875000000, -11.210937500000, 1491821061
0.304199218750, -0.871093750000, -0.162597656250, 3.601562500000, -3.796875000000, -11.210937500000, 1491821061
0.304199218750, -0.871093750000, -0.162597656250, 3.601562500000, -3.796875000000, -11.210937500000, 1491821061
0.460937500000, -0.869628906250, -0.178222656250, 4.898437500000, -6.507812500000, -10.492187500000, 1491821061
0.460937500000, -0.869628906250, -0.178222656250, 4.898437500000, -6.507812500000, -10.492187500000, 1491821061
0.460937500000, -0.869628906250, -0.178222656250, 4.898437500000, -6.507812500000, -10.492187500000, 1491821061
0.460937500000, -0.869628906250, -0.178222656250, 4.898437500000, -6.507812500000, -10.492187500000, 1491821061
0.361816406250, -0.903076171875, -0.186279296875, 1.085937500000, -6.726562500000, -14.710937500000, 1491821061
0.361816406250, -0.903076171875, -0.186279296875, 1.085937500000, -6.726562500000, -14.710937500000, 1491821061
0.361816406250, -0.903076171875, -0.186279296875, 1.085937500000, -6.726562500000, -14.710937500000, 1491821061
0.285400390625, -0.881591796875, -0.218750000000, 0.671875000000, -1.507812500000, -9.843750000000, 1491821061
0.285400390625, -0.881591796875, -0.218750000000, 0.671875000000, -1.507812500000, -9.843750000000, 1491821061
0.285400390625, -0.881591796875, -0.218750000000, 0.671875000000, -1.507812500000, -9.843750000000, 1491821061
0.382324218750, -0.848144531250, -0.250732421875, 0.414062500000, -6.578125000000, -9.906250000000, 1491821061
0.382324218750, -0.848144531250, -0.250732421875, 0.414062500000, -6.578125000000, -9.906250000000, 1491821061
0.382324218750, -0.848144531250, -0.250732421875, 0.414062500000, -6.578125000000, -9.906250000000, 1491821061
0.349853515625, -0.910644531250, -0.326416015625, -0.421875000000, -5.007812500000, -12.375000000000, 1491821061
0.349853515625, -0.910644531250, -0.326416015625, -0.421875000000, -5.007812500000, -12.375000000000, 1491821061
0.349853515625, -0.910644531250, -0.326416015625, -0.421875000000, -5.007812500000, -12.375000000000, 1491821062
0.349853515625, -0.910644531250, -0.326416015625, -0.421875000000, -5.007812500000, -12.375000000000, 1491821062
0.370605468750, -0.963134765625, -0.264160156250, 2.937500000000, -10.062500000000, -12.695312500000, 1491821062
0.370605468750, -0.963134765625, -0.264160156250, 2.937500000000, -10.062500000000, -12.695312500000, 1491821062
0.370605468750, -0.963134765625, -0.264160156250, 2.937500000000, -10.062500000000, -12.695312500000, 1491821062
0.331298828125, -0.900878906250, -0.290039062500, 0.453125000000, -8.718750000000, -10.679687500000, 1491821062
0.331298828125, -0.900878906250, -0.290039062500, 0.453125000000, -8.718750000000, -10.679687500000, 1491821062
0.331298828125, -0.900878906250, -0.290039062500, 0.453125000000, -8.718750000000, -10.679687500000, 1491821062
0.319824218750, -0.954833984375, -0.276855468750, -2.000000000000, -9.515625000000, -6.875000000000, 1491821062
0.319824218750, -0.954833984375, -0.276855468750, -2.000000000000, -9.515625000000, -6.875000000000, 1491821062
0.319824218750, -0.954833984375, -0.276855468750, -2.000000000000, -9.515625000000, -6.875000000000, 1491821062
0.284912109375, -0.956787109375, -0.183349609375, -2.000000000000, -6.562500000000, -12.757812500000, 1491821062
0.247558593750, -0.914794921875, -0.186767578125, -1.757812500000, -3.171875000000, -7.937500000000, 1491821062
0.247558593750, -0.914794921875, -0.186767578125, -1.757812500000, -3.171875000000, -7.937500000000, 1491821062
0.247558593750, -0.914794921875, -0.186767578125, -1.757812500000, -3.171875000000, -7.937500000000, 1491821062
0.247558593750, -0.914794921875, -0.186767578125, -1.757812500000, -3.171875000000, -7.937500000000, 1491821062
0.335693359375, -0.949707031250, -0.163818359375, -6.093750000000, -7.039062500000, -7.000000000000, 1491821062
0.335693359375, -0.949707031250, -0.163818359375, -6.093750000000, -7.039062500000, -7.000000000000, 1491821062
0.335693359375, -0.949707031250, -0.163818359375, -6.093750000000, -7.039062500000, -7.000000000000, 1491821062
0.335693359375, -0.949707031250, -0.163818359375, -6.093750000000, -7.039062500000, -7.000000000000, 1491821062
0.335693359375, -0.949707031250, -0.163818359375, -6.093750000000, -7.039062500000, -7.000000000000, 1491821062
0.302001953125, -0.960205078125, -0.235107421875, -6.945312500000, -7.953125000000, -8.257812500000, 1491821062
0.302001953125, -0.960205078125, -0.235107421875, -6.945312500000, -7.953125000000, -8.257812500000, 1491821062
0.302001953125, -0.960205078125, -0.235107421875, -6.945312500000, -7.953125000000, -8.257812500000, 1491821062
0.246093750000, -0.902099609375, -0.215332031250, 1.156250000000, -11.531250000000, -3.179687500000, 1491821062
0.246093750000, -0.902099609375, -0.215332031250, 1.156250000000, -11.531250000000, -3.179687500000, 1491821062
0.246093750000, -0.902099609375, -0.215332031250, 1.156250000000, -11.531250000000, -3.179687500000, 1491821062
0.246093750000, -0.902099609375, -0.215332031250, 1.156250000000, -11.531250000000, -3.179687500000, 1491821062
0.187011718750, -0.819824218750, -0.156005859375, -7.875000000000, -50.828125000000, 11.976562500000, 1491821062
0.187011718750, -0.819824218750, -0.156005859375, -7.875000000000, -50.828125000000, 11.976562500000, 1491821062
0.187011718750, -0.819824218750, -0.156005859375, -7.875000000000, -50.828125000000, 11.976562500000, 1491821062
0.125000000000, -1.046875000000, -0.254638671875, -33.406250000000, -121.554687500000, 19.007812500000, 1491821062
0.125000000000, -1.046875000000, -0.254638671875, -33.406250000000, -121.554687500000, 19.007812500000, 1491821062
0.125000000000, -1.046875000000, -0.254638671875, -33.406250000000, -121.554687500000, 19.007812500000, 1491821062
0.392089843750, -0.998046875000, -0.271972656250, 35.664062500000, 30.460937500000, -67.156250000000, 1491821062
0.392089843750, -0.998046875000, -0.271972656250, 35.664062500000, 30.460937500000, -67.156250000000, 1491821062
0.392089843750, -0.998046875000, -0.271972656250, 35.664062500000, 30.460937500000, -67.156250000000, 1491821062
0.501464843750, -0.890136718750, -0.069091796875, 0.460937500000, -29.054687500000, 14.835937500000, 1491821062
0.501464843750, -0.890136718750, -0.069091796875, 0.460937500000, -29.054687500000, 14.835937500000, 1491821062
0.501464843750, -0.890136718750, -0.069091796875, 0.460937500000, -29.054687500000, 14.835937500000, 1491821062
0.501464843750, -0.890136718750, -0.069091796875, 0.460937500000, -29.054687500000, 14.835937500000, 1491821062
0.113281250000, -0.868896484375, -0.121337890625, -41.039062500000, -85.304687500000, 57.210937500000, 1491821062
0.113281250000, -0.868896484375, -0.121337890625, -41.039062500000, -85.304687500000, 57.210937500000, 1491821062
0.113281250000, -0.868896484375, -0.121337890625, -41.039062500000, -85.304687500000, 57.210937500000, 1491821062
0.130615234375, -0.958740234375, -0.190917968750, -1.843750000000, 9.601562500000, -0.968750000000, 1491821062
0.130615234375, -0.958740234375, -0.190917968750, -1.843750000000, 9.601562500000, -0.968750000000, 1491821062
0.130615234375, -0.958740234375, -0.190917968750, -1.843750000000, 9.601562500000, -0.968750000000, 1491821062
0.236816406250, -0.913574218750, -0.211914062500, 17.296875000000, 47.078125000000, -21.476562500000, 1491821062
0.236816406250, -0.913574218750, -0.211914062500, 17.296875000000, 47.078125000000, -21.476562500000, 1491821062
0.236816406250, -0.913574218750, -0.211914062500, 17.296875000000, 47.078125000000, -21.476562500000, 1491821062
0.224365234375, -0.848388671875, -0.170410156250, 13.937500000000, -1.609375000000, 20.179687500000, 1491821062
0.224365234375, -0.848388671875, -0.170410156250, 13.937500000000, -1.609375000000, 20.179687500000, 1491821062
0.224365234375, -0.848388671875, -0.170410156250, 13.937500000000, -1.609375000000, 20.179687500000, 1491821062
0.224365234375, -0.848388671875, -0.170410156250, 13.937500000000, -1.609375000000, 20.179687500000, 1491821062
0.383056640625, -0.990234375000, -0.128662109375, -2.593750000000, 2.281250000000, 32.875000000000, 1491821062
0.383056640625, -0.990234375000, -0.128662109375, -2.593750000000, 2.281250000000, 32.875000000000, 1491821062
0.383056640625, -0.990234375000, -0.128662109375, -2.593750000000, 2.281250000000, 32.875000000000, 1491821062
0.337890625000, -1.143798828125, -0.177001953125, -13.101562500000, 24.148437500000, 30.187500000000, 1491821062
0.337890625000, -1.143798828125, -0.177001953125, -13.101562500000, 24.148437500000, 30.187500000000, 1491821062
0.337890625000, -1.143798828125, -0.177001953125, -13.101562500000, 24.148437500000, 30.187500000000, 1491821062
0.346191406250, -1.467529296875, -0.332275390625, -13.398437500000, 52.609375000000, 19.625000000000, 1491821062
0.346191406250, -1.467529296875, -0.332275390625, -13.398437500000, 52.609375000000, 19.625000000000, 1491821062
0.346191406250, -1.467529296875, -0.332275390625, -13.398437500000, 52.609375000000, 19.625000000000, 1491821062
0.294189453125, -1.105468750000, -0.341308593750, -1.695312500000, 49.218750000000, 24.632812500000, 1491821062
0.294189453125, -1.105468750000, -0.341308593750, -1.695312500000, 49.218750000000, 24.632812500000, 1491821062
0.294189453125, -1.105468750000, -0.341308593750, -1.695312500000, 49.218750000000, 24.632812500000, 1491821062
0.294189453125, -1.105468750000, -0.341308593750, -1.695312500000, 49.218750000000, 24.632812500000, 1491821062
0.312988281250, -0.743164062500, -0.176757812500, -27.492187500000, 32.796875000000, 27.117187500000, 1491821063
0.312988281250, -0.743164062500, -0.176757812500, -27.492187500000, 32.796875000000, 27.117187500000, 1491821063
0.312988281250, -0.743164062500, -0.176757812500, -27.492187500000, 32.796875000000, 27.117187500000, 1491821063
0.185546875000, -0.557861328125, -0.204345703125, -45.882812500000, 82.304687500000, -7.304687500000, 1491821063
0.185546875000, -0.557861328125, -0.204345703125, -45.882812500000, 82.304687500000, -7.304687500000, 1491821063
0.185546875000, -0.557861328125, -0.204345703125, -45.882812500000, 82.304687500000, -7.304687500000, 1491821063
0.452636718750, -0.846679687500, -0.282714843750, 15.023437500000, 86.179687500000, -33.328125000000, 1491821063
0.452636718750, -0.846679687500, -0.282714843750, 15.023437500000, 86.179687500000, -33.328125000000, 1491821063
0.452636718750, -0.846679687500, -0.282714843750, 15.023437500000, 86.179687500000, -33.328125000000, 1491821063
0.441406250000, -0.645996093750, -0.265869140625, 24.250000000000, -13.750000000000, -15.507812500000, 1491821063
0.441406250000, -0.645996093750, -0.265869140625, 24.250000000000, -13.750000000000, -15.507812500000, 1491821063
0.441406250000, -0.645996093750, -0.265869140625, 24.250000000000, -13.750000000000, -15.507812500000, 1491821063
0.441406250000, -0.645996093750, -0.265869140625, 24.250000000000, -13.750000000000, -15.507812500000, 1491821063
0.441406250000, -0.645996093750, -0.265869140625, 24.250000000000, -13.750000000000, -15.507812500000, 1491821063
0.441406250000, -0.645996093750, -0.265869140625, 24.250000000000, -13.750000000000, -15.507812500000, 1491821063
0.350097656250, -0.677490234375, -0.266845703125, 54.007812500000, -73.679687500000, 0.421875000000, 1491821063
0.350097656250, -0.677490234375, -0.266845703125, 54.007812500000, -73.679687500000, 0.421875000000, 1491821063
0.350097656250, -0.677490234375, -0.266845703125, 54.007812500000, -73.679687500000, 0.421875000000, 1491821063
0.350097656250, -0.677490234375, -0.266845703125, 54.007812500000, -73.679687500000, 0.421875000000, 1491821063
0.350097656250, -0.874511718750, -0.087646484375, 90.773437500000, -67.210937500000, -15.632812500000, 1491821063
0.350097656250, -0.874511718750, -0.087646484375, 90.773437500000, -67.210937500000, -15.632812500000, 1491821063
0.350097656250, -0.874511718750, -0.087646484375, 90.773437500000, -67.210937500000, -15.632812500000, 1491821063
0.363525390625, -0.926025390625, -0.012939453125, -41.507812500000, -2.796875000000, -16.617187500000, 1491821063
0.363525390625, -0.926025390625, -0.012939453125, -41.507812500000, -2.796875000000, -16.617187500000, 1491821063
0.363525390625, -0.926025390625, -0.012939453125, -41.507812500000, -2.796875000000, -16.617187500000, 1491821063
0.363525390625, -0.926025390625, -0.012939453125, -41.507812500000, -2.796875000000, -16.617187500000, 1491821063
0.353027343750, -0.742187500000, -0.254638671875, -58.242187500000, -10.867187500000, 2.718750000000, 1491821063
0.353027343750, -0.742187500000, -0.254638671875, -58.242187500000, -10.867187500000, 2.718750000000, 1491821063
0.353027343750, -0.742187500000, -0.254638671875, -58.242187500000, -10.867187500000, 2.718750000000, 1491821063
0.302734375000, -0.911621093750, -0.185302734375, -35.445312500000, -76.070312500000, 18.250000000000, 1491821063
0.302734375000, -0.911621093750, -0.185302734375, -35.445312500000, -76.070312500000, 18.250000000000, 1491821063
0.302734375000, -0.911621093750, -0.185302734375, -35.445312500000, -76.070312500000, 18.250000000000, 1491821063
0.465576171875, -1.081787109375, -0.094238281250, 14.906250000000, -51.070312500000, -18.304687500000, 1491821063
0.465576171875, -1.081787109375, -0.094238281250, 14.906250000000, -51.070312500000, -18.304687500000, 1491821063
0.465576171875, -1.081787109375, -0.094238281250, 14.906250000000, -51.070312500000, -18.304687500000, 1491821063
0.351074218750, -1.281005859375, 0.004150390625, -73.156250000000, -64.312500000000, 7.023437500000, 1491821063
0.351074218750, -1.281005859375, 0.004150390625, -73.156250000000, -64.312500000000, 7.023437500000, 1491821063
0.351074218750, -1.281005859375, 0.004150390625, -73.156250000000, -64.312500000000, 7.023437500000, 1491821063
0.351074218750, -1.281005859375, 0.004150390625, -73.156250000000, -64.312500000000, 7.023437500000, 1491821063
0.329589843750, -1.036376953125, -0.231445312500, -76.445312500000, -52.734375000000, 10.390625000000, 1491821063
0.329589843750, -1.036376953125, -0.231445312500, -76.445312500000, -52.734375000000, 10.390625000000, 1491821063
0.329589843750, -1.036376953125, -0.231445312500, -76.445312500000, -52.734375000000, 10.390625000000, 1491821063
0.225830078125, -0.729003906250, -0.317138671875, -57.070312500000, -31.507812500000, 10.484375000000, 1491821063
0.225830078125, -0.729003906250, -0.317138671875, -57.070312500000, -31.507812500000, 10.484375000000, 1491821063
0.225830078125, -0.729003906250, -0.317138671875, -57.070312500000, -31.507812500000, 10.484375000000, 1491821063
0.260986328125, -0.970703125000, -0.376953125000, -77.195312500000, -21.812500000000, 34.054687500000, 1491821063
0.260986328125, -0.970703125000, -0.376953125000, -77.195312500000, -21.812500000000, 34.054687500000, 1491821063
0.260986328125, -0.970703125000, -0.376953125000, -77.195312500000, -21.812500000000, 34.054687500000, 1491821063
0.341796875000, -0.963623046875, -0.322021484375, 4.851562500000, -24.953125000000, 14.125000000000, 1491821063
0.341796875000, -0.963623046875, -0.322021484375, 4.851562500000, -24.953125000000, 14.125000000000, 1491821063
0.341796875000, -0.963623046875, -0.322021484375, 4.851562500000, -24.953125000000, 14.125000000000, 1491821063
0.341796875000, -0.963623046875, -0.322021484375, 4.851562500000, -24.953125000000, 14.125000000000, 1491821063
0.326416015625, -0.752929687500, -0.216552734375, 66.335937500000, 44.500000000000, -19.250000000000, 1491821063
0.326416015625, -0.752929687500, -0.216552734375, 66.335937500000, 44.500000000000, -19.250000000000, 1491821063
0.326416015625, -0.752929687500, -0.216552734375, 66.335937500000, 44.500000000000, -19.250000000000, 1491821063
0.225341796875, -0.757568359375, -0.317626953125, 68.734375000000, -51.945312500000, 30.187500000000, 1491821063
0.225341796875, -0.757568359375, -0.317626953125, 68.734375000000, -51.945312500000, 30.187500000000, 1491821063
0.225341796875, -0.757568359375, -0.317626953125, 68.734375000000, -51.945312500000, 30.187500000000, 1491821063
0.250732421875, -0.892333984375, -0.121582031250, 48.664062500000, -163.867187500000, 66.867187500000, 1491821063
0.250732421875, -0.892333984375, -0.121582031250, 48.664062500000, -163.867187500000, 66.867187500000, 1491821063
0.250732421875, -0.892333984375, -0.121582031250, 48.664062500000, -163.867187500000, 66.867187500000, 1491821063
0.333251953125, -0.912353515625, -0.209960937500, -36.781250000000, 32.617187500000, -5.937500000000, 1491821063
0.333251953125, -0.912353515625, -0.209960937500, -36.781250000000, 32.617187500000, -5.937500000000, 1491821063
0.333251953125, -0.912353515625, -0.209960937500, -36.781250000000, 32.617187500000, -5.937500000000, 1491821063
0.333251953125, -0.912353515625, -0.209960937500, -36.781250000000, 32.617187500000, -5.937500000000, 1491821063
0.282226562500, -0.907226562500, -0.280273437500, -36.890625000000, 41.960937500000, -1.437500000000, 1491821063
0.282226562500, -0.907226562500, -0.280273437500, -36.890625000000, 41.960937500000, -1.437500000000, 1491821063
0.282226562500, -0.907226562500, -0.280273437500, -36.890625000000, 41.960937500000, -1.437500000000, 1491821064
0.526611328125, -1.074462890625, -0.318115234375, -4.945312500000, 36.046875000000, -15.039062500000, 1491821064
0.526611328125, -1.074462890625, -0.318115234375, -4.945312500000, 36.046875000000, -15.039062500000, 1491821064
0.526611328125, -1.074462890625, -0.318115234375, -4.945312500000, 36.046875000000, -15.039062500000, 1491821064
0.436767578125, -0.947265625000, -0.197265625000, 37.718750000000, 26.593750000000, 2.828125000000, 1491821064
0.436767578125, -0.947265625000, -0.197265625000, 37.718750000000, 26.593750000000, 2.828125000000, 1491821064
0.436767578125, -0.947265625000, -0.197265625000, 37.718750000000, 26.593750000000, 2.828125000000, 1491821064
0.650878906250, -1.265869140625, -0.159912109375, -25.531250000000, 68.921875000000, -6.562500000000, 1491821064
0.650878906250, -1.265869140625, -0.159912109375, -25.531250000000, 68.921875000000, -6.562500000000, 1491821064
0.650878906250, -1.265869140625, -0.159912109375, -25.531250000000, 68.921875000000, -6.562500000000, 1491821064
0.650878906250, -1.265869140625, -0.159912109375, -25.531250000000, 68.921875000000, -6.562500000000, 1491821064
0.364257812500, -0.715087890625, -0.238525390625, -49.484375000000, 84.679687500000, -21.093750000000, 1491821064
0.364257812500, -0.715087890625, -0.238525390625, -49.484375000000, 84.679687500000, -21.093750000000, 1491821064
0.364257812500, -0.715087890625, -0.238525390625, -49.484375000000, 84.679687500000, -21.093750000000, 1491821064
0.367187500000, -0.730224609375, -0.287109375000, -69.437500000000, 122.523437500000, -30.257812500000, 1491821064
0.367187500000, -0.730224609375, -0.287109375000, -69.437500000000, 122.523437500000, -30.257812500000, 1491821064
0.367187500000, -0.730224609375, -0.287109375000, -69.437500000000, 122.523437500000, -30.257812500000, 1491821064
0.418212890625, -0.947021484375, -0.223876953125, -35.476562500000, 88.773437500000, -45.000000000000, 1491821064
0.418212890625, -0.947021484375, -0.223876953125, -35.476562500000, 88.773437500000, -45.000000000000, 1491821064
0.418212890625, -0.947021484375, -0.223876953125, -35.476562500000, 88.773437500000, -45.000000000000, 1491821064
0.318115234375, -0.755615234375, -0.334472656250, 16.515625000000, 3.625000000000, 7.015625000000, 1491821064
0.318115234375, -0.755615234375, -0.334472656250, 16.515625000000, 3.625000000000, 7.015625000000, 1491821064
0.318115234375, -0.755615234375, -0.334472656250, 16.515625000000, 3.625000000000, 7.015625000000, 1491821064
0.318115234375, -0.755615234375, -0.334472656250, 16.515625000000, 3.625000000000, 7.015625000000, 1491821064
0.295898437500, -0.810302734375, -0.343017578125, 49.726562500000, -98.937500000000, 11.218750000000, 1491821064
0.295898437500, -0.810302734375, -0.343017578125, 49.726562500000, -98.937500000000, 11.218750000000, 1491821064
0.295898437500, -0.810302734375, -0.343017578125, 49.726562500000, -98.937500000000, 11.218750000000, 1491821064
0.414062500000, -0.849121093750, -0.036132812500, 143.273437500000, -39.898437500000, -41.179687500000, 1491821064
0.414062500000, -0.849121093750, -0.036132812500, 143.273437500000, -39.898437500000, -41.179687500000, 1491821064
0.414062500000, -0.849121093750, -0.036132812500, 143.273437500000, -39.898437500000, -41.179687500000, 1491821064
0.639892578125, -0.912109375000, 0.761962890625, 28.453125000000, 58.171875000000, -37.921875000000, 1491821064
0.639892578125, -0.912109375000, 0.761962890625, 28.453125000000, 58.171875000000, -37.921875000000, 1491821064
0.639892578125, -0.912109375000, 0.761962890625, 28.453125000000, 58.171875000000, -37.921875000000, 1491821064
0.449462890625, -0.793457031250, -0.218017578125, -62.140625000000, 6.648437500000, 5.882812500000, 1491821064
0.449462890625, -0.793457031250, -0.218017578125, -62.140625000000, 6.648437500000, 5.882812500000, 1491821064
0.449462890625, -0.793457031250, -0.218017578125, -62.140625000000, 6.648437500000, 5.882812500000, 1491821064
0.449462890625, -0.793457031250, -0.218017578125, -62.140625000000, 6.648437500000, 5.882812500000, 1491821064
0.353515625000, -0.855224609375, -0.270507812500, -15.820312500000, -19.937500000000, -10.062500000000, 1491821064
0.353515625000, -0.855224609375, -0.270507812500, -15.820312500000, -19.937500000000, -10.062500000000, 1491821064
0.353515625000, -0.855224609375, -0.270507812500, -15.820312500000, -19.937500000000, -10.062500000000, 1491821064
0.534179687500, -1.064697265625, -0.131103515625, 22.679687500000, -12.226562500000, -29.890625000000, 1491821064
0.534179687500, -1.064697265625, -0.131103515625, 22.679687500000, -12.226562500000, -29.890625000000, 1491821064
0.534179687500, -1.064697265625, -0.131103515625, 22.679687500000, -12.226562500000, -29.890625000000, 1491821064
0.428955078125, -1.313476562500, 0.028076171875, -37.945312500000, -16.234375000000, -3.445312500000, 1491821064
0.428955078125, -1.313476562500, 0.028076171875, -37.945312500000, -16.234375000000, -3.445312500000, 1491821064
0.428955078125, -1.313476562500, 0.028076171875, -37.945312500000, -16.234375000000, -3.445312500000, 1491821064
0.330810546875, -0.907226562500, -0.275390625000, -46.359375000000, -12.671875000000, -7.742187500000, 1491821064
0.330810546875, -0.907226562500, -0.275390625000, -46.359375000000, -12.671875000000, -7.742187500000, 1491821064
0.330810546875, -0.907226562500, -0.275390625000, -46.359375000000, -12.671875000000, -7.742187500000, 1491821064
0.169677734375, -0.705566406250, -0.166748046875, -30.750000000000, -11.242187500000, 12.179687500000, 1491821064
0.169677734375, -0.705566406250, -0.166748046875, -30.750000000000, -11.242187500000, 12.179687500000, 1491821064
0.169677734375, -0.705566406250, -0.166748046875, -30.750000000000, -11.242187500000, 12.179687500000, 1491821064
0.169677734375, -0.705566406250, -0.166748046875, -30.750000000000, -11.242187500000, 12.179687500000, 1491821064
0.207763671875, -0.873535156250, -0.335693359375, -58.703125000000, -42.460937500000, 31.531250000000, 1491821064
0.207763671875, -0.873535156250, -0.335693359375, -58.703125000000, -42.460937500000, 31.531250000000, 1491821064
0.207763671875, -0.873535156250, -0.335693359375, -58.703125000000, -42.460937500000, 31.531250000000, 1491821064
0.346191406250, -1.164062500000, -0.323974609375, -3.140625000000, -39.351562500000, 8.328125000000, 1491821064
0.346191406250, -1.164062500000, -0.323974609375, -3.140625000000, -39.351562500000, 8.328125000000, 1491821064
0.346191406250, -1.164062500000, -0.323974609375, -3.140625000000, -39.351562500000, 8.328125000000, 1491821064
0.402099609375, -0.771240234375, -0.262939453125, 90.929687500000, 20.195312500000, -36.570312500000, 1491821064
0.402099609375, -0.771240234375, -0.262939453125, 90.929687500000, 20.195312500000, -36.570312500000, 1491821064
0.402099609375, -0.771240234375, -0.262939453125, 90.929687500000, 20.195312500000, -36.570312500000, 1491821064
0.402099609375, -0.771240234375, -0.262939453125, 90.929687500000, 20.195312500000, -36.570312500000, 1491821064
0.414794921875, -0.866210937500, 0.273925781250, 59.187500000000, -56.382812500000, 34.570312500000, 1491821064
0.414794921875, -0.866210937500, 0.273925781250, 59.187500000000, -56.382812500000, 34.570312500000, 1491821064
0.414794921875, -0.866210937500, 0.273925781250, 59.187500000000, -56.382812500000, 34.570312500000, 1491821064
0.263183593750, -0.841064453125, -0.115722656250, -54.609375000000, -23.687500000000, 44.664062500000, 1491821065
0.263183593750, -0.841064453125, -0.115722656250, -54.609375000000, -23.687500000000, 44.664062500000, 1491821065
0.263183593750, -0.841064453125, -0.115722656250, -54.609375000000, -23.687500000000, 44.664062500000, 1491821065
0.251220703125, -0.943847656250, -0.257324218750, -54.507812500000, -52.601562500000, 57.593750000000, 1491821065
0.251220703125, -0.943847656250, -0.257324218750, -54.507812500000, -52.601562500000, 57.593750000000, 1491821065
0.316650390625, -0.901367187500, -0.212646484375, 7.218750000000, 11.218750000000, -7.257812500000, 1491821065
0.285888671875, -0.906494140625, -0.186767578125, 18.031250000000, 14.757812500000, -18.546875000000, 1491821065
0.285888671875, -0.906494140625, -0.186767578125, 18.031250000000, 14.757812500000, -18.546875000000, 1491821065
0.285888671875, -0.906494140625, -0.186767578125, 18.031250000000, 14.757812500000, -18.546875000000, 1491821065
0.285888671875, -0.906494140625, -0.186767578125, 18.031250000000, 14.757812500000, -18.546875000000, 1491821065
0.566894531250, -1.048583984375, 0.058837890625, 38.335937500000, 24.242187500000, -22.585937500000, 1491821065
0.566894531250, -1.048583984375, 0.058837890625, 38.335937500000, 24.242187500000, -22.585937500000, 1491821065
0.566894531250, -1.048583984375, 0.058837890625, 38.335937500000, 24.242187500000, -22.585937500000, 1491821065
0.383789062500, -1.202636718750, -0.323242187500, -46.976562500000, 9.812500000000, 28.953125000000, 1491821065
0.383789062500, -1.202636718750, -0.323242187500, -46.976562500000, 9.812500000000, 28.953125000000, 1491821065
0.383789062500, -1.202636718750, -0.323242187500, -46.976562500000, 9.812500000000, 28.953125000000, 1491821065
0.653564453125, -1.100097656250, -0.256835937500, -1.757812500000, 47.000000000000, -7.117187500000, 1491821065
0.653564453125, -1.100097656250, -0.256835937500, -1.757812500000, 47.000000000000, -7.117187500000, 1491821065
0.653564453125, -1.100097656250, -0.256835937500, -1.757812500000, 47.000000000000, -7.117187500000, 1491821065
0.418457031250, -0.610107421875, -0.148681640625, -20.390625000000, 66.609375000000, -14.695312500000, 1491821065
0.418457031250, -0.610107421875, -0.148681640625, -20.390625000000, 66.609375000000, -14.695312500000, 1491821065
0.418457031250, -0.610107421875, -0.148681640625, -20.390625000000, 66.609375000000, -14.695312500000, 1491821065
0.418457031250, -0.610107421875, -0.148681640625, -20.390625000000, 66.609375000000, -14.695312500000, 1491821065
0.342285156250, -0.754882812500, -0.321777343750, -61.375000000000, 90.304687500000, -19.320312500000, 1491821065
0.342285156250, -0.754882812500, -0.321777343750, -61.375000000000, 90.304687500000, -19.320312500000, 1491821065
0.342285156250, -0.754882812500, -0.321777343750, -61.375000000000, 90.304687500000, -19.320312500000, 1491821065
0.533203125000, -0.969726562500, -0.243896484375, -25.601562500000, 71.890625000000, -50.554687500000, 1491821065
0.533203125000, -0.969726562500, -0.243896484375, -25.601562500000, 71.890625000000, -50.554687500000, 1491821065
0.533203125000, -0.969726562500, -0.243896484375, -25.601562500000, 71.890625000000, -50.554687500000, 1491821065
0.339355468750, -0.731933593750, -0.238037109375, 60.984375000000, 81.320312500000, -31.781250000000, 1491821065
0.339355468750, -0.731933593750, -0.238037109375, 60.984375000000, 81.320312500000, -31.781250000000, 1491821065
0.339355468750, -0.731933593750, -0.238037109375, 60.984375000000, 81.320312500000, -31.781250000000, 1491821065
0.285644531250, -0.679931640625, -0.267089843750, 59.664062500000, -15.335937500000, 5.421875000000, 1491821065
0.285644531250, -0.679931640625, -0.267089843750, 59.664062500000, -15.335937500000, 5.421875000000, 1491821065
0.484619140625, -0.957031250000, 0.301269531250, 90.757812500000, 3.375000000000, -66.593750000000, 1491821065
0.484619140625, -0.957031250000, 0.301269531250, 90.757812500000, 3.375000000000, -66.593750000000, 1491821065
0.484619140625, -0.957031250000, 0.301269531250, 90.757812500000, 3.375000000000, -66.593750000000, 1491821065
0.484619140625, -0.957031250000, 0.301269531250, 90.757812500000, 3.375000000000, -66.593750000000, 1491821065
0.484619140625, -0.957031250000, 0.301269531250, 90.757812500000, 3.375000000000, -66.593750000000, 1491821065
0.477050781250, -0.728515625000, -0.051757812500, -51.898437500000, 35.632812500000, -10.531250000000, 1491821065
0.477050781250, -0.728515625000, -0.051757812500, -51.898437500000, 35.632812500000, -10.531250000000, 1491821065
0.477050781250, -0.728515625000, -0.051757812500, -51.898437500000, 35.632812500000, -10.531250000000, 1491821065
0.326416015625, -0.793457031250, -0.193847656250, -17.609375000000, 22.000000000000, -15.890625000000, 1491821065
0.326416015625, -0.793457031250, -0.193847656250, -17.609375000000, 22.000000000000, -15.890625000000, 1491821065
0.326416015625, -0.793457031250, -0.193847656250, -17.609375000000, 22.000000000000, -15.890625000000, 1491821065
0.456787109375, -0.801025390625, -0.038330078125, 10.375000000000, -10.968750000000, -23.609375000000, 1491821065
0.456787109375, -0.801025390625, -0.038330078125, 10.375000000000, -10.968750000000, -23.609375000000, 1491821065
0.456787109375, -0.801025390625, -0.038330078125, 10.375000000000, -10.968750000000, -23.609375000000, 1491821065
0.456787109375, -0.801025390625, -0.038330078125, 10.375000000000, -10.968750000000, -23.609375000000, 1491821065
0.350097656250, -0.940673828125, -0.039794921875, -14.546875000000, 1.085937500000, -30.992187500000, 1491821065
0.350097656250, -0.940673828125, -0.039794921875, -14.546875000000, 1.085937500000, -30.992187500000, 1491821065
0.350097656250, -0.940673828125, -0.039794921875, -14.546875000000, 1.085937500000, -30.992187500000, 1491821065
0.377929687500, -1.688232421875, -0.188232421875, -41.656250000000, -17.531250000000, -10.625000000000, 1491821065
0.377929687500, -1.688232421875, -0.188232421875, -41.656250000000, -17.531250000000, -10.625000000000, 1491821065
0.377929687500, -1.688232421875, -0.188232421875, -41.656250000000, -17.531250000000, -10.625000000000, 1491821065
0.390136718750, -1.447021484375, -0.184082031250, -54.359375000000, 18.789062500000, -58.484375000000, 1491821065
0.390136718750, -1.447021484375, -0.184082031250, -54.359375000000, 18.789062500000, -58.484375000000, 1491821065
0.390136718750, -1.447021484375, -0.184082031250, -54.359375000000, 18.789062500000, -58.484375000000, 1491821065
0.185791015625, -0.736572265625, -0.182128906250, -25.054687500000, 72.789062500000, -41.898437500000, 1491821065
0.185791015625, -0.736572265625, -0.182128906250, -25.054687500000, 72.789062500000, -41.898437500000, 1491821065
0.185791015625, -0.736572265625, -0.182128906250, -25.054687500000, 72.789062500000, -41.898437500000, 1491821065
0.170166015625, -0.646972656250, -0.196044921875, -25.968750000000, 88.437500000000, -40.781250000000, 1491821065
0.260253906250, -0.689941406250, -0.169677734375, -51.476562500000, 94.953125000000, -9.507812500000, 1491821065
0.260253906250, -0.689941406250, -0.169677734375, -51.476562500000, 94.953125000000, -9.507812500000, 1491821065
0.260253906250, -0.689941406250, -0.169677734375, -51.476562500000, 94.953125000000, -9.507812500000, 1491821065
0.307617187500, -0.921630859375, -0.283447265625, -56.742187500000, -10.703125000000, 28.578125000000, 1491821065
0.307617187500, -0.921630859375, -0.283447265625, -56.742187500000, -10.703125000000, 28.578125000000, 1491821065
0.307617187500, -0.921630859375, -0.283447265625, -56.742187500000, -10.703125000000, 28.578125000000, 1491821065
0.347900390625, -1.065185546875, -0.288330078125, -3.398437500000, -52.500000000000, 46.304687500000, 1491821066
0.347900390625, -1.065185546875, -0.288330078125, -3.398437500000, -52.500000000000, 46.304687500000, 1491821066
0.347900390625, -1.065185546875, -0.288330078125, -3.398437500000, -52.500000000000, 46.304687500000, 1491821066
0.179199218750, -0.803222656250, -0.237548828125, 77.789062500000, -7.656250000000, 20.960937500000, 1491821066
0.179199218750, -0.803222656250, -0.237548828125, 77.789062500000, -7.656250000000, 20.960937500000, 1491821066
0.179199218750, -0.803222656250, -0.237548828125, 77.789062500000, -7.656250000000, 20.960937500000, 1491821066
0.179199218750, -0.803222656250, -0.237548828125, 77.789062500000, -7.656250000000, 20.960937500000, 1491821066
0.275878906250, -0.867919921875, -0.096923828125, 122.468750000000, -39.093750000000, -9.078125000000, 1491821066
0.275878906250, -0.867919921875, -0.096923828125, 122.468750000000, -39.093750000000, -9.078125000000, 1491821066
0.275878906250, -0.867919921875, -0.096923828125, 122.468750000000, -39.093750000000, -9.078125000000, 1491821066
0.390380859375, -0.975097656250, 0.090332031250, -17.539062500000, 91.445312500000, 2.085937500000, 1491821066
0.390380859375, -0.975097656250, 0.090332031250, -17.539062500000, 91.445312500000, 2.085937500000, 1491821066
0.390380859375, -0.975097656250, 0.090332031250, -17.539062500000, 91.445312500000, 2.085937500000, 1491821066
0.246582031250, -0.886718750000, -0.205078125000, -42.632812500000, 93.195312500000, 0.851562500000, 1491821066
0.246582031250, -0.886718750000, -0.205078125000, -42.632812500000, 93.195312500000, 0.851562500000, 1491821066
0.246582031250, -0.886718750000, -0.205078125000, -42.632812500000, 93.195312500000, 0.851562500000, 1491821066
0.239501953125, -0.935058593750, -0.234130859375, 10.320312500000, 81.726562500000, -14.804687500000, 1491821066
0.239501953125, -0.935058593750, -0.234130859375, 10.320312500000, 81.726562500000, -14.804687500000, 1491821066
0.239501953125, -0.935058593750, -0.234130859375, 10.320312500000, 81.726562500000, -14.804687500000, 1491821066
0.239501953125, -0.935058593750, -0.234130859375, 10.320312500000, 81.726562500000, -14.804687500000, 1491821066
0.261962890625, -1.028076171875, -0.260742187500, 53.414062500000, 22.117187500000, 2.578125000000, 1491821066
0.261962890625, -1.028076171875, -0.260742187500, 53.414062500000, 22.117187500000, 2.578125000000, 1491821066
0.412841796875, -1.144531250000, 0.141845703125, 99.851562500000, 35.843750000000, -40.875000000000, 1491821066
0.412841796875, -1.144531250000, 0.141845703125, 99.851562500000, 35.843750000000, -40.875000000000, 1491821066
0.412841796875, -1.144531250000, 0.141845703125, 99.851562500000, 35.843750000000, -40.875000000000, 1491821066
0.457275390625, -1.260498046875, -0.173339843750, -77.265625000000, 78.531250000000, 29.148437500000, 1491821066
0.457275390625, -1.260498046875, -0.173339843750, -77.265625000000, 78.531250000000, 29.148437500000, 1491821066
0.457275390625, -1.260498046875, -0.173339843750, -77.265625000000, 78.531250000000, 29.148437500000, 1491821066
0.457275390625, -1.260498046875, -0.173339843750, -77.265625000000, 78.531250000000, 29.148437500000, 1491821066
0.512207031250, -0.849853515625, -0.336669921875, 26.226562500000, 166.265625000000, -33.265625000000, 1491821066
0.512207031250, -0.849853515625, -0.336669921875, 26.226562500000, 166.265625000000, -33.265625000000, 1491821066
0.512207031250, -0.849853515625, -0.336669921875, 26.226562500000, 166.265625000000, -33.265625000000, 1491821066
0.512207031250, -0.849853515625, -0.336669921875, 26.226562500000, 166.265625000000, -33.265625000000, 1491821066
0.156738281250, -0.500488281250, -0.206298828125, 9.898437500000, 138.156250000000, -14.585937500000, 1491821066
0.156738281250, -0.500488281250, -0.206298828125, 9.898437500000, 138.156250000000, -14.585937500000, 1491821066
0.156738281250, -0.500488281250, -0.206298828125, 9.898437500000, 138.156250000000, -14.585937500000, 1491821066
0.444580078125, -0.726806640625, -0.322265625000, -47.843750000000, 96.679687500000, 6.367187500000, 1491821066
0.444580078125, -0.726806640625, -0.322265625000, -47.843750000000, 96.679687500000, 6.367187500000, 1491821066
0.444580078125, -0.726806640625, -0.322265625000, -47.843750000000, 96.679687500000, 6.367187500000, 1491821066
0.497558593750, -1.058837890625, -0.294677734375, 41.054687500000, 130.492187500000, -10.453125000000, 1491821066
0.497558593750, -1.058837890625, -0.294677734375, 41.054687500000, 130.492187500000, -10.453125000000, 1491821066
0.497558593750, -1.058837890625, -0.294677734375, 41.054687500000, 130.492187500000, -10.453125000000, 1491821066
0.515625000000, -0.856445312500, -0.295166015625, 93.421875000000, 158.625000000000, -53.257812500000, 1491821066
0.515625000000, -0.856445312500, -0.295166015625, 93.421875000000, 158.625000000000, -53.257812500000, 1491821066
0.515625000000, -0.856445312500, -0.295166015625, 93.421875000000, 158.625000000000, -53.257812500000, 1491821066
0.515625000000, -0.856445312500, -0.295166015625, 93.421875000000, 158.625000000000, -53.257812500000, 1491821066
0.328369140625, -0.768798828125, -0.221679687500, 132.398437500000, 105.296875000000, -35.000000000000, 1491821066
0.328369140625, -0.768798828125, -0.221679687500, 132.398437500000, 105.296875000000, -35.000000000000, 1491821066
0.328369140625, -0.768798828125, -0.221679687500, 132.398437500000, 105.296875000000, -35.000000000000, 1491821066
0.331542968750, -0.864990234375, 0.004394531250, 109.960937500000, 20.000000000000, 1.687500000000, 1491821066
0.331542968750, -0.864990234375, 0.004394531250, 109.960937500000, 20.000000000000, 1.687500000000, 1491821066
0.331542968750, -0.864990234375, 0.004394531250, 109.960937500000, 20.000000000000, 1.687500000000, 1491821066
0.470703125000, -0.910400390625, 0.079589843750, -8.437500000000, 153.085937500000, -61.703125000000, 1491821066
0.470703125000, -0.910400390625, 0.079589843750, -8.437500000000, 153.085937500000, -61.703125000000, 1491821066
0.470703125000, -0.910400390625, 0.079589843750, -8.437500000000, 153.085937500000, -61.703125000000, 1491821066
0.408447265625, -0.902099609375, -0.232421875000, -26.773437500000, 111.453125000000, -19.445312500000, 1491821066
0.408447265625, -0.902099609375, -0.232421875000, -26.773437500000, 111.453125000000, -19.445312500000, 1491821066
0.408447265625, -0.902099609375, -0.232421875000, -26.773437500000, 111.453125000000, -19.445312500000, 1491821066
0.408447265625, -0.902099609375, -0.232421875000, -26.773437500000, 111.453125000000, -19.445312500000, 1491821066
0.454345703125, -1.002197265625, -0.156738281250, 5.984375000000, 82.226562500000, -13.921875000000, 1491821066
0.454345703125, -1.002197265625, -0.156738281250, 5.984375000000, 82.226562500000, -13.921875000000, 1491821066
0.454345703125, -1.002197265625, -0.156738281250, 5.984375000000, 82.226562500000, -13.921875000000, 1491821066
0.233886718750, -1.172363281250, -0.155029296875, 28.171875000000, 51.515625000000, -16.390625000000, 1491821066
0.233886718750, -1.172363281250, -0.155029296875, 28.171875000000, 51.515625000000, -16.390625000000, 1491821066
0.233886718750, -1.172363281250, -0.155029296875, 28.171875000000, 51.515625000000, -16.390625000000, 1491821066
0.368652343750, -1.140380859375, 0.077636718750, 17.468750000000, 49.703125000000, -47.515625000000, 1491821067
0.368652343750, -1.140380859375, 0.077636718750, 17.468750000000, 49.703125000000, -47.515625000000, 1491821067
0.368652343750, -1.140380859375, 0.077636718750, 17.468750000000, 49.703125000000, -47.515625000000, 1491821067
0.528564453125, -0.736083984375, -0.211425781250, -27.695312500000, 110.507812500000, -23.718750000000, 1491821067
0.528564453125, -0.736083984375, -0.211425781250, -27.695312500000, 110.507812500000, -23.718750000000, 1491821067
0.528564453125, -0.736083984375, -0.211425781250, -27.695312500000, 110.507812500000, -23.718750000000, 1491821067
0.528564453125, -0.736083984375, -0.211425781250, -27.695312500000, 110.507812500000, -23.718750000000, 1491821067
0.330566406250, -0.611328125000, -0.209960937500, -27.554687500000, 126.164062500000, -20.085937500000, 1491821067
0.330566406250, -0.611328125000, -0.209960937500, -27.554687500000, 126.164062500000, -20.085937500000, 1491821067
0.330566406250, -0.611328125000, -0.209960937500, -27.554687500000, 126.164062500000, -20.085937500000, 1491821067
0.239013671875, -0.807861328125, -0.305664062500, -52.023437500000, 123.679687500000, 2.476562500000, 1491821067
0.239013671875, -0.807861328125, -0.305664062500, -52.023437500000, 123.679687500000, 2.476562500000, 1491821067
0.239013671875, -0.807861328125, -0.305664062500, -52.023437500000, 123.679687500000, 2.476562500000, 1491821067
0.361572265625, -1.237304687500, -0.377685546875, -29.343750000000, -17.617187500000, 61.718750000000, 1491821067
0.361572265625, -1.237304687500, -0.377685546875, -29.343750000000, -17.617187500000, 61.718750000000, 1491821067
0.361572265625, -1.237304687500, -0.377685546875, -29.343750000000, -17.617187500000, 61.718750000000, 1491821067
0.255371093750, -0.926513671875, -0.212402343750, 52.343750000000, 10.437500000000, 46.945312500000, 1491821067
0.255371093750, -0.926513671875, -0.212402343750, 52.343750000000, 10.437500000000, 46.945312500000, 1491821067
0.255371093750, -0.926513671875, -0.212402343750, 52.343750000000, 10.437500000000, 46.945312500000, 1491821067
0.255371093750, -0.926513671875, -0.212402343750, 52.343750000000, 10.437500000000, 46.945312500000, 1491821067
0.198486328125, -0.793212890625, -0.263183593750, 141.710937500000, 154.804687500000, -28.515625000000, 1491821067
0.198486328125, -0.793212890625, -0.263183593750, 141.710937500000, 154.804687500000, -28.515625000000, 1491821067
0.198486328125, -0.793212890625, -0.263183593750, 141.710937500000, 154.804687500000, -28.515625000000, 1491821067
0.153808593750, -0.870117187500, -0.152099609375, 138.765625000000, 51.085937500000, -16.375000000000, 1491821067
0.153808593750, -0.870117187500, -0.152099609375, 138.765625000000, 51.085937500000, -16.375000000000, 1491821067
0.153808593750, -0.870117187500, -0.152099609375, 138.765625000000, 51.085937500000, -16.375000000000, 1491821067
0.240966796875, -1.006835937500, 0.051269531250, 8.734375000000, 117.992187500000, -35.781250000000, 1491821067
0.240966796875, -1.006835937500, 0.051269531250, 8.734375000000, 117.992187500000, -35.781250000000, 1491821067
0.240966796875, -1.006835937500, 0.051269531250, 8.734375000000, 117.992187500000, -35.781250000000, 1491821067
0.282226562500, -0.907470703125, -0.314453125000, 23.921875000000, 124.117187500000, -27.593750000000, 1491821067
0.282226562500, -0.907470703125, -0.314453125000, 23.921875000000, 124.117187500000, -27.593750000000, 1491821067
0.282226562500, -0.907470703125, -0.314453125000, 23.921875000000, 124.117187500000, -27.593750000000, 1491821067
0.282226562500, -0.907470703125, -0.314453125000, 23.921875000000, 124.117187500000, -27.593750000000, 1491821067
0.275146484375, -0.971923828125, -0.194824218750, 40.867187500000, 65.523437500000, -2.203125000000, 1491821067
0.275146484375, -0.971923828125, -0.194824218750, 40.867187500000, 65.523437500000, -2.203125000000, 1491821067
0.275146484375, -0.971923828125, -0.194824218750, 40.867187500000, 65.523437500000, -2.203125000000, 1491821067
0.240722656250, -0.961669921875, 0.029541015625, 17.335937500000, 90.046875000000, -6.562500000000, 1491821067
0.240722656250, -0.961669921875, 0.029541015625, 17.335937500000, 90.046875000000, -6.562500000000, 1491821067
0.240722656250, -0.961669921875, 0.029541015625, 17.335937500000, 90.046875000000, -6.562500000000, 1491821067
0.231689453125, -0.800048828125, -0.100097656250, -5.734375000000, 52.664062500000, 15.523437500000, 1491821067
0.231689453125, -0.800048828125, -0.100097656250, -5.734375000000, 52.664062500000, 15.523437500000, 1491821067
0.231689453125, -0.800048828125, -0.100097656250, -5.734375000000, 52.664062500000, 15.523437500000, 1491821067
0.415527343750, -1.138183593750, -0.205322265625, -2.312500000000, 12.953125000000, 8.804687500000, 1491821067
0.415527343750, -1.138183593750, -0.205322265625, -2.312500000000, 12.953125000000, 8.804687500000, 1491821067
0.415527343750, -1.138183593750, -0.205322265625, -2.312500000000, 12.953125000000, 8.804687500000, 1491821067
0.415527343750, -1.138183593750, -0.205322265625, -2.312500000000, 12.953125000000, 8.804687500000, 1491821067
0.494873046875, -1.056640625000, -0.235595703125, 23.039062500000, 90.570312500000, -18.695312500000, 1491821067
0.494873046875, -1.056640625000, -0.235595703125, 23.039062500000, 90.570312500000, -18.695312500000, 1491821067
0.494873046875, -1.056640625000, -0.235595703125, 23.039062500000, 90.570312500000, -18.695312500000, 1491821067
