ACC_X,ACC_Y,ACC_Z,G_X,G_Y,G_Z,Unix Time
0.181396484375, -1.000976562500, 0.079345703125, -3.203125000000, 1.007812500000, -7.921875000000, 1491821305
0.181396484375, -1.000976562500, 0.079345703125, -3.203125000000, 1.007812500000, -7.921875000000, 1491821305
0.181396484375, -1.000976562500, 0.079345703125, -3.203125000000, 1.007812500000, -7.921875000000, 1491821305
0.240234375000, -0.922119140625, 0.126464843750, -2.250000000000, 0.421875000000, -7.335937500000, 1491821305
0.240234375000, -0.922119140625, 0.126464843750, -2.250000000000, 0.421875000000, -7.335937500000, 1491821305
0.240234375000, -0.922119140625, 0.126464843750, -2.250000000000, 0.421875000000, -7.335937500000, 1491821305
0.240234375000, -0.922119140625, 0.126464843750, -2.250000000000, 0.421875000000, -7.335937500000, 1491821305
0.240234375000, -0.922119140625, 0.126464843750, -2.250000000000, 0.421875000000, -7.335937500000, 1491821305
0.240234375000, -0.922119140625, 0.126464843750, -2.250000000000, 0.421875000000, -7.335937500000, 1491821305
0.165771484375, -1.024414062500, -0.020751953125, -1.515625000000, -0.500000000000, -7.359375000000, 1491821305
0.165771484375, -1.024414062500, -0.020751953125, -1.515625000000, -0.500000000000, -7.359375000000, 1491821305
0.165771484375, -1.024414062500, -0.020751953125, -1.515625000000, -0.500000000000, -7.359375000000, 1491821305
0.165771484375, -1.024414062500, -0.020751953125, -1.515625000000, -0.500000000000, -7.359375000000, 1491821305
0.262695312500, -0.968505859375, 0.025634765625, -2.500000000000, -0.523437500000, -5.335937500000, 1491821305
0.262695312500, -0.968505859375, 0.025634765625, -2.500000000000, -0.523437500000, -5.335937500000, 1491821305
0.262695312500, -0.968505859375, 0.025634765625, -2.500000000000, -0.523437500000, -5.335937500000, 1491821305
0.323486328125, -1.029052734375, -0.001953125000, -4.421875000000, 2.335937500000, -1.585937500000, 1491821305
0.323486328125, -1.029052734375, -0.001953125000, -4.421875000000, 2.335937500000, -1.585937500000, 1491821305
0.323486328125, -1.029052734375, -0.001953125000, -4.421875000000, 2.335937500000, -1.585937500000, 1491821305
0.211914062500, -0.915771484375, 0.032958984375, -4.828125000000, 1.195312500000, -1.210937500000, 1491821305
0.211914062500, -0.915771484375, 0.032958984375, -4.828125000000, 1.195312500000, -1.210937500000, 1491821305
0.211914062500, -0.915771484375, 0.032958984375, -4.828125000000, 1.195312500000, -1.210937500000, 1491821305
0.220947265625, -1.014160156250, 0.034423828125, -4.789062500000, 2.296875000000, -3.890625000000, 1491821306
0.220947265625, -1.014160156250, 0.034423828125, -4.789062500000, 2.296875000000, -3.890625000000, 1491821306
0.220947265625, -1.014160156250, 0.034423828125, -4.789062500000, 2.296875000000, -3.890625000000, 1491821306
0.220947265625, -1.014160156250, 0.034423828125, -4.789062500000, 2.296875000000, -3.890625000000, 1491821306
0.232421875000, -0.848632812500, -0.013427734375, -3.640625000000, 4.992187500000, -8.195312500000, 1491821306
0.232421875000, -0.848632812500, -0.013427734375, -3.640625000000, 4.992187500000, -8.195312500000, 1491821306
0.232421875000, -0.848632812500, -0.013427734375, -3.640625000000, 4.992187500000, -8.195312500000, 1491821306
0.183837890625, -0.972900390625, 0.027832031250, -4.859375000000, 2.140625000000, -5.898437500000, 1491821306
0.183837890625, -0.972900390625, 0.027832031250, -4.859375000000, 2.140625000000, -5.898437500000, 1491821306
0.183837890625, -0.972900390625, 0.027832031250, -4.859375000000, 2.140625000000, -5.898437500000, 1491821306
0.201660156250, -0.931640625000, 0.066650390625, -4.734375000000, 0.984375000000, -5.757812500000, 1491821306
0.201660156250, -0.931640625000, 0.066650390625, -4.734375000000, 0.984375000000, -5.757812500000, 1491821306
0.273193359375, -0.969970703125, 0.013427734375, -3.242187500000, 0.867187500000, -5.898437500000, 1491821306
0.273193359375, -0.969970703125, 0.013427734375, -3.242187500000, 0.867187500000, -5.898437500000, 1491821306
0.273193359375, -0.969970703125, 0.013427734375, -3.242187500000, 0.867187500000, -5.898437500000, 1491821306
0.273193359375, -0.969970703125, 0.013427734375, -3.242187500000, 0.867187500000, -5.898437500000, 1491821306
0.252441406250, -0.954589843750, -0.019775390625, -3.203125000000, 0.078125000000, -6.281250000000, 1491821306
0.192138671875, -0.972167968750, 0.080322265625, -6.273437500000, -0.343750000000, -3.367187500000, 1491821306
0.192138671875, -0.972167968750, 0.080322265625, -6.273437500000, -0.343750000000, -3.367187500000, 1491821306
0.192138671875, -0.972167968750, 0.080322265625, -6.273437500000, -0.343750000000, -3.367187500000, 1491821306
0.183105468750, -1.028564453125, -0.000976562500, -6.203125000000, 0.914062500000, -5.210937500000, 1491821306
0.183105468750, -1.028564453125, -0.000976562500, -6.203125000000, 0.914062500000, -5.210937500000, 1491821306
0.183105468750, -1.028564453125, -0.000976562500, -6.203125000000, 0.914062500000, -5.210937500000, 1491821306
0.273437500000, -1.021728515625, -0.001708984375, -3.851562500000, -0.125000000000, -8.835937500000, 1491821306
0.273437500000, -1.021728515625, -0.001708984375, -3.851562500000, -0.125000000000, -8.835937500000, 1491821306
0.273437500000, -1.021728515625, -0.001708984375, -3.851562500000, -0.125000000000, -8.835937500000, 1491821306
0.164794921875, -0.925048828125, -0.020263671875, -6.695312500000, 2.015625000000, -5.382812500000, 1491821306
0.177001953125, -0.919921875000, 0.080810546875, -2.742187500000, -0.515625000000, -5.812500000000, 1491821306
0.177001953125, -0.919921875000, 0.080810546875, -2.742187500000, -0.515625000000, -5.812500000000, 1491821306
0.177001953125, -0.919921875000, 0.080810546875, -2.742187500000, -0.515625000000, -5.812500000000, 1491821306
0.177001953125, -0.919921875000, 0.080810546875, -2.742187500000, -0.515625000000, -5.812500000000, 1491821306
0.335449218750, -0.921386718750, 0.093261718750, -1.195312500000, 0.062500000000, -4.992187500000, 1491821306
0.335449218750, -0.921386718750, 0.093261718750, -1.195312500000, 0.062500000000, -4.992187500000, 1491821306
0.335449218750, -0.921386718750, 0.093261718750, -1.195312500000, 0.062500000000, -4.992187500000, 1491821306
0.335449218750, -0.921386718750, 0.093261718750, -1.195312500000, 0.062500000000, -4.992187500000, 1491821306
0.335449218750, -0.921386718750, 0.093261718750, -1.195312500000, 0.062500000000, -4.992187500000, 1491821306
0.313232421875, -1.089111328125, -0.009033203125, 0.601562500000, 0.289062500000, -2.320312500000, 1491821306
0.313232421875, -1.089111328125, -0.009033203125, 0.601562500000, 0.289062500000, -2.320312500000, 1491821306
0.313232421875, -1.089111328125, -0.009033203125, 0.601562500000, 0.289062500000, -2.320312500000, 1491821306
0.202392578125, -0.915039062500, 0.057373046875, 10.960937500000, -0.570312500000, -5.703125000000, 1491821306
0.202392578125, -0.915039062500, 0.057373046875, 10.960937500000, -0.570312500000, -5.703125000000, 1491821306
0.202392578125, -0.915039062500, 0.057373046875, 10.960937500000, -0.570312500000, -5.703125000000, 1491821306
0.202392578125, -0.915039062500, 0.057373046875, 10.960937500000, -0.570312500000, -5.703125000000, 1491821306
0.227294921875, -0.925292968750, -0.018798828125, 19.304687500000, -3.968750000000, -10.203125000000, 1491821306
0.227294921875, -0.925292968750, -0.018798828125, 19.304687500000, -3.968750000000, -10.203125000000, 1491821306
0.227294921875, -0.925292968750, -0.018798828125, 19.304687500000, -3.968750000000, -10.203125000000, 1491821306
0.181396484375, -0.884765625000, -0.008300781250, 29.218750000000, -7.515625000000, -5.539062500000, 1491821306
0.181396484375, -0.884765625000, -0.008300781250, 29.218750000000, -7.515625000000, -5.539062500000, 1491821306
0.181396484375, -0.884765625000, -0.008300781250, 29.218750000000, -7.515625000000, -5.539062500000, 1491821306
0.252929687500, -0.889160156250, -0.026367187500, 43.156250000000, -9.070312500000, -10.335937500000, 1491821306
0.252929687500, -0.889160156250, -0.026367187500, 43.156250000000, -9.070312500000, -10.335937500000, 1491821306
0.252929687500, -0.889160156250, -0.026367187500, 43.156250000000, -9.070312500000, -10.335937500000, 1491821306
0.194824218750, -0.764892578125, -0.055175781250, 65.218750000000, -22.421875000000, -13.187500000000, 1491821306
0.194824218750, -0.764892578125, -0.055175781250, 65.218750000000, -22.421875000000, -13.187500000000, 1491821306
0.194824218750, -0.764892578125, -0.055175781250, 65.218750000000, -22.421875000000, -13.187500000000, 1491821306
0.194824218750, -0.764892578125, -0.055175781250, 65.218750000000, -22.421875000000, -13.187500000000, 1491821306
0.190185546875, -0.683837890625, -0.098144531250, 79.882812500000, -23.460937500000, -13.031250000000, 1491821306
0.190185546875, -0.683837890625, -0.098144531250, 79.882812500000, -23.460937500000, -13.031250000000, 1491821306
0.190185546875, -0.683837890625, -0.098144531250, 79.882812500000, -23.460937500000, -13.031250000000, 1491821306
0.174072265625, -0.712402343750, -0.042480468750, 86.937500000000, -24.710937500000, -12.757812500000, 1491821306
0.174072265625, -0.712402343750, -0.042480468750, 86.937500000000, -24.710937500000, -12.757812500000, 1491821306
0.109375000000, -0.495117187500, -0.271972656250, 46.820312500000, -57.351562500000, 11.078125000000, 1491821307
0.212158203125, -0.620849609375, -0.119873046875, 20.648437500000, -77.867187500000, 12.523437500000, 1491821307
0.212158203125, -0.620849609375, -0.119873046875, 20.648437500000, -77.867187500000, 12.523437500000, 1491821307
0.201171875000, -0.586425781250, -0.122314453125, 26.820312500000, -66.468750000000, 1.023437500000, 1491821307
0.158691406250, -0.545654296875, -0.110107421875, 11.203125000000, -51.789062500000, -10.828125000000, 1491821307
0.158691406250, -0.545654296875, -0.110107421875, 11.203125000000, -51.789062500000, -10.828125000000, 1491821307
0.158691406250, -0.545654296875, -0.110107421875, 11.203125000000, -51.789062500000, -10.828125000000, 1491821307
0.158691406250, -0.545654296875, -0.110107421875, 11.203125000000, -51.789062500000, -10.828125000000, 1491821307
0.251708984375, -0.818115234375, -0.247070312500, -56.921875000000, 46.945312500000, -24.539062500000, 1491821307
0.251708984375, -0.818115234375, -0.247070312500, -56.921875000000, 46.945312500000, -24.539062500000, 1491821307
0.251708984375, -0.818115234375, -0.247070312500, -56.921875000000, 46.945312500000, -24.539062500000, 1491821307
0.251708984375, -0.818115234375, -0.247070312500, -56.921875000000, 46.945312500000, -24.539062500000, 1491821307
0.251708984375, -0.818115234375, -0.247070312500, -56.921875000000, 46.945312500000, -24.539062500000, 1491821307
0.251708984375, -0.818115234375, -0.247070312500, -56.921875000000, 46.945312500000, -24.539062500000, 1491821307
0.106445312500, -0.529785156250, -0.098388671875, 59.265625000000, 17.945312500000, -23.117187500000, 1491821307
0.106445312500, -0.529785156250, -0.098388671875, 59.265625000000, 17.945312500000, -23.117187500000, 1491821307
0.106445312500, -0.529785156250, -0.098388671875, 59.265625000000, 17.945312500000, -23.117187500000, 1491821307
0.444091796875, -0.874511718750, -0.179443359375, 5.148437500000, 131.242187500000, 51.132812500000, 1491821307
0.444091796875, -0.874511718750, -0.179443359375, 5.148437500000, 131.242187500000, 51.132812500000, 1491821307
0.444091796875, -0.874511718750, -0.179443359375, 5.148437500000, 131.242187500000, 51.132812500000, 1491821307
0.444091796875, -0.874511718750, -0.179443359375, 5.148437500000, 131.242187500000, 51.132812500000, 1491821307
0.315673828125, -0.855957031250, -0.321533203125, -33.500000000000, 164.218750000000, -78.640625000000, 1491821307
0.315673828125, -0.855957031250, -0.321533203125, -33.500000000000, 164.218750000000, -78.640625000000, 1491821307
0.315673828125, -0.855957031250, -0.321533203125, -33.500000000000, 164.218750000000, -78.640625000000, 1491821307
0.389160156250, -1.016845703125, -0.233886718750, -165.210937500000, 194.992187500000, -2.882812500000, 1491821307
0.389160156250, -1.016845703125, -0.233886718750, -165.210937500000, 194.992187500000, -2.882812500000, 1491821307
0.389160156250, -1.016845703125, -0.233886718750, -165.210937500000, 194.992187500000, -2.882812500000, 1491821307
0.265625000000, -1.511718750000, -0.352050781250, -106.437500000000, 6.906250000000, -4.898437500000, 1491821307
0.265625000000, -1.511718750000, -0.352050781250, -106.437500000000, 6.906250000000, -4.898437500000, 1491821307
0.265625000000, -1.511718750000, -0.352050781250, -106.437500000000, 6.906250000000, -4.898437500000, 1491821307
0.015869140625, -1.558593750000, -0.222167968750, -256.000000000000, -256.000000000000, 96.468750000000, 1491821307
0.015869140625, -1.558593750000, -0.222167968750, -256.000000000000, -256.000000000000, 96.468750000000, 1491821307
0.015869140625, -1.558593750000, -0.222167968750, -256.000000000000, -256.000000000000, 96.468750000000, 1491821307
0.015869140625, -1.558593750000, -0.222167968750, -256.000000000000, -256.000000000000, 96.468750000000, 1491821307
-0.325683593750, -1.645019531250, -0.170410156250, -157.765625000000, -110.296875000000, 48.039062500000, 1491821307
-0.325683593750, -1.645019531250, -0.170410156250, -157.765625000000, -110.296875000000, 48.039062500000, 1491821307
-0.325683593750, -1.645019531250, -0.170410156250, -157.765625000000, -110.296875000000, 48.039062500000, 1491821307
-0.054443359375, -1.366210937500, -0.193603515625, -242.218750000000, -256.000000000000, 33.281250000000, 1491821307
-0.054443359375, -1.366210937500, -0.193603515625, -242.218750000000, -256.000000000000, 33.281250000000, 1491821307
-0.054443359375, -1.366210937500, -0.193603515625, -242.218750000000, -256.000000000000, 33.281250000000, 1491821307
0.448974609375, -1.254882812500, -0.380371093750, -68.851562500000, -52.882812500000, 4.640625000000, 1491821307
0.448974609375, -1.254882812500, -0.380371093750, -68.851562500000, -52.882812500000, 4.640625000000, 1491821307
0.448974609375, -1.254882812500, -0.380371093750, -68.851562500000, -52.882812500000, 4.640625000000, 1491821307
0.556396484375, -1.198730468750, -0.455810546875, 86.843750000000, 44.343750000000, -135.476562500000, 1491821307
0.556396484375, -1.198730468750, -0.455810546875, 86.843750000000, 44.343750000000, -135.476562500000, 1491821307
0.556396484375, -1.198730468750, -0.455810546875, 86.843750000000, 44.343750000000, -135.476562500000, 1491821307
0.556396484375, -1.198730468750, -0.455810546875, 86.843750000000, 44.343750000000, -135.476562500000, 1491821307
0.551757812500, -1.307617187500, -0.435302734375, 152.218750000000, -115.960937500000, -80.281250000000, 1491821307
0.551757812500, -1.307617187500, -0.435302734375, 152.218750000000, -115.960937500000, -80.281250000000, 1491821307
0.551757812500, -1.307617187500, -0.435302734375, 152.218750000000, -115.960937500000, -80.281250000000, 1491821307
0.513916015625, -1.494873046875, -0.219238281250, 253.992187500000, 6.468750000000, -142.515625000000, 1491821307
0.513916015625, -1.494873046875, -0.219238281250, 253.992187500000, 6.468750000000, -142.515625000000, 1491821307
0.513916015625, -1.494873046875, -0.219238281250, 253.992187500000, 6.468750000000, -142.515625000000, 1491821307
-0.029052734375, -1.680908203125, -0.164550781250, 253.992187500000, 253.992187500000, -249.945312500000, 1491821307
-0.029052734375, -1.680908203125, -0.164550781250, 253.992187500000, 253.992187500000, -249.945312500000, 1491821307
-0.029052734375, -1.680908203125, -0.164550781250, 253.992187500000, 253.992187500000, -249.945312500000, 1491821307
-0.592285156250, -1.197021484375, -0.112792968750, -17.085937500000, 73.781250000000, 40.656250000000, 1491821307
-0.592285156250, -1.197021484375, -0.112792968750, -17.085937500000, 73.781250000000, 40.656250000000, 1491821307
-0.592285156250, -1.197021484375, -0.112792968750, -17.085937500000, 73.781250000000, 40.656250000000, 1491821307
-0.592285156250, -1.197021484375, -0.112792968750, -17.085937500000, 73.781250000000, 40.656250000000, 1491821307
-0.231933593750, -1.328125000000, -0.014648437500, 163.132812500000, -184.851562500000, -84.648437500000, 1491821307
-0.231933593750, -1.328125000000, -0.014648437500, 163.132812500000, -184.851562500000, -84.648437500000, 1491821307
-0.231933593750, -1.328125000000, -0.014648437500, 163.132812500000, -184.851562500000, -84.648437500000, 1491821307
0.354492187500, -1.171875000000, -0.245849609375, 165.226562500000, -137.000000000000, 20.687500000000, 1491821307
0.354492187500, -1.171875000000, -0.245849609375, 165.226562500000, -137.000000000000, 20.687500000000, 1491821307
0.354492187500, -1.171875000000, -0.245849609375, 165.226562500000, -137.000000000000, 20.687500000000, 1491821307
0.391357421875, -1.267333984375, -0.341552734375, -94.687500000000, 118.679687500000, 9.523437500000, 1491821307
0.391357421875, -1.267333984375, -0.341552734375, -94.687500000000, 118.679687500000, 9.523437500000, 1491821307
0.374267578125, -1.335449218750, -0.317871093750, 25.640625000000, 72.437500000000, -31.812500000000, 1491821307
0.374267578125, -1.335449218750, -0.317871093750, 25.640625000000, 72.437500000000, -31.812500000000, 1491821307
0.374267578125, -1.335449218750, -0.317871093750, 25.640625000000, 72.437500000000, -31.812500000000, 1491821307
0.374267578125, -1.335449218750, -0.317871093750, 25.640625000000, 72.437500000000, -31.812500000000, 1491821308
0.374267578125, -1.335449218750, -0.317871093750, 25.640625000000, 72.437500000000, -31.812500000000, 1491821308
0.468505859375, -1.155761718750, -0.323486328125, -146.687500000000, 63.335937500000, 17.921875000000, 1491821308
0.468505859375, -1.155761718750, -0.323486328125, -146.687500000000, 63.335937500000, 17.921875000000, 1491821308
0.468505859375, -1.155761718750, -0.323486328125, -146.687500000000, 63.335937500000, 17.921875000000, 1491821308
0.568847656250, -1.331787109375, -0.281494140625, -235.476562500000, 101.882812500000, 58.976562500000, 1491821308
0.568847656250, -1.331787109375, -0.281494140625, -235.476562500000, 101.882812500000, 58.976562500000, 1491821308
0.568847656250, -1.331787109375, -0.281494140625, -235.476562500000, 101.882812500000, 58.976562500000, 1491821308
0.431152343750, -1.287841796875, -0.402832031250, -179.164062500000, -7.156250000000, 85.898437500000, 1491821308
0.431152343750, -1.287841796875, -0.402832031250, -179.164062500000, -7.156250000000, 85.898437500000, 1491821308
0.431152343750, -1.287841796875, -0.402832031250, -179.164062500000, -7.156250000000, 85.898437500000, 1491821308
0.336425781250, -1.579101562500, -0.393554687500, -256.000000000000, -106.875000000000, 131.242187500000, 1491821308
0.336425781250, -1.579101562500, -0.393554687500, -256.000000000000, -106.875000000000, 131.242187500000, 1491821308
0.336425781250, -1.579101562500, -0.393554687500, -256.000000000000, -106.875000000000, 131.242187500000, 1491821308
0.336425781250, -1.579101562500, -0.393554687500, -256.000000000000, -106.875000000000, 131.242187500000, 1491821308
-0.217285156250, -1.307617187500, 0.002441406250, -186.906250000000, -256.000000000000, 126.914062500000, 1491821308
-0.217285156250, -1.307617187500, 0.002441406250, -186.906250000000, -256.000000000000, 126.914062500000, 1491821308
-0.217285156250, -1.307617187500, 0.002441406250, -186.906250000000, -256.000000000000, 126.914062500000, 1491821308
-0.096191406250, -1.054199218750, -0.127685546875, 13.179687500000, -46.117187500000, 116.593750000000, 1491821308
-0.096191406250, -1.054199218750, -0.127685546875, 13.179687500000, -46.117187500000, 116.593750000000, 1491821308
-0.096191406250, -1.054199218750, -0.127685546875, 13.179687500000, -46.117187500000, 116.593750000000, 1491821308
0.041748046875, -0.952392578125, -0.171386718750, -69.882812500000, 100.640625000000, 118.648437500000, 1491821308
0.041748046875, -0.952392578125, -0.171386718750, -69.882812500000, 100.640625000000, 118.648437500000, 1491821308
0.041748046875, -0.952392578125, -0.171386718750, -69.882812500000, 100.640625000000, 118.648437500000, 1491821308
0.240966796875, -0.765869140625, -0.256591796875, -65.046875000000, 100.609375000000, -20.164062500000, 1491821308
0.240966796875, -0.765869140625, -0.256591796875, -65.046875000000, 100.609375000000, -20.164062500000, 1491821308
0.240966796875, -0.765869140625, -0.256591796875, -65.046875000000, 100.609375000000, -20.164062500000, 1491821308
0.240966796875, -0.765869140625, -0.256591796875, -65.046875000000, 100.609375000000, -20.164062500000, 1491821308
0.188476562500, -0.538085937500, -0.124755859375, 69.445312500000, -9.843750000000, -29.898437500000, 1491821308
0.188476562500, -0.538085937500, -0.124755859375, 69.445312500000, -9.843750000000, -29.898437500000, 1491821308
0.188476562500, -0.538085937500, -0.124755859375, 69.445312500000, -9.843750000000, -29.898437500000, 1491821308
0.119384765625, -0.546630859375, -0.152832031250, 79.781250000000, 22.156250000000, -79.468750000000, 1491821308
0.119384765625, -0.546630859375, -0.152832031250, 79.781250000000, 22.156250000000, -79.468750000000, 1491821308
0.119384765625, -0.546630859375, -0.152832031250, 79.781250000000, 22.156250000000, -79.468750000000, 1491821308
0.239257812500, -0.465087890625, -0.118896484375, 58.375000000000, 131.921875000000, -72.531250000000, 1491821308
0.239257812500, -0.465087890625, -0.118896484375, 58.375000000000, 131.921875000000, -72.531250000000, 1491821308
0.239257812500, -0.465087890625, -0.118896484375, 58.375000000000, 131.921875000000, -72.531250000000, 1491821308
0.330078125000, -0.563720703125, -0.054687500000, 167.031250000000, 26.398437500000, -55.429687500000, 1491821308
0.330078125000, -0.563720703125, -0.054687500000, 167.031250000000, 26.398437500000, -55.429687500000, 1491821308
0.330078125000, -0.563720703125, -0.054687500000, 167.031250000000, 26.398437500000, -55.429687500000, 1491821308
0.330078125000, -0.563720703125, -0.054687500000, 167.031250000000, 26.398437500000, -55.429687500000, 1491821308
0.441162109375, -0.671142578125, -0.213378906250, 215.593750000000, -9.367187500000, -28.843750000000, 1491821308
0.441162109375, -0.671142578125, -0.213378906250, 215.593750000000, -9.367187500000, -28.843750000000, 1491821308
0.441162109375, -0.671142578125, -0.213378906250, 215.593750000000, -9.367187500000, -28.843750000000, 1491821308
1.063476562500, -2.488525390625, 3.323730468750, 253.992187500000, -256.000000000000, -38.601562500000, 1491821308
1.063476562500, -2.488525390625, 3.323730468750, 253.992187500000, -256.000000000000, -38.601562500000, 1491821308
1.063476562500, -2.488525390625, 3.323730468750, 253.992187500000, -256.000000000000, -38.601562500000, 1491821308
0.418945312500, -0.838378906250, -0.127441406250, -256.000000000000, 212.703125000000, -10.039062500000, 1491821308
0.418945312500, -0.838378906250, -0.127441406250, -256.000000000000, 212.703125000000, -10.039062500000, 1491821308
0.418945312500, -0.838378906250, -0.127441406250, -256.000000000000, 212.703125000000, -10.039062500000, 1491821308
0.406250000000, -0.854248046875, -0.187255859375, -155.250000000000, 24.875000000000, 13.796875000000, 1491821308
0.406250000000, -0.854248046875, -0.187255859375, -155.250000000000, 24.875000000000, 13.796875000000, 1491821308
0.406250000000, -0.854248046875, -0.187255859375, -155.250000000000, 24.875000000000, 13.796875000000, 1491821308
0.406250000000, -0.854248046875, -0.187255859375, -155.250000000000, 24.875000000000, 13.796875000000, 1491821308
0.247314453125, -0.695312500000, -0.161865234375, -100.773437500000, -92.398437500000, 63.054687500000, 1491821308
0.247314453125, -0.695312500000, -0.161865234375, -100.773437500000, -92.398437500000, 63.054687500000, 1491821308
0.247314453125, -0.695312500000, -0.161865234375, -100.773437500000, -92.398437500000, 63.054687500000, 1491821308
0.162841796875, -0.830566406250, -0.134277343750, -0.843750000000, -140.000000000000, 55.125000000000, 1491821308
0.162841796875, -0.830566406250, -0.134277343750, -0.843750000000, -140.000000000000, 55.125000000000, 1491821308
0.162841796875, -0.830566406250, -0.134277343750, -0.843750000000, -140.000000000000, 55.125000000000, 1491821308
0.167724609375, -0.742675781250, -0.081298828125, 144.445312500000, 116.875000000000, -69.062500000000, 1491821308
0.167724609375, -0.742675781250, -0.081298828125, 144.445312500000, 116.875000000000, -69.062500000000, 1491821308
0.167724609375, -0.742675781250, -0.081298828125, 144.445312500000, 116.875000000000, -69.062500000000, 1491821308
0.949462890625, -1.236572265625, 2.013427734375, 23.859375000000, -233.382812500000, 29.359375000000, 1491821308
0.949462890625, -1.236572265625, 2.013427734375, 23.859375000000, -233.382812500000, 29.359375000000, 1491821308
0.949462890625, -1.236572265625, 2.013427734375, 23.859375000000, -233.382812500000, 29.359375000000, 1491821308
0.949462890625, -1.236572265625, 2.013427734375, 23.859375000000, -233.382812500000, 29.359375000000, 1491821308
0.276123046875, -0.910156250000, -0.130126953125, -83.195312500000, 145.929687500000, -16.757812500000, 1491821309
0.276123046875, -0.910156250000, -0.130126953125, -83.195312500000, 145.929687500000, -16.757812500000, 1491821309
0.276123046875, -0.910156250000, -0.130126953125, -83.195312500000, 145.929687500000, -16.757812500000, 1491821309
0.345947265625, -0.899902343750, -0.183349609375, -16.390625000000, -21.351562500000, 2.531250000000, 1491821309
0.345947265625, -0.899902343750, -0.183349609375, -16.390625000000, -21.351562500000, 2.531250000000, 1491821309
0.345947265625, -0.899902343750, -0.183349609375, -16.390625000000, -21.351562500000, 2.531250000000, 1491821309
0.268066406250, -0.950683593750, -0.005371093750, 59.929687500000, -40.132812500000, -13.921875000000, 1491821309
0.268066406250, -0.950683593750, -0.005371093750, 59.929687500000, -40.132812500000, -13.921875000000, 1491821309
0.268066406250, -0.950683593750, -0.005371093750, 59.929687500000, -40.132812500000, -13.921875000000, 1491821309
0.365966796875, -1.073242187500, 0.335693359375, -17.203125000000, 4.406250000000, -4.335937500000, 1491821309
0.365966796875, -1.073242187500, 0.335693359375, -17.203125000000, 4.406250000000, -4.335937500000, 1491821309
0.365966796875, -1.073242187500, 0.335693359375, -17.203125000000, 4.406250000000, -4.335937500000, 1491821309
0.365966796875, -1.073242187500, 0.335693359375, -17.203125000000, 4.406250000000, -4.335937500000, 1491821309
0.270996093750, -0.958007812500, 0.009277343750, -19.812500000000, 7.710937500000, -4.125000000000, 1491821309
0.270996093750, -0.958007812500, 0.009277343750, -19.812500000000, 7.710937500000, -4.125000000000, 1491821309
0.270996093750, -0.958007812500, 0.009277343750, -19.812500000000, 7.710937500000, -4.125000000000, 1491821309
0.328369140625, -0.863037109375, 0.031494140625, 5.867187500000, -26.500000000000, -1.515625000000, 1491821309
0.328369140625, -0.863037109375, 0.031494140625, 5.867187500000, -26.500000000000, -1.515625000000, 1491821309
0.328369140625, -0.863037109375, 0.031494140625, 5.867187500000, -26.500000000000, -1.515625000000, 1491821309
0.397705078125, -0.859375000000, 0.067382812500, 0.320312500000, -8.531250000000, -4.289062500000, 1491821309
0.397705078125, -0.859375000000, 0.067382812500, 0.320312500000, -8.531250000000, -4.289062500000, 1491821309
0.397705078125, -0.859375000000, 0.067382812500, 0.320312500000, -8.531250000000, -4.289062500000, 1491821309
0.367919921875, -0.910156250000, 0.028808593750, 1.335937500000, -2.117187500000, -8.218750000000, 1491821309
0.367919921875, -0.910156250000, 0.028808593750, 1.335937500000, -2.117187500000, -8.218750000000, 1491821309
0.367919921875, -0.910156250000, 0.028808593750, 1.335937500000, -2.117187500000, -8.218750000000, 1491821309
0.367919921875, -0.910156250000, 0.028808593750, 1.335937500000, -2.117187500000, -8.218750000000, 1491821309
0.329101562500, -0.961181640625, 0.008056640625, 0.593750000000, 2.945312500000, -3.539062500000, 1491821309
0.329101562500, -0.961181640625, 0.008056640625, 0.593750000000, 2.945312500000, -3.539062500000, 1491821309
0.329101562500, -0.961181640625, 0.008056640625, 0.593750000000, 2.945312500000, -3.539062500000, 1491821309
0.380126953125, -0.925537109375, -0.077880859375, -0.187500000000, 7.195312500000, -3.093750000000, 1491821309
0.380126953125, -0.925537109375, -0.077880859375, -0.187500000000, 7.195312500000, -3.093750000000, 1491821309
0.380126953125, -0.925537109375, -0.077880859375, -0.187500000000, 7.195312500000, -3.093750000000, 1491821309
0.380126953125, -0.925537109375, -0.077880859375, -0.187500000000, 7.195312500000, -3.093750000000, 1491821309
0.380126953125, -0.925537109375, -0.077880859375, -0.187500000000, 7.195312500000, -3.093750000000, 1491821309
0.359619140625, -1.090332031250, 0.062988281250, 4.437500000000, 0.023437500000, -6.773437500000, 1491821309
0.359619140625, -1.090332031250, 0.062988281250, 4.437500000000, 0.023437500000, -6.773437500000, 1491821309
0.359619140625, -1.090332031250, 0.062988281250, 4.437500000000, 0.023437500000, -6.773437500000, 1491821309
0.359619140625, -1.090332031250, 0.062988281250, 4.437500000000, 0.023437500000, -6.773437500000, 1491821309
0.359619140625, -1.090332031250, 0.062988281250, 4.437500000000, 0.023437500000, -6.773437500000, 1491821309
0.289794921875, -0.848632812500, 0.079345703125, -3.304687500000, 4.781250000000, -7.414062500000, 1491821309
0.289794921875, -0.848632812500, 0.079345703125, -3.304687500000, 4.781250000000, -7.414062500000, 1491821309
0.289794921875, -0.848632812500, 0.079345703125, -3.304687500000, 4.781250000000, -7.414062500000, 1491821309
0.405761718750, -0.979003906250, 0.017822265625, -3.343750000000, 2.078125000000, -1.945312500000, 1491821309
0.405761718750, -0.979003906250, 0.017822265625, -3.343750000000, 2.078125000000, -1.945312500000, 1491821309
0.405761718750, -0.979003906250, 0.017822265625, -3.343750000000, 2.078125000000, -1.945312500000, 1491821309
0.287109375000, -0.965332031250, 0.029785156250, 0.312500000000, 0.828125000000, -7.585937500000, 1491821309
0.287109375000, -0.965332031250, 0.029785156250, 0.312500000000, 0.828125000000, -7.585937500000, 1491821309
0.318847656250, -0.917968750000, 0.070800781250, -4.265625000000, 4.210937500000, -4.593750000000, 1491821309
0.318847656250, -0.917968750000, 0.070800781250, -4.265625000000, 4.210937500000, -4.593750000000, 1491821309
0.318847656250, -0.917968750000, 0.070800781250, -4.265625000000, 4.210937500000, -4.593750000000, 1491821309
0.318847656250, -0.917968750000, 0.070800781250, -4.265625000000, 4.210937500000, -4.593750000000, 1491821309
0.318847656250, -0.917968750000, 0.070800781250, -4.265625000000, 4.210937500000, -4.593750000000, 1491821309
0.341064453125, -0.950927734375, 0.065429687500, -6.015625000000, 3.226562500000, -4.195312500000, 1491821309
0.341064453125, -0.950927734375, 0.065429687500, -6.015625000000, 3.226562500000, -4.195312500000, 1491821309
0.341064453125, -0.950927734375, 0.065429687500, -6.015625000000, 3.226562500000, -4.195312500000, 1491821309
0.301757812500, -0.937011718750, -0.004394531250, -3.882812500000, 4.070312500000, -4.382812500000, 1491821309
0.301757812500, -0.937011718750, -0.004394531250, -3.882812500000, 4.070312500000, -4.382812500000, 1491821309
0.301757812500, -0.937011718750, -0.004394531250, -3.882812500000, 4.070312500000, -4.382812500000, 1491821309
0.445800781250, -0.955078125000, -0.000976562500, -3.351562500000, -0.617187500000, -4.250000000000, 1491821309
0.445800781250, -0.955078125000, -0.000976562500, -3.351562500000, -0.617187500000, -4.250000000000, 1491821309
0.445800781250, -0.955078125000, -0.000976562500, -3.351562500000, -0.617187500000, -4.250000000000, 1491821309
0.453613281250, -0.942138671875, -0.004638671875, -6.679687500000, 2.226562500000, -3.218750000000, 1491821309
0.453613281250, -0.942138671875, -0.004638671875, -6.679687500000, 2.226562500000, -3.218750000000, 1491821309
0.453613281250, -0.942138671875, -0.004638671875, -6.679687500000, 2.226562500000, -3.218750000000, 1491821309
0.453613281250, -0.942138671875, -0.004638671875, -6.679687500000, 2.226562500000, -3.218750000000, 1491821309
0.377197265625, -1.078613281250, 0.013427734375, -6.242187500000, 2.273437500000, -6.648437500000, 1491821309
0.377197265625, -1.078613281250, 0.013427734375, -6.242187500000, 2.273437500000, -6.648437500000, 1491821309
0.377197265625, -1.078613281250, 0.013427734375, -6.242187500000, 2.273437500000, -6.648437500000, 1491821309
0.312255859375, -0.935546875000, -0.009033203125, -3.570312500000, 0.140625000000, 0.890625000000, 1491821310
0.312255859375, -0.935546875000, -0.009033203125, -3.570312500000, 0.140625000000, 0.890625000000, 1491821310
0.312255859375, -0.935546875000, -0.009033203125, -3.570312500000, 0.140625000000, 0.890625000000, 1491821310
0.394287109375, -1.000488281250, -0.022460937500, -3.664062500000, 0.210937500000, 0.062500000000, 1491821310
0.394287109375, -1.000488281250, -0.022460937500, -3.664062500000, 0.210937500000, 0.062500000000, 1491821310
0.394287109375, -1.000488281250, -0.022460937500, -3.664062500000, 0.210937500000, 0.062500000000, 1491821310
0.344238281250, -0.874023437500, -0.020507812500, -8.132812500000, 2.445312500000, -5.500000000000, 1491821310
0.344238281250, -0.874023437500, -0.020507812500, -8.132812500000, 2.445312500000, -5.500000000000, 1491821310
0.344238281250, -0.874023437500, -0.020507812500, -8.132812500000, 2.445312500000, -5.500000000000, 1491821310
0.344238281250, -0.874023437500, -0.020507812500, -8.132812500000, 2.445312500000, -5.500000000000, 1491821310
0.385742187500, -1.079833984375, -0.027343750000, -4.484375000000, -2.625000000000, -3.273437500000, 1491821310
0.385742187500, -1.079833984375, -0.027343750000, -4.484375000000, -2.625000000000, -3.273437500000, 1491821310
0.385742187500, -1.079833984375, -0.027343750000, -4.484375000000, -2.625000000000, -3.273437500000, 1491821310
0.398681640625, -0.941650390625, -0.002441406250, -4.398437500000, -1.210937500000, -1.960937500000, 1491821310
0.398681640625, -0.941650390625, -0.002441406250, -4.398437500000, -1.210937500000, -1.960937500000, 1491821310
0.398681640625, -0.941650390625, -0.002441406250, -4.398437500000, -1.210937500000, -1.960937500000, 1491821310
0.439208984375, -0.932617187500, 0.018066406250, -6.687500000000, 0.195312500000, -6.414062500000, 1491821310
0.439208984375, -0.932617187500, 0.018066406250, -6.687500000000, 0.195312500000, -6.414062500000, 1491821310
0.439208984375, -0.932617187500, 0.018066406250, -6.687500000000, 0.195312500000, -6.414062500000, 1491821310
0.302978515625, -0.967529296875, 0.069091796875, -4.382812500000, -3.359375000000, -4.906250000000, 1491821310
0.302978515625, -0.967529296875, 0.069091796875, -4.382812500000, -3.359375000000, -4.906250000000, 1491821310
0.302978515625, -0.967529296875, 0.069091796875, -4.382812500000, -3.359375000000, -4.906250000000, 1491821310
0.302978515625, -0.967529296875, 0.069091796875, -4.382812500000, -3.359375000000, -4.906250000000, 1491821310
0.381347656250, -1.024169921875, 0.078613281250, -3.632812500000, -2.867187500000, -4.398437500000, 1491821310
0.381347656250, -1.024169921875, 0.078613281250, -3.632812500000, -2.867187500000, -4.398437500000, 1491821310
0.381347656250, -1.024169921875, 0.078613281250, -3.632812500000, -2.867187500000, -4.398437500000, 1491821310
0.373046875000, -0.890869140625, 0.014404296875, -1.679687500000, -1.710937500000, -9.351562500000, 1491821310
0.373046875000, -0.890869140625, 0.014404296875, -1.679687500000, -1.710937500000, -9.351562500000, 1491821310
0.373046875000, -0.890869140625, 0.014404296875, -1.679687500000, -1.710937500000, -9.351562500000, 1491821310
0.327880859375, -0.928710937500, 0.042724609375, -1.976562500000, -2.148437500000, -4.406250000000, 1491821310
0.327880859375, -0.928710937500, 0.042724609375, -1.976562500000, -2.148437500000, -4.406250000000, 1491821310
0.327880859375, -0.928710937500, 0.042724609375, -1.976562500000, -2.148437500000, -4.406250000000, 1491821310
0.365478515625, -0.923828125000, 0.003662109375, -3.312500000000, 2.218750000000, -2.632812500000, 1491821310
0.365478515625, -0.923828125000, 0.003662109375, -3.312500000000, 2.218750000000, -2.632812500000, 1491821310
0.365478515625, -0.923828125000, 0.003662109375, -3.312500000000, 2.218750000000, -2.632812500000, 1491821310
0.299560546875, -0.967773437500, -0.076660156250, -4.421875000000, 1.414062500000, -1.140625000000, 1491821310
0.299560546875, -0.967773437500, -0.076660156250, -4.421875000000, 1.414062500000, -1.140625000000, 1491821310
0.299560546875, -0.967773437500, -0.076660156250, -4.421875000000, 1.414062500000, -1.140625000000, 1491821310
0.306396484375, -0.882812500000, 0.028808593750, -1.351562500000, 4.023437500000, -5.609375000000, 1491821310
0.306396484375, -0.882812500000, 0.028808593750, -1.351562500000, 4.023437500000, -5.609375000000, 1491821310
0.306396484375, -0.882812500000, 0.028808593750, -1.351562500000, 4.023437500000, -5.609375000000, 1491821310
0.306396484375, -0.882812500000, 0.028808593750, -1.351562500000, 4.023437500000, -5.609375000000, 1491821310
0.449218750000, -0.916015625000, -0.015625000000, -1.570312500000, 3.203125000000, -7.046875000000, 1491821310
0.449218750000, -0.916015625000, -0.015625000000, -1.570312500000, 3.203125000000, -7.046875000000, 1491821310
0.449218750000, -0.916015625000, -0.015625000000, -1.570312500000, 3.203125000000, -7.046875000000, 1491821310
0.344726562500, -0.918701171875, -0.021240234375, -4.718750000000, 1.328125000000, -10.304687500000, 1491821310
0.344726562500, -0.918701171875, -0.021240234375, -4.718750000000, 1.328125000000, -10.304687500000, 1491821310
0.344726562500, -0.918701171875, -0.021240234375, -4.718750000000, 1.328125000000, -10.304687500000, 1491821310
0.344726562500, -0.918701171875, -0.021240234375, -4.718750000000, 1.328125000000, -10.304687500000, 1491821310
0.395263671875, -0.912109375000, 0.023925781250, -3.585937500000, 2.968750000000, -4.203125000000, 1491821310
0.395263671875, -0.912109375000, 0.023925781250, -3.585937500000, 2.968750000000, -4.203125000000, 1491821310
0.395263671875, -0.912109375000, 0.023925781250, -3.585937500000, 2.968750000000, -4.203125000000, 1491821310
0.389648437500, -0.954833984375, 0.064941406250, -4.507812500000, 8.070312500000, -6.609375000000, 1491821310
0.389648437500, -0.954833984375, 0.064941406250, -4.507812500000, 8.070312500000, -6.609375000000, 1491821310
0.389648437500, -0.954833984375, 0.064941406250, -4.507812500000, 8.070312500000, -6.609375000000, 1491821310
0.378906250000, -0.953857421875, -0.026367187500, -0.648437500000, -1.187500000000, -8.515625000000, 1491821310
0.378906250000, -0.953857421875, -0.026367187500, -0.648437500000, -1.187500000000, -8.515625000000, 1491821310
0.378906250000, -0.953857421875, -0.026367187500, -0.648437500000, -1.187500000000, -8.515625000000, 1491821310
0.381347656250, -0.917968750000, -0.026611328125, -4.335937500000, -0.093750000000, -8.437500000000, 1491821310
0.381347656250, -0.917968750000, -0.026611328125, -4.335937500000, -0.093750000000, -8.437500000000, 1491821310
0.381347656250, -0.917968750000, -0.026611328125, -4.335937500000, -0.093750000000, -8.437500000000, 1491821310
0.381347656250, -0.917968750000, -0.026611328125, -4.335937500000, -0.093750000000, -8.437500000000, 1491821310
0.381835937500, -1.013671875000, -0.014892578125, -3.656250000000, -0.476562500000, -6.695312500000, 1491821310
0.381835937500, -1.013671875000, -0.014892578125, -3.656250000000, -0.476562500000, -6.695312500000, 1491821310
0.381835937500, -1.013671875000, -0.014892578125, -3.656250000000, -0.476562500000, -6.695312500000, 1491821310
0.438232421875, -0.920654296875, -0.014160156250, -3.960937500000, -0.664062500000, -3.648437500000, 1491821310
0.438232421875, -0.920654296875, -0.014160156250, -3.960937500000, -0.664062500000, -3.648437500000, 1491821311
0.438232421875, -0.920654296875, -0.014160156250, -3.960937500000, -0.664062500000, -3.648437500000, 1491821311
0.344726562500, -0.945068359375, 0.078369140625, -1.250000000000, -2.265625000000, -6.453125000000, 1491821311
0.344726562500, -0.945068359375, 0.078369140625, -1.250000000000, -2.265625000000, -6.453125000000, 1491821311
0.344726562500, -0.945068359375, 0.078369140625, -1.250000000000, -2.265625000000, -6.453125000000, 1491821311
0.293457031250, -0.954101562500, 0.064941406250, -4.445312500000, 2.937500000000, -6.289062500000, 1491821311
0.293457031250, -0.954101562500, 0.064941406250, -4.445312500000, 2.937500000000, -6.289062500000, 1491821311
0.293457031250, -0.954101562500, 0.064941406250, -4.445312500000, 2.937500000000, -6.289062500000, 1491821311
0.293457031250, -0.954101562500, 0.064941406250, -4.445312500000, 2.937500000000, -6.289062500000, 1491821311
0.301513671875, -0.915039062500, -0.024414062500, -2.953125000000, 1.335937500000, -3.460937500000, 1491821311
0.301513671875, -0.915039062500, -0.024414062500, -2.953125000000, 1.335937500000, -3.460937500000, 1491821311
0.301513671875, -0.915039062500, -0.024414062500, -2.953125000000, 1.335937500000, -3.460937500000, 1491821311
0.449951171875, -0.846191406250, 0.015136718750, -4.085937500000, -0.140625000000, -6.500000000000, 1491821311
0.449951171875, -0.846191406250, 0.015136718750, -4.085937500000, -0.140625000000, -6.500000000000, 1491821311
0.449951171875, -0.846191406250, 0.015136718750, -4.085937500000, -0.140625000000, -6.500000000000, 1491821311
0.326660156250, -0.940917968750, -0.016357421875, -3.750000000000, 2.890625000000, -8.023437500000, 1491821311
0.326660156250, -0.940917968750, -0.016357421875, -3.750000000000, 2.890625000000, -8.023437500000, 1491821311
0.326660156250, -0.940917968750, -0.016357421875, -4.914062500000, 2.820312500000, -8.351562500000, 1491821311
0.376464843750, -0.863037109375, -0.025146484375, -1.398437500000, 4.835937500000, -6.890625000000, 1491821311
0.376464843750, -0.863037109375, -0.025146484375, -1.398437500000, 4.835937500000, -6.890625000000, 1491821311
0.376464843750, -0.863037109375, -0.025146484375, -1.398437500000, 4.835937500000, -6.890625000000, 1491821311
0.376464843750, -0.863037109375, -0.025146484375, -1.398437500000, 4.835937500000, -6.890625000000, 1491821311
0.444580078125, -0.928222656250, -0.076416015625, -4.437500000000, -0.593750000000, -1.937500000000, 1491821311
0.444580078125, -0.928222656250, -0.076416015625, -4.437500000000, -0.593750000000, -1.937500000000, 1491821311
0.444580078125, -0.928222656250, -0.076416015625, -4.437500000000, -0.593750000000, -1.937500000000, 1491821311
0.420898437500, -0.962402343750, 0.065429687500, -4.976562500000, 2.476562500000, -4.093750000000, 1491821311
0.420898437500, -0.962402343750, 0.065429687500, -4.976562500000, 2.476562500000, -4.093750000000, 1491821311
0.420898437500, -0.962402343750, 0.065429687500, -4.976562500000, 2.476562500000, -4.093750000000, 1491821311
0.401367187500, -0.960693359375, 0.026367187500, -4.781250000000, -0.859375000000, -3.187500000000, 1491821311
0.401367187500, -0.960693359375, 0.026367187500, -4.781250000000, -0.859375000000, -3.187500000000, 1491821311
0.401367187500, -0.960693359375, 0.026367187500, -4.781250000000, -0.859375000000, -3.187500000000, 1491821311
0.232177734375, -0.968750000000, 0.030273437500, -3.757812500000, 1.601562500000, -6.851562500000, 1491821311
0.232177734375, -0.968750000000, 0.030273437500, -3.757812500000, 1.601562500000, -6.851562500000, 1491821311
0.232177734375, -0.968750000000, 0.030273437500, -3.757812500000, 1.601562500000, -6.851562500000, 1491821311
0.232177734375, -0.968750000000, 0.030273437500, -3.757812500000, 1.601562500000, -6.851562500000, 1491821311
0.369384765625, -1.023193359375, 0.064208984375, -1.226562500000, -2.210937500000, -3.109375000000, 1491821311
0.369384765625, -1.023193359375, 0.064208984375, -1.226562500000, -2.210937500000, -3.109375000000, 1491821311
0.369384765625, -1.023193359375, 0.064208984375, -1.226562500000, -2.210937500000, -3.109375000000, 1491821311
0.350830078125, -1.009521484375, -0.086914062500, -6.398437500000, 2.257812500000, -4.632812500000, 1491821311
0.350830078125, -1.009521484375, -0.086914062500, -6.398437500000, 2.257812500000, -4.632812500000, 1491821311
0.350830078125, -1.009521484375, -0.086914062500, -6.398437500000, 2.257812500000, -4.632812500000, 1491821311
0.410156250000, -0.954345703125, 0.089355468750, -4.968750000000, 0.453125000000, 0.468750000000, 1491821311
0.410156250000, -0.954345703125, 0.089355468750, -4.968750000000, 0.453125000000, 0.468750000000, 1491821311
0.410156250000, -0.954345703125, 0.089355468750, -4.968750000000, 0.453125000000, 0.468750000000, 1491821311
0.401855468750, -1.012695312500, -0.013671875000, -3.460937500000, -2.250000000000, -1.554687500000, 1491821311
0.401855468750, -1.012695312500, -0.013671875000, -3.460937500000, -2.250000000000, -1.554687500000, 1491821311
0.401855468750, -1.012695312500, -0.013671875000, -3.460937500000, -2.250000000000, -1.554687500000, 1491821311
0.401855468750, -1.012695312500, -0.013671875000, -3.460937500000, -2.250000000000, -1.554687500000, 1491821311
0.298583984375, -1.003906250000, -0.015869140625, -6.609375000000, 0.101562500000, -1.023437500000, 1491821311
0.298583984375, -1.003906250000, -0.015869140625, -6.609375000000, 0.101562500000, -1.023437500000, 1491821311
0.298583984375, -1.003906250000, -0.015869140625, -6.609375000000, 0.101562500000, -1.023437500000, 1491821311
0.393310546875, -0.869628906250, -0.008544921875, -6.539062500000, 0.476562500000, -1.929687500000, 1491821311
0.393310546875, -0.869628906250, -0.008544921875, -6.539062500000, 0.476562500000, -1.929687500000, 1491821311
0.393310546875, -0.869628906250, -0.008544921875, -6.539062500000, 0.476562500000, -1.929687500000, 1491821311
0.378906250000, -0.869628906250, -0.005371093750, -3.460937500000, 0.734375000000, -6.250000000000, 1491821311
0.378906250000, -0.869628906250, -0.005371093750, -3.460937500000, 0.734375000000, -6.250000000000, 1491821311
0.378906250000, -0.869628906250, -0.005371093750, -3.460937500000, 0.734375000000, -6.250000000000, 1491821311
0.378906250000, -0.966796875000, -0.015136718750, -5.148437500000, -2.414062500000, -1.843750000000, 1491821311
0.378906250000, -0.966796875000, -0.015136718750, -5.148437500000, -2.414062500000, -1.843750000000, 1491821311
0.378906250000, -0.966796875000, -0.015136718750, -5.148437500000, -2.414062500000, -1.843750000000, 1491821311
0.378906250000, -0.966796875000, -0.015136718750, -5.148437500000, -2.414062500000, -1.843750000000, 1491821311
0.402832031250, -0.865234375000, 0.003906250000, -6.812500000000, 0.023437500000, -2.562500000000, 1491821311
0.402832031250, -0.865234375000, 0.003906250000, -6.812500000000, 0.023437500000, -2.562500000000, 1491821311
0.402832031250, -0.865234375000, 0.003906250000, -6.812500000000, 0.023437500000, -2.562500000000, 1491821311
0.350341796875, -1.024902343750, 0.003417968750, -6.421875000000, -0.664062500000, -3.375000000000, 1491821311
0.350341796875, -1.024902343750, 0.003417968750, -6.421875000000, -0.664062500000, -3.375000000000, 1491821311
0.350341796875, -1.024902343750, 0.003417968750, -6.421875000000, -0.664062500000, -3.375000000000, 1491821311
0.301269531250, -0.853759765625, -0.026855468750, -6.062500000000, 0.492187500000, -5.031250000000, 1491821312
0.301269531250, -0.853759765625, -0.026855468750, -6.062500000000, 0.492187500000, -5.031250000000, 1491821312
0.301269531250, -0.853759765625, -0.026855468750, -6.062500000000, 0.492187500000, -5.031250000000, 1491821312
0.282958984375, -0.869628906250, 0.064208984375, -5.367187500000, 4.773437500000, -4.937500000000, 1491821312
0.282958984375, -0.869628906250, 0.064208984375, -5.367187500000, 4.773437500000, -4.937500000000, 1491821312
0.282958984375, -0.869628906250, 0.064208984375, -5.367187500000, 4.773437500000, -4.937500000000, 1491821312
0.304931640625, -0.952880859375, 0.015869140625, -3.554687500000, 4.976562500000, -4.953125000000, 1491821312
0.304931640625, -0.952880859375, 0.015869140625, -3.554687500000, 4.976562500000, -4.953125000000, 1491821312
0.304931640625, -0.952880859375, 0.015869140625, -3.554687500000, 4.976562500000, -4.953125000000, 1491821312
0.304931640625, -0.952880859375, 0.015869140625, -3.554687500000, 4.976562500000, -4.953125000000, 1491821312
0.398193359375, -1.016113281250, -0.001953125000, -0.570312500000, 0.328125000000, -4.093750000000, 1491821312
0.398193359375, -1.016113281250, -0.001953125000, -0.570312500000, 0.328125000000, -4.093750000000, 1491821312
0.398193359375, -1.016113281250, -0.001953125000, -0.570312500000, 0.328125000000, -4.093750000000, 1491821312
0.359130859375, -0.966552734375, 0.071044921875, -6.570312500000, 2.570312500000, -4.390625000000, 1491821312
0.359130859375, -0.966552734375, 0.071044921875, -6.570312500000, 2.570312500000, -4.390625000000, 1491821312
0.359130859375, -0.966552734375, 0.071044921875, -6.570312500000, 2.570312500000, -4.390625000000, 1491821312
0.400390625000, -0.906494140625, -0.030761718750, -4.671875000000, 0.921875000000, -3.078125000000, 1491821312
0.400390625000, -0.906494140625, -0.030761718750, -4.671875000000, 0.921875000000, -3.078125000000, 1491821312
0.400390625000, -0.906494140625, -0.030761718750, -4.671875000000, 0.921875000000, -3.078125000000, 1491821312
0.400390625000, -0.906494140625, -0.030761718750, -4.671875000000, 0.921875000000, -3.078125000000, 1491821312
0.427490234375, -0.946044921875, 0.002929687500, -4.898437500000, 2.375000000000, -5.429687500000, 1491821312
0.427490234375, -0.946044921875, 0.002929687500, -4.898437500000, 2.375000000000, -5.429687500000, 1491821312
0.427490234375, -0.946044921875, 0.002929687500, -4.898437500000, 2.375000000000, -5.429687500000, 1491821312
0.286621093750, -0.944824218750, 0.039794921875, -3.218750000000, 2.015625000000, -4.335937500000, 1491821312
0.286621093750, -0.944824218750, 0.039794921875, -3.218750000000, 2.015625000000, -4.335937500000, 1491821312
0.286621093750, -0.944824218750, 0.039794921875, -3.218750000000, 2.015625000000, -4.335937500000, 1491821312
0.302734375000, -0.916503906250, 0.010253906250, -4.984375000000, -0.617187500000, -8.507812500000, 1491821312
0.302734375000, -0.916503906250, 0.010253906250, -4.984375000000, -0.617187500000, -8.507812500000, 1491821312
0.302734375000, -0.916503906250, 0.010253906250, -4.984375000000, -0.617187500000, -8.507812500000, 1491821312
0.398193359375, -0.959716796875, 0.030761718750, -1.843750000000, 0.101562500000, -3.445312500000, 1491821312
0.398193359375, -0.959716796875, 0.030761718750, -1.843750000000, 0.101562500000, -3.445312500000, 1491821312
0.398193359375, -0.959716796875, 0.030761718750, -1.843750000000, 0.101562500000, -3.445312500000, 1491821312
0.398193359375, -0.959716796875, 0.030761718750, -1.843750000000, 0.101562500000, -3.445312500000, 1491821312
0.387939453125, -0.936767578125, 0.077392578125, -4.398437500000, -2.320312500000, -8.906250000000, 1491821312
0.387939453125, -0.936767578125, 0.077392578125, -4.398437500000, -2.320312500000, -8.906250000000, 1491821312
0.387939453125, -0.936767578125, 0.077392578125, -4.398437500000, -2.320312500000, -8.906250000000, 1491821312
0.398193359375, -0.928222656250, -0.005126953125, -3.421875000000, 2.195312500000, -4.632812500000, 1491821312
0.398193359375, -0.928222656250, -0.005126953125, -3.421875000000, 2.195312500000, -4.632812500000, 1491821312
0.398193359375, -0.928222656250, -0.005126953125, -3.421875000000, 2.195312500000, -4.632812500000, 1491821312
0.299316406250, -0.949951171875, -0.026123046875, -1.875000000000, -2.187500000000, -3.390625000000, 1491821312
0.299316406250, -0.949951171875, -0.026123046875, -1.875000000000, -2.187500000000, -3.390625000000, 1491821312
0.299316406250, -0.949951171875, -0.026123046875, -1.875000000000, -2.187500000000, -3.390625000000, 1491821312
0.397460937500, -0.937255859375, -0.085937500000, -4.953125000000, 1.023437500000, -4.437500000000, 1491821312
0.397460937500, -0.937255859375, -0.085937500000, -4.953125000000, 1.023437500000, -4.437500000000, 1491821312
0.397460937500, -0.937255859375, -0.085937500000, -4.953125000000, 1.023437500000, -4.437500000000, 1491821312
0.397460937500, -0.937255859375, -0.085937500000, -4.953125000000, 1.023437500000, -4.437500000000, 1491821312
0.413574218750, -0.864501953125, -0.007812500000, -2.203125000000, 0.960937500000, -5.921875000000, 1491821312
0.413574218750, -0.864501953125, -0.007812500000, -2.203125000000, 0.960937500000, -5.921875000000, 1491821312
0.340332031250, -0.868652343750, 0.018798828125, -3.367187500000, -0.625000000000, -3.046875000000, 1491821312
0.340332031250, -0.868652343750, 0.018798828125, -3.367187500000, -0.625000000000, -3.046875000000, 1491821312
0.340332031250, -0.868652343750, 0.018798828125, -3.367187500000, -0.625000000000, -3.046875000000, 1491821312
0.340332031250, -0.868652343750, 0.018798828125, -3.367187500000, -0.625000000000, -3.046875000000, 1491821312
0.394775390625, -0.869628906250, -0.020507812500, -4.140625000000, 0.742187500000, -5.375000000000, 1491821312
0.394775390625, -0.869628906250, -0.020507812500, -4.140625000000, 0.742187500000, -5.375000000000, 1491821312
0.299804687500, -0.943359375000, -0.021240234375, -4.632812500000, -0.367187500000, -7.156250000000, 1491821312
0.390625000000, -0.862548828125, -0.014404296875, -4.632812500000, -0.367187500000, -7.156250000000, 1491821312
0.390625000000, -0.862548828125, -0.014404296875, -4.632812500000, -0.367187500000, -7.156250000000, 1491821312
0.390625000000, -0.862548828125, -0.014404296875, -4.632812500000, -0.367187500000, -7.156250000000, 1491821312
0.390625000000, -0.862548828125, -0.014404296875, -4.632812500000, -0.367187500000, -7.156250000000, 1491821312
0.390625000000, -0.862548828125, -0.014404296875, -4.632812500000, -0.367187500000, -7.156250000000, 1491821312
0.395019531250, -0.947509765625, -0.017333984375, -1.421875000000, -0.906250000000, -5.156250000000, 1491821312
0.395019531250, -0.947509765625, -0.017333984375, -1.421875000000, -0.906250000000, -5.156250000000, 1491821312
0.395019531250, -0.947509765625, -0.017333984375, -1.421875000000, -0.906250000000, -5.156250000000, 1491821312
0.395019531250, -0.947509765625, -0.017333984375, -1.421875000000, -0.906250000000, -5.156250000000, 1491821312
0.395019531250, -0.947509765625, -0.017333984375, -1.421875000000, -0.906250000000, -5.156250000000, 1491821312
0.382568359375, -1.005859375000, 0.018310546875, -4.867187500000, 0.687500000000, -1.414062500000, 1491821312
0.382568359375, -1.005859375000, 0.018310546875, -4.867187500000, 0.687500000000, -1.414062500000, 1491821313
0.382568359375, -1.005859375000, 0.018310546875, -4.867187500000, 0.687500000000, -1.414062500000, 1491821313
0.385742187500, -0.965576171875, -0.009765625000, -1.265625000000, -0.804687500000, -10.007812500000, 1491821313
0.385742187500, -0.965576171875, -0.009765625000, -1.265625000000, -0.804687500000, -10.007812500000, 1491821313
0.385742187500, -0.965576171875, -0.009765625000, -1.265625000000, -0.804687500000, -10.007812500000, 1491821313
0.385742187500, -0.965576171875, -0.009765625000, -1.265625000000, -0.804687500000, -10.007812500000, 1491821313
0.383300781250, -0.870849609375, 0.075195312500, -4.710937500000, 1.820312500000, -7.757812500000, 1491821313
0.383300781250, -0.870849609375, 0.075195312500, -4.710937500000, 1.820312500000, -7.757812500000, 1491821313
0.383300781250, -0.870849609375, 0.075195312500, -4.710937500000, 1.820312500000, -7.757812500000, 1491821313
0.348876953125, -0.947265625000, -0.072265625000, -4.515625000000, -0.265625000000, -8.343750000000, 1491821313
0.348876953125, -0.947265625000, -0.072265625000, -4.515625000000, -0.265625000000, -8.343750000000, 1491821313
0.348876953125, -0.947265625000, -0.072265625000, -4.515625000000, -0.265625000000, -8.343750000000, 1491821313
0.351074218750, -1.002929687500, 0.069091796875, -1.859375000000, -1.687500000000, -7.343750000000, 1491821313
0.351074218750, -1.002929687500, 0.069091796875, -1.859375000000, -1.687500000000, -7.343750000000, 1491821313
0.351074218750, -1.002929687500, 0.069091796875, -1.859375000000, -1.687500000000, -7.343750000000, 1491821313
0.338378906250, -0.970703125000, 0.018310546875, -7.343750000000, -16.742187500000, -13.382812500000, 1491821313
0.338378906250, -0.970703125000, 0.018310546875, -7.343750000000, -16.742187500000, -13.382812500000, 1491821313
0.338378906250, -0.970703125000, 0.018310546875, -7.343750000000, -16.742187500000, -13.382812500000, 1491821313
0.338378906250, -0.970703125000, 0.018310546875, -7.343750000000, -16.742187500000, -13.382812500000, 1491821313
0.522460937500, -0.855957031250, 0.063720703125, 1.562500000000, -8.390625000000, -13.664062500000, 1491821313
0.522460937500, -0.855957031250, 0.063720703125, 1.562500000000, -8.390625000000, -13.664062500000, 1491821313
0.522460937500, -0.855957031250, 0.063720703125, 1.562500000000, -8.390625000000, -13.664062500000, 1491821313
0.342773437500, -0.943115234375, 0.009521484375, -4.984375000000, -3.820312500000, -7.609375000000, 1491821313
0.342773437500, -0.943115234375, 0.009521484375, -4.984375000000, -3.820312500000, -7.609375000000, 1491821313
0.342773437500, -0.943115234375, 0.009521484375, -4.984375000000, -3.820312500000, -7.609375000000, 1491821313
0.313232421875, -0.876464843750, -0.032226562500, -4.492187500000, -0.304687500000, -10.679687500000, 1491821313
0.313232421875, -0.876464843750, -0.032226562500, -4.492187500000, -0.304687500000, -10.679687500000, 1491821313
0.313232421875, -0.876464843750, -0.032226562500, -4.492187500000, -0.304687500000, -10.679687500000, 1491821313
0.427246093750, -1.021728515625, -0.082519531250, 0.343750000000, -0.140625000000, -8.328125000000, 1491821313
0.427246093750, -1.021728515625, -0.082519531250, 0.343750000000, -0.140625000000, -8.328125000000, 1491821313
0.427246093750, -1.021728515625, -0.082519531250, 0.343750000000, -0.140625000000, -8.328125000000, 1491821313
0.427246093750, -1.021728515625, -0.082519531250, 0.343750000000, -0.140625000000, -8.328125000000, 1491821313
0.302001953125, -1.023437500000, 0.066894531250, -2.648437500000, -2.554687500000, -4.437500000000, 1491821313
0.302001953125, -1.023437500000, 0.066894531250, -2.648437500000, -2.554687500000, -4.437500000000, 1491821313
0.302001953125, -1.023437500000, 0.066894531250, -2.648437500000, -2.554687500000, -4.437500000000, 1491821313
0.346435546875, -0.944580078125, -0.032714843750, -4.695312500000, 2.578125000000, -3.429687500000, 1491821313
0.346435546875, -0.944580078125, -0.032714843750, -4.695312500000, 2.578125000000, -3.429687500000, 1491821313
0.346435546875, -0.944580078125, -0.032714843750, -4.695312500000, 2.578125000000, -3.429687500000, 1491821313
