ACC_X,ACC_Y,ACC_Z,G_X,G_Y,G_Z,Unix Time
0.159179687500, -0.261962890625, 0.923828125000, -6.601562500000, 2.687500000000, -4.382812500000, 1491820358
0.159179687500, -0.261962890625, 0.923828125000, -6.601562500000, 2.687500000000, -4.382812500000, 1491820358
0.159179687500, -0.261962890625, 0.923828125000, -6.601562500000, 2.687500000000, -4.382812500000, 1491820358
0.225830078125, -0.219238281250, 0.964843750000, -6.554687500000, 2.421875000000, -3.796875000000, 1491820358
0.225830078125, -0.219238281250, 0.964843750000, -6.554687500000, 2.421875000000, -3.796875000000, 1491820358
0.225830078125, -0.219238281250, 0.964843750000, -6.554687500000, 2.421875000000, -3.796875000000, 1491820358
0.225830078125, -0.219238281250, 0.964843750000, -6.554687500000, 2.421875000000, -3.796875000000, 1491820358
0.219970703125, -0.277343750000, 0.916992187500, -6.976562500000, 1.726562500000, -3.789062500000, 1491820358
0.219970703125, -0.277343750000, 0.916992187500, -6.976562500000, 1.726562500000, -3.789062500000, 1491820358
0.219970703125, -0.277343750000, 0.916992187500, -6.976562500000, 1.726562500000, -3.789062500000, 1491820358
0.219970703125, -0.277343750000, 0.916992187500, -6.976562500000, 1.726562500000, -3.789062500000, 1491820358
0.219970703125, -0.277343750000, 0.916992187500, -5.601562500000, 2.820312500000, -1.585937500000, 1491820358
0.227294921875, -0.237792968750, 0.927001953125, 0.218750000000, 1.210937500000, -4.859375000000, 1491820358
0.227294921875, -0.237792968750, 0.927001953125, 0.218750000000, 1.210937500000, -4.859375000000, 1491820358
0.227294921875, -0.237792968750, 0.927001953125, 0.218750000000, 1.210937500000, -4.859375000000, 1491820358
0.227294921875, -0.237792968750, 0.927001953125, 0.218750000000, 1.210937500000, -4.859375000000, 1491820358
0.187255859375, -0.167968750000, 0.929687500000, -1.734375000000, 2.453125000000, -8.046875000000, 1491820358
0.187255859375, -0.167968750000, 0.929687500000, -1.734375000000, 2.453125000000, -8.046875000000, 1491820358
0.187255859375, -0.167968750000, 0.929687500000, -1.734375000000, 2.453125000000, -8.046875000000, 1491820358
0.187255859375, -0.161621093750, 0.921630859375, -6.687500000000, -0.375000000000, -3.492187500000, 1491820358
0.187255859375, -0.161621093750, 0.921630859375, -6.687500000000, -0.375000000000, -3.492187500000, 1491820358
0.187255859375, -0.161621093750, 0.921630859375, -6.687500000000, -0.375000000000, -3.492187500000, 1491820358
0.253662109375, -0.280761718750, 0.964843750000, -5.054687500000, -0.718750000000, -4.109375000000, 1491820358
0.253662109375, -0.280761718750, 0.964843750000, -5.054687500000, -0.718750000000, -4.109375000000, 1491820358
0.253662109375, -0.280761718750, 0.964843750000, -5.054687500000, -0.718750000000, -4.109375000000, 1491820358
0.253662109375, -0.280761718750, 0.964843750000, -5.054687500000, -0.718750000000, -4.109375000000, 1491820358
0.313232421875, -0.232666015625, 0.990722656250, -1.585937500000, 2.328125000000, -5.687500000000, 1491820358
0.313232421875, -0.232666015625, 0.990722656250, -1.585937500000, 2.328125000000, -5.687500000000, 1491820358
0.313232421875, -0.232666015625, 0.990722656250, -1.585937500000, 2.328125000000, -5.687500000000, 1491820358
0.156982421875, -0.233154296875, 1.020019531250, -8.515625000000, 0.570312500000, -3.843750000000, 1491820358
0.156982421875, -0.233154296875, 1.020019531250, -8.515625000000, 0.570312500000, -3.843750000000, 1491820358
0.156982421875, -0.233154296875, 1.020019531250, -8.515625000000, 0.570312500000, -3.843750000000, 1491820358
0.224609375000, -0.104003906250, 1.024658203125, -4.898437500000, 3.773437500000, -3.296875000000, 1491820358
0.224609375000, -0.104003906250, 1.024658203125, -4.898437500000, 3.773437500000, -3.296875000000, 1491820358
0.224609375000, -0.104003906250, 1.024658203125, -4.898437500000, 3.773437500000, -3.296875000000, 1491820358
0.218994140625, -0.233398437500, 1.003906250000, -7.671875000000, -0.835937500000, -4.375000000000, 1491820358
0.218994140625, -0.233398437500, 1.003906250000, -7.671875000000, -0.835937500000, -4.375000000000, 1491820358
0.218994140625, -0.233398437500, 1.003906250000, -7.671875000000, -0.835937500000, -4.375000000000, 1491820358
0.218994140625, -0.233398437500, 1.003906250000, -7.671875000000, -0.835937500000, -4.375000000000, 1491820358
0.254394531250, -0.161621093750, 0.936523437500, -0.640625000000, 2.625000000000, -4.242187500000, 1491820359
0.254394531250, -0.161621093750, 0.936523437500, -0.640625000000, 2.625000000000, -4.242187500000, 1491820359
0.254394531250, -0.161621093750, 0.936523437500, -0.640625000000, 2.625000000000, -4.242187500000, 1491820359
0.169433593750, -0.229003906250, 0.931640625000, -2.445312500000, 2.375000000000, -4.195312500000, 1491820359
0.169433593750, -0.229003906250, 0.931640625000, -2.445312500000, 2.375000000000, -4.195312500000, 1491820359
0.169433593750, -0.229003906250, 0.931640625000, -2.445312500000, 2.375000000000, -4.195312500000, 1491820359
0.312744140625, -0.328857421875, 0.933105468750, -1.898437500000, 2.500000000000, -5.281250000000, 1491820359
0.312744140625, -0.328857421875, 0.933105468750, -1.898437500000, 2.500000000000, -5.281250000000, 1491820359
0.312744140625, -0.328857421875, 0.933105468750, -1.898437500000, 2.500000000000, -5.281250000000, 1491820359
0.259521484375, -0.219970703125, 0.907226562500, -3.164062500000, 1.242187500000, -6.789062500000, 1491820359
0.259521484375, -0.219970703125, 0.907226562500, -3.164062500000, 1.242187500000, -6.789062500000, 1491820359
0.259521484375, -0.219970703125, 0.907226562500, -3.164062500000, 1.242187500000, -6.789062500000, 1491820359
0.259521484375, -0.219970703125, 0.907226562500, -3.164062500000, 1.242187500000, -6.789062500000, 1491820359
0.267822265625, -0.176757812500, 0.922607421875, -1.179687500000, 1.257812500000, -1.656250000000, 1491820359
0.267822265625, -0.176757812500, 0.922607421875, -1.179687500000, 1.257812500000, -1.656250000000, 1491820359
0.267822265625, -0.176757812500, 0.922607421875, -1.179687500000, 1.257812500000, -1.656250000000, 1491820359
0.323242187500, -0.274902343750, 1.029296875000, -6.414062500000, 0.375000000000, -1.656250000000, 1491820359
0.323242187500, -0.274902343750, 1.029296875000, -6.414062500000, 0.375000000000, -1.656250000000, 1491820359
0.323242187500, -0.274902343750, 1.029296875000, -6.414062500000, 0.375000000000, -1.656250000000, 1491820359
0.265136718750, -0.212402343750, 0.915771484375, -4.351562500000, 1.664062500000, -4.164062500000, 1491820359
0.265136718750, -0.212402343750, 0.915771484375, -4.351562500000, 1.664062500000, -4.164062500000, 1491820359
0.265136718750, -0.212402343750, 0.915771484375, -4.351562500000, 1.664062500000, -4.164062500000, 1491820359
0.252441406250, -0.228515625000, 0.925537109375, -3.281250000000, 2.906250000000, -3.015625000000, 1491820359
0.252441406250, -0.228515625000, 0.925537109375, -3.281250000000, 2.906250000000, -3.015625000000, 1491820359
0.252441406250, -0.228515625000, 0.925537109375, -3.281250000000, 2.906250000000, -3.015625000000, 1491820359
0.252441406250, -0.228515625000, 0.925537109375, -3.281250000000, 2.906250000000, -3.015625000000, 1491820359
0.213623046875, -0.237792968750, 1.005126953125, -4.984375000000, -0.070312500000, -2.656250000000, 1491820359
0.213623046875, -0.237792968750, 1.005126953125, -4.984375000000, -0.070312500000, -2.656250000000, 1491820359
0.213623046875, -0.237792968750, 1.005126953125, -4.984375000000, -0.070312500000, -2.656250000000, 1491820359
0.180175781250, -0.257324218750, 0.927734375000, -4.046875000000, 2.273437500000, -5.421875000000, 1491820359
0.180175781250, -0.257324218750, 0.927734375000, -4.046875000000, 2.273437500000, -5.421875000000, 1491820359
0.180175781250, -0.257324218750, 0.927734375000, -4.046875000000, 2.273437500000, -5.421875000000, 1491820359
0.234863281250, -0.182617187500, 0.926025390625, -3.109375000000, 2.976562500000, -4.031250000000, 1491820359
0.234863281250, -0.182617187500, 0.926025390625, -3.109375000000, 2.976562500000, -4.031250000000, 1491820359
0.234863281250, -0.182617187500, 0.926025390625, -3.109375000000, 2.976562500000, -4.031250000000, 1491820359
0.278564453125, -0.227783203125, 0.941162109375, -3.054687500000, 2.062500000000, -1.414062500000, 1491820359
0.278564453125, -0.227783203125, 0.941162109375, -3.054687500000, 2.062500000000, -1.414062500000, 1491820359
0.278564453125, -0.227783203125, 0.941162109375, -3.054687500000, 2.062500000000, -1.414062500000, 1491820359
0.278564453125, -0.227783203125, 0.941162109375, -3.054687500000, 2.062500000000, -1.414062500000, 1491820359
0.176513671875, -0.272705078125, 0.925781250000, -3.031250000000, 0.882812500000, -3.226562500000, 1491820359
0.176513671875, -0.272705078125, 0.925781250000, -3.031250000000, 0.882812500000, -3.226562500000, 1491820359
0.176513671875, -0.272705078125, 0.925781250000, -3.031250000000, 0.882812500000, -3.226562500000, 1491820359
0.253417968750, -0.209716796875, 0.913085937500, -5.437500000000, -0.960937500000, -3.773437500000, 1491820359
0.253417968750, -0.209716796875, 0.913085937500, -5.437500000000, -0.960937500000, -3.773437500000, 1491820359
0.253417968750, -0.209716796875, 0.913085937500, -5.437500000000, -0.960937500000, -3.773437500000, 1491820359
0.121093750000, -0.261230468750, 0.946533203125, -1.796875000000, 2.320312500000, -1.812500000000, 1491820359
0.121093750000, -0.261230468750, 0.946533203125, -1.796875000000, 2.320312500000, -1.812500000000, 1491820359
0.121093750000, -0.261230468750, 0.946533203125, -1.796875000000, 2.320312500000, -1.812500000000, 1491820359
0.162841796875, -0.282470703125, 1.001220703125, -8.031250000000, -2.867187500000, -5.156250000000, 1491820359
0.162841796875, -0.282470703125, 1.001220703125, -8.031250000000, -2.867187500000, -5.156250000000, 1491820359
0.162841796875, -0.282470703125, 1.001220703125, -8.031250000000, -2.867187500000, -5.156250000000, 1491820359
0.162841796875, -0.282470703125, 1.001220703125, -8.031250000000, -2.867187500000, -5.156250000000, 1491820359
0.185058593750, -0.162353515625, 1.014648437500, -0.765625000000, 0.156250000000, -0.625000000000, 1491820359
0.185058593750, -0.162353515625, 1.014648437500, -0.765625000000, 0.156250000000, -0.625000000000, 1491820359
0.185058593750, -0.162353515625, 1.014648437500, -0.765625000000, 0.156250000000, -0.625000000000, 1491820359
0.222656250000, -0.206054687500, 0.964355468750, -3.445312500000, -2.320312500000, -6.031250000000, 1491820359
0.222656250000, -0.206054687500, 0.964355468750, -3.445312500000, -2.320312500000, -6.031250000000, 1491820359
0.222656250000, -0.206054687500, 0.964355468750, -3.445312500000, -2.320312500000, -6.031250000000, 1491820359
0.226562500000, -0.166259765625, 0.933593750000, -6.468750000000, 0.843750000000, -4.539062500000, 1491820359
0.226562500000, -0.166259765625, 0.933593750000, -6.468750000000, 0.843750000000, -4.539062500000, 1491820359
0.226562500000, -0.166259765625, 0.933593750000, -6.468750000000, 0.843750000000, -4.539062500000, 1491820359
0.166259765625, -0.260253906250, 0.931152343750, -3.164062500000, 0.898437500000, -3.968750000000, 1491820359
0.166259765625, -0.260253906250, 0.931152343750, -3.164062500000, 0.898437500000, -3.968750000000, 1491820359
0.166259765625, -0.260253906250, 0.931152343750, -3.164062500000, 0.898437500000, -3.968750000000, 1491820359
0.166259765625, -0.260253906250, 0.931152343750, -3.164062500000, 0.898437500000, -3.968750000000, 1491820359
0.172119140625, -0.270996093750, 0.923339843750, -4.953125000000, 2.078125000000, -4.007812500000, 1491820359
0.172119140625, -0.270996093750, 0.923339843750, -4.953125000000, 2.078125000000, -4.007812500000, 1491820359
0.172119140625, -0.270996093750, 0.923339843750, -4.953125000000, 2.078125000000, -4.007812500000, 1491820359
0.223876953125, -0.278564453125, 0.967773437500, -5.578125000000, -2.531250000000, -5.195312500000, 1491820360
0.223876953125, -0.278564453125, 0.967773437500, -5.578125000000, -2.531250000000, -5.195312500000, 1491820360
0.223876953125, -0.278564453125, 0.967773437500, -5.578125000000, -2.531250000000, -5.195312500000, 1491820360
0.328125000000, -0.236328125000, 0.911621093750, -3.585937500000, 0.640625000000, -1.875000000000, 1491820360
0.328125000000, -0.236328125000, 0.911621093750, -3.585937500000, 0.640625000000, -1.875000000000, 1491820360
0.328125000000, -0.236328125000, 0.911621093750, -3.585937500000, 0.640625000000, -1.875000000000, 1491820360
0.240234375000, -0.239013671875, 1.017089843750, -3.718750000000, 0.117187500000, -4.585937500000, 1491820360
0.240234375000, -0.239013671875, 1.017089843750, -3.718750000000, 0.117187500000, -4.585937500000, 1491820360
0.240234375000, -0.239013671875, 1.017089843750, -3.718750000000, 0.117187500000, -4.585937500000, 1491820360
0.240234375000, -0.239013671875, 1.017089843750, -3.718750000000, 0.117187500000, -4.585937500000, 1491820360
0.269775390625, -0.177978515625, 0.993896484375, -3.664062500000, 2.882812500000, -4.828125000000, 1491820360
0.269775390625, -0.177978515625, 0.993896484375, -3.664062500000, 2.882812500000, -4.828125000000, 1491820360
0.269775390625, -0.177978515625, 0.993896484375, -3.664062500000, 2.882812500000, -4.828125000000, 1491820360
0.258789062500, -0.202392578125, 0.928466796875, -1.921875000000, 0.625000000000, -2.734375000000, 1491820360
0.258789062500, -0.202392578125, 0.928466796875, -1.921875000000, 0.625000000000, -2.734375000000, 1491820360
0.258789062500, -0.202392578125, 0.928466796875, -1.921875000000, 0.625000000000, -2.734375000000, 1491820360
0.267822265625, -0.157958984375, 0.912109375000, -3.921875000000, -1.007812500000, -2.257812500000, 1491820360
0.267822265625, -0.157958984375, 0.912109375000, -3.921875000000, -1.007812500000, -2.257812500000, 1491820360
0.267822265625, -0.157958984375, 0.912109375000, -3.921875000000, -1.007812500000, -2.257812500000, 1491820360
0.246582031250, -0.219970703125, 0.932128906250, -1.406250000000, 1.718750000000, -3.585937500000, 1491820360
0.246582031250, -0.219970703125, 0.932128906250, -1.406250000000, 1.718750000000, -3.585937500000, 1491820360
0.246582031250, -0.219970703125, 0.932128906250, -1.406250000000, 1.718750000000, -3.585937500000, 1491820360
0.246582031250, -0.219970703125, 0.932128906250, -1.406250000000, 1.718750000000, -3.585937500000, 1491820360
0.178222656250, -0.234130859375, 1.001464843750, -5.359375000000, 0.648437500000, -6.085937500000, 1491820360
0.178222656250, -0.234130859375, 1.001464843750, -5.359375000000, 0.648437500000, -6.085937500000, 1491820360
0.178222656250, -0.234130859375, 1.001464843750, -5.359375000000, 0.648437500000, -6.085937500000, 1491820360
0.170898437500, -0.167724609375, 0.919677734375, -3.367187500000, 4.187500000000, -4.921875000000, 1491820360
0.170898437500, -0.167724609375, 0.919677734375, -3.367187500000, 4.187500000000, -4.921875000000, 1491820360
0.170898437500, -0.167724609375, 0.919677734375, -3.367187500000, 4.187500000000, -4.921875000000, 1491820360
0.252685546875, -0.275390625000, 0.989501953125, -4.875000000000, 0.750000000000, -2.804687500000, 1491820360
0.252685546875, -0.275390625000, 0.989501953125, -4.875000000000, 0.750000000000, -2.804687500000, 1491820360
0.252685546875, -0.275390625000, 0.989501953125, -4.875000000000, 0.750000000000, -2.804687500000, 1491820360
0.273681640625, -0.250244140625, 0.917968750000, -2.046875000000, -2.609375000000, -6.000000000000, 1491820360
0.273681640625, -0.250244140625, 0.917968750000, -2.046875000000, -2.609375000000, -6.000000000000, 1491820360
0.273681640625, -0.250244140625, 0.917968750000, -2.046875000000, -2.609375000000, -6.000000000000, 1491820360
0.273681640625, -0.250244140625, 0.917968750000, -2.046875000000, -2.609375000000, -6.000000000000, 1491820360
0.254638671875, -0.270507812500, 0.863769531250, -4.109375000000, 0.359375000000, -4.578125000000, 1491820360
0.254638671875, -0.270507812500, 0.863769531250, -4.109375000000, 0.359375000000, -4.578125000000, 1491820360
0.254638671875, -0.270507812500, 0.863769531250, -4.109375000000, 0.359375000000, -4.578125000000, 1491820360
0.273193359375, -0.179687500000, 0.961425781250, -6.101562500000, -0.906250000000, -4.429687500000, 1491820360
0.273193359375, -0.179687500000, 0.961425781250, -6.101562500000, -0.906250000000, -4.429687500000, 1491820360
0.273193359375, -0.179687500000, 0.961425781250, -6.101562500000, -0.906250000000, -4.429687500000, 1491820360
0.175537109375, -0.251464843750, 1.009033203125, -4.101562500000, -0.656250000000, -4.437500000000, 1491820360
0.175537109375, -0.251464843750, 1.009033203125, -4.101562500000, -0.656250000000, -4.437500000000, 1491820360
0.175537109375, -0.251464843750, 1.009033203125, -4.101562500000, -0.656250000000, -4.437500000000, 1491820360
0.156982421875, -0.179931640625, 0.960449218750, -3.757812500000, 0.695312500000, -2.078125000000, 1491820360
0.156982421875, -0.179931640625, 0.960449218750, -3.757812500000, 0.695312500000, -2.078125000000, 1491820360
0.156982421875, -0.179931640625, 0.960449218750, -3.757812500000, 0.695312500000, -2.078125000000, 1491820360
0.156982421875, -0.179931640625, 0.960449218750, -3.757812500000, 0.695312500000, -2.078125000000, 1491820360
0.264160156250, -0.186523437500, 1.089599609375, -14.601562500000, -0.960937500000, -2.539062500000, 1491820360
0.264160156250, -0.186523437500, 1.089599609375, -14.601562500000, -0.960937500000, -2.539062500000, 1491820360
0.264160156250, -0.186523437500, 1.089599609375, -14.601562500000, -0.960937500000, -2.539062500000, 1491820360
0.246337890625, -0.203613281250, 1.022705078125, -43.187500000000, 29.976562500000, 1.929687500000, 1491820360
0.246337890625, -0.203613281250, 1.022705078125, -43.187500000000, 29.976562500000, 1.929687500000, 1491820360
0.246337890625, -0.203613281250, 1.022705078125, -43.187500000000, 29.976562500000, 1.929687500000, 1491820360
0.211914062500, -0.205078125000, 0.920654296875, -16.023437500000, 31.500000000000, 19.601562500000, 1491820360
0.211914062500, -0.205078125000, 0.920654296875, -16.023437500000, 31.500000000000, 19.601562500000, 1491820360
0.211914062500, -0.205078125000, 0.920654296875, -16.023437500000, 31.500000000000, 19.601562500000, 1491820360
-0.113281250000, -0.288818359375, 0.599121093750, 54.539062500000, 24.296875000000, -11.632812500000, 1491820360
-0.113281250000, -0.288818359375, 0.599121093750, 54.539062500000, 24.296875000000, -11.632812500000, 1491820360
-0.113281250000, -0.288818359375, 0.599121093750, 54.539062500000, 24.296875000000, -11.632812500000, 1491820360
-0.113281250000, -0.288818359375, 0.599121093750, 54.539062500000, 24.296875000000, -11.632812500000, 1491820360
0.034912109375, -0.364501953125, 1.065917968750, 138.882812500000, -97.421875000000, -71.625000000000, 1491820360
0.034912109375, -0.364501953125, 1.065917968750, 138.882812500000, -97.421875000000, -71.625000000000, 1491820360
0.034912109375, -0.364501953125, 1.065917968750, 138.882812500000, -97.421875000000, -71.625000000000, 1491820360
0.275878906250, -0.358398437500, 1.203857421875, 136.960937500000, 147.773437500000, -83.234375000000, 1491820361
0.275878906250, -0.358398437500, 1.203857421875, 136.960937500000, 147.773437500000, -83.234375000000, 1491820361
0.275878906250, -0.358398437500, 1.203857421875, 136.960937500000, 147.773437500000, -83.234375000000, 1491820361
-0.070068359375, -0.463867187500, 0.812500000000, 162.929687500000, 186.187500000000, -146.765625000000, 1491820361
-0.070068359375, -0.463867187500, 0.812500000000, 162.929687500000, 186.187500000000, -146.765625000000, 1491820361
-0.070068359375, -0.463867187500, 0.812500000000, 162.929687500000, 186.187500000000, -146.765625000000, 1491820361
-0.294921875000, -0.375000000000, 0.952880859375, 121.148437500000, 80.601562500000, -200.781250000000, 1491820361
-0.294921875000, -0.375000000000, 0.952880859375, 121.148437500000, 80.601562500000, -200.781250000000, 1491820361
-0.294921875000, -0.375000000000, 0.952880859375, 121.148437500000, 80.601562500000, -200.781250000000, 1491820361
-0.523681640625, -0.606445312500, 0.601074218750, 136.632812500000, -14.539062500000, -113.187500000000, 1491820361
-0.523681640625, -0.606445312500, 0.601074218750, 136.632812500000, -14.539062500000, -113.187500000000, 1491820361
-0.523681640625, -0.606445312500, 0.601074218750, 136.632812500000, -14.539062500000, -113.187500000000, 1491820361
-0.597900390625, -0.761474609375, 0.576416015625, 176.601562500000, 7.875000000000, -121.515625000000, 1491820361
-0.570312500000, -0.604492187500, 0.564697265625, 176.601562500000, 7.875000000000, -121.515625000000, 1491820361
-0.570312500000, -0.604492187500, 0.564697265625, 176.601562500000, 7.875000000000, -121.515625000000, 1491820361
-0.570312500000, -0.604492187500, 0.564697265625, 176.601562500000, 7.875000000000, -121.515625000000, 1491820361
-0.372070312500, -0.572753906250, 0.531005859375, 168.242187500000, -33.937500000000, -114.210937500000, 1491820361
-0.372070312500, -0.572753906250, 0.531005859375, 168.242187500000, -33.937500000000, -114.210937500000, 1491820361
-0.372070312500, -0.572753906250, 0.531005859375, 168.242187500000, -33.937500000000, -114.210937500000, 1491820361
-0.308105468750, -0.766113281250, 0.378417968750, 157.500000000000, -5.125000000000, -71.640625000000, 1491820361
-0.308105468750, -0.766113281250, 0.378417968750, 157.500000000000, -5.125000000000, -71.640625000000, 1491820361
-0.308105468750, -0.766113281250, 0.378417968750, 157.500000000000, -5.125000000000, -71.640625000000, 1491820361
-0.505615234375, -0.931884765625, 0.229980468750, 148.078125000000, -46.351562500000, -30.773437500000, 1491820361
-0.505615234375, -0.931884765625, 0.229980468750, 148.078125000000, -46.351562500000, -30.773437500000, 1491820361
-0.505615234375, -0.931884765625, 0.229980468750, 148.078125000000, -46.351562500000, -30.773437500000, 1491820361
-0.505615234375, -0.931884765625, 0.229980468750, 148.078125000000, -46.351562500000, -30.773437500000, 1491820361
-0.420654296875, -0.724853515625, 0.243408203125, 130.835937500000, -58.859375000000, 2.109375000000, 1491820361
-0.543701171875, -1.032470703125, 0.172363281250, 183.343750000000, -48.109375000000, 7.265625000000, 1491820361
-0.543701171875, -1.032470703125, 0.172363281250, 183.343750000000, -48.109375000000, 7.265625000000, 1491820361
-0.543701171875, -1.032470703125, 0.172363281250, 183.343750000000, -48.109375000000, 7.265625000000, 1491820361
-0.543701171875, -1.032470703125, 0.172363281250, 183.343750000000, -48.109375000000, 7.265625000000, 1491820361
-0.543701171875, -1.032470703125, 0.172363281250, 183.343750000000, -48.109375000000, 7.265625000000, 1491820361
-0.456054687500, -1.021240234375, 0.050781250000, 205.187500000000, -32.617187500000, 70.273437500000, 1491820361
-0.456054687500, -1.021240234375, 0.050781250000, 205.187500000000, -32.617187500000, 70.273437500000, 1491820361
-0.456054687500, -1.021240234375, 0.050781250000, 205.187500000000, -32.617187500000, 70.273437500000, 1491820361
-0.456054687500, -1.021240234375, 0.050781250000, 205.187500000000, -32.617187500000, 70.273437500000, 1491820361
-0.527832031250, -0.810058593750, -0.153564453125, 205.125000000000, -39.757812500000, 109.375000000000, 1491820361
-0.527832031250, -0.810058593750, -0.153564453125, 205.125000000000, -39.757812500000, 109.375000000000, 1491820361
-0.527832031250, -0.810058593750, -0.153564453125, 205.125000000000, -39.757812500000, 109.375000000000, 1491820361
-0.168457031250, -0.731933593750, -0.425537109375, 127.703125000000, 31.773437500000, 98.515625000000, 1491820361
-0.168457031250, -0.731933593750, -0.425537109375, 127.703125000000, 31.773437500000, 98.515625000000, 1491820361
-0.168457031250, -0.731933593750, -0.425537109375, 127.703125000000, 31.773437500000, 98.515625000000, 1491820361
-0.382568359375, -0.775390625000, -0.538085937500, 153.789062500000, 6.820312500000, 39.867187500000, 1491820361
-0.382568359375, -0.775390625000, -0.538085937500, 153.789062500000, 6.820312500000, 39.867187500000, 1491820361
-0.382568359375, -0.775390625000, -0.538085937500, 153.789062500000, 6.820312500000, 39.867187500000, 1491820361
-0.376708984375, -0.740966796875, -0.653564453125, 85.843750000000, -45.375000000000, 6.695312500000, 1491820361
-0.376708984375, -0.740966796875, -0.653564453125, 85.843750000000, -45.375000000000, 6.695312500000, 1491820361
-0.376708984375, -0.740966796875, -0.653564453125, 85.843750000000, -45.375000000000, 6.695312500000, 1491820361
-0.376708984375, -0.740966796875, -0.653564453125, 85.843750000000, -45.375000000000, 6.695312500000, 1491820361
-0.380859375000, -0.625000000000, -0.602539062500, 90.171875000000, -23.382812500000, -29.117187500000, 1491820361
-0.380859375000, -0.625000000000, -0.602539062500, 90.171875000000, -23.382812500000, -29.117187500000, 1491820361
-0.380859375000, -0.625000000000, -0.602539062500, 90.171875000000, -23.382812500000, -29.117187500000, 1491820361
-0.398193359375, -0.584960937500, -0.689208984375, 58.351562500000, -25.593750000000, -37.609375000000, 1491820361
-0.398193359375, -0.584960937500, -0.689208984375, 58.351562500000, -25.593750000000, -37.609375000000, 1491820361
-0.398193359375, -0.584960937500, -0.689208984375, 58.351562500000, -25.593750000000, -37.609375000000, 1491820361
-0.423095703125, -0.579345703125, -0.606201171875, 62.132812500000, -21.804687500000, -27.453125000000, 1491820361
-0.423095703125, -0.579345703125, -0.606201171875, 62.132812500000, -21.804687500000, -27.453125000000, 1491820361
-0.423095703125, -0.579345703125, -0.606201171875, 62.132812500000, -21.804687500000, -27.453125000000, 1491820361
-0.454345703125, -0.424316406250, -0.524658203125, 115.593750000000, -61.726562500000, 21.914062500000, 1491820361
-0.454345703125, -0.424316406250, -0.524658203125, 115.593750000000, -61.726562500000, 21.914062500000, 1491820361
-0.454345703125, -0.424316406250, -0.524658203125, 115.593750000000, -61.726562500000, 21.914062500000, 1491820361
-0.454345703125, -0.424316406250, -0.524658203125, 115.593750000000, -61.726562500000, 21.914062500000, 1491820361
-0.416992187500, -0.442871093750, -0.544433593750, 162.031250000000, -77.515625000000, 37.148437500000, 1491820361
-0.416992187500, -0.442871093750, -0.544433593750, 162.031250000000, -77.515625000000, 37.148437500000, 1491820361
-0.416992187500, -0.442871093750, -0.544433593750, 162.031250000000, -77.515625000000, 37.148437500000, 1491820361
-0.583251953125, -0.524169921875, -0.658203125000, 212.195312500000, -80.132812500000, 49.726562500000, 1491820361
-0.583251953125, -0.524169921875, -0.658203125000, 212.195312500000, -80.132812500000, 49.726562500000, 1491820361
-0.583251953125, -0.524169921875, -0.658203125000, 212.195312500000, -80.132812500000, 49.726562500000, 1491820361
-0.543701171875, -0.304931640625, -0.888671875000, 210.898437500000, -64.742187500000, 36.156250000000, 1491820362
-0.543701171875, -0.304931640625, -0.888671875000, 210.898437500000, -64.742187500000, 36.156250000000, 1491820362
-0.543701171875, -0.304931640625, -0.888671875000, 210.898437500000, -64.742187500000, 36.156250000000, 1491820362
-0.638183593750, -0.259033203125, -1.021484375000, 99.781250000000, -81.710937500000, -18.125000000000, 1491820362
-0.638183593750, -0.259033203125, -1.021484375000, 99.781250000000, -81.710937500000, -18.125000000000, 1491820362
-0.638183593750, -0.259033203125, -1.021484375000, 99.781250000000, -81.710937500000, -18.125000000000, 1491820362
-0.638183593750, -0.259033203125, -1.021484375000, 99.781250000000, -81.710937500000, -18.125000000000, 1491820362
-0.581542968750, -0.272705078125, -0.957763671875, 81.242187500000, -67.335937500000, -31.789062500000, 1491820362
-0.581542968750, -0.272705078125, -0.957763671875, 81.242187500000, -67.335937500000, -31.789062500000, 1491820362
-0.547607421875, -0.133300781250, -0.825439453125, 95.453125000000, -65.515625000000, -52.531250000000, 1491820362
-0.547607421875, -0.133300781250, -0.825439453125, 95.453125000000, -65.515625000000, -52.531250000000, 1491820362
-0.547607421875, -0.133300781250, -0.825439453125, 95.453125000000, -65.515625000000, -52.531250000000, 1491820362
-0.547607421875, -0.133300781250, -0.825439453125, 95.453125000000, -65.515625000000, -52.531250000000, 1491820362
-0.628906250000, -0.073242187500, -0.668701171875, 93.601562500000, -71.984375000000, -70.656250000000, 1491820362
-0.628906250000, -0.073242187500, -0.668701171875, 93.601562500000, -71.984375000000, -70.656250000000, 1491820362
-0.628906250000, -0.073242187500, -0.668701171875, 93.601562500000, -71.984375000000, -70.656250000000, 1491820362
-0.677490234375, 0.149902343750, -0.648193359375, 70.234375000000, -46.562500000000, -113.273437500000, 1491820362
-0.677490234375, 0.149902343750, -0.648193359375, 70.234375000000, -46.562500000000, -113.273437500000, 1491820362
-0.677490234375, 0.149902343750, -0.648193359375, 70.234375000000, -46.562500000000, -113.273437500000, 1491820362
-0.677490234375, 0.149902343750, -0.648193359375, 70.234375000000, -46.562500000000, -113.273437500000, 1491820362
-0.604736328125, 0.245849609375, -0.640136718750, 72.617187500000, -32.484375000000, -110.906250000000, 1491820362
-0.604736328125, 0.245849609375, -0.640136718750, 72.617187500000, -32.484375000000, -110.906250000000, 1491820362
-0.604736328125, 0.245849609375, -0.640136718750, 72.617187500000, -32.484375000000, -110.906250000000, 1491820362
-0.720947265625, 0.443115234375, -0.641601562500, 78.156250000000, -22.257812500000, -91.718750000000, 1491820362
-0.720947265625, 0.443115234375, -0.641601562500, 78.156250000000, -22.257812500000, -91.718750000000, 1491820362
-0.720947265625, 0.443115234375, -0.641601562500, 78.156250000000, -22.257812500000, -91.718750000000, 1491820362
-0.826171875000, 0.559082031250, -0.564208984375, 86.796875000000, -14.406250000000, -83.171875000000, 1491820362
-0.826171875000, 0.559082031250, -0.564208984375, 86.796875000000, -14.406250000000, -83.171875000000, 1491820362
-0.826171875000, 0.559082031250, -0.564208984375, 86.796875000000, -14.406250000000, -83.171875000000, 1491820362
-0.746337890625, 0.701416015625, -0.470703125000, 99.398437500000, -20.515625000000, -57.429687500000, 1491820362
-0.746337890625, 0.701416015625, -0.470703125000, 99.398437500000, -20.515625000000, -57.429687500000, 1491820362
-0.746337890625, 0.701416015625, -0.470703125000, 99.398437500000, -20.515625000000, -57.429687500000, 1491820362
-0.746337890625, 0.701416015625, -0.470703125000, 99.398437500000, -20.515625000000, -57.429687500000, 1491820362
-0.716064453125, 0.554443359375, -0.449707031250, 83.351562500000, -30.500000000000, -24.492187500000, 1491820362
-0.716064453125, 0.554443359375, -0.449707031250, 83.351562500000, -30.500000000000, -24.492187500000, 1491820362
-0.716064453125, 0.554443359375, -0.449707031250, 83.351562500000, -30.500000000000, -24.492187500000, 1491820362
-0.593505859375, 0.527832031250, -0.392578125000, 41.804687500000, -27.484375000000, 59.843750000000, 1491820362
-0.593505859375, 0.527832031250, -0.392578125000, 41.804687500000, -27.484375000000, 59.843750000000, 1491820362
-0.593505859375, 0.527832031250, -0.392578125000, 41.804687500000, -27.484375000000, 59.843750000000, 1491820362
-0.088867187500, 0.552978515625, -0.043457031250, -27.007812500000, 56.250000000000, 145.937500000000, 1491820362
-0.088867187500, 0.552978515625, -0.043457031250, -27.007812500000, 56.250000000000, 145.937500000000, 1491820362
-0.088867187500, 0.552978515625, -0.043457031250, -27.007812500000, 56.250000000000, 145.937500000000, 1491820362
-0.220703125000, 0.767578125000, 0.120361328125, -144.242187500000, 104.546875000000, 253.992187500000, 1491820362
-0.220703125000, 0.767578125000, 0.120361328125, -144.242187500000, 104.546875000000, 253.992187500000, 1491820362
-0.220703125000, 0.767578125000, 0.120361328125, -144.242187500000, 104.546875000000, 253.992187500000, 1491820362
-0.220703125000, 0.767578125000, 0.120361328125, -144.242187500000, 104.546875000000, 253.992187500000, 1491820362
1.541503906250, -0.376708984375, -2.269287109375, -3.484375000000, 91.789062500000, -256.000000000000, 1491820362
1.541503906250, -0.376708984375, -2.269287109375, -3.484375000000, 91.789062500000, -256.000000000000, 1491820362
1.541503906250, -0.376708984375, -2.269287109375, -3.484375000000, 91.789062500000, -256.000000000000, 1491820362
-1.744384765625, 0.304931640625, -0.155517578125, 14.015625000000, -65.992187500000, 50.546875000000, 1491820362
-1.744384765625, 0.304931640625, -0.155517578125, 14.015625000000, -65.992187500000, 50.546875000000, 1491820362
-1.744384765625, 0.304931640625, -0.155517578125, 14.015625000000, -65.992187500000, 50.546875000000, 1491820362
-1.013427734375, 0.249267578125, -0.460693359375, -106.117187500000, -102.875000000000, -49.718750000000, 1491820362
-1.013427734375, 0.249267578125, -0.460693359375, -106.117187500000, -102.875000000000, -49.718750000000, 1491820362
-1.013427734375, 0.249267578125, -0.460693359375, -106.117187500000, -102.875000000000, -49.718750000000, 1491820362
-0.884521484375, 0.227783203125, -0.455322265625, -70.359375000000, 43.570312500000, -14.710937500000, 1491820362
-0.884521484375, 0.227783203125, -0.455322265625, -70.359375000000, 43.570312500000, -14.710937500000, 1491820362
-0.884521484375, 0.227783203125, -0.455322265625, -70.359375000000, 43.570312500000, -14.710937500000, 1491820362
-0.884521484375, 0.227783203125, -0.455322265625, -70.359375000000, 43.570312500000, -14.710937500000, 1491820362
-0.900146484375, 0.193115234375, -0.419677734375, -42.515625000000, 160.812500000000, -11.492187500000, 1491820362
-0.900146484375, 0.193115234375, -0.419677734375, -42.515625000000, 160.812500000000, -11.492187500000, 1491820362
-0.900146484375, 0.193115234375, -0.419677734375, -42.515625000000, 160.812500000000, -11.492187500000, 1491820362
-0.671875000000, 0.239013671875, -0.461669921875, -39.187500000000, 253.992187500000, -10.875000000000, 1491820362
-0.671875000000, 0.239013671875, -0.461669921875, -39.187500000000, 253.992187500000, -10.875000000000, 1491820362
-0.671875000000, 0.239013671875, -0.461669921875, -39.187500000000, 253.992187500000, -10.875000000000, 1491820362
-0.043701171875, -0.008544921875, -0.597656250000, -134.750000000000, 253.992187500000, -6.195312500000, 1491820363
-0.043701171875, -0.008544921875, -0.597656250000, -134.750000000000, 253.992187500000, -6.195312500000, 1491820363
-0.043701171875, -0.008544921875, -0.597656250000, -134.750000000000, 253.992187500000, -6.195312500000, 1491820363
0.219726562500, -0.007080078125, -0.962158203125, -151.312500000000, -256.000000000000, -0.179687500000, 1491820363
0.219726562500, -0.007080078125, -0.962158203125, -151.312500000000, -256.000000000000, -0.179687500000, 1491820363
0.219726562500, -0.007080078125, -0.962158203125, -151.312500000000, -256.000000000000, -0.179687500000, 1491820363
0.219726562500, -0.007080078125, -0.962158203125, -151.312500000000, -256.000000000000, -0.179687500000, 1491820363
-0.129394531250, -0.086914062500, -0.533447265625, -93.734375000000, 43.195312500000, -25.757812500000, 1491820363
-0.129394531250, -0.086914062500, -0.533447265625, -93.734375000000, 43.195312500000, -25.757812500000, 1491820363
-0.129394531250, -0.086914062500, -0.533447265625, -93.734375000000, 43.195312500000, -25.757812500000, 1491820363
0.028564453125, -0.109619140625, -1.426269531250, -69.210937500000, 122.992187500000, -86.460937500000, 1491820363
0.028564453125, -0.109619140625, -1.426269531250, -69.210937500000, 122.992187500000, -86.460937500000, 1491820363
0.028564453125, -0.109619140625, -1.426269531250, -69.210937500000, 122.992187500000, -86.460937500000, 1491820363
-0.053710937500, -0.124511718750, -0.896240234375, -85.351562500000, -155.250000000000, 6.609375000000, 1491820363
-0.053710937500, -0.124511718750, -0.896240234375, -85.351562500000, -155.250000000000, 6.609375000000, 1491820363
-0.053710937500, -0.124511718750, -0.896240234375, -85.351562500000, -155.250000000000, 6.609375000000, 1491820363
-0.151855468750, -0.377197265625, -1.062500000000, -114.617187500000, -24.687500000000, -62.648437500000, 1491820363
-0.151855468750, -0.377197265625, -1.062500000000, -114.617187500000, -24.687500000000, -62.648437500000, 1491820363
-0.151855468750, -0.377197265625, -1.062500000000, -114.617187500000, -24.687500000000, -62.648437500000, 1491820363
-0.151855468750, -0.377197265625, -1.062500000000, -114.617187500000, -24.687500000000, -62.648437500000, 1491820363
-0.261962890625, -0.576660156250, -1.074707031250, -191.976562500000, -40.953125000000, -94.695312500000, 1491820363
-0.261962890625, -0.576660156250, -1.074707031250, -191.976562500000, -40.953125000000, -94.695312500000, 1491820363
-0.261962890625, -0.576660156250, -1.074707031250, -191.976562500000, -40.953125000000, -94.695312500000, 1491820363
-0.330810546875, -0.836425781250, -0.605957031250, -212.382812500000, -157.570312500000, -116.093750000000, 1491820363
-0.330810546875, -0.836425781250, -0.605957031250, -212.382812500000, -157.570312500000, -116.093750000000, 1491820363
-0.330810546875, -0.836425781250, -0.605957031250, -212.382812500000, -157.570312500000, -116.093750000000, 1491820363
-0.450683593750, -0.637451171875, -0.334960937500, -32.562500000000, -128.906250000000, -185.914062500000, 1491820363
-0.450683593750, -0.637451171875, -0.334960937500, -32.562500000000, -128.906250000000, -185.914062500000, 1491820363
-0.450683593750, -0.637451171875, -0.334960937500, -32.562500000000, -128.906250000000, -185.914062500000, 1491820363
-0.467285156250, -0.584472656250, -0.160888671875, -232.500000000000, 73.367187500000, -34.062500000000, 1491820363
-0.467285156250, -0.584472656250, -0.160888671875, -232.500000000000, 73.367187500000, -34.062500000000, 1491820363
-0.467285156250, -0.584472656250, -0.160888671875, -232.500000000000, 73.367187500000, -34.062500000000, 1491820363
-0.467285156250, -0.584472656250, -0.160888671875, -232.500000000000, 73.367187500000, -34.062500000000, 1491820363
-0.452148437500, -0.676025390625, -0.451660156250, -256.000000000000, 253.992187500000, -7.375000000000, 1491820363
-0.452148437500, -0.676025390625, -0.451660156250, -256.000000000000, 253.992187500000, -7.375000000000, 1491820363
-0.452148437500, -0.676025390625, -0.451660156250, -256.000000000000, 253.992187500000, -7.375000000000, 1491820363
-0.269287109375, -0.967773437500, -0.398681640625, -256.000000000000, 253.992187500000, -95.656250000000, 1491820363
-0.269287109375, -0.967773437500, -0.398681640625, -256.000000000000, 253.992187500000, -95.656250000000, 1491820363
-0.269287109375, -0.967773437500, -0.398681640625, -256.000000000000, 253.992187500000, -95.656250000000, 1491820363
0.565673828125, -1.524658203125, -0.110351562500, -20.976562500000, -256.000000000000, -40.679687500000, 1491820363
0.565673828125, -1.524658203125, -0.110351562500, -20.976562500000, -256.000000000000, -40.679687500000, 1491820363
0.565673828125, -1.524658203125, -0.110351562500, -20.976562500000, -256.000000000000, -40.679687500000, 1491820363
-0.334472656250, -0.883056640625, -0.239013671875, 40.187500000000, 253.992187500000, 253.992187500000, 1491820363
-0.334472656250, -0.883056640625, -0.239013671875, 40.187500000000, 253.992187500000, 253.992187500000, 1491820363
-0.334472656250, -0.883056640625, -0.239013671875, 40.187500000000, 253.992187500000, 253.992187500000, 1491820363
-0.334472656250, -0.883056640625, -0.239013671875, 40.187500000000, 253.992187500000, 253.992187500000, 1491820363
0.025390625000, -0.918701171875, -0.312988281250, -256.000000000000, 253.992187500000, 28.593750000000, 1491820363
0.025390625000, -0.918701171875, -0.312988281250, -256.000000000000, 253.992187500000, 28.593750000000, 1491820363
0.025390625000, -0.918701171875, -0.312988281250, -256.000000000000, 253.992187500000, 28.593750000000, 1491820363
0.666748046875, -1.066894531250, -0.766113281250, -67.593750000000, -256.000000000000, -102.195312500000, 1491820363
0.666748046875, -1.066894531250, -0.766113281250, -67.593750000000, -256.000000000000, -102.195312500000, 1491820363
0.666748046875, -1.066894531250, -0.766113281250, -67.593750000000, -256.000000000000, -102.195312500000, 1491820363
-0.306152343750, -1.056640625000, -0.527343750000, 253.992187500000, -256.000000000000, -1.960937500000, 1491820363
-0.306152343750, -1.056640625000, -0.527343750000, 253.992187500000, -256.000000000000, -1.960937500000, 1491820363
-0.306152343750, -1.056640625000, -0.527343750000, 253.992187500000, -256.000000000000, -1.960937500000, 1491820363
0.368896484375, -0.794433593750, -0.687744140625, 216.562500000000, -7.710937500000, 34.632812500000, 1491820363
0.368896484375, -0.794433593750, -0.687744140625, 216.562500000000, -7.710937500000, 34.632812500000, 1491820363
0.368896484375, -0.794433593750, -0.687744140625, 216.562500000000, -7.710937500000, 34.632812500000, 1491820363
0.368896484375, -0.794433593750, -0.687744140625, 216.562500000000, -7.710937500000, 34.632812500000, 1491820363
0.460937500000, -0.877441406250, -0.709228515625, 205.484375000000, 125.351562500000, 121.617187500000, 1491820363
0.460937500000, -0.877441406250, -0.709228515625, 205.484375000000, 125.351562500000, 121.617187500000, 1491820363
0.460937500000, -0.877441406250, -0.709228515625, 205.484375000000, 125.351562500000, 121.617187500000, 1491820363
