ACC_X,ACC_Y,ACC_Z,G_X,G_Y,G_Z,Unix Time
0.229003906250, -0.803466796875, 0.300292968750, -2.281250000000, -2.015625000000, -6.820312500000, 1491820406
0.229003906250, -0.803466796875, 0.300292968750, -2.281250000000, -2.015625000000, -6.820312500000, 1491820406
0.229003906250, -0.803466796875, 0.300292968750, -2.281250000000, -2.015625000000, -6.820312500000, 1491820406
0.286376953125, -0.878662109375, 0.296875000000, 5.156250000000, -7.328125000000, -7.476562500000, 1491820406
0.286376953125, -0.878662109375, 0.296875000000, 5.156250000000, -7.328125000000, -7.476562500000, 1491820406
0.286376953125, -0.878662109375, 0.296875000000, 5.156250000000, -7.328125000000, -7.476562500000, 1491820406
0.243652343750, -0.818115234375, 0.289062500000, 8.296875000000, -12.093750000000, -16.046875000000, 1491820406
0.243652343750, -0.818115234375, 0.289062500000, 8.296875000000, -12.093750000000, -16.046875000000, 1491820406
0.243652343750, -0.818115234375, 0.289062500000, 8.296875000000, -12.093750000000, -16.046875000000, 1491820406
0.243652343750, -0.818115234375, 0.289062500000, 8.296875000000, -12.093750000000, -16.046875000000, 1491820406
0.334960937500, -0.898437500000, 0.323242187500, 12.929687500000, -10.648437500000, -11.531250000000, 1491820406
0.334960937500, -0.898437500000, 0.323242187500, 12.929687500000, -10.648437500000, -11.531250000000, 1491820406
0.334960937500, -0.898437500000, 0.323242187500, 12.929687500000, -10.648437500000, -11.531250000000, 1491820407
0.338867187500, -1.004150390625, 0.333984375000, 16.039062500000, -11.875000000000, -21.554687500000, 1491820407
0.338867187500, -1.004150390625, 0.333984375000, 16.039062500000, -11.875000000000, -21.554687500000, 1491820407
0.338867187500, -1.004150390625, 0.333984375000, 16.039062500000, -11.875000000000, -21.554687500000, 1491820407
0.295654296875, -0.953613281250, 0.317382812500, 14.406250000000, -11.804687500000, -19.671875000000, 1491820407
0.295654296875, -0.953613281250, 0.317382812500, 14.406250000000, -11.804687500000, -19.671875000000, 1491820407
0.295654296875, -0.953613281250, 0.317382812500, 14.406250000000, -11.804687500000, -19.671875000000, 1491820407
0.166259765625, -0.967041015625, 0.220458984375, 14.750000000000, -9.992187500000, -19.640625000000, 1491820407
0.166259765625, -0.967041015625, 0.220458984375, 14.750000000000, -9.992187500000, -19.640625000000, 1491820407
0.166259765625, -0.967041015625, 0.220458984375, 14.750000000000, -9.992187500000, -19.640625000000, 1491820407
0.166259765625, -0.967041015625, 0.220458984375, 14.750000000000, -9.992187500000, -19.640625000000, 1491820407
0.279052734375, -0.791259765625, 0.334228515625, 13.851562500000, -15.476562500000, -22.125000000000, 1491820407
0.279052734375, -0.791259765625, 0.334228515625, 13.851562500000, -15.476562500000, -22.125000000000, 1491820407
0.279052734375, -0.791259765625, 0.334228515625, 13.851562500000, -15.476562500000, -22.125000000000, 1491820407
0.193359375000, -1.022705078125, 0.236816406250, 8.054687500000, -5.164062500000, -11.664062500000, 1491820407
0.193359375000, -1.022705078125, 0.236816406250, 8.054687500000, -5.164062500000, -11.664062500000, 1491820407
0.193359375000, -1.022705078125, 0.236816406250, 8.054687500000, -5.164062500000, -11.664062500000, 1491820407
0.292480468750, -1.004638671875, 0.243896484375, 3.335937500000, -10.718750000000, -12.218750000000, 1491820407
0.292480468750, -1.004638671875, 0.243896484375, 3.335937500000, -10.718750000000, -12.218750000000, 1491820407
0.292480468750, -1.004638671875, 0.243896484375, 3.335937500000, -10.718750000000, -12.218750000000, 1491820407
0.245117187500, -1.006103515625, 0.271240234375, 11.898437500000, -0.343750000000, -6.375000000000, 1491820407
0.245117187500, -1.006103515625, 0.271240234375, 11.898437500000, -0.343750000000, -6.375000000000, 1491820407
0.245117187500, -1.006103515625, 0.271240234375, 11.898437500000, -0.343750000000, -6.375000000000, 1491820407
0.245117187500, -1.006103515625, 0.271240234375, 11.898437500000, -0.343750000000, -6.375000000000, 1491820407
0.259521484375, -0.942382812500, 0.261230468750, -0.531250000000, -5.617187500000, -5.843750000000, 1491820407
0.259521484375, -0.942382812500, 0.261230468750, -0.531250000000, -5.617187500000, -5.843750000000, 1491820407
0.259521484375, -0.942382812500, 0.261230468750, -0.531250000000, -5.617187500000, -5.843750000000, 1491820407
0.256835937500, -0.982421875000, 0.211914062500, -3.101562500000, 1.187500000000, -0.867187500000, 1491820407
0.256835937500, -0.982421875000, 0.211914062500, -3.101562500000, 1.187500000000, -0.867187500000, 1491820407
0.256835937500, -0.982421875000, 0.211914062500, -3.101562500000, 1.187500000000, -0.867187500000, 1491820407
0.250732421875, -0.972656250000, 0.238037109375, -1.171875000000, 0.289062500000, -5.484375000000, 1491820407
0.250732421875, -0.972656250000, 0.238037109375, -1.171875000000, 0.289062500000, -5.484375000000, 1491820407
0.250732421875, -0.972656250000, 0.238037109375, -1.171875000000, 0.289062500000, -5.484375000000, 1491820407
0.239013671875, -0.975097656250, 0.212890625000, -3.609375000000, -2.898437500000, -6.750000000000, 1491820407
0.239013671875, -0.975097656250, 0.212890625000, -3.609375000000, -2.898437500000, -6.750000000000, 1491820407
0.239013671875, -0.975097656250, 0.212890625000, -3.609375000000, -2.898437500000, -6.750000000000, 1491820407
0.239013671875, -0.975097656250, 0.212890625000, -3.609375000000, -2.898437500000, -6.750000000000, 1491820407
0.164062500000, -0.952392578125, 0.197753906250, -4.562500000000, -2.406250000000, -5.953125000000, 1491820407
0.164062500000, -0.952392578125, 0.197753906250, -4.562500000000, -2.406250000000, -5.953125000000, 1491820407
0.164062500000, -0.952392578125, 0.197753906250, -4.562500000000, -2.406250000000, -5.953125000000, 1491820407
0.272216796875, -0.980957031250, 0.227539062500, -4.500000000000, 3.515625000000, -2.679687500000, 1491820407
0.272216796875, -0.980957031250, 0.227539062500, -4.500000000000, 3.515625000000, -2.679687500000, 1491820407
0.272216796875, -0.980957031250, 0.227539062500, -4.500000000000, 3.515625000000, -2.679687500000, 1491820407
0.338867187500, -0.957031250000, 0.123291015625, -4.000000000000, 4.335937500000, -4.601562500000, 1491820407
0.338867187500, -0.957031250000, 0.123291015625, -4.000000000000, 4.335937500000, -4.601562500000, 1491820407
0.338867187500, -0.957031250000, 0.123291015625, -4.000000000000, 4.335937500000, -4.601562500000, 1491820407
0.228515625000, -0.852539062500, 0.266357421875, -6.343750000000, 12.445312500000, -2.460937500000, 1491820407
0.228515625000, -0.852539062500, 0.266357421875, -6.343750000000, 12.445312500000, -2.460937500000, 1491820407
0.228515625000, -0.852539062500, 0.266357421875, -6.343750000000, 12.445312500000, -2.460937500000, 1491820407
0.228515625000, -0.852539062500, 0.266357421875, -6.343750000000, 12.445312500000, -2.460937500000, 1491820407
0.224853515625, -1.023681640625, 0.228759765625, -5.859375000000, 1.835937500000, 0.039062500000, 1491820407
0.224853515625, -1.023681640625, 0.228759765625, -5.859375000000, 1.835937500000, 0.039062500000, 1491820407
0.224853515625, -1.023681640625, 0.228759765625, -5.859375000000, 1.835937500000, 0.039062500000, 1491820407
0.181152343750, -0.932373046875, 0.171630859375, -6.625000000000, 4.359375000000, 1.406250000000, 1491820407
0.181152343750, -0.932373046875, 0.171630859375, -6.625000000000, 4.359375000000, 1.406250000000, 1491820407
0.181152343750, -0.932373046875, 0.171630859375, -6.625000000000, 4.359375000000, 1.406250000000, 1491820407
0.184570312500, -0.945312500000, 0.211669921875, -1.304687500000, 4.039062500000, -3.578125000000, 1491820407
0.184570312500, -0.945312500000, 0.211669921875, -1.304687500000, 4.039062500000, -3.578125000000, 1491820407
0.184570312500, -0.945312500000, 0.211669921875, -1.304687500000, 4.039062500000, -3.578125000000, 1491820407
0.202636718750, -0.926513671875, 0.124023437500, -4.539062500000, 6.679687500000, -3.062500000000, 1491820407
0.202636718750, -0.926513671875, 0.124023437500, -4.539062500000, 6.679687500000, -3.062500000000, 1491820407
0.202636718750, -0.926513671875, 0.124023437500, -4.539062500000, 6.679687500000, -3.062500000000, 1491820407
0.202636718750, -0.926513671875, 0.124023437500, -4.539062500000, 6.679687500000, -3.062500000000, 1491820407
0.218994140625, -0.979003906250, 0.187011718750, -6.835937500000, 9.976562500000, 0.562500000000, 1491820407
0.218994140625, -0.979003906250, 0.187011718750, -6.835937500000, 9.976562500000, 0.562500000000, 1491820407
0.218994140625, -0.979003906250, 0.187011718750, -6.835937500000, 9.976562500000, 0.562500000000, 1491820407
0.178710937500, -0.870117187500, 0.208740234375, -7.804687500000, 9.953125000000, -0.460937500000, 1491820408
0.178710937500, -0.870117187500, 0.208740234375, -7.804687500000, 9.953125000000, -0.460937500000, 1491820408
0.178710937500, -0.870117187500, 0.208740234375, -7.804687500000, 9.953125000000, -0.460937500000, 1491820408
0.237304687500, -0.927001953125, 0.162597656250, -6.539062500000, 9.640625000000, 8.179687500000, 1491820408
0.237304687500, -0.927001953125, 0.162597656250, -6.539062500000, 9.640625000000, 8.179687500000, 1491820408
0.237304687500, -0.927001953125, 0.162597656250, -6.539062500000, 9.640625000000, 8.179687500000, 1491820408
0.277343750000, -0.938964843750, 0.251220703125, -9.367187500000, 3.593750000000, 1.507812500000, 1491820408
0.277343750000, -0.938964843750, 0.251220703125, -9.367187500000, 3.593750000000, 1.507812500000, 1491820408
0.277343750000, -0.938964843750, 0.251220703125, -9.367187500000, 3.593750000000, 1.507812500000, 1491820408
0.277343750000, -0.938964843750, 0.251220703125, -9.367187500000, 3.593750000000, 1.507812500000, 1491820408
0.275390625000, -0.920654296875, 0.174316406250, -12.164062500000, 5.648437500000, 1.992187500000, 1491820408
0.275390625000, -0.920654296875, 0.174316406250, -12.164062500000, 5.648437500000, 1.992187500000, 1491820408
0.275390625000, -0.920654296875, 0.174316406250, -12.164062500000, 5.648437500000, 1.992187500000, 1491820408
0.377685546875, -0.974609375000, 0.176269531250, -11.187500000000, 5.132812500000, -0.273437500000, 1491820408
0.377685546875, -0.974609375000, 0.176269531250, -11.187500000000, 5.132812500000, -0.273437500000, 1491820408
0.377685546875, -0.974609375000, 0.176269531250, -11.187500000000, 5.132812500000, -0.273437500000, 1491820408
0.168945312500, -0.943359375000, 0.166992187500, -6.000000000000, 4.257812500000, -0.093750000000, 1491820408
0.168945312500, -0.943359375000, 0.166992187500, -6.000000000000, 4.257812500000, -0.093750000000, 1491820408
0.168945312500, -0.943359375000, 0.166992187500, -6.000000000000, 4.257812500000, -0.093750000000, 1491820408
0.161376953125, -0.941162109375, 0.219482421875, -8.093750000000, 4.664062500000, 2.468750000000, 1491820408
0.161376953125, -0.941162109375, 0.219482421875, -8.093750000000, 4.664062500000, 2.468750000000, 1491820408
0.323730468750, -0.953125000000, 0.224365234375, -4.992187500000, 4.789062500000, -0.085937500000, 1491820408
0.323730468750, -0.953125000000, 0.224365234375, -4.992187500000, 4.789062500000, -0.085937500000, 1491820408
0.323730468750, -0.953125000000, 0.224365234375, -4.992187500000, 4.789062500000, -0.085937500000, 1491820408
0.323730468750, -0.953125000000, 0.224365234375, -4.992187500000, 4.789062500000, -0.085937500000, 1491820408
0.323730468750, -0.953125000000, 0.224365234375, -4.992187500000, 4.789062500000, -0.085937500000, 1491820408
0.222900390625, -0.859130859375, 0.184082031250, -5.648437500000, 8.265625000000, 0.593750000000, 1491820408
0.222900390625, -0.859130859375, 0.184082031250, -5.648437500000, 8.265625000000, 0.593750000000, 1491820408
0.222900390625, -0.859130859375, 0.184082031250, -5.648437500000, 8.265625000000, 0.593750000000, 1491820408
0.174072265625, -0.912597656250, 0.305908203125, -2.890625000000, 2.929687500000, -2.500000000000, 1491820408
0.259277343750, -0.910888671875, 0.228759765625, -6.039062500000, -0.820312500000, -2.835937500000, 1491820408
0.259277343750, -0.910888671875, 0.228759765625, -6.039062500000, -0.820312500000, -2.835937500000, 1491820408
0.180175781250, -0.968750000000, 0.256103515625, -1.250000000000, 1.085937500000, -5.250000000000, 1491820408
0.180175781250, -0.968750000000, 0.256103515625, -1.250000000000, 1.085937500000, -5.250000000000, 1491820408
0.180175781250, -0.968750000000, 0.256103515625, -1.250000000000, 1.085937500000, -5.250000000000, 1491820408
0.180175781250, -0.968750000000, 0.256103515625, -1.250000000000, 1.085937500000, -5.250000000000, 1491820408
0.180175781250, -0.968750000000, 0.256103515625, -1.250000000000, 1.085937500000, -5.250000000000, 1491820408
0.180175781250, -0.968750000000, 0.256103515625, -1.250000000000, 1.085937500000, -5.250000000000, 1491820408
0.224121093750, -0.979248046875, 0.232910156250, -1.343750000000, 1.093750000000, -1.656250000000, 1491820408
0.224121093750, -0.979248046875, 0.232910156250, -1.343750000000, 1.093750000000, -1.656250000000, 1491820408
0.224121093750, -0.979248046875, 0.232910156250, -1.343750000000, 1.093750000000, -1.656250000000, 1491820408
0.224121093750, -0.979248046875, 0.232910156250, -1.343750000000, 1.093750000000, -1.656250000000, 1491820408
0.260986328125, -0.967041015625, 0.178466796875, -4.695312500000, -1.804687500000, -4.195312500000, 1491820408
0.260986328125, -0.967041015625, 0.178466796875, -4.695312500000, -1.804687500000, -4.195312500000, 1491820408
0.260986328125, -0.967041015625, 0.178466796875, -4.695312500000, -1.804687500000, -4.195312500000, 1491820408
0.295410156250, -0.844238281250, 0.329833984375, -0.156250000000, -4.062500000000, -6.312500000000, 1491820408
0.295410156250, -0.844238281250, 0.329833984375, -0.156250000000, -4.062500000000, -6.312500000000, 1491820408
0.295410156250, -0.844238281250, 0.329833984375, -0.156250000000, -4.062500000000, -6.312500000000, 1491820408
0.295410156250, -0.844238281250, 0.329833984375, -0.156250000000, -4.062500000000, -6.312500000000, 1491820408
0.244384765625, -0.939941406250, 0.185546875000, -1.960937500000, 1.984375000000, -6.328125000000, 1491820408
0.244384765625, -0.939941406250, 0.185546875000, -1.960937500000, 1.984375000000, -6.328125000000, 1491820408
0.244384765625, -0.939941406250, 0.185546875000, -1.960937500000, 1.984375000000, -6.328125000000, 1491820408
0.318847656250, -0.950195312500, 0.173095703125, -0.046875000000, 4.250000000000, -2.585937500000, 1491820408
0.318847656250, -0.950195312500, 0.173095703125, -0.046875000000, 4.250000000000, -2.585937500000, 1491820408
0.318847656250, -0.950195312500, 0.173095703125, -0.046875000000, 4.250000000000, -2.585937500000, 1491820408
0.185791015625, -0.952148437500, 0.237792968750, 0.804687500000, 4.906250000000, -6.539062500000, 1491820408
0.185791015625, -0.952148437500, 0.237792968750, 0.804687500000, 4.906250000000, -6.539062500000, 1491820408
0.185791015625, -0.952148437500, 0.237792968750, 0.804687500000, 4.906250000000, -6.539062500000, 1491820408
0.159667968750, -0.965576171875, 0.268310546875, -7.054687500000, -4.828125000000, -6.687500000000, 1491820408
0.159667968750, -0.965576171875, 0.268310546875, -7.054687500000, -4.828125000000, -6.687500000000, 1491820408
0.159667968750, -0.965576171875, 0.268310546875, -7.054687500000, -4.828125000000, -6.687500000000, 1491820408
0.159667968750, -0.965576171875, 0.268310546875, -7.054687500000, -4.828125000000, -6.687500000000, 1491820408
0.159912109375, -0.946777343750, 0.231445312500, -12.125000000000, -10.218750000000, -13.710937500000, 1491820408
0.159912109375, -0.946777343750, 0.231445312500, -12.125000000000, -10.218750000000, -13.710937500000, 1491820408
0.159912109375, -0.946777343750, 0.231445312500, -12.125000000000, -10.218750000000, -13.710937500000, 1491820408
0.237548828125, -0.949951171875, 0.103027343750, -3.468750000000, -14.203125000000, -24.773437500000, 1491820408
0.237548828125, -0.949951171875, 0.103027343750, -3.468750000000, -14.203125000000, -24.773437500000, 1491820408
0.237548828125, -0.949951171875, 0.103027343750, -3.468750000000, -14.203125000000, -24.773437500000, 1491820408
0.286376953125, -0.903320312500, 0.156494140625, -1.664062500000, -5.656250000000, -13.226562500000, 1491820409
0.286376953125, -0.903320312500, 0.156494140625, -1.664062500000, -5.656250000000, -13.226562500000, 1491820409
0.286376953125, -0.903320312500, 0.156494140625, -1.664062500000, -5.656250000000, -13.226562500000, 1491820409
0.191162109375, -0.980712890625, 0.230712890625, 0.429687500000, -21.812500000000, -7.898437500000, 1491820409
0.191162109375, -0.980712890625, 0.230712890625, 0.429687500000, -21.812500000000, -7.898437500000, 1491820409
0.191162109375, -0.980712890625, 0.230712890625, 0.429687500000, -21.812500000000, -7.898437500000, 1491820409
0.191162109375, -0.980712890625, 0.230712890625, 0.429687500000, -21.812500000000, -7.898437500000, 1491820409
0.250000000000, -0.914306640625, 0.232666015625, -5.937500000000, -13.468750000000, -22.804687500000, 1491820409
0.250000000000, -0.914306640625, 0.232666015625, -5.937500000000, -13.468750000000, -22.804687500000, 1491820409
0.250000000000, -0.914306640625, 0.232666015625, -5.937500000000, -13.468750000000, -22.804687500000, 1491820409
0.316406250000, -0.960205078125, 0.241455078125, -14.414062500000, -4.375000000000, -12.164062500000, 1491820409
0.316406250000, -0.960205078125, 0.241455078125, -14.414062500000, -4.375000000000, -12.164062500000, 1491820409
0.316406250000, -0.960205078125, 0.241455078125, -14.414062500000, -4.375000000000, -12.164062500000, 1491820409
0.315673828125, -0.868164062500, 0.185791015625, -20.179687500000, 7.257812500000, -4.179687500000, 1491820409
0.315673828125, -0.868164062500, 0.185791015625, -20.179687500000, 7.257812500000, -4.179687500000, 1491820409
0.315673828125, -0.868164062500, 0.185791015625, -20.179687500000, 7.257812500000, -4.179687500000, 1491820409
0.234863281250, -0.851318359375, 0.168701171875, -10.843750000000, 4.250000000000, -9.921875000000, 1491820409
0.234863281250, -0.851318359375, 0.168701171875, -10.843750000000, 4.250000000000, -9.921875000000, 1491820409
0.234863281250, -0.851318359375, 0.168701171875, -10.843750000000, 4.250000000000, -9.921875000000, 1491820409
0.234863281250, -0.851318359375, 0.168701171875, -10.843750000000, 4.250000000000, -9.921875000000, 1491820409
0.203613281250, -0.933593750000, 0.120361328125, -8.031250000000, -4.140625000000, -7.671875000000, 1491820409
0.203613281250, -0.933593750000, 0.120361328125, -8.031250000000, -4.140625000000, -7.671875000000, 1491820409
0.203613281250, -0.933593750000, 0.120361328125, -8.031250000000, -4.140625000000, -7.671875000000, 1491820409
0.210205078125, -1.021728515625, 0.169921875000, -10.578125000000, -4.406250000000, -3.929687500000, 1491820409
0.210205078125, -1.021728515625, 0.169921875000, -10.578125000000, -4.406250000000, -3.929687500000, 1491820409
0.210205078125, -1.021728515625, 0.169921875000, -10.578125000000, -4.406250000000, -3.929687500000, 1491820409
0.204345703125, -0.934814453125, 0.315185546875, -9.421875000000, -2.039062500000, -4.593750000000, 1491820409
0.204345703125, -0.934814453125, 0.315185546875, -9.421875000000, -2.039062500000, -4.593750000000, 1491820409
0.204345703125, -0.934814453125, 0.315185546875, -9.421875000000, -2.039062500000, -4.593750000000, 1491820409
0.116943359375, -0.934082031250, 0.270996093750, -2.781250000000, -4.359375000000, -4.468750000000, 1491820409
0.116943359375, -0.934082031250, 0.270996093750, -2.781250000000, -4.359375000000, -4.468750000000, 1491820409
0.116943359375, -0.934082031250, 0.270996093750, -2.781250000000, -4.359375000000, -4.468750000000, 1491820409
0.116943359375, -0.934082031250, 0.270996093750, -2.781250000000, -4.359375000000, -4.468750000000, 1491820409
0.196777343750, -0.923828125000, 0.231689453125, -4.601562500000, -5.015625000000, -10.703125000000, 1491820409
0.196777343750, -0.923828125000, 0.231689453125, -4.601562500000, -5.015625000000, -10.703125000000, 1491820409
0.196777343750, -0.923828125000, 0.231689453125, -4.601562500000, -5.015625000000, -10.703125000000, 1491820409
0.229980468750, -0.956542968750, 0.288085937500, -3.757812500000, -7.195312500000, -3.085937500000, 1491820409
0.229980468750, -0.956542968750, 0.288085937500, -3.757812500000, -7.195312500000, -3.085937500000, 1491820409
0.229980468750, -0.956542968750, 0.288085937500, -3.757812500000, -7.195312500000, -3.085937500000, 1491820409
0.204101562500, -0.868652343750, 0.327636718750, -4.914062500000, -6.640625000000, -10.421875000000, 1491820409
0.204101562500, -0.868652343750, 0.327636718750, -4.914062500000, -6.640625000000, -10.421875000000, 1491820409
0.204101562500, -0.868652343750, 0.327636718750, -4.914062500000, -6.640625000000, -10.421875000000, 1491820409
0.106445312500, -1.005859375000, 0.183349609375, -1.351562500000, 7.156250000000, -10.656250000000, 1491820409
0.106445312500, -1.005859375000, 0.183349609375, -1.351562500000, 7.156250000000, -10.656250000000, 1491820409
0.106445312500, -1.005859375000, 0.183349609375, -1.351562500000, 7.156250000000, -10.656250000000, 1491820409
0.106445312500, -1.005859375000, 0.183349609375, -1.351562500000, 7.156250000000, -10.656250000000, 1491820409
0.226806640625, -0.960937500000, 0.181152343750, 7.234375000000, 12.765625000000, -7.906250000000, 1491820409
0.226806640625, -0.960937500000, 0.181152343750, 7.234375000000, 12.765625000000, -7.906250000000, 1491820409
0.226806640625, -0.960937500000, 0.181152343750, 7.234375000000, 12.765625000000, -7.906250000000, 1491820409
0.222656250000, -0.871826171875, 0.241943359375, 15.015625000000, 18.781250000000, 5.562500000000, 1491820409
0.222656250000, -0.871826171875, 0.241943359375, 15.015625000000, 18.781250000000, 5.562500000000, 1491820409
0.222656250000, -0.871826171875, 0.241943359375, 15.015625000000, 18.781250000000, 5.562500000000, 1491820409
0.203613281250, -0.844238281250, 0.264648437500, 10.539062500000, 34.718750000000, 1.460937500000, 1491820409
0.203613281250, -0.844238281250, 0.264648437500, 10.539062500000, 34.718750000000, 1.460937500000, 1491820409
0.203613281250, -0.844238281250, 0.264648437500, 10.539062500000, 34.718750000000, 1.460937500000, 1491820409
0.164550781250, -1.004150390625, 0.275878906250, -0.789062500000, 39.140625000000, 13.562500000000, 1491820409
0.164550781250, -1.004150390625, 0.275878906250, -0.789062500000, 39.140625000000, 13.562500000000, 1491820409
0.164550781250, -1.004150390625, 0.275878906250, -0.789062500000, 39.140625000000, 13.562500000000, 1491820409
0.164550781250, -1.004150390625, 0.275878906250, -0.789062500000, 39.140625000000, 13.562500000000, 1491820409
0.268066406250, -0.948486328125, 0.278564453125, 2.796875000000, 31.367187500000, 18.281250000000, 1491820409
0.268066406250, -0.948486328125, 0.278564453125, 2.796875000000, 31.367187500000, 18.281250000000, 1491820409
0.268066406250, -0.948486328125, 0.278564453125, 2.796875000000, 31.367187500000, 18.281250000000, 1491820409
0.212890625000, -1.001464843750, 0.273437500000, 4.453125000000, 14.601562500000, 7.734375000000, 1491820409
0.212890625000, -1.001464843750, 0.273437500000, 4.453125000000, 14.601562500000, 7.734375000000, 1491820409
0.212890625000, -1.001464843750, 0.273437500000, 4.453125000000, 14.601562500000, 7.734375000000, 1491820409
0.336914062500, -0.959716796875, 0.117187500000, 13.937500000000, 11.765625000000, -2.484375000000, 1491820410
0.336914062500, -0.959716796875, 0.117187500000, 13.937500000000, 11.765625000000, -2.484375000000, 1491820410
0.336914062500, -0.959716796875, 0.117187500000, 13.937500000000, 11.765625000000, -2.484375000000, 1491820410
0.210693359375, -0.899658203125, 0.175781250000, 6.507812500000, 1.210937500000, -1.375000000000, 1491820410
0.210693359375, -0.899658203125, 0.175781250000, 6.507812500000, 1.210937500000, -1.375000000000, 1491820410
0.210693359375, -0.899658203125, 0.175781250000, 6.507812500000, 1.210937500000, -1.375000000000, 1491820410
0.210693359375, -0.899658203125, 0.175781250000, 6.507812500000, 1.210937500000, -1.375000000000, 1491820410
0.120117187500, -0.909912109375, 0.200195312500, 3.609375000000, 4.921875000000, -0.640625000000, 1491820410
0.120117187500, -0.909912109375, 0.200195312500, 3.609375000000, 4.921875000000, -0.640625000000, 1491820410
0.120117187500, -0.909912109375, 0.200195312500, 3.609375000000, 4.921875000000, -0.640625000000, 1491820410
0.257568359375, -1.020019531250, 0.319091796875, 0.140625000000, -4.007812500000, -11.335937500000, 1491820410
0.257568359375, -1.020019531250, 0.319091796875, 0.140625000000, -4.007812500000, -11.335937500000, 1491820410
0.257568359375, -1.020019531250, 0.319091796875, 0.140625000000, -4.007812500000, -11.335937500000, 1491820410
0.282714843750, -0.861083984375, 0.211425781250, -4.875000000000, -0.601562500000, -9.375000000000, 1491820410
0.282714843750, -0.861083984375, 0.211425781250, -4.875000000000, -0.601562500000, -9.375000000000, 1491820410
0.282714843750, -0.861083984375, 0.211425781250, -4.875000000000, -0.601562500000, -9.375000000000, 1491820410
