ACC_X,ACC_Y,ACC_Z,G_X,G_Y,G_Z,Unix Time
0.157470703125, -0.972656250000, -0.325439453125, -0.023437500000, -11.382812500000, -1.601562500000, 1491820940
0.157470703125, -0.972656250000, -0.325439453125, -0.023437500000, -11.382812500000, -1.601562500000, 1491820940
0.157470703125, -0.972656250000, -0.325439453125, -0.023437500000, -11.382812500000, -1.601562500000, 1491820940
0.255615234375, -0.864990234375, -0.343017578125, -10.257812500000, -27.523437500000, 6.890625000000, 1491820940
0.255615234375, -0.864990234375, -0.343017578125, -10.257812500000, -27.523437500000, 6.890625000000, 1491820940
0.255615234375, -0.864990234375, -0.343017578125, -10.257812500000, -27.523437500000, 6.890625000000, 1491820940
0.255615234375, -0.864990234375, -0.343017578125, -10.257812500000, -27.523437500000, 6.890625000000, 1491820940
0.235351562500, -0.909667968750, -0.277343750000, -24.648437500000, 14.648437500000, 2.265625000000, 1491820940
0.235351562500, -0.909667968750, -0.277343750000, -24.648437500000, 14.648437500000, 2.265625000000, 1491820940
0.235351562500, -0.909667968750, -0.277343750000, -24.648437500000, 14.648437500000, 2.265625000000, 1491820940
0.261474609375, -0.900878906250, -0.293701171875, -15.523437500000, 16.789062500000, -4.179687500000, 1491820940
0.261474609375, -0.900878906250, -0.293701171875, -15.523437500000, 16.789062500000, -4.179687500000, 1491820940
0.261474609375, -0.900878906250, -0.293701171875, -15.523437500000, 16.789062500000, -4.179687500000, 1491820940
0.257568359375, -1.025146484375, -0.299804687500, -21.968750000000, -2.367187500000, 11.656250000000, 1491820940
0.257568359375, -1.025146484375, -0.299804687500, -21.968750000000, -2.367187500000, 11.656250000000, 1491820940
0.257568359375, -1.025146484375, -0.299804687500, -21.968750000000, -2.367187500000, 11.656250000000, 1491820940
0.241455078125, -0.875732421875, -0.286376953125, -13.828125000000, 23.007812500000, 0.570312500000, 1491820940
0.241455078125, -0.875732421875, -0.286376953125, -13.828125000000, 23.007812500000, 0.570312500000, 1491820940
0.241455078125, -0.875732421875, -0.286376953125, -13.828125000000, 23.007812500000, 0.570312500000, 1491820940
0.241455078125, -0.875732421875, -0.286376953125, -13.828125000000, 23.007812500000, 0.570312500000, 1491820940
0.265136718750, -0.940673828125, -0.339355468750, -19.578125000000, 20.015625000000, 3.843750000000, 1491820940
0.265136718750, -0.940673828125, -0.339355468750, -19.578125000000, 20.015625000000, 3.843750000000, 1491820940
0.265136718750, -0.940673828125, -0.339355468750, -19.578125000000, 20.015625000000, 3.843750000000, 1491820940
0.159423828125, -0.849609375000, -0.313476562500, -9.820312500000, -24.734375000000, 18.093750000000, 1491820940
0.159423828125, -0.849609375000, -0.313476562500, -9.820312500000, -24.734375000000, 18.093750000000, 1491820940
0.159423828125, -0.849609375000, -0.313476562500, -9.820312500000, -24.734375000000, 18.093750000000, 1491820940
0.119140625000, -0.919433593750, -0.320556640625, -11.031250000000, -26.007812500000, 6.359375000000, 1491820940
0.119140625000, -0.919433593750, -0.320556640625, -11.031250000000, -26.007812500000, 6.359375000000, 1491820940
0.119140625000, -0.919433593750, -0.320556640625, -11.031250000000, -26.007812500000, 6.359375000000, 1491820940
0.199707031250, -0.975341796875, -0.303466796875, -3.601562500000, 0.945312500000, -14.835937500000, 1491820940
0.199707031250, -0.975341796875, -0.303466796875, -3.601562500000, 0.945312500000, -14.835937500000, 1491820940
0.199707031250, -0.975341796875, -0.303466796875, -3.601562500000, 0.945312500000, -14.835937500000, 1491820940
0.199707031250, -0.975341796875, -0.303466796875, -3.601562500000, 0.945312500000, -14.835937500000, 1491820940
0.312988281250, -0.928955078125, -0.342041015625, 14.164062500000, 14.609375000000, -22.726562500000, 1491820940
0.312988281250, -0.928955078125, -0.342041015625, 14.164062500000, 14.609375000000, -22.726562500000, 1491820940
0.312988281250, -0.928955078125, -0.342041015625, 14.164062500000, 14.609375000000, -22.726562500000, 1491820940
0.329589843750, -0.790039062500, -0.294677734375, 17.437500000000, 12.039062500000, -20.593750000000, 1491820940
0.329589843750, -0.790039062500, -0.294677734375, 17.437500000000, 12.039062500000, -20.593750000000, 1491820940
0.329589843750, -0.790039062500, -0.294677734375, 17.437500000000, 12.039062500000, -20.593750000000, 1491820940
0.249511718750, -0.871826171875, -0.319091796875, 13.492187500000, -7.851562500000, -7.507812500000, 1491820940
0.249511718750, -0.871826171875, -0.319091796875, 13.492187500000, -7.851562500000, -7.507812500000, 1491820940
0.224609375000, -1.019775390625, -0.244628906250, 12.070312500000, 4.476562500000, -10.710937500000, 1491820940
0.224609375000, -1.019775390625, -0.244628906250, 12.070312500000, 4.476562500000, -10.710937500000, 1491820940
0.224609375000, -1.019775390625, -0.244628906250, 12.070312500000, 4.476562500000, -10.710937500000, 1491820940
0.224609375000, -1.019775390625, -0.244628906250, 12.070312500000, 4.476562500000, -10.710937500000, 1491820940
0.208251953125, -0.799316406250, -0.277099609375, 5.343750000000, 10.531250000000, -10.039062500000, 1491820940
0.208251953125, -0.799316406250, -0.277099609375, 5.343750000000, 10.531250000000, -10.039062500000, 1491820940
0.208251953125, -0.799316406250, -0.277099609375, 5.343750000000, 10.531250000000, -10.039062500000, 1491820940
0.208251953125, -0.799316406250, -0.277099609375, 5.343750000000, 10.531250000000, -10.039062500000, 1491820940
0.208251953125, -0.911621093750, -0.228515625000, -9.609375000000, 7.023437500000, -8.585937500000, 1491820940
0.208251953125, -0.911621093750, -0.228515625000, -9.609375000000, 7.023437500000, -8.585937500000, 1491820940
0.208251953125, -0.911621093750, -0.228515625000, -9.296875000000, 5.945312500000, -8.500000000000, 1491820940
0.226562500000, -0.858886718750, -0.337646484375, -9.843750000000, 6.257812500000, -5.179687500000, 1491820940
0.226562500000, -0.858886718750, -0.337646484375, -9.843750000000, 6.257812500000, -5.179687500000, 1491820940
0.119140625000, -0.845947265625, -0.239501953125, -18.242187500000, -3.062500000000, -1.554687500000, 1491820940
0.119140625000, -0.845947265625, -0.239501953125, -18.242187500000, -3.062500000000, -1.554687500000, 1491820940
0.119140625000, -0.845947265625, -0.239501953125, -18.242187500000, -3.062500000000, -1.554687500000, 1491820940
0.119140625000, -0.845947265625, -0.239501953125, -18.242187500000, -3.062500000000, -1.554687500000, 1491820940
0.119140625000, -0.845947265625, -0.239501953125, -18.242187500000, -3.062500000000, -1.554687500000, 1491820940
0.278076171875, -1.067871093750, -0.279785156250, -17.500000000000, -3.179687500000, -0.117187500000, 1491820940
0.278076171875, -1.067871093750, -0.279785156250, -17.500000000000, -3.179687500000, -0.117187500000, 1491820941
0.278076171875, -1.067871093750, -0.279785156250, -17.500000000000, -3.179687500000, -0.117187500000, 1491820941
0.270996093750, -0.953125000000, -0.292968750000, -7.906250000000, 3.421875000000, -6.203125000000, 1491820941
0.270996093750, -0.953125000000, -0.292968750000, -7.906250000000, 3.421875000000, -6.203125000000, 1491820941
0.270996093750, -0.953125000000, -0.292968750000, -7.906250000000, 3.421875000000, -6.203125000000, 1491820941
0.261474609375, -0.874023437500, -0.334716796875, -5.046875000000, 1.617187500000, -7.085937500000, 1491820941
0.261474609375, -0.874023437500, -0.334716796875, -5.046875000000, 1.617187500000, -7.085937500000, 1491820941
0.261474609375, -0.874023437500, -0.334716796875, -5.046875000000, 1.617187500000, -7.085937500000, 1491820941
0.199707031250, -0.951171875000, -0.326171875000, 2.367187500000, -7.335937500000, -4.140625000000, 1491820941
0.199707031250, -0.951171875000, -0.326171875000, 2.367187500000, -7.335937500000, -4.140625000000, 1491820941
0.199707031250, -0.951171875000, -0.326171875000, 2.367187500000, -7.335937500000, -4.140625000000, 1491820941
0.199707031250, -0.951171875000, -0.326171875000, 2.367187500000, -7.335937500000, -4.140625000000, 1491820941
0.277099609375, -0.897949218750, -0.322753906250, 5.765625000000, -2.148437500000, -11.046875000000, 1491820941
0.277099609375, -0.897949218750, -0.322753906250, 5.765625000000, -2.148437500000, -11.046875000000, 1491820941
0.277099609375, -0.897949218750, -0.322753906250, 5.765625000000, -2.148437500000, -11.046875000000, 1491820941
0.162841796875, -0.963378906250, -0.313476562500, 6.515625000000, 9.171875000000, -9.640625000000, 1491820941
0.162841796875, -0.963378906250, -0.313476562500, 6.515625000000, 9.171875000000, -9.640625000000, 1491820941
0.162841796875, -0.963378906250, -0.313476562500, 6.515625000000, 9.171875000000, -9.640625000000, 1491820941
0.169921875000, -0.799316406250, -0.317138671875, 6.640625000000, 1.421875000000, -10.460937500000, 1491820941
0.169921875000, -0.799316406250, -0.317138671875, 6.640625000000, 1.421875000000, -10.460937500000, 1491820941
0.169921875000, -0.799316406250, -0.317138671875, 6.640625000000, 1.421875000000, -10.460937500000, 1491820941
0.278320312500, -0.855468750000, -0.257812500000, -4.250000000000, -8.117187500000, -0.804687500000, 1491820941
0.278320312500, -0.855468750000, -0.257812500000, -4.250000000000, -8.117187500000, -0.804687500000, 1491820941
0.278320312500, -0.855468750000, -0.257812500000, -4.250000000000, -8.117187500000, -0.804687500000, 1491820941
0.278320312500, -0.855468750000, -0.257812500000, -4.250000000000, -8.117187500000, -0.804687500000, 1491820941
0.219482421875, -0.872802734375, -0.338134765625, -3.492187500000, 7.398437500000, -5.226562500000, 1491820941
0.219482421875, -0.872802734375, -0.338134765625, -3.492187500000, 7.398437500000, -5.226562500000, 1491820941
0.219482421875, -0.872802734375, -0.338134765625, -3.492187500000, 7.398437500000, -5.226562500000, 1491820941
0.200683593750, -0.907958984375, -0.319091796875, -12.273437500000, 0.476562500000, 0.890625000000, 1491820941
0.200683593750, -0.907958984375, -0.319091796875, -12.273437500000, 0.476562500000, 0.890625000000, 1491820941
0.200683593750, -0.907958984375, -0.319091796875, -12.273437500000, 0.476562500000, 0.890625000000, 1491820941
0.222656250000, -1.022460937500, -0.240722656250, -13.218750000000, -10.851562500000, 4.609375000000, 1491820941
0.222656250000, -1.022460937500, -0.240722656250, -13.218750000000, -10.851562500000, 4.609375000000, 1491820941
0.222656250000, -1.022460937500, -0.240722656250, -13.218750000000, -10.851562500000, 4.609375000000, 1491820941
0.204833984375, -0.904785156250, -0.318847656250, -9.031250000000, 8.625000000000, -3.148437500000, 1491820941
0.204833984375, -0.904785156250, -0.318847656250, -9.031250000000, 8.625000000000, -3.148437500000, 1491820941
0.204833984375, -0.904785156250, -0.318847656250, -9.031250000000, 8.625000000000, -3.148437500000, 1491820941
0.204833984375, -0.904785156250, -0.318847656250, -9.031250000000, 8.625000000000, -3.148437500000, 1491820941
0.172119140625, -0.947753906250, -0.313232421875, -5.554687500000, 0.375000000000, -2.437500000000, 1491820941
0.172119140625, -0.947753906250, -0.313232421875, -5.554687500000, 0.375000000000, -2.437500000000, 1491820941
0.172119140625, -0.947753906250, -0.313232421875, -5.554687500000, 0.375000000000, -2.437500000000, 1491820941
0.160644531250, -0.940185546875, -0.237060546875, -3.109375000000, -1.500000000000, -1.351562500000, 1491820941
0.160644531250, -0.940185546875, -0.237060546875, -3.109375000000, -1.500000000000, -1.351562500000, 1491820941
0.160644531250, -0.940185546875, -0.237060546875, -3.109375000000, -1.500000000000, -1.351562500000, 1491820941
0.275390625000, -0.939208984375, -0.276367187500, -0.640625000000, 0.843750000000, -4.515625000000, 1491820941
0.275390625000, -0.939208984375, -0.276367187500, -0.640625000000, 0.843750000000, -4.515625000000, 1491820941
0.275390625000, -0.939208984375, -0.276367187500, -0.640625000000, 0.843750000000, -4.515625000000, 1491820941
0.279785156250, -0.846435546875, -0.340820312500, 3.187500000000, 4.640625000000, -6.187500000000, 1491820941
0.279785156250, -0.846435546875, -0.340820312500, 3.187500000000, 4.640625000000, -6.187500000000, 1491820941
0.279785156250, -0.846435546875, -0.340820312500, 3.187500000000, 4.640625000000, -6.187500000000, 1491820941
0.279785156250, -0.846435546875, -0.340820312500, 3.187500000000, 4.640625000000, -6.187500000000, 1491820941
0.175781250000, -0.891845703125, -0.325683593750, 4.585937500000, 7.007812500000, -10.742187500000, 1491820941
0.175781250000, -0.891845703125, -0.325683593750, 4.585937500000, 7.007812500000, -10.742187500000, 1491820941
0.175781250000, -0.891845703125, -0.325683593750, 4.585937500000, 7.007812500000, -10.742187500000, 1491820941
0.201904296875, -0.950683593750, -0.323974609375, -0.882812500000, -3.015625000000, -4.695312500000, 1491820941
0.201904296875, -0.950683593750, -0.323974609375, -0.882812500000, -3.015625000000, -4.695312500000, 1491820941
0.201904296875, -0.950683593750, -0.323974609375, -0.882812500000, -3.015625000000, -4.695312500000, 1491820941
0.252197265625, -0.968750000000, -0.245605468750, -2.578125000000, -7.828125000000, -0.132812500000, 1491820941
0.252197265625, -0.968750000000, -0.245605468750, -2.578125000000, -7.828125000000, -0.132812500000, 1491820941
0.252197265625, -0.968750000000, -0.245605468750, -2.578125000000, -7.828125000000, -0.132812500000, 1491820941
0.179687500000, -0.894042968750, -0.232666015625, -5.023437500000, 9.234375000000, -7.851562500000, 1491820941
0.179687500000, -0.894042968750, -0.232666015625, -5.023437500000, 9.234375000000, -7.851562500000, 1491820941
0.179687500000, -0.894042968750, -0.232666015625, -5.023437500000, 9.234375000000, -7.851562500000, 1491820941
0.179687500000, -0.894042968750, -0.232666015625, -5.023437500000, 9.234375000000, -7.851562500000, 1491820941
0.157958984375, -1.006347656250, -0.326904296875, -12.218750000000, -10.703125000000, 1.257812500000, 1491820941
0.157958984375, -1.006347656250, -0.326904296875, -12.218750000000, -10.703125000000, 1.257812500000, 1491820941
0.157958984375, -1.006347656250, -0.326904296875, -12.218750000000, -10.703125000000, 1.257812500000, 1491820941
0.252685546875, -0.863525390625, -0.277587890625, -12.375000000000, -5.210937500000, 1.132812500000, 1491820942
0.252685546875, -0.863525390625, -0.277587890625, -12.375000000000, -5.210937500000, 1.132812500000, 1491820942
0.252685546875, -0.863525390625, -0.277587890625, -12.375000000000, -5.210937500000, 1.132812500000, 1491820942
0.322753906250, -0.897460937500, -0.291259765625, -8.164062500000, 1.226562500000, -4.117187500000, 1491820942
0.322753906250, -0.897460937500, -0.291259765625, -8.164062500000, 1.226562500000, -4.117187500000, 1491820942
0.322753906250, -0.897460937500, -0.291259765625, -8.164062500000, 1.226562500000, -4.117187500000, 1491820942
0.278564453125, -0.952148437500, -0.219238281250, -8.132812500000, 2.679687500000, -3.015625000000, 1491820942
0.278564453125, -0.952148437500, -0.219238281250, -8.132812500000, 2.679687500000, -3.015625000000, 1491820942
0.278564453125, -0.952148437500, -0.219238281250, -8.132812500000, 2.679687500000, -3.015625000000, 1491820942
0.278564453125, -0.952148437500, -0.219238281250, -8.132812500000, 2.679687500000, -3.015625000000, 1491820942
0.164062500000, -0.929199218750, -0.318847656250, -4.859375000000, -4.273437500000, -1.531250000000, 1491820942
0.164062500000, -0.929199218750, -0.318847656250, -4.859375000000, -4.273437500000, -1.531250000000, 1491820942
0.164062500000, -0.929199218750, -0.318847656250, -4.859375000000, -4.273437500000, -1.531250000000, 1491820942
0.119628906250, -0.962890625000, -0.289306640625, -0.250000000000, 3.515625000000, -8.703125000000, 1491820942
0.119628906250, -0.962890625000, -0.289306640625, -0.250000000000, 3.515625000000, -8.703125000000, 1491820942
0.119628906250, -0.962890625000, -0.289306640625, -0.250000000000, 3.515625000000, -8.703125000000, 1491820942
0.175781250000, -0.855468750000, -0.336425781250, 1.218750000000, 6.242187500000, -9.609375000000, 1491820942
0.175781250000, -0.855468750000, -0.336425781250, 1.218750000000, 6.242187500000, -9.609375000000, 1491820942
0.175781250000, -0.855468750000, -0.336425781250, 1.218750000000, 6.242187500000, -9.609375000000, 1491820942
0.173095703125, -0.924804687500, -0.337158203125, -0.164062500000, -1.328125000000, -8.156250000000, 1491820942
0.173095703125, -0.924804687500, -0.337158203125, -0.164062500000, -1.328125000000, -8.156250000000, 1491820942
0.173095703125, -0.924804687500, -0.337158203125, -0.164062500000, -1.328125000000, -8.156250000000, 1491820942
0.173095703125, -0.924804687500, -0.337158203125, -0.164062500000, -1.328125000000, -8.156250000000, 1491820942
0.180175781250, -0.917236328125, -0.313476562500, -2.164062500000, -1.960937500000, -5.843750000000, 1491820942
0.180175781250, -0.917236328125, -0.313476562500, -2.164062500000, -1.960937500000, -5.843750000000, 1491820942
0.180175781250, -0.917236328125, -0.313476562500, -2.164062500000, -1.960937500000, -5.843750000000, 1491820942
0.251220703125, -0.967041015625, -0.317871093750, 0.570312500000, 6.335937500000, -8.015625000000, 1491820942
0.251220703125, -0.967041015625, -0.317871093750, 0.570312500000, 6.335937500000, -8.015625000000, 1491820942
0.251220703125, -0.967041015625, -0.317871093750, 0.570312500000, 6.335937500000, -8.015625000000, 1491820942
0.124023437500, -0.854248046875, -0.274169921875, -3.718750000000, -2.734375000000, -4.070312500000, 1491820942
0.124023437500, -0.854248046875, -0.274169921875, -3.718750000000, -2.734375000000, -4.070312500000, 1491820942
0.124023437500, -0.854248046875, -0.274169921875, -3.718750000000, -2.734375000000, -4.070312500000, 1491820942
0.216796875000, -0.912841796875, -0.292724609375, -12.804687500000, -0.250000000000, -2.851562500000, 1491820942
0.216796875000, -0.912841796875, -0.292724609375, -12.804687500000, -0.250000000000, -2.851562500000, 1491820942
0.216796875000, -0.912841796875, -0.292724609375, -12.804687500000, -0.250000000000, -2.851562500000, 1491820942
0.225585937500, -0.913574218750, -0.336425781250, -9.164062500000, -0.507812500000, -1.015625000000, 1491820942
0.225585937500, -0.913574218750, -0.336425781250, -9.164062500000, -0.507812500000, -1.015625000000, 1491820942
0.225585937500, -0.913574218750, -0.336425781250, -9.164062500000, -0.507812500000, -1.015625000000, 1491820942
0.225585937500, -0.913574218750, -0.336425781250, -9.164062500000, -0.507812500000, -1.015625000000, 1491820942
0.221191406250, -0.874267578125, -0.234375000000, -9.367187500000, 4.406250000000, -6.468750000000, 1491820942
0.221191406250, -0.874267578125, -0.234375000000, -9.367187500000, 4.406250000000, -6.468750000000, 1491820942
0.221191406250, -0.874267578125, -0.234375000000, -9.367187500000, 4.406250000000, -6.468750000000, 1491820942
0.222900390625, -0.944824218750, -0.248291015625, -12.781250000000, -0.703125000000, -5.296875000000, 1491820942
0.222900390625, -0.944824218750, -0.248291015625, -12.781250000000, -0.703125000000, -5.296875000000, 1491820942
0.222900390625, -0.944824218750, -0.248291015625, -12.781250000000, -0.703125000000, -5.296875000000, 1491820942
0.214111328125, -0.912597656250, -0.239257812500, -10.500000000000, -2.648437500000, -2.945312500000, 1491820942
0.212158203125, -0.860107421875, -0.235595703125, -9.218750000000, -1.539062500000, -1.828125000000, 1491820942
0.212158203125, -0.860107421875, -0.235595703125, -9.218750000000, -1.539062500000, -1.828125000000, 1491820942
0.199951171875, -0.921142578125, -0.311035156250, -12.984375000000, -0.242187500000, -3.273437500000, 1491820942
0.208007812500, -1.017822265625, -0.249755859375, -30.085937500000, 26.015625000000, -2.679687500000, 1491820942
0.208007812500, -1.017822265625, -0.249755859375, -30.085937500000, 26.015625000000, -2.679687500000, 1491820942
0.208007812500, -1.017822265625, -0.249755859375, -30.085937500000, 26.015625000000, -2.679687500000, 1491820942
0.208007812500, -1.017822265625, -0.249755859375, -30.085937500000, 26.015625000000, -2.679687500000, 1491820942
0.208007812500, -1.017822265625, -0.249755859375, -30.085937500000, 26.015625000000, -2.679687500000, 1491820942
0.258056640625, -0.937500000000, -0.346923828125, -37.945312500000, 33.390625000000, 9.273437500000, 1491820942
0.212890625000, -0.955322265625, -0.378906250000, -38.226562500000, 33.382812500000, 12.750000000000, 1491820942
0.212890625000, -0.955322265625, -0.378906250000, -38.226562500000, 33.382812500000, 12.750000000000, 1491820942
0.212890625000, -0.955322265625, -0.378906250000, -38.226562500000, 33.382812500000, 12.750000000000, 1491820942
0.169677734375, -0.874511718750, -0.376220703125, -36.843750000000, 34.851562500000, 16.921875000000, 1491820942
0.169677734375, -0.874511718750, -0.376220703125, -36.843750000000, 34.851562500000, 16.921875000000, 1491820942
0.169677734375, -0.874511718750, -0.376220703125, -36.843750000000, 34.851562500000, 16.921875000000, 1491820942
0.169677734375, -0.874511718750, -0.376220703125, -36.843750000000, 34.851562500000, 16.921875000000, 1491820942
0.169677734375, -0.874511718750, -0.376220703125, -36.843750000000, 34.851562500000, 16.921875000000, 1491820942
0.169677734375, -0.874511718750, -0.376220703125, -36.843750000000, 34.851562500000, 16.921875000000, 1491820942
0.230712890625, -0.855468750000, -0.229492187500, -23.523437500000, 29.984375000000, 17.609375000000, 1491820942
0.230712890625, -0.855468750000, -0.229492187500, -23.523437500000, 29.984375000000, 17.609375000000, 1491820942
0.230712890625, -0.855468750000, -0.229492187500, -23.523437500000, 29.984375000000, 17.609375000000, 1491820942
0.230712890625, -0.855468750000, -0.229492187500, -23.523437500000, 29.984375000000, 17.609375000000, 1491820943
0.333740234375, -1.001953125000, -0.375488281250, -18.945312500000, 36.710937500000, 18.468750000000, 1491820943
0.333740234375, -1.001953125000, -0.375488281250, -18.945312500000, 36.710937500000, 18.468750000000, 1491820943
0.333740234375, -1.001953125000, -0.375488281250, -18.945312500000, 36.710937500000, 18.468750000000, 1491820943
0.258056640625, -0.860839843750, -0.277099609375, 26.132812500000, 31.273437500000, -10.742187500000, 1491820943
0.258056640625, -0.860839843750, -0.277099609375, 26.132812500000, 31.273437500000, -10.742187500000, 1491820943
0.258056640625, -0.860839843750, -0.277099609375, 26.132812500000, 31.273437500000, -10.742187500000, 1491820943
0.258056640625, -0.860839843750, -0.277099609375, 26.132812500000, 31.273437500000, -10.742187500000, 1491820943
0.193115234375, -0.875244140625, -0.232910156250, 1.828125000000, 34.773437500000, -11.476562500000, 1491820943
0.193115234375, -0.875244140625, -0.232910156250, 1.828125000000, 34.773437500000, -11.476562500000, 1491820943
0.193115234375, -0.875244140625, -0.232910156250, 1.828125000000, 34.773437500000, -11.476562500000, 1491820943
0.098144531250, -0.854980468750, -0.110839843750, 17.492187500000, -38.820312500000, 13.375000000000, 1491820943
0.098144531250, -0.854980468750, -0.110839843750, 17.492187500000, -38.820312500000, 13.375000000000, 1491820943
0.098144531250, -0.854980468750, -0.110839843750, 17.492187500000, -38.820312500000, 13.375000000000, 1491820943
0.335449218750, -1.002685546875, -0.116943359375, 31.328125000000, 16.125000000000, -35.359375000000, 1491820943
0.335449218750, -1.002685546875, -0.116943359375, 31.328125000000, 16.125000000000, -35.359375000000, 1491820943
0.335449218750, -1.002685546875, -0.116943359375, 31.328125000000, 16.125000000000, -35.359375000000, 1491820943
0.424316406250, -0.907714843750, -0.125000000000, 12.835937500000, 3.773437500000, -14.476562500000, 1491820943
0.424316406250, -0.907714843750, -0.125000000000, 12.835937500000, 3.773437500000, -14.476562500000, 1491820943
0.424316406250, -0.907714843750, -0.125000000000, 12.835937500000, 3.773437500000, -14.476562500000, 1491820943
0.424316406250, -0.907714843750, -0.125000000000, 12.835937500000, 3.773437500000, -14.476562500000, 1491820943
0.315429687500, -0.949462890625, -0.062988281250, -81.304687500000, 39.648437500000, 23.492187500000, 1491820943
0.315429687500, -0.949462890625, -0.062988281250, -81.304687500000, 39.648437500000, 23.492187500000, 1491820943
0.315429687500, -0.949462890625, -0.062988281250, -81.304687500000, 39.648437500000, 23.492187500000, 1491820943
0.239990234375, -0.949951171875, -0.214599609375, -144.031250000000, -26.414062500000, 50.156250000000, 1491820943
0.239990234375, -0.949951171875, -0.214599609375, -144.031250000000, -26.414062500000, 50.156250000000, 1491820943
0.239990234375, -0.949951171875, -0.214599609375, -144.031250000000, -26.414062500000, 50.156250000000, 1491820943
0.312744140625, -0.881103515625, -0.147705078125, -85.476562500000, 52.734375000000, -0.343750000000, 1491820943
0.312744140625, -0.881103515625, -0.147705078125, -85.476562500000, 52.734375000000, -0.343750000000, 1491820943
0.312744140625, -0.881103515625, -0.147705078125, -85.476562500000, 52.734375000000, -0.343750000000, 1491820943
0.447998046875, -0.807617187500, 0.207275390625, -99.304687500000, 21.281250000000, 21.148437500000, 1491820943
0.447998046875, -0.807617187500, 0.207275390625, -99.304687500000, 21.281250000000, 21.148437500000, 1491820943
0.447998046875, -0.807617187500, 0.207275390625, -99.304687500000, 21.281250000000, 21.148437500000, 1491820943
0.447998046875, -0.807617187500, 0.207275390625, -99.304687500000, 21.281250000000, 21.148437500000, 1491820943
0.345458984375, -0.794433593750, 0.040039062500, -112.109375000000, 2.531250000000, 40.765625000000, 1491820943
0.345458984375, -0.794433593750, 0.040039062500, -112.109375000000, 2.531250000000, 40.765625000000, 1491820943
0.345458984375, -0.794433593750, 0.040039062500, -112.109375000000, 2.531250000000, 40.765625000000, 1491820943
0.364013671875, -0.782714843750, 0.235595703125, -93.695312500000, 55.710937500000, 23.562500000000, 1491820943
0.364013671875, -0.782714843750, 0.235595703125, -93.695312500000, 55.710937500000, 23.562500000000, 1491820943
0.364013671875, -0.782714843750, 0.235595703125, -93.695312500000, 55.710937500000, 23.562500000000, 1491820943
0.453857421875, -0.853759765625, 0.371826171875, -104.906250000000, 47.367187500000, 27.750000000000, 1491820943
0.453857421875, -0.853759765625, 0.371826171875, -104.906250000000, 47.367187500000, 27.750000000000, 1491820943
0.453857421875, -0.853759765625, 0.371826171875, -104.906250000000, 47.367187500000, 27.750000000000, 1491820943
0.467285156250, -0.762451171875, 0.529785156250, -115.250000000000, 29.445312500000, 33.562500000000, 1491820943
0.467285156250, -0.762451171875, 0.529785156250, -115.250000000000, 29.445312500000, 33.562500000000, 1491820943
0.467285156250, -0.762451171875, 0.529785156250, -115.250000000000, 29.445312500000, 33.562500000000, 1491820943
0.467285156250, -0.762451171875, 0.529785156250, -115.250000000000, 29.445312500000, 33.562500000000, 1491820943
0.372558593750, -0.718017578125, 0.491455078125, -111.304687500000, 33.843750000000, 31.585937500000, 1491820943
0.372558593750, -0.718017578125, 0.491455078125, -111.304687500000, 33.843750000000, 31.585937500000, 1491820943
0.372558593750, -0.718017578125, 0.491455078125, -111.304687500000, 33.843750000000, 31.585937500000, 1491820943
0.648193359375, -0.641845703125, 0.772705078125, -115.421875000000, 15.617187500000, 32.695312500000, 1491820943
0.648193359375, -0.641845703125, 0.772705078125, -115.421875000000, 15.617187500000, 32.695312500000, 1491820943
0.648193359375, -0.641845703125, 0.772705078125, -115.421875000000, 15.617187500000, 32.695312500000, 1491820943
0.509521484375, -0.413818359375, 0.753417968750, -79.453125000000, 38.218750000000, 40.023437500000, 1491820943
0.509521484375, -0.413818359375, 0.753417968750, -79.453125000000, 38.218750000000, 40.023437500000, 1491820943
0.509521484375, -0.413818359375, 0.753417968750, -79.453125000000, 38.218750000000, 40.023437500000, 1491820943
0.476806640625, -0.502441406250, 0.937011718750, -97.007812500000, 0.382812500000, 42.828125000000, 1491820943
0.476806640625, -0.502441406250, 0.937011718750, -97.007812500000, 0.382812500000, 42.828125000000, 1491820943
0.476806640625, -0.502441406250, 0.937011718750, -97.007812500000, 0.382812500000, 42.828125000000, 1491820943
0.476806640625, -0.502441406250, 0.937011718750, -97.007812500000, 0.382812500000, 42.828125000000, 1491820943
0.531494140625, -0.377929687500, 0.851806640625, -92.070312500000, 32.460937500000, 39.210937500000, 1491820943
0.531494140625, -0.377929687500, 0.851806640625, -92.070312500000, 32.460937500000, 39.210937500000, 1491820943
0.531494140625, -0.377929687500, 0.851806640625, -92.070312500000, 32.460937500000, 39.210937500000, 1491820943
0.509033203125, -0.233154296875, 0.906250000000, -83.117187500000, 31.312500000000, 43.937500000000, 1491820943
0.509033203125, -0.233154296875, 0.906250000000, -83.117187500000, 31.312500000000, 43.937500000000, 1491820943
0.509033203125, -0.233154296875, 0.906250000000, -83.117187500000, 31.312500000000, 43.937500000000, 1491820943
0.655273437500, -0.302246093750, 0.951660156250, -82.273437500000, 56.726562500000, 27.695312500000, 1491820944
0.655273437500, -0.302246093750, 0.951660156250, -82.273437500000, 56.726562500000, 27.695312500000, 1491820944
0.655273437500, -0.302246093750, 0.951660156250, -82.273437500000, 56.726562500000, 27.695312500000, 1491820944
0.208007812500, -0.045410156250, 1.029052734375, -83.601562500000, 67.460937500000, 34.539062500000, 1491820944
0.208007812500, -0.045410156250, 1.029052734375, -83.601562500000, 67.460937500000, 34.539062500000, 1491820944
0.208007812500, -0.045410156250, 1.029052734375, -83.601562500000, 67.460937500000, 34.539062500000, 1491820944
0.208007812500, -0.045410156250, 1.029052734375, -83.601562500000, 67.460937500000, 34.539062500000, 1491820944
0.338623046875, -0.021484375000, 1.044921875000, -66.164062500000, 29.218750000000, 20.468750000000, 1491820944
0.338623046875, -0.021484375000, 1.044921875000, -66.164062500000, 29.218750000000, 20.468750000000, 1491820944
0.338623046875, -0.021484375000, 1.044921875000, -66.164062500000, 29.218750000000, 20.468750000000, 1491820944
0.285156250000, -0.096923828125, 1.008789062500, -55.414062500000, -26.187500000000, 9.789062500000, 1491820944
0.285156250000, -0.096923828125, 1.008789062500, -55.414062500000, -26.187500000000, 9.789062500000, 1491820944
0.285156250000, -0.096923828125, 1.008789062500, -55.414062500000, -26.187500000000, 9.789062500000, 1491820944
0.303710937500, 0.110351562500, 0.945800781250, -66.250000000000, 8.835937500000, 22.679687500000, 1491820944
0.303710937500, 0.110351562500, 0.945800781250, -66.250000000000, 8.835937500000, 22.679687500000, 1491820944
0.303710937500, 0.110351562500, 0.945800781250, -66.250000000000, 8.835937500000, 22.679687500000, 1491820944
0.224853515625, 0.200195312500, 0.954101562500, -35.117187500000, 35.289062500000, 15.796875000000, 1491820944
0.224853515625, 0.200195312500, 0.954101562500, -35.117187500000, 35.289062500000, 15.796875000000, 1491820944
0.224853515625, 0.200195312500, 0.954101562500, -35.117187500000, 35.289062500000, 15.796875000000, 1491820944
0.224853515625, 0.200195312500, 0.954101562500, -35.117187500000, 35.289062500000, 15.796875000000, 1491820944
0.171630859375, 0.331054687500, 1.009277343750, 7.367187500000, 12.781250000000, -5.218750000000, 1491820944
0.171630859375, 0.331054687500, 1.009277343750, 7.367187500000, 12.781250000000, -5.218750000000, 1491820944
0.171630859375, 0.331054687500, 1.009277343750, 7.367187500000, 12.781250000000, -5.218750000000, 1491820944
0.336425781250, 0.114990234375, 1.085449218750, 24.539062500000, -12.500000000000, -13.851562500000, 1491820944
0.336425781250, 0.114990234375, 1.085449218750, 24.539062500000, -12.500000000000, -13.851562500000, 1491820944
0.336425781250, 0.114990234375, 1.085449218750, 24.539062500000, -12.500000000000, -13.851562500000, 1491820944
0.354248046875, -0.039062500000, 1.010742187500, 19.007812500000, 5.429687500000, -16.187500000000, 1491820944
0.354248046875, -0.039062500000, 1.010742187500, 19.007812500000, 5.429687500000, -16.187500000000, 1491820944
0.354248046875, -0.039062500000, 1.010742187500, 19.007812500000, 5.429687500000, -16.187500000000, 1491820944
0.321533203125, -0.154785156250, 0.853271484375, -13.710937500000, 14.609375000000, -2.601562500000, 1491820944
0.321533203125, -0.154785156250, 0.853271484375, -13.710937500000, 14.609375000000, -2.601562500000, 1491820944
0.321533203125, -0.154785156250, 0.853271484375, -13.710937500000, 14.609375000000, -2.601562500000, 1491820944
0.321533203125, -0.154785156250, 0.853271484375, -13.710937500000, 14.609375000000, -2.601562500000, 1491820944
0.375244140625, 0.085693359375, 0.860839843750, -19.804687500000, 10.648437500000, 4.203125000000, 1491820944
0.375244140625, 0.085693359375, 0.860839843750, -19.804687500000, 10.648437500000, 4.203125000000, 1491820944
0.375244140625, 0.085693359375, 0.860839843750, -19.804687500000, 10.648437500000, 4.203125000000, 1491820944
0.301269531250, 0.088378906250, 0.987304687500, -10.609375000000, 10.703125000000, -2.757812500000, 1491820944
0.301269531250, 0.088378906250, 0.987304687500, -10.609375000000, 10.703125000000, -2.757812500000, 1491820944
0.301269531250, 0.088378906250, 0.987304687500, -10.609375000000, 10.703125000000, -2.757812500000, 1491820944
0.311035156250, 0.150634765625, 0.994873046875, 1.648437500000, -3.296875000000, -4.171875000000, 1491820944
0.311035156250, 0.150634765625, 0.994873046875, 1.648437500000, -3.296875000000, -4.171875000000, 1491820944
0.311035156250, 0.150634765625, 0.994873046875, 1.648437500000, -3.296875000000, -4.171875000000, 1491820944
0.304687500000, -0.071777343750, 0.924316406250, 4.015625000000, -7.382812500000, -5.093750000000, 1491820944
0.304687500000, -0.071777343750, 0.924316406250, 4.015625000000, -7.382812500000, -5.093750000000, 1491820944
0.304687500000, -0.071777343750, 0.924316406250, 4.015625000000, -7.382812500000, -5.093750000000, 1491820944
0.304687500000, -0.071777343750, 0.924316406250, 4.015625000000, -7.382812500000, -5.093750000000, 1491820944
0.226318359375, 0.007568359375, 0.964599609375, -6.687500000000, -2.375000000000, -4.656250000000, 1491820944
0.226318359375, 0.007568359375, 0.964599609375, -6.687500000000, -2.375000000000, -4.656250000000, 1491820944
0.226318359375, 0.007568359375, 0.964599609375, -6.687500000000, -2.375000000000, -4.656250000000, 1491820944
0.300292968750, 0.004394531250, 0.968505859375, -9.914062500000, 5.781250000000, -0.695312500000, 1491820944
0.300292968750, 0.004394531250, 0.968505859375, -9.914062500000, 5.781250000000, -0.695312500000, 1491820944
0.300292968750, 0.004394531250, 0.968505859375, -9.914062500000, 5.781250000000, -0.695312500000, 1491820944
0.329345703125, 0.052490234375, 0.981933593750, -7.960937500000, 4.539062500000, -3.070312500000, 1491820944
0.329345703125, 0.052490234375, 0.981933593750, -7.960937500000, 4.539062500000, -3.070312500000, 1491820944
0.329345703125, 0.052490234375, 0.981933593750, -7.960937500000, 4.539062500000, -3.070312500000, 1491820944
0.308105468750, 0.041015625000, 1.034179687500, -7.171875000000, 0.906250000000, -3.203125000000, 1491820944
0.308105468750, 0.041015625000, 1.034179687500, -7.171875000000, 0.906250000000, -3.203125000000, 1491820944
0.308105468750, 0.041015625000, 1.034179687500, -7.171875000000, 0.906250000000, -3.203125000000, 1491820944
0.308105468750, 0.041015625000, 1.034179687500, -7.171875000000, 0.906250000000, -3.203125000000, 1491820944
0.329345703125, 0.074707031250, 0.970947265625, -6.234375000000, 4.976562500000, -3.398437500000, 1491820944
0.329345703125, 0.074707031250, 0.970947265625, -6.234375000000, 4.976562500000, -3.398437500000, 1491820944
0.329345703125, 0.074707031250, 0.970947265625, -6.234375000000, 4.976562500000, -3.398437500000, 1491820944
0.293457031250, 0.023925781250, 1.015136718750, -4.140625000000, 0.867187500000, -3.304687500000, 1491820944
0.293457031250, 0.023925781250, 1.015136718750, -4.140625000000, 0.867187500000, -3.304687500000, 1491820944
0.335937500000, 0.024658203125, 0.989013671875, -4.460937500000, 4.039062500000, 0.085937500000, 1491820944
0.335937500000, 0.024658203125, 0.989013671875, -4.460937500000, 4.039062500000, 0.085937500000, 1491820944
0.335937500000, 0.024658203125, 0.989013671875, -4.460937500000, 4.039062500000, 0.085937500000, 1491820944
0.335937500000, 0.024658203125, 0.989013671875, -4.460937500000, 4.039062500000, 0.085937500000, 1491820945
0.249755859375, -0.031005859375, 0.937255859375, 0.117187500000, 2.500000000000, -4.976562500000, 1491820945
0.249755859375, -0.031005859375, 0.937255859375, 0.117187500000, 2.500000000000, -4.976562500000, 1491820945
0.249755859375, -0.031005859375, 0.937255859375, 0.117187500000, 2.500000000000, -4.976562500000, 1491820945
0.249755859375, -0.031005859375, 0.937255859375, 0.117187500000, 2.500000000000, -4.976562500000, 1491820945
0.302246093750, 0.089599609375, 0.979003906250, -1.789062500000, -1.820312500000, -4.796875000000, 1491820945
0.302246093750, 0.089599609375, 0.979003906250, -1.789062500000, -1.820312500000, -4.796875000000, 1491820945
0.302246093750, 0.089599609375, 0.979003906250, -1.789062500000, -1.820312500000, -4.796875000000, 1491820945
0.318359375000, 0.019042968750, 0.916503906250, -4.710937500000, -2.867187500000, -1.257812500000, 1491820945
0.318359375000, 0.019042968750, 0.916503906250, -4.710937500000, -2.867187500000, -1.257812500000, 1491820945
0.318359375000, 0.019042968750, 0.916503906250, -4.710937500000, -2.867187500000, -1.257812500000, 1491820945
0.241699218750, -0.013427734375, 0.929687500000, -1.335937500000, -1.804687500000, -4.218750000000, 1491820945
0.241699218750, -0.013427734375, 0.929687500000, -1.335937500000, -1.804687500000, -4.218750000000, 1491820945
0.241699218750, -0.013427734375, 0.929687500000, -1.335937500000, -1.804687500000, -4.218750000000, 1491820945
0.295410156250, 0.031494140625, 1.006347656250, -6.125000000000, -2.117187500000, -2.578125000000, 1491820945
0.295410156250, 0.031494140625, 1.006347656250, -6.125000000000, -2.117187500000, -2.578125000000, 1491820945
0.295410156250, 0.031494140625, 1.006347656250, -6.125000000000, -2.117187500000, -2.578125000000, 1491820945
0.295410156250, 0.031494140625, 1.006347656250, -6.125000000000, -2.117187500000, -2.578125000000, 1491820945
0.342285156250, 0.049316406250, 1.016845703125, -6.312500000000, -2.507812500000, -1.906250000000, 1491820945
0.342285156250, 0.049316406250, 1.016845703125, -6.312500000000, -2.507812500000, -1.906250000000, 1491820945
0.342285156250, 0.049316406250, 1.016845703125, -6.312500000000, -2.507812500000, -1.906250000000, 1491820945
0.382568359375, -0.009277343750, 1.024658203125, -3.187500000000, -4.421875000000, -4.429687500000, 1491820945
0.382568359375, -0.009277343750, 1.024658203125, -3.187500000000, -4.421875000000, -4.429687500000, 1491820945
0.382568359375, -0.009277343750, 1.024658203125, -3.187500000000, -4.421875000000, -4.429687500000, 1491820945
0.229980468750, -0.015380859375, 1.030029296875, -2.687500000000, 0.906250000000, -6.945312500000, 1491820945
0.229980468750, -0.015380859375, 1.030029296875, -2.687500000000, 0.906250000000, -6.945312500000, 1491820945
0.229980468750, -0.015380859375, 1.030029296875, -2.687500000000, 0.906250000000, -6.945312500000, 1491820945
0.283447265625, 0.033935546875, 0.958496093750, -3.093750000000, 4.054687500000, -3.742187500000, 1491820945
0.283447265625, 0.033935546875, 0.958496093750, -3.093750000000, 4.054687500000, -3.742187500000, 1491820945
0.283447265625, 0.033935546875, 0.958496093750, -3.093750000000, 4.054687500000, -3.742187500000, 1491820945
0.283447265625, 0.033935546875, 0.958496093750, -3.093750000000, 4.054687500000, -3.742187500000, 1491820945
0.406005859375, 0.069091796875, 0.968017578125, -3.375000000000, -0.156250000000, -1.453125000000, 1491820945
0.406005859375, 0.069091796875, 0.968017578125, -3.375000000000, -0.156250000000, -1.453125000000, 1491820945
0.406005859375, 0.069091796875, 0.968017578125, -3.375000000000, -0.156250000000, -1.453125000000, 1491820945
0.302978515625, 0.062988281250, 0.959960937500, -3.953125000000, 2.523437500000, -6.539062500000, 1491820945
0.302978515625, 0.062988281250, 0.959960937500, -3.953125000000, 2.523437500000, -6.539062500000, 1491820945
0.302978515625, 0.062988281250, 0.959960937500, -3.953125000000, 2.523437500000, -6.539062500000, 1491820945
0.311279296875, -0.018066406250, 1.000244140625, -4.625000000000, -0.132812500000, -3.375000000000, 1491820945
0.311279296875, -0.018066406250, 1.000244140625, -4.625000000000, -0.132812500000, -3.375000000000, 1491820945
0.311279296875, -0.018066406250, 1.000244140625, -4.625000000000, -0.132812500000, -3.375000000000, 1491820945
0.313476562500, 0.133789062500, 1.019531250000, -1.890625000000, 0.953125000000, -4.546875000000, 1491820945
0.313476562500, 0.133789062500, 1.019531250000, -1.890625000000, 0.953125000000, -4.546875000000, 1491820945
0.174072265625, -0.051269531250, 0.937255859375, -3.304687500000, -0.632812500000, -3.890625000000, 1491820945
0.330322265625, -0.022460937500, 0.917968750000, -3.132812500000, 2.867187500000, -3.046875000000, 1491820945
0.313720703125, 0.021484375000, 1.027343750000, -4.421875000000, 2.351562500000, -3.671875000000, 1491820945
0.313720703125, 0.021484375000, 1.027343750000, -4.421875000000, 2.351562500000, -3.671875000000, 1491820945
0.313720703125, 0.021484375000, 1.027343750000, -4.421875000000, 2.351562500000, -3.671875000000, 1491820945
0.240234375000, 0.023193359375, 1.007080078125, -4.531250000000, 2.789062500000, -3.695312500000, 1491820945
0.240234375000, 0.023193359375, 1.007080078125, -4.531250000000, 2.789062500000, -3.695312500000, 1491820945
0.240234375000, 0.023193359375, 1.007080078125, -4.531250000000, 2.789062500000, -3.695312500000, 1491820945
0.240234375000, 0.023193359375, 1.007080078125, -4.531250000000, 2.789062500000, -3.695312500000, 1491820945
0.240234375000, 0.023193359375, 1.007080078125, -4.531250000000, 2.789062500000, -3.695312500000, 1491820945
0.240234375000, 0.023193359375, 1.007080078125, -4.531250000000, 2.789062500000, -3.695312500000, 1491820945
0.343505859375, 0.086669921875, 1.012207031250, -4.015625000000, 0.578125000000, -4.437500000000, 1491820945
0.343505859375, 0.086669921875, 1.012207031250, -4.015625000000, 0.578125000000, -4.437500000000, 1491820945
0.343505859375, 0.086669921875, 1.012207031250, -4.015625000000, 0.578125000000, -4.437500000000, 1491820945
0.343505859375, 0.086669921875, 1.012207031250, -4.015625000000, 0.578125000000, -4.437500000000, 1491820945
0.244384765625, 0.009521484375, 0.906982421875, -4.234375000000, -0.640625000000, -4.960937500000, 1491820945
0.244384765625, 0.009521484375, 0.906982421875, -4.234375000000, -0.640625000000, -4.960937500000, 1491820945
0.244384765625, 0.009521484375, 0.906982421875, -4.234375000000, -0.640625000000, -4.960937500000, 1491820945
0.336425781250, -0.030761718750, 0.961181640625, -3.210937500000, -0.867187500000, -4.617187500000, 1491820945
0.240234375000, 0.033691406250, 0.953369140625, -5.359375000000, 1.187500000000, -4.148437500000, 1491820945
0.240234375000, 0.033691406250, 0.953369140625, -5.359375000000, 1.187500000000, -4.148437500000, 1491820945
0.240234375000, 0.033691406250, 0.953369140625, -5.359375000000, 1.187500000000, -4.148437500000, 1491820945
0.240234375000, 0.033691406250, 0.953369140625, -5.359375000000, 1.187500000000, -4.148437500000, 1491820945
0.240234375000, 0.033691406250, 0.953369140625, -5.359375000000, 1.187500000000, -4.148437500000, 1491820945
0.249511718750, 0.017333984375, 1.007080078125, -5.679687500000, 2.921875000000, -2.734375000000, 1491820946
0.249511718750, 0.017333984375, 1.007080078125, -5.679687500000, 2.921875000000, -2.734375000000, 1491820946
0.249511718750, 0.017333984375, 1.007080078125, -5.679687500000, 2.921875000000, -2.734375000000, 1491820946
0.249511718750, 0.017333984375, 1.007080078125, -5.679687500000, 2.921875000000, -2.734375000000, 1491820946
0.248291015625, 0.005371093750, 0.967041015625, -4.726562500000, -0.453125000000, -1.937500000000, 1491820946
0.248291015625, 0.005371093750, 0.967041015625, -4.726562500000, -0.453125000000, -1.937500000000, 1491820946
0.248291015625, 0.005371093750, 0.967041015625, -4.726562500000, -0.453125000000, -1.937500000000, 1491820946
0.294921875000, 0.009765625000, 0.982177734375, -4.101562500000, 1.031250000000, -3.335937500000, 1491820946
0.294921875000, 0.009765625000, 0.982177734375, -4.101562500000, 1.031250000000, -3.335937500000, 1491820946
0.294921875000, 0.009765625000, 0.982177734375, -4.101562500000, 1.031250000000, -3.335937500000, 1491820946
0.320068359375, -0.014160156250, 0.947753906250, -4.742187500000, 1.531250000000, -1.500000000000, 1491820946
0.320068359375, -0.014160156250, 0.947753906250, -4.742187500000, 1.531250000000, -1.500000000000, 1491820946
