ACC_X,ACC_Y,ACC_Z,G_X,G_Y,G_Z,Unix Time
0.348388671875, -0.887451171875, 0.312744140625, -12.812500000000, -28.320312500000, -22.804687500000, 1491820429
0.348388671875, -0.887451171875, 0.312744140625, -12.812500000000, -28.320312500000, -22.804687500000, 1491820429
0.348388671875, -0.887451171875, 0.312744140625, -12.812500000000, -28.320312500000, -22.804687500000, 1491820429
0.380615234375, -0.947265625000, 0.238037109375, -29.625000000000, -22.703125000000, -17.828125000000, 1491820429
0.380615234375, -0.947265625000, 0.238037109375, -29.625000000000, -22.703125000000, -17.828125000000, 1491820429
0.380615234375, -0.947265625000, 0.238037109375, -29.625000000000, -22.703125000000, -17.828125000000, 1491820429
0.380615234375, -0.947265625000, 0.238037109375, -29.625000000000, -22.703125000000, -17.828125000000, 1491820429
0.395019531250, -1.068115234375, 0.232666015625, -18.328125000000, -26.140625000000, -36.726562500000, 1491820429
0.395019531250, -1.068115234375, 0.232666015625, -18.328125000000, -26.140625000000, -36.726562500000, 1491820429
0.395019531250, -1.068115234375, 0.232666015625, -18.328125000000, -26.140625000000, -36.726562500000, 1491820429
0.516357421875, -1.087402343750, 0.267578125000, -16.234375000000, -25.390625000000, -40.437500000000, 1491820429
0.516357421875, -1.087402343750, 0.267578125000, -16.234375000000, -25.390625000000, -40.437500000000, 1491820429
0.516357421875, -1.087402343750, 0.267578125000, -16.234375000000, -25.390625000000, -40.437500000000, 1491820429
0.377441406250, -0.805419921875, 0.267822265625, -24.234375000000, -21.460937500000, -22.882812500000, 1491820429
0.377441406250, -0.805419921875, 0.267822265625, -24.234375000000, -21.460937500000, -22.882812500000, 1491820429
0.377441406250, -0.805419921875, 0.267822265625, -24.234375000000, -21.460937500000, -22.882812500000, 1491820429
0.241943359375, -0.666015625000, 0.105957031250, -26.234375000000, -26.703125000000, -13.953125000000, 1491820429
0.241943359375, -0.666015625000, 0.105957031250, -26.234375000000, -26.703125000000, -13.953125000000, 1491820429
0.241943359375, -0.666015625000, 0.105957031250, -26.234375000000, -26.703125000000, -13.953125000000, 1491820429
0.241943359375, -0.666015625000, 0.105957031250, -26.234375000000, -26.703125000000, -13.953125000000, 1491820429
0.201416015625, -0.871093750000, 0.130126953125, -33.328125000000, -52.445312500000, -20.562500000000, 1491820429
0.201416015625, -0.871093750000, 0.130126953125, -33.328125000000, -52.445312500000, -20.562500000000, 1491820429
0.201416015625, -0.871093750000, 0.130126953125, -33.328125000000, -52.445312500000, -20.562500000000, 1491820430
0.116699218750, -0.983886718750, 0.143554687500, -9.867187500000, -31.546875000000, -37.937500000000, 1491820430
0.116699218750, -0.983886718750, 0.143554687500, -9.867187500000, -31.546875000000, -37.937500000000, 1491820430
0.116699218750, -0.983886718750, 0.143554687500, -9.867187500000, -31.546875000000, -37.937500000000, 1491820430
0.222412109375, -1.176757812500, 0.153076171875, 18.664062500000, -20.890625000000, -43.289062500000, 1491820430
0.222412109375, -1.176757812500, 0.153076171875, 18.664062500000, -20.890625000000, -43.289062500000, 1491820430
0.303955078125, -0.912841796875, 0.231445312500, 31.226562500000, -105.531250000000, -22.218750000000, 1491820430
0.303955078125, -0.912841796875, 0.231445312500, 31.226562500000, -105.531250000000, -22.218750000000, 1491820430
0.303955078125, -0.912841796875, 0.231445312500, 31.226562500000, -105.531250000000, -22.218750000000, 1491820430
0.303955078125, -0.912841796875, 0.231445312500, 31.226562500000, -105.531250000000, -22.218750000000, 1491820430
0.303955078125, -0.912841796875, 0.231445312500, 31.226562500000, -105.531250000000, -22.218750000000, 1491820430
0.254638671875, -0.887695312500, 0.333496093750, -8.343750000000, 5.046875000000, 2.289062500000, 1491820430
0.254638671875, -0.887695312500, 0.333496093750, -8.343750000000, 5.046875000000, 2.289062500000, 1491820430
0.254638671875, -0.887695312500, 0.333496093750, -8.343750000000, 5.046875000000, 2.289062500000, 1491820430
0.187011718750, -0.952880859375, 0.175537109375, -27.218750000000, 59.117187500000, 12.492187500000, 1491820430
0.187011718750, -0.952880859375, 0.175537109375, -27.218750000000, 59.117187500000, 12.492187500000, 1491820430
0.187011718750, -0.952880859375, 0.175537109375, -27.218750000000, 59.117187500000, 12.492187500000, 1491820430
0.206542968750, -0.847412109375, 0.053955078125, -5.843750000000, 27.765625000000, -4.109375000000, 1491820430
0.206542968750, -0.847412109375, 0.053955078125, -5.843750000000, 27.765625000000, -4.109375000000, 1491820430
0.243652343750, -0.944824218750, 0.248535156250, 46.171875000000, -15.382812500000, -0.023437500000, 1491820430
0.243652343750, -0.944824218750, 0.248535156250, 46.171875000000, -15.382812500000, -0.023437500000, 1491820430
0.243652343750, -0.944824218750, 0.248535156250, 46.171875000000, -15.382812500000, -0.023437500000, 1491820430
0.243652343750, -0.944824218750, 0.248535156250, 46.171875000000, -15.382812500000, -0.023437500000, 1491820430
0.243652343750, -0.944824218750, 0.248535156250, 46.171875000000, -15.382812500000, -0.023437500000, 1491820430
0.342773437500, -0.864990234375, 0.396972656250, 24.531250000000, 13.265625000000, 9.953125000000, 1491820430
0.342773437500, -0.864990234375, 0.396972656250, 24.531250000000, 13.265625000000, 9.953125000000, 1491820430
0.342773437500, -0.864990234375, 0.396972656250, 24.531250000000, 13.265625000000, 9.953125000000, 1491820430
0.292480468750, -0.856445312500, 0.323486328125, -28.859375000000, 81.804687500000, 34.335937500000, 1491820430
0.292480468750, -0.856445312500, 0.323486328125, -28.859375000000, 81.804687500000, 34.335937500000, 1491820430
0.292480468750, -0.856445312500, 0.323486328125, -28.859375000000, 81.804687500000, 34.335937500000, 1491820430
0.228271484375, -0.960449218750, 0.263671875000, -22.460937500000, 76.101562500000, 38.562500000000, 1491820430
0.228271484375, -0.960449218750, 0.263671875000, -22.460937500000, 76.101562500000, 38.562500000000, 1491820430
0.228271484375, -0.960449218750, 0.263671875000, -22.460937500000, 76.101562500000, 38.562500000000, 1491820430
0.322021484375, -1.051025390625, 0.168212890625, -6.960937500000, 34.195312500000, 23.976562500000, 1491820430
0.322021484375, -1.051025390625, 0.168212890625, -6.960937500000, 34.195312500000, 23.976562500000, 1491820430
0.322021484375, -1.051025390625, 0.168212890625, -6.960937500000, 34.195312500000, 23.976562500000, 1491820430
0.322021484375, -1.051025390625, 0.168212890625, -6.960937500000, 34.195312500000, 23.976562500000, 1491820430
0.500488281250, -1.071044921875, 0.234863281250, 14.351562500000, -1.437500000000, 16.531250000000, 1491820430
0.500488281250, -1.071044921875, 0.234863281250, 14.351562500000, -1.437500000000, 16.531250000000, 1491820430
0.500488281250, -1.071044921875, 0.234863281250, 14.351562500000, -1.437500000000, 16.531250000000, 1491820430
0.274414062500, -1.088378906250, 0.208496093750, -39.804687500000, 58.078125000000, 42.632812500000, 1491820430
0.266357421875, -0.895996093750, 0.061279296875, -37.281250000000, 47.101562500000, 29.789062500000, 1491820430
0.266357421875, -0.895996093750, 0.061279296875, -37.281250000000, 47.101562500000, 29.789062500000, 1491820430
0.266357421875, -0.895996093750, 0.061279296875, -37.281250000000, 47.101562500000, 29.789062500000, 1491820430
0.266357421875, -0.895996093750, 0.061279296875, -37.281250000000, 47.101562500000, 29.789062500000, 1491820430
0.185302734375, -0.810791015625, 0.080078125000, -32.703125000000, 38.523437500000, 21.640625000000, 1491820430
0.285156250000, -0.711425781250, 0.072753906250, -14.023437500000, 28.523437500000, -2.179687500000, 1491820430
0.285156250000, -0.711425781250, 0.072753906250, -14.023437500000, 28.523437500000, -2.179687500000, 1491820430
0.285156250000, -0.711425781250, 0.072753906250, -14.023437500000, 28.523437500000, -2.179687500000, 1491820430
0.285156250000, -0.711425781250, 0.072753906250, -14.023437500000, 28.523437500000, -2.179687500000, 1491820430
0.349121093750, -0.763183593750, -0.008789062500, 29.007812500000, 57.546875000000, -16.367187500000, 1491820430
0.349121093750, -0.763183593750, -0.008789062500, 29.007812500000, 57.546875000000, -16.367187500000, 1491820430
0.349121093750, -0.763183593750, -0.008789062500, 29.007812500000, 57.546875000000, -16.367187500000, 1491820430
0.712890625000, -0.953857421875, 0.143310546875, 59.390625000000, 1.351562500000, -14.437500000000, 1491820430
0.712890625000, -0.953857421875, 0.143310546875, 59.390625000000, 1.351562500000, -14.437500000000, 1491820430
0.712890625000, -0.953857421875, 0.143310546875, 59.390625000000, 1.351562500000, -14.437500000000, 1491820430
0.448730468750, -0.983154296875, 0.374511718750, 23.351562500000, -51.570312500000, 9.546875000000, 1491820430
0.448730468750, -0.983154296875, 0.374511718750, 23.351562500000, -51.570312500000, 9.546875000000, 1491820430
0.448730468750, -0.983154296875, 0.374511718750, 23.351562500000, -51.570312500000, 9.546875000000, 1491820430
0.509521484375, -0.683837890625, 0.184326171875, -25.945312500000, 44.804687500000, -0.796875000000, 1491820430
0.509521484375, -0.683837890625, 0.184326171875, -25.945312500000, 44.804687500000, -0.796875000000, 1491820430
0.509521484375, -0.683837890625, 0.184326171875, -25.945312500000, 44.804687500000, -0.796875000000, 1491820430
0.509521484375, -0.683837890625, 0.184326171875, -25.945312500000, 44.804687500000, -0.796875000000, 1491820430
0.424316406250, -0.814453125000, 0.101318359375, 16.773437500000, 1.484375000000, -15.718750000000, 1491820430
0.424316406250, -0.814453125000, 0.101318359375, 16.773437500000, 1.484375000000, -15.718750000000, 1491820430
0.424316406250, -0.814453125000, 0.101318359375, 16.773437500000, 1.484375000000, -15.718750000000, 1491820430
0.500244140625, -0.812255859375, 0.198242187500, 39.070312500000, -14.265625000000, -16.015625000000, 1491820431
0.500244140625, -0.812255859375, 0.198242187500, 39.070312500000, -14.265625000000, -16.015625000000, 1491820431
0.500244140625, -0.812255859375, 0.198242187500, 39.070312500000, -14.265625000000, -16.015625000000, 1491820431
0.367675781250, -0.857177734375, 0.342285156250, 22.125000000000, 11.585937500000, -3.859375000000, 1491820431
0.367675781250, -0.857177734375, 0.342285156250, 22.125000000000, 11.585937500000, -3.859375000000, 1491820431
0.367675781250, -0.857177734375, 0.342285156250, 22.125000000000, 11.585937500000, -3.859375000000, 1491820431
0.386474609375, -0.807373046875, 0.312744140625, -1.304687500000, 9.617187500000, -14.320312500000, 1491820431
0.386474609375, -0.807373046875, 0.312744140625, -1.304687500000, 9.617187500000, -14.320312500000, 1491820431
0.386474609375, -0.807373046875, 0.312744140625, -1.304687500000, 9.617187500000, -14.320312500000, 1491820431
0.386474609375, -0.807373046875, 0.312744140625, -1.304687500000, 9.617187500000, -14.320312500000, 1491820431
0.358154296875, -0.814941406250, 0.263183593750, -8.554687500000, 5.921875000000, -20.898437500000, 1491820431
0.358154296875, -0.814941406250, 0.263183593750, -8.554687500000, 5.921875000000, -20.898437500000, 1491820431
0.358154296875, -0.814941406250, 0.263183593750, -8.554687500000, 5.921875000000, -20.898437500000, 1491820431
0.417968750000, -0.894042968750, 0.274169921875, -5.921875000000, -0.007812500000, -21.507812500000, 1491820431
0.417968750000, -0.894042968750, 0.274169921875, -5.921875000000, -0.007812500000, -21.507812500000, 1491820431
0.417968750000, -0.894042968750, 0.274169921875, -5.921875000000, -0.007812500000, -21.507812500000, 1491820431
0.292236328125, -0.904541015625, 0.273193359375, -3.828125000000, -13.234375000000, -27.015625000000, 1491820431
0.292236328125, -0.904541015625, 0.273193359375, -3.828125000000, -13.234375000000, -27.015625000000, 1491820431
0.292236328125, -0.904541015625, 0.273193359375, -3.828125000000, -13.234375000000, -27.015625000000, 1491820431
0.404052734375, -0.953125000000, 0.329833984375, -21.578125000000, -21.117187500000, -30.117187500000, 1491820431
0.404052734375, -0.953125000000, 0.329833984375, -21.578125000000, -21.117187500000, -30.117187500000, 1491820431
0.404052734375, -0.953125000000, 0.329833984375, -21.578125000000, -21.117187500000, -30.117187500000, 1491820431
0.404052734375, -0.953125000000, 0.329833984375, -21.578125000000, -21.117187500000, -30.117187500000, 1491820431
0.233642578125, -1.070800781250, 0.244384765625, -30.640625000000, -20.562500000000, -46.757812500000, 1491820431
0.233642578125, -1.070800781250, 0.244384765625, -30.640625000000, -20.562500000000, -46.757812500000, 1491820431
0.233642578125, -1.070800781250, 0.244384765625, -30.640625000000, -20.562500000000, -46.757812500000, 1491820431
0.574707031250, -1.047363281250, 0.160644531250, -36.328125000000, 2.367187500000, -37.273437500000, 1491820431
0.574707031250, -1.047363281250, 0.160644531250, -36.328125000000, 2.367187500000, -37.273437500000, 1491820431
0.574707031250, -1.047363281250, 0.160644531250, -36.328125000000, 2.367187500000, -37.273437500000, 1491820431
0.422363281250, -0.984619140625, 0.092285156250, -11.257812500000, -10.156250000000, -14.171875000000, 1491820431
0.422363281250, -0.984619140625, 0.092285156250, -11.257812500000, -10.156250000000, -14.171875000000, 1491820431
0.422363281250, -0.984619140625, 0.092285156250, -11.257812500000, -10.156250000000, -14.171875000000, 1491820431
0.332763671875, -0.842285156250, 0.101562500000, -6.460937500000, -13.578125000000, -0.882812500000, 1491820431
0.332763671875, -0.842285156250, 0.101562500000, -6.460937500000, -13.578125000000, -0.882812500000, 1491820431
0.332763671875, -0.842285156250, 0.101562500000, -6.460937500000, -13.578125000000, -0.882812500000, 1491820431
0.332763671875, -0.842285156250, 0.101562500000, -6.460937500000, -13.578125000000, -0.882812500000, 1491820431
0.254882812500, -0.745361328125, 0.213378906250, -23.789062500000, 6.687500000000, 1.960937500000, 1491820431
0.254882812500, -0.745361328125, 0.213378906250, -23.789062500000, 6.687500000000, 1.960937500000, 1491820431
0.254882812500, -0.745361328125, 0.213378906250, -23.789062500000, 6.687500000000, 1.960937500000, 1491820431
0.207275390625, -1.026611328125, 0.137207031250, -41.867187500000, -8.148437500000, -3.835937500000, 1491820431
0.207275390625, -1.026611328125, 0.137207031250, -41.867187500000, -8.148437500000, -3.835937500000, 1491820431
0.207275390625, -1.026611328125, 0.137207031250, -41.867187500000, -8.148437500000, -3.835937500000, 1491820431
0.151123046875, -1.202636718750, 0.093750000000, 5.320312500000, 20.109375000000, -21.398437500000, 1491820431
0.151123046875, -1.202636718750, 0.093750000000, 5.320312500000, 20.109375000000, -21.398437500000, 1491820431
0.151123046875, -1.202636718750, 0.093750000000, 5.320312500000, 20.109375000000, -21.398437500000, 1491820431
0.444824218750, -0.933837890625, 0.265869140625, 51.867187500000, -46.234375000000, -16.468750000000, 1491820431
0.444824218750, -0.933837890625, 0.265869140625, 51.867187500000, -46.234375000000, -16.468750000000, 1491820431
0.444824218750, -0.933837890625, 0.265869140625, 51.867187500000, -46.234375000000, -16.468750000000, 1491820431
0.444824218750, -0.933837890625, 0.265869140625, 51.867187500000, -46.234375000000, -16.468750000000, 1491820431
0.240478515625, -0.848876953125, 0.395263671875, 28.617187500000, 1.851562500000, -10.757812500000, 1491820431
0.240478515625, -0.848876953125, 0.395263671875, 28.617187500000, 1.851562500000, -10.757812500000, 1491820431
0.240478515625, -0.848876953125, 0.395263671875, 28.617187500000, 1.851562500000, -10.757812500000, 1491820431
0.265380859375, -0.895263671875, 0.229980468750, -18.984375000000, 72.742187500000, 8.867187500000, 1491820431
0.265380859375, -0.895263671875, 0.229980468750, -18.984375000000, 72.742187500000, 8.867187500000, 1491820431
0.265380859375, -0.895263671875, 0.229980468750, -18.984375000000, 72.742187500000, 8.867187500000, 1491820431
0.184326171875, -0.908935546875, 0.119140625000, 6.343750000000, 57.921875000000, -1.882812500000, 1491820431
0.184326171875, -0.908935546875, 0.119140625000, 6.343750000000, 57.921875000000, -1.882812500000, 1491820431
0.184326171875, -0.908935546875, 0.119140625000, 6.343750000000, 57.921875000000, -1.882812500000, 1491820431
0.186523437500, -0.986083984375, 0.177734375000, 46.742187500000, 6.562500000000, -9.390625000000, 1491820431
0.186523437500, -0.986083984375, 0.177734375000, 46.742187500000, 6.562500000000, -9.390625000000, 1491820431
0.186523437500, -0.986083984375, 0.177734375000, 46.742187500000, 6.562500000000, -9.390625000000, 1491820431
0.186523437500, -0.986083984375, 0.177734375000, 46.742187500000, 6.562500000000, -9.390625000000, 1491820431
0.226806640625, -0.863769531250, 0.343750000000, 29.250000000000, 17.234375000000, 2.687500000000, 1491820431
0.226806640625, -0.863769531250, 0.343750000000, 29.250000000000, 17.234375000000, 2.687500000000, 1491820431
0.226806640625, -0.863769531250, 0.343750000000, 29.250000000000, 17.234375000000, 2.687500000000, 1491820431
0.274658203125, -0.934814453125, 0.247802734375, -8.312500000000, 78.437500000000, 13.390625000000, 1491820431
0.274658203125, -0.934814453125, 0.247802734375, -8.312500000000, 78.437500000000, 13.390625000000, 1491820431
0.274658203125, -0.934814453125, 0.247802734375, -8.312500000000, 78.437500000000, 13.390625000000, 1491820431
0.342285156250, -0.913085937500, 0.219238281250, -0.757812500000, 100.796875000000, 25.171875000000, 1491820432
0.342285156250, -0.913085937500, 0.219238281250, -0.757812500000, 100.796875000000, 25.171875000000, 1491820432
0.134033203125, -0.969726562500, 0.185546875000, 7.734375000000, 66.046875000000, 33.789062500000, 1491820432
0.134033203125, -0.969726562500, 0.185546875000, 7.734375000000, 66.046875000000, 33.789062500000, 1491820432
0.134033203125, -0.969726562500, 0.185546875000, 7.734375000000, 66.046875000000, 33.789062500000, 1491820432
0.134033203125, -0.969726562500, 0.185546875000, 7.734375000000, 66.046875000000, 33.789062500000, 1491820432
0.134033203125, -0.969726562500, 0.185546875000, 7.734375000000, 66.046875000000, 33.789062500000, 1491820432
0.247070312500, -0.913085937500, 0.221435546875, 14.882812500000, 63.195312500000, 14.406250000000, 1491820432
0.247070312500, -0.913085937500, 0.221435546875, 14.882812500000, 63.195312500000, 14.406250000000, 1491820432
0.247070312500, -0.913085937500, 0.221435546875, 14.882812500000, 63.195312500000, 14.406250000000, 1491820432
0.473144531250, -1.018066406250, 0.107666015625, 2.343750000000, 66.398437500000, 25.031250000000, 1491820432
0.473144531250, -1.018066406250, 0.107666015625, 2.343750000000, 66.398437500000, 25.031250000000, 1491820432
0.473144531250, -1.018066406250, 0.107666015625, 2.343750000000, 66.398437500000, 25.031250000000, 1491820432
0.607177734375, -1.004882812500, 0.155761718750, 6.062500000000, 113.875000000000, 47.781250000000, 1491820432
0.607177734375, -1.004882812500, 0.155761718750, 6.062500000000, 113.875000000000, 47.781250000000, 1491820432
0.297363281250, -0.742675781250, 0.145263671875, -31.960937500000, 63.265625000000, 68.117187500000, 1491820432
0.297363281250, -0.742675781250, 0.145263671875, -31.960937500000, 63.265625000000, 68.117187500000, 1491820432
0.297363281250, -0.742675781250, 0.145263671875, -31.960937500000, 63.265625000000, 68.117187500000, 1491820432
0.354248046875, -0.843750000000, 0.036865234375, -19.289062500000, 58.632812500000, 60.085937500000, 1491820432
0.302001953125, -0.821777343750, 0.041015625000, -2.945312500000, 114.289062500000, 45.789062500000, 1491820432
0.302001953125, -0.821777343750, 0.041015625000, -2.945312500000, 114.289062500000, 45.789062500000, 1491820432
0.302001953125, -0.821777343750, 0.041015625000, -2.945312500000, 114.289062500000, 45.789062500000, 1491820432
0.302001953125, -0.821777343750, 0.041015625000, -2.945312500000, 114.289062500000, 45.789062500000, 1491820432
0.571777343750, -0.849609375000, -0.000244140625, 45.960937500000, 172.476562500000, 26.945312500000, 1491820432
0.571777343750, -0.849609375000, -0.000244140625, 45.960937500000, 172.476562500000, 26.945312500000, 1491820432
0.571777343750, -0.849609375000, -0.000244140625, 45.960937500000, 172.476562500000, 26.945312500000, 1491820432
0.556396484375, -0.842529296875, -0.020751953125, 94.859375000000, 122.609375000000, 27.906250000000, 1491820432
0.556396484375, -0.842529296875, -0.020751953125, 94.859375000000, 122.609375000000, 27.906250000000, 1491820432
0.556396484375, -0.842529296875, -0.020751953125, 94.859375000000, 122.609375000000, 27.906250000000, 1491820432
0.632080078125, -0.947265625000, 0.033447265625, 109.789062500000, -16.953125000000, 17.195312500000, 1491820432
0.632080078125, -0.947265625000, 0.033447265625, 109.789062500000, -16.953125000000, 17.195312500000, 1491820432
0.632080078125, -0.947265625000, 0.033447265625, 109.789062500000, -16.953125000000, 17.195312500000, 1491820432
0.632080078125, -0.947265625000, 0.033447265625, 109.789062500000, -16.953125000000, 17.195312500000, 1491820432
0.397949218750, -0.890869140625, 0.488037109375, 171.710937500000, -66.921875000000, -32.132812500000, 1491820432
0.397949218750, -0.890869140625, 0.488037109375, 171.710937500000, -66.921875000000, -32.132812500000, 1491820432
0.397949218750, -0.890869140625, 0.488037109375, 171.710937500000, -66.921875000000, -32.132812500000, 1491820432
0.583251953125, -0.770263671875, 0.314453125000, -39.601562500000, 125.484375000000, -13.968750000000, 1491820432
0.583251953125, -0.770263671875, 0.314453125000, -39.601562500000, 125.484375000000, -13.968750000000, 1491820432
0.583251953125, -0.770263671875, 0.314453125000, -39.601562500000, 125.484375000000, -13.968750000000, 1491820432
0.575195312500, -0.881103515625, -0.021972656250, -2.375000000000, 192.023437500000, 14.257812500000, 1491820432
0.575195312500, -0.881103515625, -0.021972656250, -2.375000000000, 192.023437500000, 14.257812500000, 1491820432
0.575195312500, -0.881103515625, -0.021972656250, -2.375000000000, 192.023437500000, 14.257812500000, 1491820432
0.461425781250, -0.880859375000, 0.032470703125, -1.179687500000, 80.289062500000, -13.570312500000, 1491820432
0.461425781250, -0.880859375000, 0.032470703125, -1.179687500000, 80.289062500000, -13.570312500000, 1491820432
0.461425781250, -0.880859375000, 0.032470703125, -1.179687500000, 80.289062500000, -13.570312500000, 1491820432
0.461425781250, -0.880859375000, 0.032470703125, -1.179687500000, 80.289062500000, -13.570312500000, 1491820432
0.457763671875, -0.896728515625, 0.034667968750, 44.296875000000, 84.546875000000, -30.375000000000, 1491820432
0.457763671875, -0.896728515625, 0.034667968750, 44.296875000000, 84.546875000000, -30.375000000000, 1491820432
0.457763671875, -0.896728515625, 0.034667968750, 44.296875000000, 84.546875000000, -30.375000000000, 1491820432
0.400634765625, -0.954101562500, 0.265625000000, 76.820312500000, 36.765625000000, -35.070312500000, 1491820432
0.400634765625, -0.954101562500, 0.265625000000, 76.820312500000, 36.765625000000, -35.070312500000, 1491820432
0.400634765625, -0.954101562500, 0.265625000000, 76.820312500000, 36.765625000000, -35.070312500000, 1491820432
0.292236328125, -0.992187500000, 0.375000000000, 18.929687500000, 25.398437500000, -50.070312500000, 1491820432
0.292236328125, -0.992187500000, 0.375000000000, 18.929687500000, 25.398437500000, -50.070312500000, 1491820432
0.292236328125, -0.992187500000, 0.375000000000, 18.929687500000, 25.398437500000, -50.070312500000, 1491820432
0.568115234375, -1.135253906250, 0.031982421875, -42.062500000000, 124.898437500000, -17.289062500000, 1491820432
0.568115234375, -1.135253906250, 0.031982421875, -42.062500000000, 124.898437500000, -17.289062500000, 1491820432
0.568115234375, -1.135253906250, 0.031982421875, -42.062500000000, 124.898437500000, -17.289062500000, 1491820432
0.568115234375, -1.135253906250, 0.031982421875, -42.062500000000, 124.898437500000, -17.289062500000, 1491820432
0.425292968750, -0.919433593750, 0.088623046875, -18.820312500000, 91.453125000000, -14.523437500000, 1491820432
0.425292968750, -0.919433593750, 0.088623046875, -18.820312500000, 91.453125000000, -14.523437500000, 1491820432
0.425292968750, -0.919433593750, 0.088623046875, -18.820312500000, 91.453125000000, -14.523437500000, 1491820432
0.304931640625, -0.868164062500, -0.014648437500, -13.046875000000, 88.507812500000, -0.859375000000, 1491820432
0.304931640625, -0.868164062500, -0.014648437500, -13.046875000000, 88.507812500000, -0.859375000000, 1491820432
0.304931640625, -0.868164062500, -0.014648437500, -13.046875000000, 88.507812500000, -0.859375000000, 1491820432
0.269287109375, -0.774169921875, 0.080566406250, -15.203125000000, 85.664062500000, 16.835937500000, 1491820433
0.269287109375, -0.774169921875, 0.080566406250, -15.203125000000, 85.664062500000, 16.835937500000, 1491820433
0.269287109375, -0.774169921875, 0.080566406250, -15.203125000000, 85.664062500000, 16.835937500000, 1491820433
0.049072265625, -1.252441406250, 0.142089843750, -28.226562500000, 104.070312500000, 17.773437500000, 1491820433
0.049072265625, -1.252441406250, 0.142089843750, -28.226562500000, 104.070312500000, 17.773437500000, 1491820433
0.049072265625, -1.252441406250, 0.142089843750, -28.226562500000, 104.070312500000, 17.773437500000, 1491820433
0.049072265625, -1.252441406250, 0.142089843750, -28.226562500000, 104.070312500000, 17.773437500000, 1491820433
0.226806640625, -0.973632812500, 0.057617187500, 11.320312500000, 153.390625000000, 17.109375000000, 1491820433
0.226806640625, -0.973632812500, 0.057617187500, 11.320312500000, 153.390625000000, 17.109375000000, 1491820433
0.226806640625, -0.973632812500, 0.057617187500, 11.320312500000, 153.390625000000, 17.109375000000, 1491820433
0.306152343750, -0.900878906250, 0.066650390625, 31.304687500000, 131.835937500000, 30.773437500000, 1491820433
0.306152343750, -0.900878906250, 0.066650390625, 31.304687500000, 131.835937500000, 30.773437500000, 1491820433
0.306152343750, -0.900878906250, 0.066650390625, 31.304687500000, 131.835937500000, 30.773437500000, 1491820433
0.115234375000, -0.941162109375, 0.108398437500, 51.156250000000, 88.757812500000, 42.585937500000, 1491820433
0.115234375000, -0.941162109375, 0.108398437500, 51.156250000000, 88.757812500000, 42.585937500000, 1491820433
0.115234375000, -0.941162109375, 0.108398437500, 51.156250000000, 88.757812500000, 42.585937500000, 1491820433
0.058105468750, -1.004150390625, 0.313720703125, 55.054687500000, 76.703125000000, 5.859375000000, 1491820433
0.058105468750, -1.004150390625, 0.313720703125, 55.054687500000, 76.703125000000, 5.859375000000, 1491820433
0.058105468750, -1.004150390625, 0.313720703125, 55.054687500000, 76.703125000000, 5.859375000000, 1491820433
0.058105468750, -1.004150390625, 0.313720703125, 55.054687500000, 76.703125000000, 5.859375000000, 1491820433
0.271972656250, -0.994384765625, 0.182617187500, 23.726562500000, 127.804687500000, 26.507812500000, 1491820433
0.271972656250, -0.994384765625, 0.182617187500, 23.726562500000, 127.804687500000, 26.507812500000, 1491820433
0.271972656250, -0.994384765625, 0.182617187500, 23.726562500000, 127.804687500000, 26.507812500000, 1491820433
0.151367187500, -1.021728515625, 0.203613281250, 14.289062500000, 125.695312500000, 36.820312500000, 1491820433
0.151367187500, -1.021728515625, 0.203613281250, 14.289062500000, 125.695312500000, 36.820312500000, 1491820433
0.151367187500, -1.021728515625, 0.203613281250, 14.289062500000, 125.695312500000, 36.820312500000, 1491820433
0.131591796875, -0.800781250000, 0.163085937500, 26.671875000000, 106.734375000000, 29.335937500000, 1491820433
0.131591796875, -0.800781250000, 0.163085937500, 26.671875000000, 106.734375000000, 29.335937500000, 1491820433
0.131591796875, -0.800781250000, 0.163085937500, 26.671875000000, 106.734375000000, 29.335937500000, 1491820433
0.211181640625, -0.874511718750, 0.223144531250, 44.867187500000, 66.046875000000, 12.007812500000, 1491820433
0.211181640625, -0.874511718750, 0.223144531250, 44.867187500000, 66.046875000000, 12.007812500000, 1491820433
0.211181640625, -0.874511718750, 0.223144531250, 44.867187500000, 66.046875000000, 12.007812500000, 1491820433
0.211181640625, -0.874511718750, 0.223144531250, 44.867187500000, 66.046875000000, 12.007812500000, 1491820433
0.167236328125, -0.876708984375, 0.219482421875, 31.843750000000, 62.398437500000, 8.523437500000, 1491820433
0.167236328125, -0.876708984375, 0.219482421875, 31.843750000000, 62.398437500000, 8.523437500000, 1491820433
0.167236328125, -0.876708984375, 0.219482421875, 31.843750000000, 62.398437500000, 8.523437500000, 1491820433
0.276855468750, -0.850830078125, 0.223632812500, 16.828125000000, 39.320312500000, 17.117187500000, 1491820433
0.276855468750, -0.850830078125, 0.223632812500, 16.828125000000, 39.320312500000, 17.117187500000, 1491820433
0.276855468750, -0.850830078125, 0.223632812500, 16.828125000000, 39.320312500000, 17.117187500000, 1491820433
0.276855468750, -0.850830078125, 0.223632812500, 16.828125000000, 39.320312500000, 17.117187500000, 1491820433
0.276855468750, -0.850830078125, 0.223632812500, 16.828125000000, 39.320312500000, 17.117187500000, 1491820433
0.398193359375, -1.018554687500, 0.276123046875, 19.273437500000, 34.273437500000, 17.148437500000, 1491820433
0.398193359375, -1.018554687500, 0.276123046875, 19.273437500000, 34.273437500000, 17.148437500000, 1491820433
