ACC_X,ACC_Y,ACC_Z,G_X,G_Y,G_Z,Unix Time
0.515869140625, -0.834228515625, -0.299316406250, 23.609375000000, -24.367187500000, 21.562500000000, 1491820974
0.515869140625, -0.834228515625, -0.299316406250, 23.609375000000, -24.367187500000, 21.562500000000, 1491820974
0.515869140625, -0.834228515625, -0.299316406250, 23.609375000000, -24.367187500000, 21.562500000000, 1491820975
0.405029296875, -0.787109375000, -0.335205078125, 23.460937500000, -45.187500000000, 33.000000000000, 1491820975
0.405029296875, -0.787109375000, -0.335205078125, 23.460937500000, -45.187500000000, 33.000000000000, 1491820975
0.405029296875, -0.787109375000, -0.335205078125, 23.460937500000, -45.187500000000, 33.000000000000, 1491820975
0.510742187500, -0.789306640625, -0.323730468750, 5.648437500000, -42.679687500000, 25.859375000000, 1491820975
0.510742187500, -0.789306640625, -0.323730468750, 5.648437500000, -42.679687500000, 25.859375000000, 1491820975
0.443603515625, -0.897949218750, -0.384033203125, 6.179687500000, -28.000000000000, 19.171875000000, 1491820975
0.443603515625, -0.897949218750, -0.384033203125, 6.179687500000, -28.000000000000, 19.171875000000, 1491820975
0.443603515625, -0.897949218750, -0.384033203125, 6.179687500000, -28.000000000000, 19.171875000000, 1491820975
0.443603515625, -0.897949218750, -0.384033203125, 6.179687500000, -28.000000000000, 19.171875000000, 1491820975
0.443603515625, -0.897949218750, -0.384033203125, 6.179687500000, -28.000000000000, 19.171875000000, 1491820975
0.373779296875, -0.826904296875, -0.293945312500, -12.515625000000, 5.062500000000, -1.703125000000, 1491820975
0.373779296875, -0.826904296875, -0.293945312500, -12.515625000000, 5.062500000000, -1.703125000000, 1491820975
0.373779296875, -0.826904296875, -0.293945312500, -12.515625000000, 5.062500000000, -1.703125000000, 1491820975
0.445556640625, -0.791748046875, -0.302001953125, -20.960937500000, 42.367187500000, -25.976562500000, 1491820975
0.445556640625, -0.791748046875, -0.302001953125, -20.960937500000, 42.367187500000, -25.976562500000, 1491820975
0.445556640625, -0.791748046875, -0.302001953125, -20.960937500000, 42.367187500000, -25.976562500000, 1491820975
0.442626953125, -0.872558593750, -0.382812500000, -27.390625000000, 42.968750000000, -33.484375000000, 1491820975
0.442626953125, -0.872558593750, -0.382812500000, -27.390625000000, 42.968750000000, -33.484375000000, 1491820975
0.442626953125, -0.872558593750, -0.382812500000, -27.390625000000, 42.968750000000, -33.484375000000, 1491820975
0.442626953125, -0.872558593750, -0.382812500000, -27.390625000000, 42.968750000000, -33.484375000000, 1491820975
0.503662109375, -0.802734375000, -0.336181640625, -31.460937500000, 34.203125000000, -29.398437500000, 1491820975
0.503662109375, -0.802734375000, -0.336181640625, -31.460937500000, 34.203125000000, -29.398437500000, 1491820975
0.503662109375, -0.802734375000, -0.336181640625, -31.460937500000, 34.203125000000, -29.398437500000, 1491820975
0.467773437500, -0.903076171875, -0.298828125000, -30.757812500000, 32.664062500000, -30.382812500000, 1491820975
0.467773437500, -0.903076171875, -0.298828125000, -30.757812500000, 32.664062500000, -30.382812500000, 1491820975
0.467773437500, -0.903076171875, -0.298828125000, -30.757812500000, 32.664062500000, -30.382812500000, 1491820975
0.365966796875, -0.784423828125, -0.440429687500, -20.507812500000, 24.273437500000, -20.679687500000, 1491820975
0.365966796875, -0.784423828125, -0.440429687500, -20.507812500000, 24.273437500000, -20.679687500000, 1491820975
0.365966796875, -0.784423828125, -0.440429687500, -20.507812500000, 24.273437500000, -20.679687500000, 1491820975
0.400390625000, -0.740234375000, -0.309814453125, -12.015625000000, -2.140625000000, -8.109375000000, 1491820975
0.400390625000, -0.740234375000, -0.309814453125, -12.015625000000, -2.140625000000, -8.109375000000, 1491820975
0.400390625000, -0.740234375000, -0.309814453125, -12.015625000000, -2.140625000000, -8.109375000000, 1491820975
0.400390625000, -0.740234375000, -0.309814453125, -12.015625000000, -2.140625000000, -8.109375000000, 1491820975
0.406738281250, -0.748779296875, -0.397216796875, -2.062500000000, -7.312500000000, -0.882812500000, 1491820975
0.406738281250, -0.748779296875, -0.397216796875, -2.062500000000, -7.312500000000, -0.882812500000, 1491820975
0.406738281250, -0.748779296875, -0.397216796875, -2.062500000000, -7.312500000000, -0.882812500000, 1491820975
0.410888671875, -0.864501953125, -0.306884765625, 14.968750000000, -13.625000000000, 9.187500000000, 1491820975
0.410888671875, -0.864501953125, -0.306884765625, 14.968750000000, -13.625000000000, 9.187500000000, 1491820975
0.410888671875, -0.864501953125, -0.306884765625, 14.968750000000, -13.625000000000, 9.187500000000, 1491820975
0.410156250000, -0.725830078125, -0.396240234375, 17.750000000000, -14.265625000000, 16.179687500000, 1491820975
0.410156250000, -0.725830078125, -0.396240234375, 17.750000000000, -14.265625000000, 16.179687500000, 1491820975
0.410156250000, -0.725830078125, -0.396240234375, 17.750000000000, -14.265625000000, 16.179687500000, 1491820975
0.434082031250, -0.737548828125, -0.301757812500, 30.078125000000, -17.171875000000, 18.828125000000, 1491820975
0.434082031250, -0.737548828125, -0.301757812500, 30.078125000000, -17.171875000000, 18.828125000000, 1491820975
0.434082031250, -0.737548828125, -0.301757812500, 30.078125000000, -17.171875000000, 18.828125000000, 1491820975
0.434082031250, -0.737548828125, -0.301757812500, 30.078125000000, -17.171875000000, 18.828125000000, 1491820975
0.414306640625, -0.887939453125, -0.364990234375, 23.664062500000, -19.171875000000, 15.289062500000, 1491820975
0.414306640625, -0.887939453125, -0.364990234375, 23.664062500000, -19.171875000000, 15.289062500000, 1491820975
0.414306640625, -0.887939453125, -0.364990234375, 23.664062500000, -19.171875000000, 15.289062500000, 1491820975
0.484619140625, -0.841308593750, -0.372558593750, 18.710937500000, -25.000000000000, 17.335937500000, 1491820975
0.484619140625, -0.841308593750, -0.372558593750, 18.710937500000, -25.000000000000, 17.335937500000, 1491820975
0.484619140625, -0.841308593750, -0.372558593750, 18.710937500000, -25.000000000000, 17.335937500000, 1491820975
0.507568359375, -0.787353515625, -0.351806640625, 0.109375000000, -23.218750000000, 11.171875000000, 1491820975
0.507568359375, -0.787353515625, -0.351806640625, 0.109375000000, -23.218750000000, 11.171875000000, 1491820975
0.507568359375, -0.787353515625, -0.351806640625, 0.109375000000, -23.218750000000, 11.171875000000, 1491820975
0.447265625000, -0.800781250000, -0.288330078125, -17.554687500000, 1.164062500000, -7.734375000000, 1491820975
0.447265625000, -0.800781250000, -0.288330078125, -17.554687500000, 1.164062500000, -7.734375000000, 1491820975
0.497070312500, -0.821044921875, -0.381103515625, -25.625000000000, 27.625000000000, -23.671875000000, 1491820975
0.497070312500, -0.821044921875, -0.381103515625, -25.625000000000, 27.625000000000, -23.671875000000, 1491820975
0.497070312500, -0.821044921875, -0.381103515625, -25.625000000000, 27.625000000000, -23.671875000000, 1491820975
0.497070312500, -0.821044921875, -0.381103515625, -25.625000000000, 27.625000000000, -23.671875000000, 1491820975
0.497070312500, -0.821044921875, -0.381103515625, -25.625000000000, 27.625000000000, -23.671875000000, 1491820975
0.525390625000, -0.829833984375, -0.320800781250, -21.296875000000, 39.804687500000, -34.460937500000, 1491820975
0.525390625000, -0.829833984375, -0.320800781250, -21.296875000000, 39.804687500000, -34.460937500000, 1491820975
0.525390625000, -0.829833984375, -0.320800781250, -21.296875000000, 39.804687500000, -34.460937500000, 1491820975
0.426269531250, -0.836181640625, -0.285888671875, -29.750000000000, 33.226562500000, -37.750000000000, 1491820975
0.426269531250, -0.836181640625, -0.285888671875, -29.750000000000, 33.226562500000, -37.750000000000, 1491820975
0.426269531250, -0.836181640625, -0.285888671875, -29.750000000000, 33.226562500000, -37.750000000000, 1491820975
0.411865234375, -0.810546875000, -0.395507812500, -23.578125000000, 5.117187500000, -22.242187500000, 1491820976
0.411865234375, -0.810546875000, -0.395507812500, -23.578125000000, 5.117187500000, -22.242187500000, 1491820976
0.411865234375, -0.810546875000, -0.395507812500, -23.578125000000, 5.117187500000, -22.242187500000, 1491820976
0.411865234375, -0.810546875000, -0.395507812500, -23.578125000000, 5.117187500000, -22.242187500000, 1491820976
0.421875000000, -0.855712890625, -0.375244140625, -28.085937500000, -3.296875000000, -7.718750000000, 1491820976
0.421875000000, -0.855712890625, -0.375244140625, -28.085937500000, -3.296875000000, -7.718750000000, 1491820976
0.421875000000, -0.855712890625, -0.375244140625, -28.085937500000, -3.296875000000, -7.718750000000, 1491820976
0.422363281250, -0.827392578125, -0.375732421875, -17.796875000000, -31.492187500000, 7.140625000000, 1491820976
0.422363281250, -0.827392578125, -0.375732421875, -17.796875000000, -31.492187500000, 7.140625000000, 1491820976
0.422363281250, -0.827392578125, -0.375732421875, -17.796875000000, -31.492187500000, 7.140625000000, 1491820976
0.526123046875, -0.784912109375, -0.365722656250, -19.984375000000, -46.539062500000, 16.101562500000, 1491820976
0.526123046875, -0.784912109375, -0.365722656250, -19.984375000000, -46.539062500000, 16.101562500000, 1491820976
0.526123046875, -0.784912109375, -0.365722656250, -19.984375000000, -46.539062500000, 16.101562500000, 1491820976
0.515136718750, -0.805664062500, -0.382324218750, 11.148437500000, -28.242187500000, 13.390625000000, 1491820976
0.515136718750, -0.805664062500, -0.382324218750, 11.148437500000, -28.242187500000, 13.390625000000, 1491820976
0.515136718750, -0.805664062500, -0.382324218750, 11.148437500000, -28.242187500000, 13.390625000000, 1491820976
0.515136718750, -0.805664062500, -0.382324218750, 11.148437500000, -28.242187500000, 13.390625000000, 1491820976
0.433837890625, -0.886230468750, -0.291748046875, 14.945312500000, -2.304687500000, 0.148437500000, 1491820976
0.433837890625, -0.886230468750, -0.291748046875, 14.945312500000, -2.304687500000, 0.148437500000, 1491820976
0.433837890625, -0.886230468750, -0.291748046875, 14.945312500000, -2.304687500000, 0.148437500000, 1491820976
0.484863281250, -0.865478515625, -0.329345703125, 23.132812500000, 18.726562500000, -2.414062500000, 1491820976
0.484863281250, -0.865478515625, -0.329345703125, 23.132812500000, 18.726562500000, -2.414062500000, 1491820976
0.484863281250, -0.865478515625, -0.329345703125, 23.132812500000, 18.726562500000, -2.414062500000, 1491820976
0.406738281250, -0.885009765625, -0.310546875000, 32.234375000000, 7.718750000000, 0.546875000000, 1491820976
0.406738281250, -0.885009765625, -0.310546875000, 32.234375000000, 7.718750000000, 0.546875000000, 1491820976
0.406738281250, -0.885009765625, -0.310546875000, 32.234375000000, 7.718750000000, 0.546875000000, 1491820976
0.465820312500, -0.801025390625, -0.355957031250, 9.054687500000, -28.992187500000, 11.859375000000, 1491820976
0.465820312500, -0.801025390625, -0.355957031250, 9.054687500000, -28.992187500000, 11.859375000000, 1491820976
0.465820312500, -0.801025390625, -0.355957031250, 9.054687500000, -28.992187500000, 11.859375000000, 1491820976
0.465820312500, -0.801025390625, -0.355957031250, 9.054687500000, -28.992187500000, 11.859375000000, 1491820976
0.350097656250, -0.813964843750, -0.341064453125, 6.703125000000, -42.281250000000, 18.312500000000, 1491820976
0.350097656250, -0.813964843750, -0.341064453125, 6.703125000000, -42.281250000000, 18.312500000000, 1491820976
0.350097656250, -0.813964843750, -0.341064453125, 6.703125000000, -42.281250000000, 18.312500000000, 1491820976
0.568847656250, -0.961669921875, -0.318847656250, -5.976562500000, -16.328125000000, 5.351562500000, 1491820976
0.568847656250, -0.961669921875, -0.318847656250, -5.976562500000, -16.328125000000, 5.351562500000, 1491820976
0.568847656250, -0.961669921875, -0.318847656250, -5.976562500000, -16.328125000000, 5.351562500000, 1491820976
0.439453125000, -0.846679687500, -0.397216796875, -5.234375000000, 3.914062500000, -5.203125000000, 1491820976
0.439453125000, -0.846679687500, -0.397216796875, -5.234375000000, 3.914062500000, -5.203125000000, 1491820976
0.439453125000, -0.846679687500, -0.397216796875, -5.234375000000, 3.914062500000, -5.203125000000, 1491820976
0.429199218750, -0.840820312500, -0.316650390625, -46.242187500000, 42.601562500000, -25.593750000000, 1491820976
0.429199218750, -0.840820312500, -0.316650390625, -46.242187500000, 42.601562500000, -25.593750000000, 1491820976
0.429199218750, -0.840820312500, -0.316650390625, -46.242187500000, 42.601562500000, -25.593750000000, 1491820976
0.429199218750, -0.840820312500, -0.316650390625, -46.242187500000, 42.601562500000, -25.593750000000, 1491820976
0.357421875000, -0.784179687500, -0.394775390625, -50.351562500000, 31.343750000000, -21.460937500000, 1491820976
0.357421875000, -0.784179687500, -0.394775390625, -50.351562500000, 31.343750000000, -21.460937500000, 1491820976
0.357421875000, -0.784179687500, -0.394775390625, -50.351562500000, 31.343750000000, -21.460937500000, 1491820976
0.419189453125, -0.831054687500, -0.300537109375, -42.437500000000, 22.281250000000, -20.382812500000, 1491820976
0.419189453125, -0.831054687500, -0.300537109375, -42.437500000000, 22.281250000000, -20.382812500000, 1491820976
0.419189453125, -0.831054687500, -0.300537109375, -42.437500000000, 22.281250000000, -20.382812500000, 1491820976
0.526367187500, -0.945312500000, -0.339111328125, -25.851562500000, 14.851562500000, -13.882812500000, 1491820976
0.526367187500, -0.945312500000, -0.339111328125, -25.851562500000, 14.851562500000, -13.882812500000, 1491820976
0.526367187500, -0.945312500000, -0.339111328125, -25.851562500000, 14.851562500000, -13.882812500000, 1491820976
0.401855468750, -0.792968750000, -0.381103515625, -7.468750000000, 8.351562500000, -6.429687500000, 1491820976
0.401855468750, -0.792968750000, -0.381103515625, -7.468750000000, 8.351562500000, -6.429687500000, 1491820976
0.401855468750, -0.792968750000, -0.381103515625, -7.468750000000, 8.351562500000, -6.429687500000, 1491820976
0.401855468750, -0.792968750000, -0.381103515625, -7.468750000000, 8.351562500000, -6.429687500000, 1491820976
0.516601562500, -0.815917968750, -0.284912109375, -1.492187500000, -10.007812500000, -0.531250000000, 1491820976
0.516601562500, -0.815917968750, -0.284912109375, -1.492187500000, -10.007812500000, -0.531250000000, 1491820976
0.516601562500, -0.815917968750, -0.284912109375, -1.492187500000, -10.007812500000, -0.531250000000, 1491820976
0.508056640625, -0.807128906250, -0.282958984375, 15.554687500000, -26.578125000000, 11.765625000000, 1491820976
0.508056640625, -0.807128906250, -0.282958984375, 15.554687500000, -26.578125000000, 11.765625000000, 1491820976
0.508056640625, -0.807128906250, -0.282958984375, 15.554687500000, -26.578125000000, 11.765625000000, 1491820976
0.505615234375, -0.878417968750, -0.394531250000, 23.992187500000, -24.968750000000, 9.109375000000, 1491820976
0.505615234375, -0.878417968750, -0.394531250000, 23.992187500000, -24.968750000000, 9.109375000000, 1491820976
0.505615234375, -0.878417968750, -0.394531250000, 23.992187500000, -24.968750000000, 9.109375000000, 1491820976
0.446777343750, -0.867187500000, -0.356201171875, 39.398437500000, -0.992187500000, 0.085937500000, 1491820977
0.446777343750, -0.867187500000, -0.356201171875, 39.398437500000, -0.992187500000, 0.085937500000, 1491820977
0.446777343750, -0.867187500000, -0.356201171875, 39.398437500000, -0.992187500000, 0.085937500000, 1491820977
0.455322265625, -0.811767578125, -0.306396484375, 33.664062500000, 13.062500000000, -6.476562500000, 1491820977
0.455322265625, -0.811767578125, -0.306396484375, 33.664062500000, 13.062500000000, -6.476562500000, 1491820977
0.455322265625, -0.811767578125, -0.306396484375, 33.664062500000, 13.062500000000, -6.476562500000, 1491820977
0.412841796875, -0.880615234375, -0.340087890625, 30.164062500000, 1.773437500000, -2.453125000000, 1491820977
0.412841796875, -0.880615234375, -0.340087890625, 30.164062500000, 1.773437500000, -2.453125000000, 1491820977
0.487060546875, -0.852539062500, -0.405029296875, 20.914062500000, -18.203125000000, 14.945312500000, 1491820977
0.487060546875, -0.852539062500, -0.405029296875, 20.914062500000, -18.203125000000, 14.945312500000, 1491820977
0.487060546875, -0.852539062500, -0.405029296875, 20.914062500000, -18.203125000000, 14.945312500000, 1491820977
0.487060546875, -0.852539062500, -0.405029296875, 20.914062500000, -18.203125000000, 14.945312500000, 1491820977
0.487060546875, -0.852539062500, -0.405029296875, 20.914062500000, -18.203125000000, 14.945312500000, 1491820977
0.447998046875, -0.843750000000, -0.322998046875, -4.132812500000, -14.640625000000, 1.960937500000, 1491820977
0.447998046875, -0.843750000000, -0.322998046875, -4.132812500000, -14.640625000000, 1.960937500000, 1491820977
0.447998046875, -0.843750000000, -0.322998046875, -4.132812500000, -14.640625000000, 1.960937500000, 1491820977
0.447998046875, -0.843750000000, -0.322998046875, -4.132812500000, -14.640625000000, 1.960937500000, 1491820977
0.430419921875, -0.814208984375, -0.293701171875, -12.351562500000, 25.390625000000, -18.281250000000, 1491820977
0.430419921875, -0.814208984375, -0.293701171875, -12.351562500000, 25.390625000000, -18.281250000000, 1491820977
0.430419921875, -0.814208984375, -0.293701171875, -12.351562500000, 25.390625000000, -18.281250000000, 1491820977
0.436035156250, -0.802001953125, -0.321289062500, -29.359375000000, 33.539062500000, -21.781250000000, 1491820977
0.436035156250, -0.802001953125, -0.321289062500, -29.359375000000, 33.539062500000, -21.781250000000, 1491820977
0.436035156250, -0.802001953125, -0.321289062500, -29.359375000000, 33.539062500000, -21.781250000000, 1491820977
0.454833984375, -0.761718750000, -0.292724609375, -29.898437500000, -10.726562500000, -1.843750000000, 1491820977
0.454833984375, -0.761718750000, -0.292724609375, -29.898437500000, -10.726562500000, -1.843750000000, 1491820977
0.454833984375, -0.761718750000, -0.292724609375, -29.898437500000, -10.726562500000, -1.843750000000, 1491820977
0.380859375000, -0.664550781250, -0.317382812500, -5.328125000000, 6.375000000000, 14.210937500000, 1491820977
0.380859375000, -0.664550781250, -0.317382812500, -5.328125000000, 6.375000000000, 14.210937500000, 1491820977
0.380859375000, -0.664550781250, -0.317382812500, -5.328125000000, 6.375000000000, 14.210937500000, 1491820977
0.380859375000, -0.664550781250, -0.317382812500, -5.328125000000, 6.375000000000, 14.210937500000, 1491820977
0.501464843750, -0.722412109375, -0.298339843750, -18.992187500000, 1.179687500000, 0.210937500000, 1491820977
0.501464843750, -0.722412109375, -0.298339843750, -18.992187500000, 1.179687500000, 0.210937500000, 1491820977
0.501464843750, -0.722412109375, -0.298339843750, -18.992187500000, 1.179687500000, 0.210937500000, 1491820977
0.419189453125, -0.729248046875, -0.392578125000, 26.601562500000, -4.867187500000, 4.335937500000, 1491820977
0.419189453125, -0.729248046875, -0.392578125000, 26.601562500000, -4.867187500000, 4.335937500000, 1491820977
0.419189453125, -0.729248046875, -0.392578125000, 26.601562500000, -4.867187500000, 4.335937500000, 1491820977
0.469482421875, -0.834228515625, -0.447753906250, 21.968750000000, -20.312500000000, 23.828125000000, 1491820977
0.469482421875, -0.834228515625, -0.447753906250, 21.968750000000, -20.312500000000, 23.828125000000, 1491820977
0.590332031250, -0.844238281250, -0.309570312500, 72.109375000000, -16.640625000000, 21.945312500000, 1491820977
0.590332031250, -0.844238281250, -0.309570312500, 72.109375000000, -16.640625000000, 21.945312500000, 1491820977
0.590332031250, -0.844238281250, -0.309570312500, 72.109375000000, -16.640625000000, 21.945312500000, 1491820977
0.590332031250, -0.844238281250, -0.309570312500, 72.109375000000, -16.640625000000, 21.945312500000, 1491820977
0.590332031250, -0.844238281250, -0.309570312500, 72.109375000000, -16.640625000000, 21.945312500000, 1491820977
0.556640625000, -1.007080078125, -0.360839843750, 64.851562500000, -36.171875000000, 15.101562500000, 1491820977
0.556640625000, -1.007080078125, -0.360839843750, 64.851562500000, -36.171875000000, 15.101562500000, 1491820977
0.556640625000, -1.007080078125, -0.360839843750, 64.851562500000, -36.171875000000, 15.101562500000, 1491820977
0.544433593750, -0.871337890625, -0.386230468750, 60.687500000000, -40.015625000000, 19.953125000000, 1491820977
0.544433593750, -0.871337890625, -0.386230468750, 60.687500000000, -40.015625000000, 19.953125000000, 1491820977
0.544433593750, -0.871337890625, -0.386230468750, 60.687500000000, -40.015625000000, 19.953125000000, 1491820977
0.518554687500, -0.841308593750, -0.318603515625, 11.031250000000, 7.492187500000, -22.070312500000, 1491820977
0.518554687500, -0.841308593750, -0.318603515625, 11.031250000000, 7.492187500000, -22.070312500000, 1491820977
0.518554687500, -0.841308593750, -0.318603515625, 11.031250000000, 7.492187500000, -22.070312500000, 1491820977
0.552734375000, -0.764404296875, -0.369384765625, -82.710937500000, 74.773437500000, -28.250000000000, 1491820977
0.552734375000, -0.764404296875, -0.369384765625, -82.710937500000, 74.773437500000, -28.250000000000, 1491820977
0.552734375000, -0.764404296875, -0.369384765625, -82.710937500000, 74.773437500000, -28.250000000000, 1491820977
0.552734375000, -0.764404296875, -0.369384765625, -82.710937500000, 74.773437500000, -28.250000000000, 1491820977
0.556152343750, -1.006103515625, -0.434326171875, -136.929687500000, -90.656250000000, 28.171875000000, 1491820977
0.556152343750, -1.006103515625, -0.434326171875, -136.929687500000, -90.656250000000, 28.171875000000, 1491820977
0.556152343750, -1.006103515625, -0.434326171875, -136.929687500000, -90.656250000000, 28.171875000000, 1491820977
0.587402343750, -1.017089843750, -0.444824218750, -154.679687500000, -58.476562500000, 10.093750000000, 1491820977
0.587402343750, -1.017089843750, -0.444824218750, -154.679687500000, -58.476562500000, 10.093750000000, 1491820977
0.587402343750, -1.017089843750, -0.444824218750, -154.679687500000, -58.476562500000, 10.093750000000, 1491820977
0.558349609375, -0.873535156250, -0.502685546875, -124.468750000000, 37.078125000000, -36.351562500000, 1491820977
0.558349609375, -0.873535156250, -0.502685546875, -124.468750000000, 37.078125000000, -36.351562500000, 1491820977
0.558349609375, -0.873535156250, -0.502685546875, -124.468750000000, 37.078125000000, -36.351562500000, 1491820977
0.485107421875, -0.871093750000, -0.415039062500, -45.351562500000, 77.781250000000, -36.812500000000, 1491820977
0.485107421875, -0.871093750000, -0.415039062500, -45.351562500000, 77.781250000000, -36.812500000000, 1491820978
0.485107421875, -0.871093750000, -0.415039062500, -45.351562500000, 77.781250000000, -36.812500000000, 1491820978
0.485107421875, -0.871093750000, -0.415039062500, -45.351562500000, 77.781250000000, -36.812500000000, 1491820978
0.500000000000, -0.892333984375, -0.471191406250, -49.593750000000, 69.156250000000, -27.421875000000, 1491820978
0.500000000000, -0.892333984375, -0.471191406250, -49.593750000000, 69.156250000000, -27.421875000000, 1491820978
0.500000000000, -0.892333984375, -0.471191406250, -49.593750000000, 69.156250000000, -27.421875000000, 1491820978
0.579101562500, -0.958984375000, -0.364990234375, -37.523437500000, 50.703125000000, -30.031250000000, 1491820978
0.579101562500, -0.958984375000, -0.364990234375, -37.523437500000, 50.703125000000, -30.031250000000, 1491820978
0.579101562500, -0.958984375000, -0.364990234375, -37.523437500000, 50.703125000000, -30.031250000000, 1491820978
0.473388671875, -0.936279296875, -0.457275390625, -13.617187500000, 5.570312500000, 2.289062500000, 1491820978
0.473388671875, -0.936279296875, -0.457275390625, -13.617187500000, 5.570312500000, 2.289062500000, 1491820978
0.473388671875, -0.936279296875, -0.457275390625, -13.617187500000, 5.570312500000, 2.289062500000, 1491820978
0.496337890625, -0.986083984375, -0.518310546875, -25.500000000000, -42.460937500000, 32.398437500000, 1491820978
0.496337890625, -0.986083984375, -0.518310546875, -25.500000000000, -42.460937500000, 32.398437500000, 1491820978
0.496337890625, -0.986083984375, -0.518310546875, -25.500000000000, -42.460937500000, 32.398437500000, 1491820978
0.496337890625, -0.986083984375, -0.518310546875, -25.500000000000, -42.460937500000, 32.398437500000, 1491820978
0.367919921875, -0.645263671875, -0.228027343750, 13.500000000000, -120.687500000000, 19.703125000000, 1491820978
0.367919921875, -0.645263671875, -0.228027343750, 13.500000000000, -120.687500000000, 19.703125000000, 1491820978
0.367919921875, -0.645263671875, -0.228027343750, 13.500000000000, -120.687500000000, 19.703125000000, 1491820978
0.498535156250, -1.099121093750, -0.528320312500, 61.945312500000, 14.109375000000, 58.828125000000, 1491820978
0.498535156250, -1.099121093750, -0.528320312500, 61.945312500000, 14.109375000000, 58.828125000000, 1491820978
0.498535156250, -1.099121093750, -0.528320312500, 61.945312500000, 14.109375000000, 58.828125000000, 1491820978
0.577392578125, -1.019531250000, -0.463867187500, 99.656250000000, -36.093750000000, -21.835937500000, 1491820978
0.577392578125, -1.019531250000, -0.463867187500, 99.656250000000, -36.093750000000, -21.835937500000, 1491820978
0.577392578125, -1.019531250000, -0.463867187500, 99.656250000000, -36.093750000000, -21.835937500000, 1491820978
0.688476562500, -1.093261718750, -0.490966796875, 105.109375000000, 20.437500000000, -32.632812500000, 1491820978
0.688476562500, -1.093261718750, -0.490966796875, 105.109375000000, 20.437500000000, -32.632812500000, 1491820978
0.472412109375, -1.025878906250, -0.406250000000, 113.421875000000, 24.968750000000, -24.492187500000, 1491820978
0.472412109375, -1.025878906250, -0.406250000000, 113.421875000000, 24.968750000000, -24.492187500000, 1491820978
0.472412109375, -1.025878906250, -0.406250000000, 113.421875000000, 24.968750000000, -24.492187500000, 1491820978
0.472412109375, -1.025878906250, -0.406250000000, 113.421875000000, 24.968750000000, -24.492187500000, 1491820978
0.472412109375, -1.025878906250, -0.406250000000, 113.421875000000, 24.968750000000, -24.492187500000, 1491820978
0.431152343750, -0.901367187500, -0.371582031250, 68.687500000000, 15.750000000000, -37.859375000000, 1491820978
0.431152343750, -0.901367187500, -0.371582031250, 68.687500000000, 15.750000000000, -37.859375000000, 1491820978
0.431152343750, -0.901367187500, -0.371582031250, 68.687500000000, 15.750000000000, -37.859375000000, 1491820978
0.448242187500, -0.882812500000, -0.405761718750, 22.343750000000, 8.140625000000, -29.734375000000, 1491820978
0.448242187500, -0.882812500000, -0.405761718750, 22.343750000000, 8.140625000000, -29.734375000000, 1491820978
0.448242187500, -0.882812500000, -0.405761718750, 22.343750000000, 8.140625000000, -29.734375000000, 1491820978
0.349121093750, -0.771728515625, -0.386962890625, -26.195312500000, -50.757812500000, -16.921875000000, 1491820978
0.349121093750, -0.771728515625, -0.386962890625, -26.195312500000, -50.757812500000, -16.921875000000, 1491820978
0.349121093750, -0.771728515625, -0.386962890625, -26.195312500000, -50.757812500000, -16.921875000000, 1491820978
0.349121093750, -0.771728515625, -0.386962890625, -26.195312500000, -50.757812500000, -16.921875000000, 1491820978
0.366943359375, -0.684814453125, -0.296386718750, -58.960937500000, -49.117187500000, -4.367187500000, 1491820978
0.366943359375, -0.684814453125, -0.296386718750, -58.960937500000, -49.117187500000, -4.367187500000, 1491820978
0.366943359375, -0.684814453125, -0.296386718750, -58.960937500000, -49.117187500000, -4.367187500000, 1491820978
0.372558593750, -0.659179687500, -0.250976562500, -86.703125000000, -14.445312500000, -16.007812500000, 1491820978
0.372558593750, -0.659179687500, -0.250976562500, -86.703125000000, -14.445312500000, -16.007812500000, 1491820978
0.372558593750, -0.659179687500, -0.250976562500, -86.703125000000, -14.445312500000, -16.007812500000, 1491820978
0.231689453125, -0.546875000000, -0.261230468750, -97.460937500000, -2.554687500000, -7.859375000000, 1491820978
0.231689453125, -0.546875000000, -0.261230468750, -97.460937500000, -2.554687500000, -7.859375000000, 1491820978
0.231689453125, -0.546875000000, -0.261230468750, -97.460937500000, -2.554687500000, -7.859375000000, 1491820978
0.376953125000, -0.537109375000, -0.262939453125, -129.914062500000, 31.609375000000, -6.515625000000, 1491820978
0.376953125000, -0.537109375000, -0.262939453125, -129.914062500000, 31.609375000000, -6.515625000000, 1491820978
0.376953125000, -0.537109375000, -0.262939453125, -129.914062500000, 31.609375000000, -6.515625000000, 1491820978
0.376953125000, -0.537109375000, -0.262939453125, -129.914062500000, 31.609375000000, -6.515625000000, 1491820978
0.308349609375, -0.524902343750, -0.266357421875, -127.078125000000, 22.945312500000, 9.804687500000, 1491820978
0.308349609375, -0.524902343750, -0.266357421875, -127.078125000000, 22.945312500000, 9.804687500000, 1491820978
0.308349609375, -0.524902343750, -0.266357421875, -127.078125000000, 22.945312500000, 9.804687500000, 1491820978
0.291992187500, -0.562988281250, -0.322753906250, -106.531250000000, -10.000000000000, 45.289062500000, 1491820978
0.291992187500, -0.562988281250, -0.322753906250, -106.531250000000, -10.000000000000, 45.289062500000, 1491820978
0.291992187500, -0.562988281250, -0.322753906250, -106.531250000000, -10.000000000000, 45.289062500000, 1491820978
0.318115234375, -0.818603515625, -0.169433593750, -51.062500000000, -84.304687500000, 83.640625000000, 1491820978
0.318115234375, -0.818603515625, -0.169433593750, -51.062500000000, -84.304687500000, 83.640625000000, 1491820978
0.318115234375, -0.818603515625, -0.169433593750, -51.062500000000, -84.304687500000, 83.640625000000, 1491820978
0.518310546875, -1.155273437500, 1.065917968750, 108.007812500000, -66.984375000000, 34.656250000000, 1491820978
0.518310546875, -1.155273437500, 1.065917968750, 108.007812500000, -66.984375000000, 34.656250000000, 1491820978
0.518310546875, -1.155273437500, 1.065917968750, 108.007812500000, -66.984375000000, 34.656250000000, 1491820978
0.518310546875, -1.155273437500, 1.065917968750, 108.007812500000, -66.984375000000, 34.656250000000, 1491820978
0.282226562500, -0.722167968750, -0.213134765625, -113.289062500000, 155.937500000000, -40.296875000000, 1491820979
0.282226562500, -0.722167968750, -0.213134765625, -113.289062500000, 155.937500000000, -40.296875000000, 1491820979
0.282226562500, -0.722167968750, -0.213134765625, -113.289062500000, 155.937500000000, -40.296875000000, 1491820979
0.291259765625, -0.691650390625, -0.228515625000, -24.046875000000, 51.382812500000, -49.250000000000, 1491820979
0.291259765625, -0.691650390625, -0.228515625000, -24.046875000000, 51.382812500000, -49.250000000000, 1491820979
0.291259765625, -0.691650390625, -0.228515625000, -24.046875000000, 51.382812500000, -49.250000000000, 1491820979
0.583984375000, -0.791259765625, 0.460937500000, 13.945312500000, -88.429687500000, 2.492187500000, 1491820979
0.583984375000, -0.791259765625, 0.460937500000, 13.945312500000, -88.429687500000, 2.492187500000, 1491820979
0.583984375000, -0.791259765625, 0.460937500000, 13.945312500000, -88.429687500000, 2.492187500000, 1491820979
0.353515625000, -0.803710937500, -0.078125000000, -27.148437500000, 9.820312500000, -0.843750000000, 1491820979
0.353515625000, -0.803710937500, -0.078125000000, -27.148437500000, 9.820312500000, -0.843750000000, 1491820979
0.353515625000, -0.803710937500, -0.078125000000, -27.148437500000, 9.820312500000, -0.843750000000, 1491820979
0.353515625000, -0.803710937500, -0.078125000000, -27.148437500000, 9.820312500000, -0.843750000000, 1491820979
0.641845703125, -0.946533203125, 0.176513671875, -3.242187500000, 5.250000000000, -4.062500000000, 1491820979
0.641845703125, -0.946533203125, 0.176513671875, -3.242187500000, 5.250000000000, -4.062500000000, 1491820979
0.641845703125, -0.946533203125, 0.176513671875, -3.242187500000, 5.250000000000, -4.062500000000, 1491820979
0.497314453125, -0.954345703125, 0.086914062500, -8.414062500000, 18.578125000000, 4.296875000000, 1491820979
0.497314453125, -0.954345703125, 0.086914062500, -8.414062500000, 18.578125000000, 4.296875000000, 1491820979
0.497314453125, -0.954345703125, 0.086914062500, -8.414062500000, 18.578125000000, 4.296875000000, 1491820979
0.503906250000, -0.854492187500, 0.192382812500, -13.812500000000, 9.789062500000, -1.632812500000, 1491820979
0.503906250000, -0.854492187500, 0.192382812500, -13.812500000000, 9.789062500000, -1.632812500000, 1491820979
0.503906250000, -0.854492187500, 0.192382812500, -13.812500000000, 9.789062500000, -1.632812500000, 1491820979
0.518310546875, -0.802001953125, 0.097900390625, -8.960937500000, 3.773437500000, -2.000000000000, 1491820979
0.518310546875, -0.802001953125, 0.097900390625, -8.960937500000, 3.773437500000, -2.000000000000, 1491820979
0.518310546875, -0.802001953125, 0.097900390625, -8.960937500000, 3.773437500000, -2.000000000000, 1491820979
0.518310546875, -0.802001953125, 0.097900390625, -8.960937500000, 3.773437500000, -2.000000000000, 1491820979
0.497558593750, -0.948730468750, 0.149902343750, -3.117187500000, -2.179687500000, -1.429687500000, 1491820979
0.497558593750, -0.948730468750, 0.149902343750, -3.117187500000, -2.179687500000, -1.429687500000, 1491820979
0.497558593750, -0.948730468750, 0.149902343750, -3.117187500000, -2.179687500000, -1.429687500000, 1491820979
0.508300781250, -0.890380859375, 0.087158203125, -5.812500000000, -14.343750000000, -3.164062500000, 1491820979
0.508300781250, -0.890380859375, 0.087158203125, -5.812500000000, -14.343750000000, -3.164062500000, 1491820979
0.508300781250, -0.890380859375, 0.087158203125, -5.812500000000, -14.343750000000, -3.164062500000, 1491820979
0.412109375000, -0.842041015625, 0.072509765625, -11.164062500000, -18.179687500000, -9.140625000000, 1491820979
0.412109375000, -0.842041015625, 0.072509765625, -11.164062500000, -18.179687500000, -9.140625000000, 1491820979
0.412109375000, -0.842041015625, 0.072509765625, -11.164062500000, -18.179687500000, -9.140625000000, 1491820979
0.555908203125, -0.858886718750, 0.148681640625, 4.765625000000, -4.125000000000, -19.937500000000, 1491820979
0.555908203125, -0.858886718750, 0.148681640625, 4.765625000000, -4.125000000000, -19.937500000000, 1491820979
0.555908203125, -0.858886718750, 0.148681640625, 4.765625000000, -4.125000000000, -19.937500000000, 1491820979
0.555908203125, -0.858886718750, 0.148681640625, 4.765625000000, -4.125000000000, -19.937500000000, 1491820979
0.492919921875, -0.857421875000, 0.094970703125, -5.062500000000, -0.460937500000, -12.476562500000, 1491820979
0.492919921875, -0.857421875000, 0.094970703125, -5.062500000000, -0.460937500000, -12.476562500000, 1491820979
0.492919921875, -0.857421875000, 0.094970703125, -5.062500000000, -0.460937500000, -12.476562500000, 1491820979
0.453857421875, -0.739013671875, 0.057617187500, -2.265625000000, -13.843750000000, -20.398437500000, 1491820979
0.453857421875, -0.739013671875, 0.057617187500, -2.265625000000, -13.843750000000, -20.398437500000, 1491820979
0.453857421875, -0.739013671875, 0.057617187500, -2.265625000000, -13.843750000000, -20.398437500000, 1491820979
0.420410156250, -0.786376953125, 0.140380859375, -2.750000000000, -22.476562500000, -11.781250000000, 1491820979
0.420410156250, -0.786376953125, 0.140380859375, -2.750000000000, -22.476562500000, -11.781250000000, 1491820979
0.420410156250, -0.786376953125, 0.140380859375, -2.750000000000, -22.476562500000, -11.781250000000, 1491820979
0.345458984375, -0.920654296875, 0.045654296875, -9.320312500000, -23.390625000000, -17.875000000000, 1491820979
0.345458984375, -0.920654296875, 0.045654296875, -9.320312500000, -23.390625000000, -17.875000000000, 1491820979
0.345458984375, -0.920654296875, 0.045654296875, -9.320312500000, -23.390625000000, -17.875000000000, 1491820979
0.345458984375, -0.920654296875, 0.045654296875, -9.320312500000, -23.390625000000, -17.875000000000, 1491820979
0.398681640625, -0.868652343750, 0.046142578125, -16.609375000000, -26.851562500000, -16.945312500000, 1491820979
0.398681640625, -0.868652343750, 0.046142578125, -16.609375000000, -26.851562500000, -16.945312500000, 1491820979
0.398681640625, -0.868652343750, 0.046142578125, -16.609375000000, -26.851562500000, -16.945312500000, 1491820979
0.450927734375, -0.869384765625, 0.155029296875, -3.476562500000, -15.546875000000, -25.492187500000, 1491820979
0.450927734375, -0.869384765625, 0.155029296875, -3.476562500000, -15.546875000000, -25.492187500000, 1491820979
0.450927734375, -0.869384765625, 0.155029296875, -3.476562500000, -15.546875000000, -25.492187500000, 1491820979
0.520751953125, -0.786376953125, 0.125732421875, -5.265625000000, -14.726562500000, -13.265625000000, 1491820979
0.520751953125, -0.786376953125, 0.125732421875, -5.265625000000, -14.726562500000, -13.265625000000, 1491820979
0.520751953125, -0.786376953125, 0.125732421875, -5.265625000000, -14.726562500000, -13.265625000000, 1491820979
0.381835937500, -0.936035156250, 0.108642578125, -5.890625000000, -5.156250000000, -7.140625000000, 1491820979
0.381835937500, -0.936035156250, 0.108642578125, -5.890625000000, -5.156250000000, -7.140625000000, 1491820979
0.381835937500, -0.936035156250, 0.108642578125, -5.890625000000, -5.156250000000, -7.140625000000, 1491820979
0.381835937500, -0.936035156250, 0.108642578125, -5.890625000000, -5.156250000000, -7.140625000000, 1491820979
0.367675781250, -1.020263671875, 0.091796875000, -5.875000000000, -10.093750000000, -5.648437500000, 1491820979
0.367675781250, -1.020263671875, 0.091796875000, -5.875000000000, -10.093750000000, -5.648437500000, 1491820979
0.367675781250, -1.020263671875, 0.091796875000, -5.875000000000, -10.093750000000, -5.648437500000, 1491820980
0.372070312500, -0.868652343750, 0.135253906250, -11.007812500000, -9.328125000000, -4.820312500000, 1491820980
0.372070312500, -0.868652343750, 0.135253906250, -11.007812500000, -9.328125000000, -4.820312500000, 1491820980
0.416748046875, -0.889892578125, 0.059326171875, -8.812500000000, -8.484375000000, 0.171875000000, 1491820980
0.416748046875, -0.889892578125, 0.059326171875, -8.812500000000, -8.484375000000, 0.171875000000, 1491820980
0.416748046875, -0.889892578125, 0.059326171875, -8.812500000000, -8.484375000000, 0.171875000000, 1491820980
0.416748046875, -0.889892578125, 0.059326171875, -8.812500000000, -8.484375000000, 0.171875000000, 1491820980
0.282958984375, -0.904052734375, 0.123291015625, -6.289062500000, -4.812500000000, -4.984375000000, 1491820980
0.282958984375, -0.904052734375, 0.123291015625, -6.289062500000, -4.812500000000, -4.984375000000, 1491820980
0.282958984375, -0.904052734375, 0.123291015625, -6.289062500000, -4.812500000000, -4.984375000000, 1491820980
0.282958984375, -0.904052734375, 0.123291015625, -6.289062500000, -4.812500000000, -4.984375000000, 1491820980
0.439941406250, -0.866210937500, 0.103027343750, -5.703125000000, -6.640625000000, -4.695312500000, 1491820980
0.439941406250, -0.866210937500, 0.103027343750, -5.703125000000, -6.640625000000, -4.695312500000, 1491820980
0.439941406250, -0.866210937500, 0.103027343750, -5.703125000000, -6.640625000000, -4.695312500000, 1491820980
0.422363281250, -0.860839843750, 0.139404296875, -8.398437500000, -1.875000000000, -0.953125000000, 1491820980
0.422363281250, -0.860839843750, 0.139404296875, -8.398437500000, -1.875000000000, -0.953125000000, 1491820980
0.422363281250, -0.860839843750, 0.139404296875, -8.398437500000, -1.875000000000, -0.953125000000, 1491820980
0.464843750000, -0.899658203125, 0.048095703125, -4.585937500000, -1.296875000000, -0.656250000000, 1491820980
0.464843750000, -0.899658203125, 0.048095703125, -4.585937500000, -1.296875000000, -0.656250000000, 1491820980
0.464843750000, -0.899658203125, 0.048095703125, -4.585937500000, -1.296875000000, -0.656250000000, 1491820980
0.310302734375, -0.867919921875, 0.209472656250, 0.289062500000, 0.335937500000, -0.226562500000, 1491820980
0.310302734375, -0.867919921875, 0.209472656250, 0.289062500000, 0.335937500000, -0.226562500000, 1491820980
0.310302734375, -0.867919921875, 0.209472656250, 0.289062500000, 0.335937500000, -0.226562500000, 1491820980
0.310302734375, -0.867919921875, 0.209472656250, 0.289062500000, 0.335937500000, -0.226562500000, 1491820980
0.464843750000, -0.889160156250, 0.145019531250, 0.757812500000, 1.859375000000, -2.820312500000, 1491820980
0.464843750000, -0.889160156250, 0.145019531250, 0.757812500000, 1.859375000000, -2.820312500000, 1491820980
0.464843750000, -0.889160156250, 0.145019531250, 0.757812500000, 1.859375000000, -2.820312500000, 1491820980
0.502929687500, -0.962402343750, 0.082763671875, 1.375000000000, 2.484375000000, -1.210937500000, 1491820980
0.502929687500, -0.962402343750, 0.082763671875, 1.375000000000, 2.484375000000, -1.210937500000, 1491820980
0.502929687500, -0.962402343750, 0.082763671875, 1.375000000000, 2.484375000000, -1.210937500000, 1491820980
0.425537109375, -0.884277343750, -0.011230468750, 2.312500000000, 2.312500000000, -0.632812500000, 1491820980
0.425537109375, -0.884277343750, -0.011230468750, 2.312500000000, 2.312500000000, -0.632812500000, 1491820980
0.425537109375, -0.884277343750, -0.011230468750, 2.312500000000, 2.312500000000, -0.632812500000, 1491820980
0.347412109375, -0.880615234375, 0.052734375000, -0.515625000000, 3.875000000000, -0.265625000000, 1491820980
0.347412109375, -0.880615234375, 0.052734375000, -0.515625000000, 3.875000000000, -0.265625000000, 1491820980
0.347412109375, -0.880615234375, 0.052734375000, -0.515625000000, 3.875000000000, -0.265625000000, 1491820980
0.347412109375, -0.880615234375, 0.052734375000, -0.515625000000, 3.875000000000, -0.265625000000, 1491820980
0.429199218750, -0.868652343750, 0.149902343750, 2.742187500000, 6.617187500000, -1.476562500000, 1491820980
0.429199218750, -0.868652343750, 0.149902343750, 2.742187500000, 6.617187500000, -1.476562500000, 1491820980
0.429199218750, -0.868652343750, 0.149902343750, 2.742187500000, 6.617187500000, -1.476562500000, 1491820980
0.406982421875, -0.849853515625, 0.127197265625, 0.078125000000, 3.937500000000, -0.562500000000, 1491820980
0.406982421875, -0.849853515625, 0.127197265625, 0.078125000000, 3.937500000000, -0.562500000000, 1491820980
0.406982421875, -0.849853515625, 0.127197265625, 0.078125000000, 3.937500000000, -0.562500000000, 1491820980
0.519775390625, -0.846679687500, 0.062988281250, -0.484375000000, 4.945312500000, -1.601562500000, 1491820980
0.519775390625, -0.846679687500, 0.062988281250, -0.484375000000, 4.945312500000, -1.601562500000, 1491820980
0.519775390625, -0.846679687500, 0.062988281250, -0.484375000000, 4.945312500000, -1.601562500000, 1491820980
0.410400390625, -0.880615234375, -0.016601562500, -4.328125000000, 4.273437500000, -2.671875000000, 1491820980
0.410400390625, -0.880615234375, -0.016601562500, -4.328125000000, 4.273437500000, -2.671875000000, 1491820980
0.410400390625, -0.880615234375, -0.016601562500, -4.328125000000, 4.273437500000, -2.671875000000, 1491820980
0.410400390625, -0.880615234375, -0.016601562500, -4.328125000000, 4.273437500000, -2.671875000000, 1491820980
0.466796875000, -0.890869140625, 0.089599609375, -2.765625000000, 3.687500000000, -4.664062500000, 1491820980
0.466796875000, -0.890869140625, 0.089599609375, -2.765625000000, 3.687500000000, -4.664062500000, 1491820980
0.466796875000, -0.890869140625, 0.089599609375, -2.765625000000, 3.687500000000, -4.664062500000, 1491820980
0.440185546875, -0.874755859375, 0.084960937500, -4.960937500000, 4.210937500000, -2.375000000000, 1491820980
0.440185546875, -0.874755859375, 0.084960937500, -4.960937500000, 4.210937500000, -2.375000000000, 1491820980
0.440185546875, -0.874755859375, 0.084960937500, -4.960937500000, 4.210937500000, -2.375000000000, 1491820980
0.408935546875, -0.857421875000, 0.105712890625, -1.914062500000, 1.632812500000, -2.320312500000, 1491820980
0.408935546875, -0.857421875000, 0.105712890625, -1.914062500000, 1.632812500000, -2.320312500000, 1491820980
0.408935546875, -0.857421875000, 0.105712890625, -1.914062500000, 1.632812500000, -2.320312500000, 1491820980
