ACC_X,ACC_Y,ACC_Z,G_X,G_Y,G_Z,Unix Time
-0.083496093750, -0.968017578125, 0.364990234375, 6.273437500000, 7.148437500000, -7.500000000000, 1491214908
-0.083496093750, -0.968017578125, 0.364990234375, 6.273437500000, 7.148437500000, -7.500000000000, 1491214908
-0.083496093750, -0.968017578125, 0.364990234375, 6.273437500000, 7.148437500000, -7.500000000000, 1491214908
-0.131835937500, -0.953369140625, 0.504882812500, 5.375000000000, 3.453125000000, -8.570312500000, 1491214908
-0.131835937500, -0.953369140625, 0.504882812500, 5.375000000000, 3.453125000000, -8.570312500000, 1491214908
-0.131835937500, -0.953369140625, 0.504882812500, 5.375000000000, 3.453125000000, -8.570312500000, 1491214908
-0.131835937500, -0.953369140625, 0.504882812500, 5.375000000000, 3.453125000000, -8.570312500000, 1491214908
-0.081787109375, -0.977783203125, 0.355468750000, 3.453125000000, 12.796875000000, -5.101562500000, 1491214908
-0.081787109375, -0.977783203125, 0.355468750000, 3.453125000000, 12.796875000000, -5.101562500000, 1491214908
-0.169677734375, -1.009277343750, 0.373291015625, 5.039062500000, 10.937500000000, -5.015625000000, 1491214909
-0.169677734375, -1.009277343750, 0.373291015625, 5.039062500000, 10.937500000000, -5.015625000000, 1491214909
-0.169677734375, -1.009277343750, 0.373291015625, 5.039062500000, 10.937500000000, -5.015625000000, 1491214909
-0.140136718750, -0.944335937500, 0.374267578125, -0.390625000000, 11.765625000000, -5.929687500000, 1491214909
-0.140136718750, -0.944335937500, 0.374267578125, -0.390625000000, 11.765625000000, -5.929687500000, 1491214909
-0.140136718750, -0.944335937500, 0.374267578125, -0.390625000000, 11.765625000000, -5.929687500000, 1491214909
-0.140136718750, -0.944335937500, 0.374267578125, -0.390625000000, 11.765625000000, -5.929687500000, 1491214909
-0.112060546875, -0.966552734375, 0.362060546875, -8.796875000000, 6.164062500000, -7.476562500000, 1491214909
-0.112060546875, -0.966552734375, 0.362060546875, -8.796875000000, 6.164062500000, -7.476562500000, 1491214909
-0.112060546875, -0.966552734375, 0.362060546875, -8.796875000000, 6.164062500000, -7.476562500000, 1491214909
-0.143310546875, -1.029052734375, 0.453369140625, -12.421875000000, 14.375000000000, -3.250000000000, 1491214909
-0.143310546875, -1.029052734375, 0.453369140625, -12.421875000000, 14.375000000000, -3.250000000000, 1491214909
-0.143310546875, -1.029052734375, 0.453369140625, -12.421875000000, 14.375000000000, -3.250000000000, 1491214909
-0.143310546875, -1.029052734375, 0.453369140625, -12.421875000000, 14.375000000000, -3.250000000000, 1491214909
-0.057861328125, -1.024169921875, 0.509277343750, -23.265625000000, 1.148437500000, -4.171875000000, 1491214909
-0.057861328125, -1.024169921875, 0.509277343750, -23.265625000000, 1.148437500000, -4.171875000000, 1491214909
-0.057861328125, -1.024169921875, 0.509277343750, -23.265625000000, 1.148437500000, -4.171875000000, 1491214909
-0.051025390625, -1.027099609375, 0.473388671875, -12.507812500000, 17.710937500000, -0.507812500000, 1491214909
-0.051025390625, -1.027099609375, 0.473388671875, -12.507812500000, 17.710937500000, -0.507812500000, 1491214909
-0.051025390625, -1.027099609375, 0.473388671875, -12.507812500000, 17.710937500000, -0.507812500000, 1491214909
-0.133300781250, -0.851318359375, 0.343994140625, -3.070312500000, 1.664062500000, 2.914062500000, 1491214909
-0.133300781250, -0.851318359375, 0.343994140625, -3.070312500000, 1.664062500000, 2.914062500000, 1491214909
-0.133300781250, -0.851318359375, 0.343994140625, -3.070312500000, 1.664062500000, 2.914062500000, 1491214909
-0.133300781250, -0.851318359375, 0.343994140625, -3.070312500000, 1.664062500000, 2.914062500000, 1491214909
-0.042968750000, -0.847900390625, 0.433593750000, -2.406250000000, -4.187500000000, -1.382812500000, 1491214909
-0.042968750000, -0.847900390625, 0.433593750000, -2.406250000000, -4.187500000000, -1.382812500000, 1491214909
-0.042968750000, -0.847900390625, 0.433593750000, -2.406250000000, -4.187500000000, -1.382812500000, 1491214909
-0.063476562500, -0.910400390625, 0.363769531250, -7.640625000000, -23.773437500000, -2.710937500000, 1491214909
-0.063476562500, -0.910400390625, 0.363769531250, -7.640625000000, -23.773437500000, -2.710937500000, 1491214909
-0.063476562500, -0.910400390625, 0.363769531250, -7.640625000000, -23.773437500000, -2.710937500000, 1491214909
0.030029296875, -0.913818359375, 0.414306640625, -2.203125000000, 3.179687500000, -2.070312500000, 1491214909
0.030029296875, -0.913818359375, 0.414306640625, -2.203125000000, 3.179687500000, -2.070312500000, 1491214909
0.030029296875, -0.913818359375, 0.414306640625, -2.203125000000, 3.179687500000, -2.070312500000, 1491214909
-0.129882812500, -0.907470703125, 0.410156250000, -3.492187500000, 6.578125000000, -2.828125000000, 1491214909
-0.129882812500, -0.907470703125, 0.410156250000, -3.492187500000, 6.578125000000, -2.828125000000, 1491214909
-0.129882812500, -0.907470703125, 0.410156250000, -3.492187500000, 6.578125000000, -2.828125000000, 1491214909
-0.129882812500, -0.907470703125, 0.410156250000, -3.492187500000, 6.578125000000, -2.828125000000, 1491214909
-0.140869140625, -0.907714843750, 0.359375000000, -10.468750000000, -2.804687500000, -4.343750000000, 1491214909
-0.140869140625, -0.907714843750, 0.359375000000, -10.468750000000, -2.804687500000, -4.343750000000, 1491214909
-0.140869140625, -0.907714843750, 0.359375000000, -10.468750000000, -2.804687500000, -4.343750000000, 1491214909
-0.145263671875, -0.859619140625, 0.424316406250, -2.750000000000, 0.093750000000, -6.343750000000, 1491214909
-0.145263671875, -0.859619140625, 0.424316406250, -2.750000000000, 0.093750000000, -6.343750000000, 1491214909
-0.145263671875, -0.859619140625, 0.424316406250, -2.750000000000, 0.093750000000, -6.343750000000, 1491214909
0.000976562500, -0.938720703125, 0.364257812500, -0.289062500000, -1.125000000000, -4.406250000000, 1491214909
0.000976562500, -0.938720703125, 0.364257812500, -0.289062500000, -1.125000000000, -4.406250000000, 1491214909
0.000976562500, -0.938720703125, 0.364257812500, -0.289062500000, -1.125000000000, -4.406250000000, 1491214909
-0.138916015625, -0.962890625000, 0.440429687500, -5.609375000000, 1.484375000000, -1.218750000000, 1491214909
-0.138916015625, -0.962890625000, 0.440429687500, -5.609375000000, 1.484375000000, -1.218750000000, 1491214909
-0.138916015625, -0.962890625000, 0.440429687500, -5.609375000000, 1.484375000000, -1.218750000000, 1491214909
-0.138916015625, -0.962890625000, 0.440429687500, -5.609375000000, 1.484375000000, -1.218750000000, 1491214909
0.001953125000, -0.920898437500, 0.397460937500, -10.593750000000, 8.414062500000, -0.953125000000, 1491214909
0.001953125000, -0.920898437500, 0.397460937500, -10.593750000000, 8.414062500000, -0.953125000000, 1491214909
0.001953125000, -0.920898437500, 0.397460937500, -10.593750000000, 8.414062500000, -0.953125000000, 1491214909
-0.157714843750, -0.920166015625, 0.361328125000, -6.289062500000, -24.789062500000, -1.742187500000, 1491214909
-0.157714843750, -0.920166015625, 0.361328125000, -6.289062500000, -24.789062500000, -1.742187500000, 1491214909
-0.139404296875, -1.012451171875, 0.351074218750, 0.570312500000, -26.820312500000, -16.437500000000, 1491214909
-0.139404296875, -1.012451171875, 0.351074218750, 0.570312500000, -26.820312500000, -16.437500000000, 1491214909
-0.139404296875, -1.012451171875, 0.351074218750, 0.570312500000, -26.820312500000, -16.437500000000, 1491214909
-0.139404296875, -1.012451171875, 0.351074218750, 0.570312500000, -26.820312500000, -16.437500000000, 1491214909
-0.139404296875, -1.012451171875, 0.351074218750, 0.570312500000, -26.820312500000, -16.437500000000, 1491214909
0.032470703125, -0.975830078125, 0.343994140625, -15.796875000000, -32.507812500000, -16.484375000000, 1491214909
-0.012451171875, -0.870117187500, 0.358154296875, -15.796875000000, -32.507812500000, -16.484375000000, 1491214909
-0.012451171875, -0.870117187500, 0.358154296875, -15.796875000000, -32.507812500000, -16.484375000000, 1491214909
-0.012451171875, -0.870117187500, 0.358154296875, -15.796875000000, -32.507812500000, -16.484375000000, 1491214909
-0.012451171875, -0.870117187500, 0.358154296875, -15.796875000000, -32.507812500000, -16.484375000000, 1491214909
-0.012451171875, -0.870117187500, 0.358154296875, -15.796875000000, -32.507812500000, -16.484375000000, 1491214909
-0.007080078125, -0.873046875000, 0.351806640625, -5.359375000000, -4.328125000000, -9.070312500000, 1491214909
-0.007080078125, -0.873046875000, 0.351806640625, -5.359375000000, -4.328125000000, -9.070312500000, 1491214909
-0.007080078125, -0.873046875000, 0.351806640625, -5.359375000000, -4.328125000000, -9.070312500000, 1491214910
-0.129882812500, -0.941406250000, 0.407226562500, -7.398437500000, -11.757812500000, -9.617187500000, 1491214910
-0.129882812500, -0.941406250000, 0.407226562500, -7.398437500000, -11.757812500000, -9.617187500000, 1491214910
-0.129882812500, -0.941406250000, 0.407226562500, -7.398437500000, -11.757812500000, -9.617187500000, 1491214910
-0.090576171875, -0.904052734375, 0.456787109375, -2.500000000000, -12.265625000000, -9.195312500000, 1491214910
-0.090576171875, -0.904052734375, 0.456787109375, -2.500000000000, -12.265625000000, -9.195312500000, 1491214910
-0.090576171875, -0.904052734375, 0.456787109375, -2.500000000000, -12.265625000000, -9.195312500000, 1491214910
-0.090576171875, -0.904052734375, 0.456787109375, -2.500000000000, -12.265625000000, -9.195312500000, 1491214910
-0.030273437500, -0.853515625000, 0.466308593750, 0.023437500000, 3.679687500000, -3.773437500000, 1491214910
-0.030273437500, -0.853515625000, 0.466308593750, 0.023437500000, 3.679687500000, -3.773437500000, 1491214910
-0.030273437500, -0.853515625000, 0.466308593750, 0.023437500000, 3.679687500000, -3.773437500000, 1491214910
0.016845703125, -0.874511718750, 0.367919921875, 4.734375000000, 19.757812500000, -2.132812500000, 1491214910
0.016845703125, -0.874511718750, 0.367919921875, 4.734375000000, 19.757812500000, -2.132812500000, 1491214910
0.016845703125, -0.874511718750, 0.367919921875, 4.734375000000, 19.757812500000, -2.132812500000, 1491214910
-0.080078125000, -0.892089843750, 0.364013671875, -6.671875000000, 17.765625000000, 6.148437500000, 1491214910
-0.080078125000, -0.892089843750, 0.364013671875, -6.671875000000, 17.765625000000, 6.148437500000, 1491214910
-0.080078125000, -0.892089843750, 0.364013671875, -6.671875000000, 17.765625000000, 6.148437500000, 1491214910
-0.066162109375, -0.923339843750, 0.392578125000, -3.562500000000, 25.828125000000, 5.687500000000, 1491214910
-0.066162109375, -0.923339843750, 0.392578125000, -3.562500000000, 25.828125000000, 5.687500000000, 1491214910
-0.066162109375, -0.923339843750, 0.392578125000, -3.562500000000, 25.828125000000, 5.687500000000, 1491214910
-0.066162109375, -0.923339843750, 0.392578125000, -3.562500000000, 25.828125000000, 5.687500000000, 1491214910
0.001220703125, -1.010986328125, 0.400878906250, -3.554687500000, 21.179687500000, 5.875000000000, 1491214910
0.001220703125, -1.010986328125, 0.400878906250, -3.554687500000, 21.179687500000, 5.875000000000, 1491214910
0.001220703125, -1.010986328125, 0.400878906250, -3.554687500000, 21.179687500000, 5.875000000000, 1491214910
-0.153076171875, -0.911621093750, 0.446289062500, -3.179687500000, 24.929687500000, 5.062500000000, 1491214910
-0.153076171875, -0.911621093750, 0.446289062500, -3.179687500000, 24.929687500000, 5.062500000000, 1491214910
-0.153076171875, -0.911621093750, 0.446289062500, -3.179687500000, 24.929687500000, 5.062500000000, 1491214910
0.013183593750, -0.931396484375, 0.353515625000, -6.664062500000, 6.414062500000, -0.585937500000, 1491214910
0.013183593750, -0.931396484375, 0.353515625000, -6.664062500000, 6.414062500000, -0.585937500000, 1491214910
0.013183593750, -0.931396484375, 0.353515625000, -6.664062500000, 6.414062500000, -0.585937500000, 1491214910
-0.125244140625, -0.945556640625, 0.412109375000, -11.804687500000, -1.195312500000, -1.914062500000, 1491214910
-0.125244140625, -0.945556640625, 0.412109375000, -11.804687500000, -1.195312500000, -1.914062500000, 1491214910
-0.125244140625, -0.945556640625, 0.412109375000, -11.804687500000, -1.195312500000, -1.914062500000, 1491214910
-0.125244140625, -0.945556640625, 0.412109375000, -11.804687500000, -1.195312500000, -1.914062500000, 1491214910
-0.093017578125, -0.930908203125, 0.444335937500, -8.070312500000, -0.679687500000, -3.218750000000, 1491214910
-0.093017578125, -0.930908203125, 0.444335937500, -8.070312500000, -0.679687500000, -3.218750000000, 1491214910
-0.093017578125, -0.930908203125, 0.444335937500, -8.070312500000, -0.679687500000, -3.218750000000, 1491214910
0.081298828125, -0.946777343750, 0.467529296875, -7.859375000000, -11.273437500000, -8.632812500000, 1491214910
0.081298828125, -0.946777343750, 0.467529296875, -7.859375000000, -11.273437500000, -8.632812500000, 1491214910
0.081298828125, -0.946777343750, 0.467529296875, -7.859375000000, -11.273437500000, -8.632812500000, 1491214910
-0.079589843750, -0.853759765625, 0.440917968750, -6.414062500000, -9.320312500000, -7.476562500000, 1491214910
-0.079589843750, -0.853759765625, 0.440917968750, -6.414062500000, -9.320312500000, -7.476562500000, 1491214910
-0.079589843750, -0.853759765625, 0.440917968750, -6.414062500000, -9.320312500000, -7.476562500000, 1491214910
-0.098144531250, -0.887939453125, 0.367919921875, -9.828125000000, -17.812500000000, -9.773437500000, 1491214910
-0.098144531250, -0.887939453125, 0.367919921875, -9.828125000000, -17.812500000000, -9.773437500000, 1491214910
-0.098144531250, -0.887939453125, 0.367919921875, -9.828125000000, -17.812500000000, -9.773437500000, 1491214910
-0.098144531250, -0.887939453125, 0.367919921875, -9.828125000000, -17.812500000000, -9.773437500000, 1491214910
-0.020019531250, -0.942626953125, 0.295898437500, -6.640625000000, -18.929687500000, -12.406250000000, 1491214910
-0.020019531250, -0.942626953125, 0.295898437500, -6.640625000000, -18.929687500000, -12.406250000000, 1491214910
-0.020019531250, -0.942626953125, 0.295898437500, -6.640625000000, -18.929687500000, -12.406250000000, 1491214910
-0.014404296875, -0.934082031250, 0.440673828125, -10.914062500000, -21.656250000000, -14.453125000000, 1491214910
-0.014404296875, -0.934082031250, 0.440673828125, -10.914062500000, -21.656250000000, -14.453125000000, 1491214910
-0.014404296875, -0.934082031250, 0.440673828125, -10.914062500000, -21.656250000000, -14.453125000000, 1491214910
-0.029785156250, -0.854248046875, 0.366699218750, -4.718750000000, -9.843750000000, -7.492187500000, 1491214910
-0.029785156250, -0.854248046875, 0.366699218750, -4.718750000000, -9.843750000000, -7.492187500000, 1491214910
-0.029785156250, -0.854248046875, 0.366699218750, -4.718750000000, -9.843750000000, -7.492187500000, 1491214910
-0.012939453125, -0.870605468750, 0.497314453125, -3.085937500000, -11.601562500000, -5.945312500000, 1491214910
-0.012939453125, -0.870605468750, 0.497314453125, -3.085937500000, -11.601562500000, -5.945312500000, 1491214910
-0.012939453125, -0.870605468750, 0.497314453125, -3.085937500000, -11.601562500000, -5.945312500000, 1491214910
0.026611328125, -0.901855468750, 0.427490234375, 0.804687500000, -8.281250000000, -5.250000000000, 1491214910
0.026611328125, -0.901855468750, 0.427490234375, 0.804687500000, -8.281250000000, -5.250000000000, 1491214910
0.026611328125, -0.901855468750, 0.427490234375, 0.804687500000, -8.281250000000, -5.250000000000, 1491214910
-0.003906250000, -0.848144531250, 0.443115234375, -5.164062500000, -12.781250000000, -5.828125000000, 1491214910
-0.003906250000, -0.848144531250, 0.443115234375, -5.164062500000, -12.781250000000, -5.828125000000, 1491214910
-0.003906250000, -0.848144531250, 0.443115234375, -5.164062500000, -12.781250000000, -5.828125000000, 1491214910
-0.003906250000, -0.848144531250, 0.443115234375, -5.164062500000, -12.781250000000, -5.828125000000, 1491214910
-0.128173828125, -0.942626953125, 0.512207031250, 3.210937500000, 6.265625000000, -5.859375000000, 1491214911
-0.128173828125, -0.942626953125, 0.512207031250, 3.210937500000, 6.265625000000, -5.859375000000, 1491214911
-0.128173828125, -0.942626953125, 0.512207031250, 3.210937500000, 6.265625000000, -5.859375000000, 1491214911
0.030029296875, -0.912353515625, 0.528320312500, 2.023437500000, 4.664062500000, -3.203125000000, 1491214911
0.030029296875, -0.912353515625, 0.528320312500, 2.023437500000, 4.664062500000, -3.203125000000, 1491214911
0.030029296875, -0.912353515625, 0.528320312500, 2.023437500000, 4.664062500000, -3.203125000000, 1491214911
0.030029296875, -0.912353515625, 0.528320312500, 2.023437500000, 4.664062500000, -3.203125000000, 1491214911
0.062988281250, -0.954345703125, 0.464599609375, -2.453125000000, 1.820312500000, -3.531250000000, 1491214911
0.062988281250, -0.954345703125, 0.464599609375, -2.453125000000, 1.820312500000, -3.531250000000, 1491214911
0.062988281250, -0.954345703125, 0.464599609375, -2.453125000000, 1.820312500000, -3.531250000000, 1491214911
-0.127197265625, -0.861083984375, 0.416748046875, -0.054687500000, 1.843750000000, -4.656250000000, 1491214911
-0.127197265625, -0.861083984375, 0.416748046875, -0.054687500000, 1.843750000000, -4.656250000000, 1491214911
-0.127197265625, -0.861083984375, 0.416748046875, -0.054687500000, 1.843750000000, -4.656250000000, 1491214911
-0.043701171875, -0.865234375000, 0.510253906250, -0.265625000000, 1.843750000000, -5.000000000000, 1491214911
-0.043701171875, -0.865234375000, 0.510253906250, -0.265625000000, 1.843750000000, -5.000000000000, 1491214911
-0.043701171875, -0.865234375000, 0.510253906250, -0.265625000000, 1.843750000000, -5.000000000000, 1491214911
0.007812500000, -0.870361328125, 0.457031250000, 4.578125000000, -0.101562500000, -6.312500000000, 1491214911
0.007812500000, -0.870361328125, 0.457031250000, 4.578125000000, -0.101562500000, -6.312500000000, 1491214911
0.007812500000, -0.870361328125, 0.457031250000, 4.578125000000, -0.101562500000, -6.312500000000, 1491214911
0.007812500000, -0.870361328125, 0.457031250000, 4.578125000000, -0.101562500000, -6.312500000000, 1491214911
0.030273437500, -0.927001953125, 0.359130859375, 5.890625000000, 2.164062500000, -3.703125000000, 1491214911
0.030273437500, -0.927001953125, 0.359130859375, 5.890625000000, 2.164062500000, -3.703125000000, 1491214911
0.030273437500, -0.927001953125, 0.359130859375, 5.890625000000, 2.164062500000, -3.703125000000, 1491214911
-0.035888671875, -0.950683593750, 0.302246093750, 10.695312500000, 1.078125000000, -8.359375000000, 1491214911
-0.035888671875, -0.950683593750, 0.302246093750, 10.695312500000, 1.078125000000, -8.359375000000, 1491214911
-0.035888671875, -0.950683593750, 0.302246093750, 10.695312500000, 1.078125000000, -8.359375000000, 1491214911
-0.090820312500, -1.067382812500, 0.453857421875, 13.953125000000, 1.390625000000, -8.273437500000, 1491214911
-0.090820312500, -1.067382812500, 0.453857421875, 13.953125000000, 1.390625000000, -8.273437500000, 1491214911
-0.090820312500, -1.067382812500, 0.453857421875, 13.953125000000, 1.390625000000, -8.273437500000, 1491214911
-0.089355468750, -0.895263671875, 0.449462890625, 5.859375000000, -6.882812500000, -7.460937500000, 1491214911
-0.089355468750, -0.895263671875, 0.449462890625, 5.859375000000, -6.882812500000, -7.460937500000, 1491214911
-0.089355468750, -0.895263671875, 0.449462890625, 5.859375000000, -6.882812500000, -7.460937500000, 1491214911
-0.089355468750, -0.895263671875, 0.449462890625, 5.859375000000, -6.882812500000, -7.460937500000, 1491214911
0.028076171875, -1.008544921875, 0.308593750000, 4.585937500000, -6.210937500000, -8.210937500000, 1491214911
0.028076171875, -1.008544921875, 0.308593750000, 4.585937500000, -6.210937500000, -8.210937500000, 1491214911
0.028076171875, -1.008544921875, 0.308593750000, 4.585937500000, -6.210937500000, -8.210937500000, 1491214911
-0.067138671875, -0.916259765625, 0.347900390625, -0.734375000000, -4.820312500000, -10.187500000000, 1491214911
-0.067138671875, -0.916259765625, 0.347900390625, -0.734375000000, -4.820312500000, -10.187500000000, 1491214911
-0.067138671875, -0.916259765625, 0.347900390625, -0.734375000000, -4.820312500000, -10.187500000000, 1491214911
-0.057861328125, -0.952148437500, 0.393798828125, -4.820312500000, -3.820312500000, -8.398437500000, 1491214911
-0.057861328125, -0.952148437500, 0.393798828125, -4.820312500000, -3.820312500000, -8.398437500000, 1491214911
-0.057861328125, -0.952148437500, 0.393798828125, -4.820312500000, -3.820312500000, -8.398437500000, 1491214911
-0.043457031250, -0.916992187500, 0.374267578125, -2.679687500000, -5.656250000000, -5.781250000000, 1491214911
-0.043457031250, -0.916992187500, 0.374267578125, -2.679687500000, -5.656250000000, -5.781250000000, 1491214911
-0.043457031250, -0.916992187500, 0.374267578125, -2.679687500000, -5.656250000000, -5.781250000000, 1491214911
-0.043457031250, -0.916992187500, 0.374267578125, -2.679687500000, -5.656250000000, -5.781250000000, 1491214911
-0.086669921875, -0.941894531250, 0.510253906250, 8.039062500000, -7.976562500000, -7.601562500000, 1491214911
-0.086669921875, -0.941894531250, 0.510253906250, 8.039062500000, -7.976562500000, -7.601562500000, 1491214911
-0.086669921875, -0.941894531250, 0.510253906250, 8.039062500000, -7.976562500000, -7.601562500000, 1491214911
-0.028808593750, -0.872314453125, 0.510986328125, 12.585937500000, -4.601562500000, -10.664062500000, 1491214911
-0.028808593750, -0.872314453125, 0.510986328125, 12.585937500000, -4.601562500000, -10.664062500000, 1491214911
-0.028808593750, -0.872314453125, 0.510986328125, 12.585937500000, -4.601562500000, -10.664062500000, 1491214911
-0.128173828125, -0.885986328125, 0.509765625000, 27.828125000000, 4.546875000000, -7.320312500000, 1491214911
-0.128173828125, -0.885986328125, 0.509765625000, 27.828125000000, 4.546875000000, -7.320312500000, 1491214911
-0.128173828125, -0.885986328125, 0.509765625000, 27.828125000000, 4.546875000000, -7.320312500000, 1491214911
0.009521484375, -0.831298828125, 0.252197265625, 32.906250000000, -9.828125000000, -15.000000000000, 1491214911
0.009521484375, -0.831298828125, 0.252197265625, 32.906250000000, -9.828125000000, -15.000000000000, 1491214911
0.009521484375, -0.831298828125, 0.252197265625, 32.906250000000, -9.828125000000, -15.000000000000, 1491214911
0.009521484375, -0.831298828125, 0.252197265625, 32.906250000000, -9.828125000000, -15.000000000000, 1491214911
-0.081542968750, -0.798095703125, 0.397460937500, 47.632812500000, 4.554687500000, -16.859375000000, 1491214911
-0.081542968750, -0.798095703125, 0.397460937500, 47.632812500000, 4.554687500000, -16.859375000000, 1491214911
-0.081542968750, -0.798095703125, 0.397460937500, 47.632812500000, 4.554687500000, -16.859375000000, 1491214911
-0.064697265625, -0.727294921875, 0.213867187500, 57.937500000000, -0.851562500000, -19.484375000000, 1491214911
-0.064697265625, -0.727294921875, 0.213867187500, 57.937500000000, -0.851562500000, -19.484375000000, 1491214911
-0.064697265625, -0.727294921875, 0.213867187500, 57.937500000000, -0.851562500000, -19.484375000000, 1491214911
0.003662109375, -0.644287109375, 0.342041015625, 90.085937500000, 13.531250000000, -22.687500000000, 1491214911
0.003662109375, -0.644287109375, 0.342041015625, 90.085937500000, 13.531250000000, -22.687500000000, 1491214912
0.003662109375, -0.644287109375, 0.342041015625, 90.085937500000, 13.531250000000, -22.687500000000, 1491214912
-0.135253906250, -0.464599609375, 0.048583984375, 92.085937500000, 23.414062500000, -15.156250000000, 1491214912
-0.135253906250, -0.464599609375, 0.048583984375, 92.085937500000, 23.414062500000, -15.156250000000, 1491214912
-0.135253906250, -0.464599609375, 0.048583984375, 92.085937500000, 23.414062500000, -15.156250000000, 1491214912
-0.135253906250, -0.464599609375, 0.048583984375, 92.085937500000, 23.414062500000, -15.156250000000, 1491214912
-0.020751953125, -0.378906250000, 0.008300781250, 117.398437500000, -17.281250000000, -22.093750000000, 1491214912
-0.020751953125, -0.378906250000, 0.008300781250, 117.398437500000, -17.281250000000, -22.093750000000, 1491214912
-0.020751953125, -0.378906250000, 0.008300781250, 117.398437500000, -17.281250000000, -22.093750000000, 1491214912
-0.151855468750, -0.583740234375, 0.021484375000, 58.117187500000, -51.812500000000, -9.070312500000, 1491214912
-0.151855468750, -0.583740234375, 0.021484375000, 58.117187500000, -51.812500000000, -9.070312500000, 1491214912
-0.151855468750, -0.583740234375, 0.021484375000, 58.117187500000, -51.812500000000, -9.070312500000, 1491214912
-0.375488281250, -1.079345703125, 0.106933593750, -38.757812500000, -152.234375000000, -32.570312500000, 1491214912
-0.375488281250, -1.079345703125, 0.106933593750, -38.757812500000, -152.234375000000, -32.570312500000, 1491214912
-0.375488281250, -1.079345703125, 0.106933593750, -38.757812500000, -152.234375000000, -32.570312500000, 1491214912
0.260009765625, -1.575195312500, 0.038818359375, 17.335937500000, 181.875000000000, 1.390625000000, 1491214912
0.260009765625, -1.575195312500, 0.038818359375, 17.335937500000, 181.875000000000, 1.390625000000, 1491214912
0.260009765625, -1.575195312500, 0.038818359375, 17.335937500000, 181.875000000000, 1.390625000000, 1491214912
0.260009765625, -1.575195312500, 0.038818359375, 17.335937500000, 181.875000000000, 1.390625000000, 1491214912
-0.347656250000, -2.240478515625, 0.017333984375, 75.242187500000, 69.039062500000, 1.226562500000, 1491214912
-0.347656250000, -2.240478515625, 0.017333984375, 75.242187500000, 69.039062500000, 1.226562500000, 1491214912
-0.347656250000, -2.240478515625, 0.017333984375, 75.242187500000, 69.039062500000, 1.226562500000, 1491214912
-0.398681640625, -2.019042968750, 0.943603515625, 116.226562500000, 9.601562500000, -16.203125000000, 1491214912
-0.398681640625, -2.019042968750, 0.943603515625, 116.226562500000, 9.601562500000, -16.203125000000, 1491214912
-0.398681640625, -2.019042968750, 0.943603515625, 116.226562500000, 9.601562500000, -16.203125000000, 1491214912
-0.252197265625, -2.474365234375, 0.581054687500, -3.593750000000, -65.023437500000, -5.031250000000, 1491214912
-0.252197265625, -2.474365234375, 0.581054687500, -3.593750000000, -65.023437500000, -5.031250000000, 1491214912
-0.252197265625, -2.474365234375, 0.581054687500, -3.593750000000, -65.023437500000, -5.031250000000, 1491214912
0.113769531250, -0.572265625000, 0.227783203125, 75.664062500000, 98.093750000000, -13.687500000000, 1491214912
0.113769531250, -0.572265625000, 0.227783203125, 75.664062500000, 98.093750000000, -13.687500000000, 1491214912
0.113769531250, -0.572265625000, 0.227783203125, 75.664062500000, 98.093750000000, -13.687500000000, 1491214912
0.113769531250, -0.572265625000, 0.227783203125, 75.664062500000, 98.093750000000, -13.687500000000, 1491214912
-0.025634765625, 0.066162109375, 0.077392578125, 91.445312500000, 51.796875000000, -73.203125000000, 1491214912
-0.025634765625, 0.066162109375, 0.077392578125, 91.445312500000, 51.796875000000, -73.203125000000, 1491214912
-0.025634765625, 0.066162109375, 0.077392578125, 91.445312500000, 51.796875000000, -73.203125000000, 1491214912
0.024658203125, 0.176025390625, 0.046875000000, 139.218750000000, -126.398437500000, -142.406250000000, 1491214912
0.024658203125, 0.176025390625, 0.046875000000, 139.218750000000, -126.398437500000, -142.406250000000, 1491214912
0.024658203125, 0.176025390625, 0.046875000000, 139.218750000000, -126.398437500000, -142.406250000000, 1491214912
0.150146484375, 0.613281250000, 0.157958984375, 124.617187500000, -70.242187500000, 15.195312500000, 1491214912
0.150146484375, 0.613281250000, 0.157958984375, 124.617187500000, -70.242187500000, 15.195312500000, 1491214912
0.150146484375, 0.613281250000, 0.157958984375, 124.617187500000, -70.242187500000, 15.195312500000, 1491214912
0.008789062500, 0.806884765625, 0.110107421875, -256.000000000000, 17.195312500000, 5.398437500000, 1491214912
0.008789062500, 0.806884765625, 0.110107421875, -256.000000000000, 17.195312500000, 5.398437500000, 1491214912
0.008789062500, 0.806884765625, 0.110107421875, -256.000000000000, 17.195312500000, 5.398437500000, 1491214912
0.008789062500, 0.806884765625, 0.110107421875, -256.000000000000, 17.195312500000, 5.398437500000, 1491214912
-0.129394531250, 0.367675781250, -0.014648437500, -256.000000000000, -116.531250000000, 180.765625000000, 1491214912
-0.129394531250, 0.367675781250, -0.014648437500, -256.000000000000, -116.531250000000, 180.765625000000, 1491214912
-0.129394531250, 0.367675781250, -0.014648437500, -256.000000000000, -116.531250000000, 180.765625000000, 1491214912
0.192382812500, -0.779052734375, -0.051757812500, -256.000000000000, -81.687500000000, 83.210937500000, 1491214912
0.192382812500, -0.779052734375, -0.051757812500, -256.000000000000, -81.687500000000, 83.210937500000, 1491214912
0.192382812500, -0.779052734375, -0.051757812500, -256.000000000000, -81.687500000000, 83.210937500000, 1491214912
0.646972656250, -1.828125000000, -0.036132812500, -208.953125000000, 253.992187500000, 26.968750000000, 1491214912
0.646972656250, -1.828125000000, -0.036132812500, -208.953125000000, 253.992187500000, 26.968750000000, 1491214912
0.646972656250, -1.828125000000, -0.036132812500, -208.953125000000, 253.992187500000, 26.968750000000, 1491214912
7.104980468750, -1.056640625000, -3.206298828125, 253.992187500000, 253.992187500000, 253.992187500000, 1491214912
7.104980468750, -1.056640625000, -3.206298828125, 253.992187500000, 253.992187500000, 253.992187500000, 1491214912
7.104980468750, -1.056640625000, -3.206298828125, 253.992187500000, 253.992187500000, 253.992187500000, 1491214912
7.104980468750, -1.056640625000, -3.206298828125, 253.992187500000, 253.992187500000, 253.992187500000, 1491214912
4.917236328125, 7.099121093750, -2.447998046875, 253.992187500000, 253.992187500000, 40.484375000000, 1491214912
0.150390625000, 0.904785156250, -2.215087890625, -49.679687500000, 24.546875000000, -88.562500000000, 1491214912
0.150390625000, 0.904785156250, -2.215087890625, -49.679687500000, 24.546875000000, -88.562500000000, 1491214912
0.150390625000, 0.904785156250, -2.215087890625, -49.679687500000, 24.546875000000, -88.562500000000, 1491214912
0.150390625000, 0.904785156250, -2.215087890625, -49.679687500000, 24.546875000000, -88.562500000000, 1491214912
0.529785156250, 1.036865234375, -2.022216796875, -63.382812500000, 65.312500000000, -62.742187500000, 1491214912
0.466796875000, 0.304443359375, -0.353515625000, 14.398437500000, 87.359375000000, -25.898437500000, 1491214912
0.466796875000, 0.304443359375, -0.353515625000, 14.398437500000, 87.359375000000, -25.898437500000, 1491214912
0.466796875000, 0.304443359375, -0.353515625000, 14.398437500000, 87.359375000000, -25.898437500000, 1491214913
0.134277343750, -0.903808593750, -1.187500000000, 51.687500000000, 26.156250000000, -24.796875000000, 1491214913
0.134277343750, -0.903808593750, -1.187500000000, 51.687500000000, 26.156250000000, -24.796875000000, 1491214913
0.134277343750, -0.903808593750, -1.187500000000, 51.687500000000, 26.156250000000, -24.796875000000, 1491214913
0.134277343750, -0.903808593750, -1.187500000000, 51.687500000000, 26.156250000000, -24.796875000000, 1491214913
0.071044921875, 0.805175781250, -0.348632812500, 159.757812500000, -25.875000000000, 20.195312500000, 1491214913
0.071044921875, 0.805175781250, -0.348632812500, 159.757812500000, -25.875000000000, 20.195312500000, 1491214913
0.071044921875, 0.805175781250, -0.348632812500, 159.757812500000, -25.875000000000, 20.195312500000, 1491214913
-0.188476562500, 0.188964843750, -0.927001953125, 86.078125000000, -105.078125000000, -26.281250000000, 1491214913
-0.188476562500, 0.188964843750, -0.927001953125, 86.078125000000, -105.078125000000, -26.281250000000, 1491214913
-0.188476562500, 0.188964843750, -0.927001953125, 86.078125000000, -105.078125000000, -26.281250000000, 1491214913
-0.509765625000, 0.044677734375, -0.968505859375, -29.250000000000, -39.890625000000, 7.210937500000, 1491214913
-0.120361328125, 0.306396484375, -0.862548828125, -58.164062500000, -20.359375000000, 14.726562500000, 1491214913
-0.120361328125, 0.306396484375, -0.862548828125, -58.164062500000, -20.359375000000, 14.726562500000, 1491214913
-0.120361328125, 0.306396484375, -0.862548828125, -58.164062500000, -20.359375000000, 14.726562500000, 1491214913
-0.119384765625, 0.052490234375, -1.087402343750, -54.257812500000, 14.929687500000, 7.328125000000, 1491214913
-0.119384765625, 0.052490234375, -1.087402343750, -54.257812500000, 14.929687500000, 7.328125000000, 1491214913
-0.119384765625, 0.052490234375, -1.087402343750, -54.257812500000, 14.929687500000, 7.328125000000, 1491214913
-0.119384765625, 0.052490234375, -1.087402343750, -54.257812500000, 14.929687500000, 7.328125000000, 1491214913
0.020019531250, 0.284667968750, -1.201171875000, -51.859375000000, 40.570312500000, -0.507812500000, 1491214913
0.020019531250, 0.284667968750, -1.201171875000, -51.859375000000, 40.570312500000, -0.507812500000, 1491214913
0.020019531250, 0.284667968750, -1.201171875000, -51.859375000000, 40.570312500000, -0.507812500000, 1491214913
0.026123046875, 0.388427734375, -1.094482421875, -79.609375000000, 62.859375000000, -9.890625000000, 1491214913
0.074218750000, 0.346191406250, -1.048095703125, -108.242187500000, 95.484375000000, -77.757812500000, 1491214913
0.074218750000, 0.346191406250, -1.048095703125, -108.242187500000, 95.484375000000, -77.757812500000, 1491214913
0.074218750000, 0.346191406250, -1.048095703125, -108.242187500000, 95.484375000000, -77.757812500000, 1491214913
0.074218750000, 0.346191406250, -1.048095703125, -108.242187500000, 95.484375000000, -77.757812500000, 1491214913
0.252929687500, 0.254394531250, -0.834472656250, -54.789062500000, 22.382812500000, -181.757812500000, 1491214913
0.335205078125, 0.313476562500, -1.013916015625, 8.507812500000, 35.164062500000, -124.773437500000, 1491214913
0.335205078125, 0.313476562500, -1.013916015625, 8.507812500000, 35.164062500000, -124.773437500000, 1491214913
0.335205078125, 0.313476562500, -1.013916015625, 8.507812500000, 35.164062500000, -124.773437500000, 1491214913
0.190673828125, 0.011962890625, -0.700927734375, 113.820312500000, -45.070312500000, 20.671875000000, 1491214913
0.190673828125, 0.011962890625, -0.700927734375, 113.820312500000, -45.070312500000, 20.671875000000, 1491214913
0.190673828125, 0.011962890625, -0.700927734375, 113.820312500000, -45.070312500000, 20.671875000000, 1491214913
0.190673828125, 0.011962890625, -0.700927734375, 113.820312500000, -45.070312500000, 20.671875000000, 1491214913
0.190673828125, 0.011962890625, -0.700927734375, 113.820312500000, -45.070312500000, 20.671875000000, 1491214913
-0.190673828125, -0.039306640625, -1.110595703125, 86.984375000000, -35.421875000000, -8.328125000000, 1491214913
-0.190673828125, -0.039306640625, -1.110595703125, 86.984375000000, -35.421875000000, -8.328125000000, 1491214913
-0.190673828125, -0.039306640625, -1.110595703125, 86.984375000000, -35.421875000000, -8.328125000000, 1491214913
-0.190673828125, -0.039306640625, -1.110595703125, 86.984375000000, -35.421875000000, -8.328125000000, 1491214913
-0.086669921875, 0.139160156250, -0.800048828125, 18.460937500000, -9.445312500000, 2.898437500000, 1491214913
-0.086669921875, 0.139160156250, -0.800048828125, 18.460937500000, -9.445312500000, 2.898437500000, 1491214913
-0.086669921875, 0.139160156250, -0.800048828125, 18.460937500000, -9.445312500000, 2.898437500000, 1491214913
-0.086669921875, 0.139160156250, -0.800048828125, 18.460937500000, -9.445312500000, 2.898437500000, 1491214913
0.019775390625, 0.180908203125, -1.021972656250, 19.031250000000, -6.414062500000, -0.742187500000, 1491214913
0.019775390625, 0.180908203125, -1.021972656250, 19.031250000000, -6.414062500000, -0.742187500000, 1491214913
0.019775390625, 0.180908203125, -1.021972656250, 19.031250000000, -6.414062500000, -0.742187500000, 1491214913
0.008789062500, 0.177490234375, -1.062988281250, 25.218750000000, 1.046875000000, -4.445312500000, 1491214913
0.008789062500, 0.177490234375, -1.062988281250, 25.218750000000, 1.046875000000, -4.445312500000, 1491214913
0.008789062500, 0.177490234375, -1.062988281250, 25.218750000000, 1.046875000000, -4.445312500000, 1491214913
-0.081298828125, 0.301757812500, -1.131835937500, 13.898437500000, 18.203125000000, -7.820312500000, 1491214913
-0.081298828125, 0.301757812500, -1.131835937500, 13.898437500000, 18.203125000000, -7.820312500000, 1491214913
-0.081298828125, 0.301757812500, -1.131835937500, 13.898437500000, 18.203125000000, -7.820312500000, 1491214913
0.025146484375, 0.287353515625, -1.026367187500, 8.671875000000, 13.578125000000, -8.242187500000, 1491214913
0.025146484375, 0.287353515625, -1.026367187500, 8.671875000000, 13.578125000000, -8.242187500000, 1491214913
0.025146484375, 0.287353515625, -1.026367187500, 8.671875000000, 13.578125000000, -8.242187500000, 1491214913
0.025146484375, 0.287353515625, -1.026367187500, 8.671875000000, 13.578125000000, -8.242187500000, 1491214913
0.144287109375, 0.293945312500, -0.807128906250, -6.265625000000, 16.500000000000, -7.484375000000, 1491214913
0.144287109375, 0.293945312500, -0.807128906250, -6.265625000000, 16.500000000000, -7.484375000000, 1491214913
0.144287109375, 0.293945312500, -0.807128906250, -6.265625000000, 16.500000000000, -7.484375000000, 1491214913
0.072021484375, 0.182861328125, -0.811035156250, -10.031250000000, 10.640625000000, -6.750000000000, 1491214913
0.072021484375, 0.182861328125, -0.811035156250, -10.031250000000, 10.640625000000, -6.750000000000, 1491214913
0.072021484375, 0.182861328125, -0.811035156250, -10.031250000000, 10.640625000000, -6.750000000000, 1491214913
0.133789062500, 0.234863281250, -0.867431640625, -10.492187500000, -3.195312500000, -4.351562500000, 1491214913
0.133789062500, 0.234863281250, -0.867431640625, -10.492187500000, -3.195312500000, -4.351562500000, 1491214913
0.133789062500, 0.234863281250, -0.867431640625, -10.492187500000, -3.195312500000, -4.351562500000, 1491214913
-0.014648437500, 0.239013671875, -0.977294921875, -15.781250000000, -13.906250000000, -1.859375000000, 1491214913
-0.014648437500, 0.239013671875, -0.977294921875, -15.781250000000, -13.906250000000, -1.859375000000, 1491214914
-0.014648437500, 0.239013671875, -0.977294921875, -15.781250000000, -13.906250000000, -1.859375000000, 1491214914
-0.014648437500, 0.239013671875, -0.977294921875, -15.781250000000, -13.906250000000, -1.859375000000, 1491214914
0.125244140625, 0.267822265625, -0.999267578125, -5.523437500000, -7.585937500000, -4.914062500000, 1491214914
0.125244140625, 0.267822265625, -0.999267578125, -5.523437500000, -7.585937500000, -4.914062500000, 1491214914
0.125244140625, 0.267822265625, -0.999267578125, -5.523437500000, -7.585937500000, -4.914062500000, 1491214914
-0.080078125000, 0.260253906250, -0.933837890625, -4.562500000000, 2.023437500000, -2.617187500000, 1491214914
-0.080078125000, 0.260253906250, -0.933837890625, -4.562500000000, 2.023437500000, -2.617187500000, 1491214914
-0.080078125000, 0.260253906250, -0.933837890625, -4.562500000000, 2.023437500000, -2.617187500000, 1491214914
0.066650390625, 0.273925781250, -0.846435546875, -4.632812500000, 5.289062500000, -2.664062500000, 1491214914
0.066650390625, 0.273925781250, -0.846435546875, -4.632812500000, 5.289062500000, -2.664062500000, 1491214914
0.066650390625, 0.273925781250, -0.846435546875, -4.632812500000, 5.289062500000, -2.664062500000, 1491214914
-0.012695312500, 0.301757812500, -0.891601562500, 0.375000000000, 1.929687500000, -3.882812500000, 1491214914
-0.012695312500, 0.301757812500, -0.891601562500, 0.375000000000, 1.929687500000, -3.882812500000, 1491214914
-0.012695312500, 0.301757812500, -0.891601562500, 0.375000000000, 1.929687500000, -3.882812500000, 1491214914
-0.012695312500, 0.301757812500, -0.891601562500, 0.375000000000, 1.929687500000, -3.882812500000, 1491214914
0.059814453125, 0.228515625000, -0.871582031250, 0.007812500000, 1.796875000000, -6.414062500000, 1491214914
0.059814453125, 0.228515625000, -0.871582031250, 0.007812500000, 1.796875000000, -6.414062500000, 1491214914
0.059814453125, 0.228515625000, -0.871582031250, 0.007812500000, 1.796875000000, -6.414062500000, 1491214914
-0.018798828125, 0.220458984375, -0.913330078125, -1.968750000000, -0.273437500000, -6.304687500000, 1491214914
-0.033691406250, 0.302490234375, -1.025390625000, -1.843750000000, 2.632812500000, -3.828125000000, 1491214914
0.015380859375, 0.231689453125, -0.968750000000, -5.718750000000, -0.164062500000, -1.335937500000, 1491214914
0.015380859375, 0.231689453125, -0.968750000000, -5.718750000000, -0.164062500000, -1.335937500000, 1491214914
0.015380859375, 0.231689453125, -0.968750000000, -5.718750000000, -0.164062500000, -1.335937500000, 1491214914
0.043457031250, 0.242675781250, -0.800292968750, -4.625000000000, 2.234375000000, -3.578125000000, 1491214914
0.043457031250, 0.242675781250, -0.800292968750, -4.625000000000, 2.234375000000, -3.578125000000, 1491214914
0.043457031250, 0.242675781250, -0.800292968750, -4.625000000000, 2.234375000000, -3.578125000000, 1491214914
0.043457031250, 0.242675781250, -0.800292968750, -4.625000000000, 2.234375000000, -3.578125000000, 1491214914
0.043457031250, 0.242675781250, -0.800292968750, -4.625000000000, 2.234375000000, -3.578125000000, 1491214914
-0.090576171875, 0.234130859375, -0.858886718750, -3.476562500000, 0.218750000000, -6.140625000000, 1491214914
-0.090576171875, 0.234130859375, -0.858886718750, -3.476562500000, 0.218750000000, -6.140625000000, 1491214914
-0.090576171875, 0.234130859375, -0.858886718750, -3.476562500000, 0.218750000000, -6.140625000000, 1491214914
0.065185546875, 0.326171875000, -0.962158203125, -8.109375000000, -2.937500000000, -4.515625000000, 1491214914
0.065185546875, 0.326171875000, -0.962158203125, -8.109375000000, -2.937500000000, -4.515625000000, 1491214914
0.065185546875, 0.326171875000, -0.962158203125, -8.109375000000, -2.937500000000, -4.515625000000, 1491214914
0.071533203125, 0.269042968750, -0.975830078125, -6.765625000000, -3.570312500000, -3.632812500000, 1491214914
0.071533203125, 0.269042968750, -0.975830078125, -6.765625000000, -3.570312500000, -3.632812500000, 1491214914
0.071533203125, 0.269042968750, -0.975830078125, -6.765625000000, -3.570312500000, -3.632812500000, 1491214914
-0.025390625000, 0.222412109375, -0.955322265625, -3.890625000000, -2.398437500000, -4.882812500000, 1491214914
-0.025390625000, 0.222412109375, -0.955322265625, -3.890625000000, -2.398437500000, -4.882812500000, 1491214914
-0.025390625000, 0.222412109375, -0.955322265625, -3.890625000000, -2.398437500000, -4.882812500000, 1491214914
-0.025390625000, 0.222412109375, -0.955322265625, -3.890625000000, -2.398437500000, -4.882812500000, 1491214914
-0.065185546875, 0.317138671875, -0.931152343750, -4.398437500000, 2.117187500000, -3.382812500000, 1491214914
-0.065185546875, 0.317138671875, -0.931152343750, -4.398437500000, 2.117187500000, -3.382812500000, 1491214914
-0.065185546875, 0.317138671875, -0.931152343750, -4.398437500000, 2.117187500000, -3.382812500000, 1491214914
-0.016845703125, 0.298339843750, -0.959228515625, -6.093750000000, 4.039062500000, -3.609375000000, 1491214914
-0.016845703125, 0.298339843750, -0.959228515625, -6.093750000000, 4.039062500000, -3.609375000000, 1491214914
-0.016845703125, 0.298339843750, -0.959228515625, -6.093750000000, 4.039062500000, -3.609375000000, 1491214914
-0.075683593750, 0.244628906250, -0.947265625000, -6.382812500000, -0.367187500000, -3.742187500000, 1491214914
-0.005859375000, 0.379394531250, -1.001220703125, -6.382812500000, -0.367187500000, -3.742187500000, 1491214914
-0.005859375000, 0.379394531250, -1.001220703125, -6.382812500000, -0.367187500000, -3.742187500000, 1491214914
-0.051513671875, 0.263427734375, -0.929199218750, -8.039062500000, 2.109375000000, -4.507812500000, 1491214914
-0.051513671875, 0.263427734375, -0.929199218750, -8.039062500000, 2.109375000000, -4.507812500000, 1491214914
-0.051513671875, 0.263427734375, -0.929199218750, -8.039062500000, 2.109375000000, -4.507812500000, 1491214914
-0.051513671875, 0.263427734375, -0.929199218750, -8.039062500000, 2.109375000000, -4.507812500000, 1491214914
-0.051513671875, 0.263427734375, -0.929199218750, -8.039062500000, 2.109375000000, -4.507812500000, 1491214914
-0.002685546875, 0.255126953125, -1.137451171875, -19.687500000000, -4.187500000000, -4.398437500000, 1491214914
-0.002685546875, 0.255126953125, -1.137451171875, -19.687500000000, -4.187500000000, -4.398437500000, 1491214914
-0.002685546875, 0.255126953125, -1.137451171875, -19.687500000000, -4.187500000000, -4.398437500000, 1491214914
-0.002685546875, 0.255126953125, -1.137451171875, -19.687500000000, -4.187500000000, -4.398437500000, 1491214914
-0.002685546875, 0.255126953125, -1.137451171875, -19.687500000000, -4.187500000000, -4.398437500000, 1491214914
0.024414062500, 0.185302734375, -0.995849609375, -1.218750000000, 0.757812500000, -3.031250000000, 1491214914
0.024414062500, 0.185302734375, -0.995849609375, -1.218750000000, 0.757812500000, -3.031250000000, 1491214914
0.024414062500, 0.185302734375, -0.995849609375, -1.218750000000, 0.757812500000, -3.031250000000, 1491214914
0.042480468750, 0.293457031250, -0.931396484375, -6.843750000000, 2.812500000000, -6.085937500000, 1491214914
0.042480468750, 0.293457031250, -0.931396484375, -6.843750000000, 2.812500000000, -6.085937500000, 1491214914
0.042480468750, 0.293457031250, -0.931396484375, -6.843750000000, 2.812500000000, -6.085937500000, 1491214914
0.042480468750, 0.293457031250, -0.931396484375, -6.843750000000, 2.812500000000, -6.085937500000, 1491214914
-0.072998046875, 0.325683593750, -0.895751953125, -5.492187500000, 2.843750000000, -4.367187500000, 1491214915
-0.072998046875, 0.325683593750, -0.895751953125, -5.492187500000, 2.843750000000, -4.367187500000, 1491214915
-0.072998046875, 0.325683593750, -0.895751953125, -5.492187500000, 2.843750000000, -4.367187500000, 1491214915
0.070800781250, 0.232421875000, -0.865478515625, -5.570312500000, -0.125000000000, -6.851562500000, 1491214915
0.070800781250, 0.232421875000, -0.865478515625, -5.570312500000, -0.125000000000, -6.851562500000, 1491214915
0.070800781250, 0.232421875000, -0.865478515625, -5.570312500000, -0.125000000000, -6.851562500000, 1491214915
-0.069580078125, 0.170654296875, -0.934326171875, -3.843750000000, 2.171875000000, -4.906250000000, 1491214915
-0.069580078125, 0.170654296875, -0.934326171875, -3.843750000000, 2.171875000000, -4.906250000000, 1491214915
-0.069580078125, 0.170654296875, -0.934326171875, -3.843750000000, 2.171875000000, -4.906250000000, 1491214915
0.074707031250, 0.228759765625, -1.015869140625, -3.984375000000, -0.312500000000, -6.375000000000, 1491214915
0.074707031250, 0.228759765625, -1.015869140625, -3.984375000000, -0.312500000000, -6.375000000000, 1491214915
0.074707031250, 0.228759765625, -1.015869140625, -3.984375000000, -0.312500000000, -6.375000000000, 1491214915
0.074707031250, 0.228759765625, -1.015869140625, -3.984375000000, -0.312500000000, -6.375000000000, 1491214915
0.076416015625, 0.167236328125, -0.965820312500, -3.273437500000, -0.945312500000, -6.562500000000, 1491214915
0.004150390625, 0.302490234375, -0.854248046875, -1.937500000000, -1.242187500000, -3.343750000000, 1491214915
0.004150390625, 0.302490234375, -0.854248046875, -1.937500000000, -1.242187500000, -3.343750000000, 1491214915
-0.045410156250, 0.223144531250, -0.954589843750, -1.851562500000, -2.531250000000, -3.578125000000, 1491214915
-0.045410156250, 0.223144531250, -0.954589843750, -1.851562500000, -2.531250000000, -3.578125000000, 1491214915
-0.045410156250, 0.223144531250, -0.954589843750, -1.851562500000, -2.531250000000, -3.578125000000, 1491214915
-0.045410156250, 0.223144531250, -0.954589843750, -1.851562500000, -2.531250000000, -3.578125000000, 1491214915
-0.045410156250, 0.223144531250, -0.954589843750, -1.851562500000, -2.531250000000, -3.578125000000, 1491214915
-0.018310546875, 0.268554687500, -0.907226562500, 0.507812500000, -2.226562500000, -3.921875000000, 1491214915
-0.018310546875, 0.268554687500, -0.907226562500, 0.507812500000, -2.226562500000, -3.921875000000, 1491214915
-0.018310546875, 0.268554687500, -0.907226562500, 0.507812500000, -2.226562500000, -3.921875000000, 1491214915
-0.018310546875, 0.268554687500, -0.907226562500, 0.507812500000, -2.226562500000, -3.921875000000, 1491214915
-0.018310546875, 0.268554687500, -0.907226562500, 0.507812500000, -2.226562500000, -3.921875000000, 1491214915
-0.013183593750, 0.220214843750, -1.031005859375, -1.664062500000, -0.125000000000, -1.429687500000, 1491214915
-0.013183593750, 0.220214843750, -1.031005859375, -1.664062500000, -0.125000000000, -1.429687500000, 1491214915
-0.013183593750, 0.220214843750, -1.031005859375, -1.664062500000, -0.125000000000, -1.429687500000, 1491214915
-0.063476562500, 0.243164062500, -0.911865234375, -4.953125000000, 0.156250000000, -3.031250000000, 1491214915
-0.063476562500, 0.243164062500, -0.911865234375, -4.953125000000, 0.156250000000, -3.031250000000, 1491214915
-0.063476562500, 0.243164062500, -0.911865234375, -4.953125000000, 0.156250000000, -3.031250000000, 1491214915
0.024902343750, 0.222900390625, -0.874755859375, -3.171875000000, 0.500000000000, -3.765625000000, 1491214915
0.001220703125, 0.164550781250, -0.922607421875, -4.507812500000, -0.679687500000, -5.367187500000, 1491214915
0.001220703125, 0.164550781250, -0.922607421875, -4.507812500000, -0.679687500000, -5.367187500000, 1491214915
0.071289062500, 0.334472656250, -0.934570312500, -3.281250000000, 0.914062500000, -1.765625000000, 1491214915
0.071289062500, 0.334472656250, -0.934570312500, -3.281250000000, 0.914062500000, -1.765625000000, 1491214915
0.071289062500, 0.334472656250, -0.934570312500, -3.281250000000, 0.914062500000, -1.765625000000, 1491214915
0.071289062500, 0.334472656250, -0.934570312500, -3.281250000000, 0.914062500000, -1.765625000000, 1491214915
0.071289062500, 0.334472656250, -0.934570312500, -3.281250000000, 0.914062500000, -1.765625000000, 1491214915
0.027832031250, 0.224121093750, -0.965087890625, -6.804687500000, -0.851562500000, -3.578125000000, 1491214915
0.027832031250, 0.224121093750, -0.965087890625, -6.804687500000, -0.851562500000, -3.578125000000, 1491214915
0.027832031250, 0.224121093750, -0.965087890625, -6.804687500000, -0.851562500000, -3.578125000000, 1491214915
0.027832031250, 0.224121093750, -0.965087890625, -6.804687500000, -0.851562500000, -3.578125000000, 1491214915
0.027832031250, 0.224121093750, -0.965087890625, -6.804687500000, -0.851562500000, -3.578125000000, 1491214915
0.072509765625, 0.245849609375, -1.003173828125, -4.757812500000, 0.632812500000, -5.726562500000, 1491214915
0.072509765625, 0.245849609375, -1.003173828125, -4.757812500000, 0.632812500000, -5.726562500000, 1491214915
0.072509765625, 0.245849609375, -1.003173828125, -4.757812500000, 0.632812500000, -5.726562500000, 1491214915
-0.077636718750, 0.321289062500, -0.918457031250, -6.171875000000, -0.351562500000, -3.164062500000, 1491214915
-0.077636718750, 0.321289062500, -0.918457031250, -6.171875000000, -0.351562500000, -3.164062500000, 1491214915
-0.077636718750, 0.321289062500, -0.918457031250, -6.171875000000, -0.351562500000, -3.164062500000, 1491214915
-0.077636718750, 0.321289062500, -0.918457031250, -6.171875000000, -0.351562500000, -3.164062500000, 1491214915
0.022949218750, 0.234130859375, -0.872558593750, -6.054687500000, -0.578125000000, -4.851562500000, 1491214915
0.022949218750, 0.234130859375, -0.872558593750, -6.054687500000, -0.578125000000, -4.851562500000, 1491214915
0.022949218750, 0.234130859375, -0.872558593750, -6.054687500000, -0.578125000000, -4.851562500000, 1491214915
0.015869140625, 0.277099609375, -0.932617187500, -7.789062500000, 2.070312500000, -6.195312500000, 1491214915
0.015869140625, 0.277099609375, -0.932617187500, -7.789062500000, 2.070312500000, -6.195312500000, 1491214915
0.015869140625, 0.277099609375, -0.932617187500, -7.789062500000, 2.070312500000, -6.195312500000, 1491214915
0.015869140625, 0.277099609375, -0.932617187500, -7.789062500000, 2.070312500000, -6.195312500000, 1491214915
-0.030517578125, 0.118896484375, -0.928710937500, -7.015625000000, -0.187500000000, -5.046875000000, 1491214915
-0.086914062500, 0.262207031250, -1.011962890625, -5.453125000000, -0.500000000000, -4.515625000000, 1491214915
-0.086914062500, 0.262207031250, -1.011962890625, -5.453125000000, -0.500000000000, -4.515625000000, 1491214915
-0.086914062500, 0.262207031250, -1.011962890625, -5.453125000000, -0.500000000000, -4.515625000000, 1491214915
-0.086914062500, 0.262207031250, -1.011962890625, -5.453125000000, -0.500000000000, -4.515625000000, 1491214915
-0.086914062500, 0.262207031250, -1.011962890625, -5.453125000000, -0.500000000000, -4.515625000000, 1491214915
-0.002929687500, 0.241943359375, -0.923828125000, -3.093750000000, 0.468750000000, -5.156250000000, 1491214915
-0.002929687500, 0.241943359375, -0.923828125000, -3.093750000000, 0.468750000000, -5.156250000000, 1491214915
-0.002929687500, 0.241943359375, -0.923828125000, -3.093750000000, 0.468750000000, -5.156250000000, 1491214916
0.014892578125, 0.181152343750, -0.870849609375, -3.031250000000, -2.351562500000, -4.390625000000, 1491214916
0.014892578125, 0.181152343750, -0.870849609375, -3.031250000000, -2.351562500000, -4.390625000000, 1491214916
0.014892578125, 0.181152343750, -0.870849609375, -3.031250000000, -2.351562500000, -4.390625000000, 1491214916
0.072753906250, 0.230468750000, -0.910888671875, -4.773437500000, 0.132812500000, -3.648437500000, 1491214916
0.072753906250, 0.230468750000, -0.910888671875, -4.773437500000, 0.132812500000, -3.648437500000, 1491214916
0.072753906250, 0.230468750000, -0.910888671875, -4.773437500000, 0.132812500000, -3.648437500000, 1491214916
-0.061035156250, 0.223388671875, -1.026123046875, -2.593750000000, -0.617187500000, -4.351562500000, 1491214916
-0.061035156250, 0.223388671875, -1.026123046875, -2.593750000000, -0.617187500000, -4.351562500000, 1491214916
-0.061035156250, 0.223388671875, -1.026123046875, -2.593750000000, -0.617187500000, -4.351562500000, 1491214916
-0.061035156250, 0.223388671875, -1.026123046875, -2.593750000000, -0.617187500000, -4.351562500000, 1491214916
-0.000488281250, 0.294433593750, -0.908691406250, -4.429687500000, -2.570312500000, -4.640625000000, 1491214916
-0.000488281250, 0.294433593750, -0.908691406250, -4.429687500000, -2.570312500000, -4.640625000000, 1491214916
-0.000488281250, 0.294433593750, -0.908691406250, -4.429687500000, -2.570312500000, -4.640625000000, 1491214916
0.132080078125, 0.278076171875, -1.004150390625, -1.078125000000, -2.992187500000, -6.125000000000, 1491214916
0.132080078125, 0.278076171875, -1.004150390625, -1.078125000000, -2.992187500000, -6.125000000000, 1491214916
0.132080078125, 0.278076171875, -1.004150390625, -1.078125000000, -2.992187500000, -6.125000000000, 1491214916
-0.023681640625, 0.246826171875, -0.929443359375, -3.375000000000, -2.117187500000, -3.625000000000, 1491214916
-0.023681640625, 0.246826171875, -0.929443359375, -3.375000000000, -2.117187500000, -3.625000000000, 1491214916
-0.023681640625, 0.246826171875, -0.929443359375, -3.375000000000, -2.117187500000, -3.625000000000, 1491214916
-0.017578125000, 0.272949218750, -0.961914062500, -1.773437500000, 0.093750000000, -3.914062500000, 1491214916
-0.017578125000, 0.272949218750, -0.961914062500, -1.773437500000, 0.093750000000, -3.914062500000, 1491214916
-0.017578125000, 0.272949218750, -0.961914062500, -1.773437500000, 0.093750000000, -3.914062500000, 1491214916
-0.017578125000, 0.272949218750, -0.961914062500, -1.773437500000, 0.093750000000, -3.914062500000, 1491214916
0.006347656250, 0.314208984375, -0.939697265625, -6.367187500000, 0.500000000000, -3.437500000000, 1491214916
0.006347656250, 0.314208984375, -0.939697265625, -6.367187500000, 0.500000000000, -3.437500000000, 1491214916
0.006347656250, 0.314208984375, -0.939697265625, -6.367187500000, 0.500000000000, -3.437500000000, 1491214916
0.025878906250, 0.269775390625, -1.023437500000, -4.226562500000, 0.234375000000, -6.062500000000, 1491214916
0.025878906250, 0.269775390625, -1.023437500000, -4.226562500000, 0.234375000000, -6.062500000000, 1491214916
0.025878906250, 0.269775390625, -1.023437500000, -4.226562500000, 0.234375000000, -6.062500000000, 1491214916
-0.008056640625, 0.336669921875, -0.950927734375, -3.062500000000, 0.484375000000, -3.601562500000, 1491214916
-0.008056640625, 0.336669921875, -0.950927734375, -3.062500000000, 0.484375000000, -3.601562500000, 1491214916
-0.008056640625, 0.336669921875, -0.950927734375, -3.062500000000, 0.484375000000, -3.601562500000, 1491214916
0.047363281250, 0.327392578125, -0.964111328125, -3.023437500000, 0.968750000000, -5.328125000000, 1491214916
0.047363281250, 0.327392578125, -0.964111328125, -3.023437500000, 0.968750000000, -5.328125000000, 1491214916
0.047363281250, 0.327392578125, -0.964111328125, -3.023437500000, 0.968750000000, -5.328125000000, 1491214916
0.047363281250, 0.327392578125, -0.964111328125, -3.023437500000, 0.968750000000, -5.328125000000, 1491214916
0.020019531250, 0.260009765625, -0.919189453125, -4.632812500000, 2.062500000000, -3.125000000000, 1491214916
0.020019531250, 0.260009765625, -0.919189453125, -4.632812500000, 2.062500000000, -3.125000000000, 1491214916
0.020019531250, 0.260009765625, -0.919189453125, -4.632812500000, 2.062500000000, -3.125000000000, 1491214916
-0.062500000000, 0.178710937500, -0.927246093750, -4.875000000000, 0.132812500000, -1.164062500000, 1491214916
-0.062500000000, 0.178710937500, -0.927246093750, -4.875000000000, 0.132812500000, -1.164062500000, 1491214916
-0.062500000000, 0.178710937500, -0.927246093750, -4.875000000000, 0.132812500000, -1.164062500000, 1491214916
0.075195312500, 0.238037109375, -1.010009765625, -3.757812500000, -0.617187500000, -4.625000000000, 1491214916
0.075195312500, 0.238037109375, -1.010009765625, -3.757812500000, -0.617187500000, -4.625000000000, 1491214916
0.075195312500, 0.238037109375, -1.010009765625, -3.757812500000, -0.617187500000, -4.625000000000, 1491214916
0.007324218750, 0.211425781250, -1.013183593750, -3.632812500000, 2.015625000000, -4.062500000000, 1491214916
0.007324218750, 0.211425781250, -1.013183593750, -3.632812500000, 2.015625000000, -4.062500000000, 1491214916
0.007324218750, 0.211425781250, -1.013183593750, -3.632812500000, 2.015625000000, -4.062500000000, 1491214916
0.007324218750, 0.211425781250, -1.013183593750, -3.632812500000, 2.015625000000, -4.062500000000, 1491214916
-0.067626953125, 0.281982421875, -0.916503906250, -3.085937500000, -0.140625000000, -4.789062500000, 1491214916
-0.067626953125, 0.281982421875, -0.916503906250, -3.085937500000, -0.140625000000, -4.789062500000, 1491214916
-0.067626953125, 0.281982421875, -0.916503906250, -3.085937500000, -0.140625000000, -4.789062500000, 1491214916
0.047851562500, 0.269531250000, -0.917724609375, -6.718750000000, 0.273437500000, -4.890625000000, 1491214916
0.047851562500, 0.269531250000, -0.917724609375, -6.718750000000, 0.273437500000, -4.890625000000, 1491214916
0.047851562500, 0.269531250000, -0.917724609375, -6.718750000000, 0.273437500000, -4.890625000000, 1491214916
-0.023437500000, 0.174316406250, -0.865234375000, -3.093750000000, -0.210937500000, -3.617187500000, 1491214916
-0.023437500000, 0.174316406250, -0.865234375000, -3.093750000000, -0.210937500000, -3.617187500000, 1491214916
-0.023437500000, 0.174316406250, -0.865234375000, -3.093750000000, -0.210937500000, -3.617187500000, 1491214916
0.028076171875, 0.212890625000, -0.956787109375, -4.937500000000, 0.382812500000, -4.039062500000, 1491214916
0.028076171875, 0.212890625000, -0.956787109375, -4.937500000000, 0.382812500000, -4.039062500000, 1491214916
0.028076171875, 0.212890625000, -0.956787109375, -4.937500000000, 0.382812500000, -4.039062500000, 1491214916
0.028076171875, 0.212890625000, -0.956787109375, -4.937500000000, 0.382812500000, -4.039062500000, 1491214916
0.011962890625, 0.251220703125, -0.916015625000, -3.867187500000, 0.968750000000, -1.609375000000, 1491214916
0.011962890625, 0.251220703125, -0.916015625000, -3.867187500000, 0.968750000000, -1.609375000000, 1491214916
0.011962890625, 0.251220703125, -0.916015625000, -3.867187500000, 0.968750000000, -1.609375000000, 1491214916
0.070312500000, 0.234130859375, -1.027343750000, -6.679687500000, -2.046875000000, -3.148437500000, 1491214917
0.070312500000, 0.234130859375, -1.027343750000, -6.679687500000, -2.046875000000, -3.148437500000, 1491214917
0.070312500000, 0.234130859375, -1.027343750000, -6.679687500000, -2.046875000000, -3.148437500000, 1491214917
0.092773437500, 0.322753906250, -0.928222656250, -6.843750000000, -2.398437500000, -4.585937500000, 1491214917
0.092773437500, 0.322753906250, -0.928222656250, -6.843750000000, -2.398437500000, -4.585937500000, 1491214917
0.092773437500, 0.322753906250, -0.928222656250, -6.843750000000, -2.398437500000, -4.585937500000, 1491214917
0.023437500000, 0.312011718750, -0.948730468750, -3.992187500000, 0.828125000000, -3.054687500000, 1491214917
0.023437500000, 0.312011718750, -0.948730468750, -3.992187500000, 0.828125000000, -3.054687500000, 1491214917
0.023437500000, 0.312011718750, -0.948730468750, -3.992187500000, 0.828125000000, -3.054687500000, 1491214917
0.023437500000, 0.312011718750, -0.948730468750, -3.992187500000, 0.828125000000, -3.054687500000, 1491214917
-0.066406250000, 0.253662109375, -1.018310546875, -6.257812500000, 0.226562500000, -4.187500000000, 1491214917
-0.066406250000, 0.253662109375, -1.018310546875, -6.257812500000, 0.226562500000, -4.187500000000, 1491214917
-0.066406250000, 0.253662109375, -1.018310546875, -6.257812500000, 0.226562500000, -4.187500000000, 1491214917
-0.017089843750, 0.268066406250, -0.946533203125, -3.304687500000, -0.234375000000, -4.851562500000, 1491214917
-0.017089843750, 0.268066406250, -0.946533203125, -3.304687500000, -0.234375000000, -4.851562500000, 1491214917
-0.017089843750, 0.268066406250, -0.946533203125, -3.304687500000, -0.234375000000, -4.851562500000, 1491214917
0.017822265625, 0.271728515625, -0.937255859375, -4.781250000000, -0.968750000000, -8.148437500000, 1491214917
0.017822265625, 0.271728515625, -0.937255859375, -4.781250000000, -0.968750000000, -8.148437500000, 1491214917
0.017822265625, 0.271728515625, -0.937255859375, -4.781250000000, -0.968750000000, -8.148437500000, 1491214917
-0.016601562500, 0.337890625000, -0.968261718750, -6.117187500000, 0.257812500000, -3.812500000000, 1491214917
0.028808593750, 0.269287109375, -1.014160156250, -6.843750000000, -0.320312500000, -4.796875000000, 1491214917
0.028808593750, 0.269287109375, -1.014160156250, -6.843750000000, -0.320312500000, -4.796875000000, 1491214917
0.041992187500, 0.326660156250, -0.909667968750, -3.585937500000, 0.375000000000, -4.367187500000, 1491214917
0.041992187500, 0.326660156250, -0.909667968750, -3.585937500000, 0.375000000000, -4.367187500000, 1491214917
0.041992187500, 0.326660156250, -0.909667968750, -3.585937500000, 0.375000000000, -4.367187500000, 1491214917
0.041992187500, 0.326660156250, -0.909667968750, -3.585937500000, 0.375000000000, -4.367187500000, 1491214917
0.041992187500, 0.326660156250, -0.909667968750, -3.585937500000, 0.375000000000, -4.367187500000, 1491214917
0.041992187500, 0.326660156250, -0.909667968750, -3.585937500000, 0.375000000000, -4.367187500000, 1491214917
-0.001953125000, 0.167968750000, -1.005371093750, -4.640625000000, -2.953125000000, -3.062500000000, 1491214917
-0.001953125000, 0.167968750000, -1.005371093750, -4.640625000000, -2.953125000000, -3.062500000000, 1491214917
-0.001953125000, 0.167968750000, -1.005371093750, -4.640625000000, -2.953125000000, -3.062500000000, 1491214917
-0.001953125000, 0.167968750000, -1.005371093750, -4.640625000000, -2.953125000000, -3.062500000000, 1491214917
-0.007568359375, 0.228271484375, -0.857910156250, -3.187500000000, -0.757812500000, -3.453125000000, 1491214917
-0.007568359375, 0.228271484375, -0.857910156250, -3.187500000000, -0.757812500000, -3.453125000000, 1491214917
-0.007568359375, 0.228271484375, -0.857910156250, -3.187500000000, -0.757812500000, -3.453125000000, 1491214917
-0.007568359375, 0.228271484375, -0.857910156250, -3.187500000000, -0.757812500000, -3.453125000000, 1491214917
0.087402343750, 0.246337890625, -0.961669921875, -4.750000000000, 0.578125000000, -4.593750000000, 1491214917
0.087402343750, 0.246337890625, -0.961669921875, -4.750000000000, 0.578125000000, -4.593750000000, 1491214917
0.087402343750, 0.246337890625, -0.961669921875, -4.750000000000, 0.578125000000, -4.593750000000, 1491214917
0.021484375000, 0.267822265625, -1.074951171875, -6.710937500000, -0.562500000000, -4.148437500000, 1491214917
0.021484375000, 0.267822265625, -1.074951171875, -6.710937500000, -0.562500000000, -4.148437500000, 1491214917
0.021484375000, 0.267822265625, -1.074951171875, -6.710937500000, -0.562500000000, -4.148437500000, 1491214917
0.082519531250, 0.282714843750, -0.912109375000, -2.000000000000, 0.750000000000, -3.148437500000, 1491214917
0.082519531250, 0.282714843750, -0.912109375000, -2.000000000000, 0.750000000000, -3.148437500000, 1491214917
0.082519531250, 0.282714843750, -0.912109375000, -2.000000000000, 0.750000000000, -3.148437500000, 1491214917
0.082519531250, 0.282714843750, -0.912109375000, -2.000000000000, 0.750000000000, -3.148437500000, 1491214917
0.027832031250, 0.269775390625, -1.025390625000, -3.921875000000, -0.960937500000, -5.140625000000, 1491214917
0.027832031250, 0.269775390625, -1.025390625000, -3.921875000000, -0.960937500000, -5.140625000000, 1491214917
0.027832031250, 0.269775390625, -1.025390625000, -3.921875000000, -0.960937500000, -5.140625000000, 1491214917
0.027832031250, 0.269775390625, -1.025390625000, -3.921875000000, -0.960937500000, -5.140625000000, 1491214917
0.027832031250, 0.269775390625, -1.025390625000, -3.921875000000, -0.960937500000, -5.140625000000, 1491214917
0.027832031250, 0.269775390625, -1.025390625000, -3.921875000000, -0.960937500000, -5.140625000000, 1491214917
-0.005615234375, 0.324218750000, -0.958496093750, -10.703125000000, -4.234375000000, -4.351562500000, 1491214917
-0.005615234375, 0.324218750000, -0.958496093750, -10.703125000000, -4.234375000000, -4.351562500000, 1491214917
