ACC_X,ACC_Y,ACC_Z,G_X,G_Y,G_Z,Unix Time
0.143798828125, -0.793457031250, 0.526611328125, -0.406250000000, -0.390625000000, -4.804687500000, 1491214681
0.143798828125, -0.793457031250, 0.526611328125, -0.406250000000, -0.390625000000, -4.804687500000, 1491214681
0.143798828125, -0.793457031250, 0.526611328125, -0.406250000000, -0.390625000000, -4.804687500000, 1491214681
0.143798828125, -0.793457031250, 0.526611328125, -0.406250000000, -0.390625000000, -4.804687500000, 1491214681
0.148437500000, -0.844238281250, 0.525390625000, 0.640625000000, 3.789062500000, -2.937500000000, 1491214681
0.148437500000, -0.844238281250, 0.525390625000, 0.640625000000, 3.789062500000, -2.937500000000, 1491214681
0.148437500000, -0.844238281250, 0.525390625000, 0.640625000000, 3.789062500000, -2.937500000000, 1491214681
0.110595703125, -0.938720703125, 0.485839843750, -1.601562500000, 4.460937500000, -3.984375000000, 1491214681
0.110595703125, -0.938720703125, 0.485839843750, -1.601562500000, 4.460937500000, -3.984375000000, 1491214681
0.110595703125, -0.938720703125, 0.485839843750, -1.601562500000, 4.460937500000, -3.984375000000, 1491214681
0.149658203125, -0.895019531250, 0.499267578125, -1.265625000000, 3.875000000000, -2.554687500000, 1491214681
0.149658203125, -0.895019531250, 0.499267578125, -1.265625000000, 3.875000000000, -2.554687500000, 1491214681
0.149658203125, -0.895019531250, 0.499267578125, -1.265625000000, 3.875000000000, -2.554687500000, 1491214681
0.135986328125, -0.938232421875, 0.516601562500, -10.117187500000, 23.593750000000, -7.695312500000, 1491214681
0.135986328125, -0.938232421875, 0.516601562500, -10.117187500000, 23.593750000000, -7.695312500000, 1491214681
0.135986328125, -0.938232421875, 0.516601562500, -10.117187500000, 23.593750000000, -7.695312500000, 1491214681
0.135986328125, -0.938232421875, 0.516601562500, -10.117187500000, 23.593750000000, -7.695312500000, 1491214681
0.143554687500, -0.944335937500, 0.417236328125, -3.328125000000, 17.750000000000, -5.890625000000, 1491214681
0.143554687500, -0.944335937500, 0.417236328125, -3.328125000000, 17.750000000000, -5.890625000000, 1491214681
0.143554687500, -0.944335937500, 0.417236328125, -3.328125000000, 17.750000000000, -5.890625000000, 1491214681
0.092041015625, -1.001708984375, 0.440185546875, -3.968750000000, 15.789062500000, -6.812500000000, 1491214681
0.187744140625, -0.845947265625, 0.460693359375, -4.320312500000, 5.968750000000, -3.875000000000, 1491214681
0.187744140625, -0.845947265625, 0.460693359375, -4.320312500000, 5.968750000000, -3.875000000000, 1491214681
0.092529296875, -0.941650390625, 0.417968750000, -4.812500000000, 6.210937500000, -5.429687500000, 1491214681
0.092529296875, -0.941650390625, 0.417968750000, -4.812500000000, 6.210937500000, -5.429687500000, 1491214681
0.092529296875, -0.941650390625, 0.417968750000, -4.812500000000, 6.210937500000, -5.429687500000, 1491214681
0.092529296875, -0.941650390625, 0.417968750000, -4.812500000000, 6.210937500000, -5.429687500000, 1491214681
0.138671875000, -0.864746093750, 0.427001953125, -5.781250000000, -2.765625000000, -6.375000000000, 1491214682
0.126708984375, -0.856445312500, 0.565917968750, -3.953125000000, -3.226562500000, -6.890625000000, 1491214682
0.126708984375, -0.856445312500, 0.565917968750, -3.953125000000, -3.226562500000, -6.890625000000, 1491214682
0.126708984375, -0.856445312500, 0.565917968750, -3.953125000000, -3.226562500000, -6.890625000000, 1491214682
0.126708984375, -0.856445312500, 0.565917968750, -3.953125000000, -3.226562500000, -6.890625000000, 1491214682
0.126708984375, -0.856445312500, 0.565917968750, -3.953125000000, -3.226562500000, -6.890625000000, 1491214682
0.149902343750, -0.841552734375, 0.418701171875, -6.570312500000, -7.703125000000, -6.539062500000, 1491214682
0.149902343750, -0.841552734375, 0.418701171875, -6.570312500000, -7.703125000000, -6.539062500000, 1491214682
0.149902343750, -0.841552734375, 0.418701171875, -6.570312500000, -7.703125000000, -6.539062500000, 1491214682
0.054443359375, -0.901367187500, 0.509521484375, -4.210937500000, -10.828125000000, -8.820312500000, 1491214682
0.054443359375, -0.901367187500, 0.509521484375, -4.210937500000, -10.828125000000, -8.820312500000, 1491214682
0.077636718750, -0.862304687500, 0.460449218750, -6.921875000000, -1.585937500000, -5.890625000000, 1491214682
0.077636718750, -0.862304687500, 0.460449218750, -6.921875000000, -1.585937500000, -5.890625000000, 1491214682
0.077636718750, -0.862304687500, 0.460449218750, -6.921875000000, -1.585937500000, -5.890625000000, 1491214682
0.077636718750, -0.862304687500, 0.460449218750, -6.921875000000, -1.585937500000, -5.890625000000, 1491214682
0.116699218750, -1.003662109375, 0.416748046875, -6.289062500000, 0.476562500000, -5.085937500000, 1491214682
0.116699218750, -1.003662109375, 0.416748046875, -6.289062500000, 0.476562500000, -5.085937500000, 1491214682
0.116699218750, -1.003662109375, 0.416748046875, -6.289062500000, 0.476562500000, -5.085937500000, 1491214682
0.116699218750, -1.003662109375, 0.416748046875, -6.289062500000, 0.476562500000, -5.085937500000, 1491214682
0.151367187500, -0.844482421875, 0.562988281250, -8.210937500000, 2.929687500000, -6.882812500000, 1491214682
0.151367187500, -0.844482421875, 0.562988281250, -8.210937500000, 2.929687500000, -6.882812500000, 1491214682
0.151367187500, -0.844482421875, 0.562988281250, -8.210937500000, 2.929687500000, -6.882812500000, 1491214682
0.061035156250, -0.809814453125, 0.411865234375, -2.812500000000, -0.500000000000, -6.125000000000, 1491214682
0.061035156250, -0.809814453125, 0.411865234375, -2.812500000000, -0.500000000000, -6.125000000000, 1491214682
0.061035156250, -0.809814453125, 0.411865234375, -2.812500000000, -0.500000000000, -6.125000000000, 1491214682
0.070312500000, -0.860839843750, 0.474609375000, -2.929687500000, -2.796875000000, -3.062500000000, 1491214682
0.070312500000, -0.860839843750, 0.474609375000, -2.929687500000, -2.796875000000, -3.062500000000, 1491214682
0.070312500000, -0.860839843750, 0.474609375000, -2.929687500000, -2.796875000000, -3.062500000000, 1491214682
0.070312500000, -0.860839843750, 0.474609375000, -2.929687500000, -2.796875000000, -3.062500000000, 1491214682
0.062011718750, -0.803955078125, 0.477783203125, -1.304687500000, 6.125000000000, -4.703125000000, 1491214682
0.062011718750, -0.803955078125, 0.477783203125, -1.304687500000, 6.125000000000, -4.703125000000, 1491214682
0.062011718750, -0.803955078125, 0.477783203125, -1.304687500000, 6.125000000000, -4.703125000000, 1491214682
0.086669921875, -0.851806640625, 0.577636718750, -4.148437500000, 1.882812500000, -1.937500000000, 1491214682
0.086669921875, -0.851806640625, 0.577636718750, -4.148437500000, 1.882812500000, -1.937500000000, 1491214682
0.086669921875, -0.851806640625, 0.577636718750, -4.148437500000, 1.882812500000, -1.937500000000, 1491214682
0.125244140625, -0.939697265625, 0.496093750000, -3.187500000000, 1.531250000000, -4.609375000000, 1491214682
0.125244140625, -0.939697265625, 0.496093750000, -3.187500000000, 1.531250000000, -4.609375000000, 1491214682
0.125244140625, -0.939697265625, 0.496093750000, -3.187500000000, 1.531250000000, -4.609375000000, 1491214682
0.073974609375, -0.954101562500, 0.484375000000, -3.117187500000, -0.773437500000, -2.914062500000, 1491214682
0.073974609375, -0.954101562500, 0.484375000000, -3.117187500000, -0.773437500000, -2.914062500000, 1491214682
0.073974609375, -0.954101562500, 0.484375000000, -3.117187500000, -0.773437500000, -2.914062500000, 1491214682
-0.017333984375, -0.845214843750, 0.413818359375, -4.390625000000, -1.000000000000, -1.046875000000, 1491214682
-0.017333984375, -0.845214843750, 0.413818359375, -4.390625000000, -1.000000000000, -1.046875000000, 1491214682
-0.017333984375, -0.845214843750, 0.413818359375, -4.617187500000, 1.554687500000, -2.750000000000, 1491214682
0.060058593750, -0.882568359375, 0.514648437500, -3.968750000000, 2.132812500000, -1.726562500000, 1491214682
0.060058593750, -0.882568359375, 0.514648437500, -3.968750000000, 2.132812500000, -1.726562500000, 1491214682
0.060058593750, -0.882568359375, 0.514648437500, -3.968750000000, 2.132812500000, -1.726562500000, 1491214682
0.060058593750, -0.882568359375, 0.514648437500, -3.968750000000, 2.132812500000, -1.726562500000, 1491214682
0.081298828125, -0.914794921875, 0.513671875000, -1.515625000000, -4.929687500000, -8.054687500000, 1491214682
0.081298828125, -0.914794921875, 0.513671875000, -1.515625000000, -4.929687500000, -8.054687500000, 1491214682
0.081298828125, -0.914794921875, 0.513671875000, -1.515625000000, -4.929687500000, -8.054687500000, 1491214682
0.116699218750, -0.869628906250, 0.506103515625, -3.007812500000, -0.195312500000, -6.992187500000, 1491214682
0.092041015625, -0.870605468750, 0.501220703125, -1.398437500000, 0.054687500000, -3.343750000000, 1491214682
0.092041015625, -0.870605468750, 0.501220703125, -1.398437500000, 0.054687500000, -3.343750000000, 1491214682
0.092041015625, -0.870605468750, 0.501220703125, -1.398437500000, 0.054687500000, -3.343750000000, 1491214682
0.045898437500, -0.845458984375, 0.514892578125, -2.726562500000, 1.367187500000, -3.429687500000, 1491214682
0.045898437500, -0.845458984375, 0.514892578125, -2.726562500000, 1.367187500000, -3.429687500000, 1491214682
0.045898437500, -0.845458984375, 0.514892578125, -2.726562500000, 1.367187500000, -3.429687500000, 1491214682
0.066650390625, -0.894042968750, 0.450439453125, 0.250000000000, -1.109375000000, -4.812500000000, 1491214682
0.066650390625, -0.894042968750, 0.450439453125, 0.250000000000, -1.109375000000, -4.812500000000, 1491214682
0.066650390625, -0.894042968750, 0.450439453125, 0.250000000000, -1.109375000000, -4.812500000000, 1491214682
0.067626953125, -0.889404296875, 0.504150390625, -2.429687500000, 6.867187500000, -4.507812500000, 1491214682
0.067626953125, -0.889404296875, 0.504150390625, -2.429687500000, 6.867187500000, -4.507812500000, 1491214682
0.067626953125, -0.889404296875, 0.504150390625, -2.429687500000, 6.867187500000, -4.507812500000, 1491214682
0.083740234375, -0.895507812500, 0.410400390625, -2.750000000000, 0.867187500000, -3.554687500000, 1491214682
0.083740234375, -0.895507812500, 0.410400390625, -2.750000000000, 0.867187500000, -3.554687500000, 1491214682
0.083740234375, -0.895507812500, 0.410400390625, -2.750000000000, 0.867187500000, -3.554687500000, 1491214683
0.155517578125, -0.855224609375, 0.504394531250, -3.375000000000, -2.039062500000, -4.968750000000, 1491214683
0.155517578125, -0.855224609375, 0.504394531250, -3.375000000000, -2.039062500000, -4.968750000000, 1491214683
0.111328125000, -0.955810546875, 0.499511718750, -1.484375000000, -1.507812500000, -5.812500000000, 1491214683
0.111328125000, -0.955810546875, 0.499511718750, -1.484375000000, -1.507812500000, -5.812500000000, 1491214683
0.111328125000, -0.955810546875, 0.499511718750, -1.484375000000, -1.507812500000, -5.812500000000, 1491214683
0.131835937500, -0.925048828125, 0.499511718750, -6.515625000000, -5.468750000000, -6.773437500000, 1491214683
0.131835937500, -0.925048828125, 0.499511718750, -6.515625000000, -5.468750000000, -6.773437500000, 1491214683
0.131835937500, -0.925048828125, 0.499511718750, -6.515625000000, -5.468750000000, -6.773437500000, 1491214683
0.131835937500, -0.925048828125, 0.499511718750, -6.515625000000, -5.468750000000, -6.773437500000, 1491214683
0.131835937500, -0.925048828125, 0.499511718750, -6.515625000000, -5.468750000000, -6.773437500000, 1491214683
0.084716796875, -0.938232421875, 0.517089843750, -4.960937500000, -1.179687500000, -3.929687500000, 1491214683
0.084716796875, -0.938232421875, 0.517089843750, -4.960937500000, -1.179687500000, -3.929687500000, 1491214683
0.084716796875, -0.938232421875, 0.517089843750, -4.960937500000, -1.179687500000, -3.929687500000, 1491214683
0.084716796875, -0.938232421875, 0.517089843750, -4.960937500000, -1.179687500000, -3.929687500000, 1491214683
0.059570312500, -0.944580078125, 0.499023437500, -7.937500000000, -6.210937500000, -3.429687500000, 1491214683
0.059570312500, -0.944580078125, 0.499023437500, -7.937500000000, -6.210937500000, -3.429687500000, 1491214683
0.059570312500, -0.944580078125, 0.499023437500, -7.937500000000, -6.210937500000, -3.429687500000, 1491214683
0.105224609375, -0.960937500000, 0.482666015625, -5.601562500000, -5.445312500000, -5.539062500000, 1491214683
0.080078125000, -0.867919921875, 0.542480468750, -7.187500000000, -4.835937500000, -6.460937500000, 1491214683
0.080078125000, -0.867919921875, 0.542480468750, -7.187500000000, -4.835937500000, -6.460937500000, 1491214683
0.080078125000, -0.867919921875, 0.542480468750, -7.187500000000, -4.835937500000, -6.460937500000, 1491214683
0.080078125000, -0.867919921875, 0.542480468750, -7.187500000000, -4.835937500000, -6.460937500000, 1491214683
0.034423828125, -0.940917968750, 0.423583984375, -5.851562500000, -2.515625000000, -3.937500000000, 1491214683
0.119384765625, -0.881347656250, 0.409423828125, -5.851562500000, -2.515625000000, -3.937500000000, 1491214683
0.119384765625, -0.881347656250, 0.409423828125, -5.851562500000, -2.515625000000, -3.937500000000, 1491214683
0.119384765625, -0.881347656250, 0.409423828125, -5.851562500000, -2.515625000000, -3.937500000000, 1491214683
0.092773437500, -0.864990234375, 0.426269531250, -6.421875000000, 2.226562500000, -6.148437500000, 1491214683
0.092773437500, -0.864990234375, 0.426269531250, -6.421875000000, 2.226562500000, -6.148437500000, 1491214683
0.092773437500, -0.864990234375, 0.426269531250, -6.421875000000, 2.226562500000, -6.148437500000, 1491214683
0.092773437500, -0.864990234375, 0.426269531250, -6.421875000000, 2.226562500000, -6.148437500000, 1491214683
0.059326171875, -0.927246093750, 0.425781250000, -6.765625000000, -1.000000000000, -3.632812500000, 1491214683
0.059326171875, -0.927246093750, 0.425781250000, -5.953125000000, 2.101562500000, -4.148437500000, 1491214683
0.083496093750, -0.898193359375, 0.460205078125, -3.101562500000, 4.281250000000, -3.523437500000, 1491214683
0.083496093750, -0.898193359375, 0.460205078125, -3.101562500000, 4.281250000000, -3.523437500000, 1491214683
0.083496093750, -0.898193359375, 0.460205078125, -3.101562500000, 4.281250000000, -3.523437500000, 1491214683
0.083496093750, -0.898193359375, 0.460205078125, -3.101562500000, 4.281250000000, -3.523437500000, 1491214683
0.052490234375, -0.968750000000, 0.424560546875, -1.703125000000, -0.343750000000, -3.046875000000, 1491214683
0.052490234375, -0.968750000000, 0.424560546875, -1.703125000000, -0.343750000000, -3.046875000000, 1491214683
0.052490234375, -0.968750000000, 0.424560546875, -1.703125000000, -0.343750000000, -3.046875000000, 1491214683
0.049072265625, -0.893798828125, 0.562988281250, -3.851562500000, 8.632812500000, -4.437500000000, 1491214683
0.049072265625, -0.893798828125, 0.562988281250, -3.851562500000, 8.632812500000, -4.437500000000, 1491214683
0.049072265625, -0.893798828125, 0.562988281250, -3.851562500000, 8.632812500000, -4.437500000000, 1491214683
0.049072265625, -0.893798828125, 0.562988281250, -3.851562500000, 8.632812500000, -4.437500000000, 1491214683
0.140869140625, -0.871826171875, 0.513183593750, -6.226562500000, 6.843750000000, -2.851562500000, 1491214683
0.140869140625, -0.871826171875, 0.513183593750, -6.226562500000, 6.843750000000, -2.851562500000, 1491214683
0.140869140625, -0.871826171875, 0.513183593750, -6.226562500000, 6.843750000000, -2.851562500000, 1491214683
0.057861328125, -0.856445312500, 0.513916015625, -5.101562500000, 1.500000000000, -4.531250000000, 1491214683
0.057861328125, -0.856445312500, 0.513916015625, -5.101562500000, 1.500000000000, -4.531250000000, 1491214683
0.057861328125, -0.856445312500, 0.513916015625, -5.101562500000, 1.500000000000, -4.531250000000, 1491214683
0.057861328125, -0.856445312500, 0.513916015625, -5.101562500000, 1.500000000000, -4.531250000000, 1491214683
0.057861328125, -0.856445312500, 0.513916015625, -5.101562500000, 1.500000000000, -4.531250000000, 1491214683
0.057861328125, -0.856445312500, 0.513916015625, -5.101562500000, 1.500000000000, -4.531250000000, 1491214683
0.054687500000, -0.866455078125, 0.370361328125, -5.484375000000, -0.671875000000, -6.023437500000, 1491214683
0.054687500000, -0.866455078125, 0.370361328125, -5.484375000000, -0.671875000000, -6.023437500000, 1491214683
0.054687500000, -0.866455078125, 0.370361328125, -5.484375000000, -0.671875000000, -6.023437500000, 1491214683
0.054687500000, -0.866455078125, 0.370361328125, -5.484375000000, -0.671875000000, -6.023437500000, 1491214683
0.029052734375, -0.875976562500, 0.510253906250, -8.648437500000, 2.992187500000, -4.351562500000, 1491214683
0.029052734375, -0.875976562500, 0.510253906250, -8.648437500000, 2.992187500000, -4.351562500000, 1491214683
0.029052734375, -0.875976562500, 0.510253906250, -8.648437500000, 2.992187500000, -4.351562500000, 1491214683
0.041748046875, -0.947265625000, 0.484130859375, -5.781250000000, -0.328125000000, -5.335937500000, 1491214683
0.041748046875, -0.947265625000, 0.484130859375, -5.781250000000, -0.328125000000, -5.335937500000, 1491214683
0.041748046875, -0.947265625000, 0.484130859375, -5.781250000000, -0.328125000000, -5.335937500000, 1491214683
0.053710937500, -0.866943359375, 0.580322265625, -6.835937500000, -0.695312500000, -8.257812500000, 1491214683
0.053710937500, -0.866943359375, 0.580322265625, -6.835937500000, -0.695312500000, -8.257812500000, 1491214683
0.053710937500, -0.866943359375, 0.580322265625, -6.835937500000, -0.695312500000, -8.257812500000, 1491214683
0.053710937500, -0.866943359375, 0.580322265625, -6.835937500000, -0.695312500000, -8.257812500000, 1491214683
0.129882812500, -0.861572265625, 0.514160156250, -3.554687500000, -1.601562500000, -6.234375000000, 1491214683
0.129882812500, -0.861572265625, 0.514160156250, -3.554687500000, -1.601562500000, -6.234375000000, 1491214683
0.129882812500, -0.861572265625, 0.514160156250, -3.554687500000, -1.601562500000, -6.234375000000, 1491214684
0.140136718750, -0.800048828125, 0.433593750000, -6.140625000000, -2.875000000000, -6.773437500000, 1491214684
0.140136718750, -0.800048828125, 0.433593750000, -6.140625000000, -2.875000000000, -6.773437500000, 1491214684
0.140136718750, -0.800048828125, 0.433593750000, -6.140625000000, -2.875000000000, -6.773437500000, 1491214684
-0.000488281250, -0.833496093750, 0.462890625000, -3.164062500000, -0.617187500000, -6.062500000000, 1491214684
-0.000488281250, -0.833496093750, 0.462890625000, -3.164062500000, -0.617187500000, -6.062500000000, 1491214684
-0.000488281250, -0.833496093750, 0.462890625000, -3.164062500000, -0.617187500000, -6.062500000000, 1491214684
-0.001220703125, -0.848876953125, 0.578857421875, -4.218750000000, -2.375000000000, -3.148437500000, 1491214684
-0.001220703125, -0.848876953125, 0.578857421875, -4.218750000000, -2.375000000000, -3.148437500000, 1491214684
-0.001220703125, -0.848876953125, 0.578857421875, -4.218750000000, -2.375000000000, -3.148437500000, 1491214684
-0.001220703125, -0.848876953125, 0.578857421875, -4.218750000000, -2.375000000000, -3.148437500000, 1491214684
0.136718750000, -0.874755859375, 0.464843750000, -6.640625000000, 1.421875000000, -4.835937500000, 1491214684
0.136718750000, -0.874755859375, 0.464843750000, -6.640625000000, 1.421875000000, -4.835937500000, 1491214684
0.136718750000, -0.874755859375, 0.464843750000, -6.640625000000, 1.421875000000, -4.835937500000, 1491214684
0.096923828125, -0.854248046875, 0.484130859375, -1.992187500000, 1.945312500000, -6.898437500000, 1491214684
0.096923828125, -0.854248046875, 0.484130859375, -1.992187500000, 1.945312500000, -6.898437500000, 1491214684
0.096923828125, -0.854248046875, 0.484130859375, -1.992187500000, 1.945312500000, -6.898437500000, 1491214684
0.148193359375, -1.015136718750, 0.430419921875, -0.734375000000, 0.929687500000, -3.140625000000, 1491214684
0.148193359375, -1.015136718750, 0.430419921875, -0.734375000000, 0.929687500000, -3.140625000000, 1491214684
0.148193359375, -1.015136718750, 0.430419921875, -0.734375000000, 0.929687500000, -3.140625000000, 1491214684
0.121826171875, -0.934326171875, 0.522460937500, -1.078125000000, -0.281250000000, -5.429687500000, 1491214684
0.121826171875, -0.934326171875, 0.522460937500, -1.078125000000, -0.281250000000, -5.429687500000, 1491214684
0.121826171875, -0.934326171875, 0.522460937500, -1.078125000000, -0.281250000000, -5.429687500000, 1491214684
0.121826171875, -0.934326171875, 0.522460937500, -1.078125000000, -0.281250000000, -5.429687500000, 1491214684
0.082275390625, -0.923583984375, 0.369140625000, 6.812500000000, -6.976562500000, -8.101562500000, 1491214684
0.082275390625, -0.923583984375, 0.369140625000, 6.812500000000, -6.976562500000, -8.101562500000, 1491214684
0.130859375000, -0.848632812500, 0.515625000000, 1.046875000000, -12.062500000000, -11.250000000000, 1491214684
0.130859375000, -0.848632812500, 0.515625000000, 1.046875000000, -12.062500000000, -11.250000000000, 1491214684
0.130859375000, -0.848632812500, 0.515625000000, 1.046875000000, -12.062500000000, -11.250000000000, 1491214684
0.130859375000, -0.848632812500, 0.515625000000, 1.046875000000, -12.062500000000, -11.250000000000, 1491214684
0.202148437500, -0.902587890625, 0.448730468750, 4.960937500000, -7.492187500000, -16.531250000000, 1491214684
0.202148437500, -0.902587890625, 0.448730468750, 4.960937500000, -7.492187500000, -16.531250000000, 1491214684
0.202148437500, -0.902587890625, 0.448730468750, 4.960937500000, -7.492187500000, -16.531250000000, 1491214684
0.048339843750, -0.897460937500, 0.416015625000, 10.093750000000, -13.250000000000, -19.687500000000, 1491214684
0.048339843750, -0.897460937500, 0.416015625000, 10.093750000000, -13.250000000000, -19.687500000000, 1491214684
0.048339843750, -0.897460937500, 0.416015625000, 10.093750000000, -13.250000000000, -19.687500000000, 1491214684
0.048339843750, -0.897460937500, 0.416015625000, 10.093750000000, -13.250000000000, -19.687500000000, 1491214684
0.055175781250, -1.076660156250, 0.501708984375, 10.953125000000, -29.062500000000, -30.007812500000, 1491214684
0.055175781250, -1.076660156250, 0.501708984375, 10.953125000000, -29.062500000000, -30.007812500000, 1491214684
0.055175781250, -1.076660156250, 0.501708984375, 10.953125000000, -29.062500000000, -30.007812500000, 1491214684
0.005615234375, -0.936523437500, 0.404785156250, 14.812500000000, -42.203125000000, -36.507812500000, 1491214684
0.005615234375, -0.936523437500, 0.404785156250, 14.812500000000, -42.203125000000, -36.507812500000, 1491214684
0.005615234375, -0.936523437500, 0.404785156250, 14.812500000000, -42.203125000000, -36.507812500000, 1491214684
0.000244140625, -0.934082031250, 0.474121093750, 12.421875000000, -43.289062500000, -39.148437500000, 1491214684
0.000244140625, -0.934082031250, 0.474121093750, 12.421875000000, -43.289062500000, -39.148437500000, 1491214684
0.000244140625, -0.934082031250, 0.474121093750, 12.421875000000, -43.289062500000, -39.148437500000, 1491214684
0.052246093750, -0.800781250000, 0.308593750000, 9.320312500000, -49.812500000000, -35.328125000000, 1491214684
0.052246093750, -0.800781250000, 0.308593750000, 9.320312500000, -49.812500000000, -35.328125000000, 1491214684
0.052246093750, -0.800781250000, 0.308593750000, 9.320312500000, -49.812500000000, -35.328125000000, 1491214684
0.052246093750, -0.800781250000, 0.308593750000, 9.320312500000, -49.812500000000, -35.328125000000, 1491214684
-0.006835937500, -1.068359375000, 0.421386718750, 0.023437500000, -14.695312500000, -26.289062500000, 1491214684
-0.006835937500, -1.068359375000, 0.421386718750, 0.023437500000, -14.695312500000, -26.289062500000, 1491214684
-0.006835937500, -1.068359375000, 0.421386718750, 0.023437500000, -14.695312500000, -26.289062500000, 1491214684
-0.022949218750, -0.948242187500, 0.300537109375, -11.234375000000, -0.984375000000, -13.992187500000, 1491214684
-0.022949218750, -0.948242187500, 0.300537109375, -11.234375000000, -0.984375000000, -13.992187500000, 1491214684
-0.022949218750, -0.948242187500, 0.300537109375, -11.234375000000, -0.984375000000, -13.992187500000, 1491214684
-0.080078125000, -0.897705078125, 0.310058593750, -12.312500000000, 10.726562500000, -7.109375000000, 1491214684
-0.080078125000, -0.897705078125, 0.310058593750, -12.312500000000, 10.726562500000, -7.109375000000, 1491214684
0.026367187500, -1.017578125000, 0.344238281250, -14.554687500000, 36.984375000000, 9.296875000000, 1491214684
0.026367187500, -1.017578125000, 0.344238281250, -14.554687500000, 36.984375000000, 9.296875000000, 1491214684
0.026367187500, -1.017578125000, 0.344238281250, -14.554687500000, 36.984375000000, 9.296875000000, 1491214684
-0.079589843750, -0.928955078125, 0.390380859375, -7.867187500000, 23.101562500000, 9.281250000000, 1491214684
-0.079589843750, -0.928955078125, 0.390380859375, -7.867187500000, 23.101562500000, 9.281250000000, 1491214684
-0.079589843750, -0.928955078125, 0.390380859375, -7.867187500000, 23.101562500000, 9.281250000000, 1491214684
-0.079589843750, -0.928955078125, 0.390380859375, -7.867187500000, 23.101562500000, 9.281250000000, 1491214684
-0.079589843750, -0.928955078125, 0.390380859375, -7.867187500000, 23.101562500000, 9.281250000000, 1491214684
-0.075439453125, -1.023193359375, 0.248291015625, -20.289062500000, 27.570312500000, 7.789062500000, 1491214685
-0.075439453125, -1.023193359375, 0.248291015625, -20.289062500000, 27.570312500000, 7.789062500000, 1491214685
-0.075439453125, -1.023193359375, 0.248291015625, -20.289062500000, 27.570312500000, 7.789062500000, 1491214685
-0.034423828125, -0.993164062500, 0.330322265625, -19.742187500000, 29.679687500000, 11.484375000000, 1491214685
-0.108154296875, -1.012695312500, 0.321777343750, -19.062500000000, 9.320312500000, 9.351562500000, 1491214685
-0.108154296875, -1.012695312500, 0.321777343750, -19.062500000000, 9.320312500000, 9.351562500000, 1491214685
-0.108154296875, -1.012695312500, 0.321777343750, -19.062500000000, 9.320312500000, 9.351562500000, 1491214685
-0.108154296875, -1.012695312500, 0.321777343750, -19.062500000000, 9.320312500000, 9.351562500000, 1491214685
-0.049560546875, -0.951660156250, 0.298095703125, -9.085937500000, 10.687500000000, 14.914062500000, 1491214685
-0.048095703125, -0.964111328125, 0.335937500000, -9.085937500000, 10.687500000000, 14.914062500000, 1491214685
-0.048095703125, -0.964111328125, 0.335937500000, -9.085937500000, 10.687500000000, 14.914062500000, 1491214685
-0.048095703125, -0.964111328125, 0.335937500000, -9.085937500000, 10.687500000000, 14.914062500000, 1491214685
-0.048095703125, -0.964111328125, 0.335937500000, -9.085937500000, 10.687500000000, 14.914062500000, 1491214685
-0.147216796875, -0.747314453125, 0.246093750000, -12.054687500000, -16.765625000000, 6.562500000000, 1491214685
-0.147216796875, -0.747314453125, 0.246093750000, -12.054687500000, -16.765625000000, 6.562500000000, 1491214685
-0.147216796875, -0.747314453125, 0.246093750000, -12.054687500000, -16.765625000000, 6.562500000000, 1491214685
-0.052001953125, -0.782714843750, 0.268798828125, -0.359375000000, -15.984375000000, 8.578125000000, 1491214685
-0.052001953125, -0.782714843750, 0.268798828125, -0.359375000000, -15.984375000000, 8.578125000000, 1491214685
-0.052001953125, -0.782714843750, 0.268798828125, -0.359375000000, -15.984375000000, 8.578125000000, 1491214685
-0.047119140625, -0.923583984375, 0.341796875000, 3.609375000000, -10.882812500000, 11.148437500000, 1491214685
-0.047119140625, -0.923583984375, 0.341796875000, 3.609375000000, -10.882812500000, 11.148437500000, 1491214685
-0.047119140625, -0.923583984375, 0.341796875000, 3.609375000000, -10.882812500000, 11.148437500000, 1491214685
-0.047119140625, -0.923583984375, 0.341796875000, 3.609375000000, -10.882812500000, 11.148437500000, 1491214685
0.134521484375, -0.848632812500, 0.350830078125, 13.351562500000, 21.257812500000, 26.484375000000, 1491214685
0.236572265625, -0.959960937500, 0.466796875000, 20.023437500000, 54.789062500000, 29.695312500000, 1491214685
0.113525390625, -1.041748046875, 0.575683593750, -10.367187500000, 35.648437500000, 43.820312500000, 1491214685
0.113525390625, -1.041748046875, 0.575683593750, -10.367187500000, 35.648437500000, 43.820312500000, 1491214685
0.113525390625, -1.041748046875, 0.575683593750, -10.367187500000, 35.648437500000, 43.820312500000, 1491214685
0.113525390625, -1.041748046875, 0.575683593750, -10.367187500000, 35.648437500000, 43.820312500000, 1491214685
0.245117187500, -1.485107421875, 0.843017578125, 3.164062500000, -7.664062500000, 22.039062500000, 1491214685
0.245117187500, -1.485107421875, 0.843017578125, 3.164062500000, -7.664062500000, 22.039062500000, 1491214685
0.245117187500, -1.485107421875, 0.843017578125, 3.164062500000, -7.664062500000, 22.039062500000, 1491214685
0.075927734375, -0.737548828125, 0.454345703125, -30.359375000000, 13.382812500000, 28.632812500000, 1491214685
0.075927734375, -0.737548828125, 0.454345703125, -30.359375000000, 13.382812500000, 28.632812500000, 1491214685
0.075927734375, -0.737548828125, 0.454345703125, -30.359375000000, 13.382812500000, 28.632812500000, 1491214685
0.075927734375, -0.737548828125, 0.454345703125, -30.359375000000, 13.382812500000, 28.632812500000, 1491214685
0.058349609375, -0.578857421875, 0.435546875000, 19.468750000000, -16.656250000000, 8.679687500000, 1491214685
0.058349609375, -0.578857421875, 0.435546875000, 19.468750000000, -16.656250000000, 8.679687500000, 1491214685
0.058349609375, -0.578857421875, 0.435546875000, 19.468750000000, -16.656250000000, 8.679687500000, 1491214685
0.250000000000, -0.807128906250, 0.507324218750, -24.203125000000, 20.921875000000, -0.085937500000, 1491214685
0.333984375000, -0.936035156250, 0.488037109375, -32.476562500000, 18.359375000000, 0.929687500000, 1491214685
0.333984375000, -0.936035156250, 0.488037109375, -32.476562500000, 18.359375000000, 0.929687500000, 1491214685
0.333984375000, -0.936035156250, 0.488037109375, -32.476562500000, 18.359375000000, 0.929687500000, 1491214685
0.319824218750, -1.016113281250, 0.472656250000, -26.609375000000, 0.687500000000, -6.585937500000, 1491214685
0.387207031250, -1.020019531250, 0.510986328125, -18.687500000000, -20.773437500000, -8.203125000000, 1491214685
0.387207031250, -1.020019531250, 0.510986328125, -18.687500000000, -20.773437500000, -8.203125000000, 1491214685
0.387207031250, -1.020019531250, 0.510986328125, -18.687500000000, -20.773437500000, -8.203125000000, 1491214685
0.387207031250, -1.020019531250, 0.510986328125, -18.687500000000, -20.773437500000, -8.203125000000, 1491214685
0.387207031250, -1.020019531250, 0.510986328125, -18.687500000000, -20.773437500000, -8.203125000000, 1491214685
0.164306640625, -0.831542968750, 0.443603515625, -15.828125000000, -20.437500000000, -12.914062500000, 1491214685
0.164306640625, -0.831542968750, 0.443603515625, -15.828125000000, -20.437500000000, -12.914062500000, 1491214685
0.164306640625, -0.831542968750, 0.443603515625, -15.828125000000, -20.437500000000, -12.914062500000, 1491214685
0.264404296875, -0.846923828125, 0.439941406250, -22.789062500000, -14.781250000000, -17.648437500000, 1491214685
0.264404296875, -0.846923828125, 0.439941406250, -22.789062500000, -14.781250000000, -17.648437500000, 1491214685
0.264404296875, -0.846923828125, 0.439941406250, -22.789062500000, -14.781250000000, -17.648437500000, 1491214685
0.178466796875, -0.904052734375, 0.370605468750, -22.250000000000, -11.500000000000, -18.914062500000, 1491214685
0.178466796875, -0.904052734375, 0.370605468750, -22.250000000000, -11.500000000000, -18.914062500000, 1491214685
0.178466796875, -0.904052734375, 0.370605468750, -22.250000000000, -11.500000000000, -18.914062500000, 1491214685
0.221923828125, -0.872070312500, 0.393310546875, -22.101562500000, -8.851562500000, -24.390625000000, 1491214685
0.221923828125, -0.872070312500, 0.393310546875, -22.101562500000, -8.851562500000, -24.390625000000, 1491214685
0.221923828125, -0.872070312500, 0.393310546875, -22.101562500000, -8.851562500000, -24.390625000000, 1491214685
0.221923828125, -0.872070312500, 0.393310546875, -22.101562500000, -8.851562500000, -24.390625000000, 1491214685
0.176025390625, -0.801513671875, 0.334716796875, -19.679687500000, 24.554687500000, -20.460937500000, 1491214685
0.176025390625, -0.801513671875, 0.334716796875, -19.679687500000, 24.554687500000, -20.460937500000, 1491214685
0.176025390625, -0.801513671875, 0.334716796875, -19.679687500000, 24.554687500000, -20.460937500000, 1491214685
0.161865234375, -0.758300781250, 0.399658203125, -4.773437500000, 27.218750000000, -14.578125000000, 1491214685
0.161865234375, -0.758300781250, 0.399658203125, -4.773437500000, 27.218750000000, -14.578125000000, 1491214685
0.161865234375, -0.758300781250, 0.399658203125, -4.773437500000, 27.218750000000, -14.578125000000, 1491214685
0.280029296875, -0.694091796875, 0.290283203125, 14.078125000000, 22.281250000000, -14.078125000000, 1491214686
0.280029296875, -0.694091796875, 0.290283203125, 14.078125000000, 22.281250000000, -14.078125000000, 1491214686
0.280029296875, -0.694091796875, 0.290283203125, 14.078125000000, 22.281250000000, -14.078125000000, 1491214686
-0.020263671875, -0.932128906250, 0.749511718750, 42.039062500000, 56.773437500000, -19.132812500000, 1491214686
-0.020263671875, -0.932128906250, 0.749511718750, 42.039062500000, 56.773437500000, -19.132812500000, 1491214686
-0.020263671875, -0.932128906250, 0.749511718750, 42.039062500000, 56.773437500000, -19.132812500000, 1491214686
-0.020263671875, -0.932128906250, 0.749511718750, 42.039062500000, 56.773437500000, -19.132812500000, 1491214686
-0.330810546875, -1.580078125000, 0.774169921875, -1.296875000000, 28.023437500000, -32.000000000000, 1491214686
-0.330810546875, -1.580078125000, 0.774169921875, -1.296875000000, 28.023437500000, -32.000000000000, 1491214686
-0.330810546875, -1.580078125000, 0.774169921875, -1.296875000000, 28.023437500000, -32.000000000000, 1491214686
-0.220214843750, -1.482421875000, 0.898681640625, -4.468750000000, 28.898437500000, -32.703125000000, 1491214686
0.012939453125, -0.685302734375, 0.574218750000, 17.351562500000, 39.703125000000, 8.398437500000, 1491214686
0.012939453125, -0.685302734375, 0.574218750000, 17.351562500000, 39.703125000000, 8.398437500000, 1491214686
0.012939453125, -0.685302734375, 0.574218750000, 17.351562500000, 39.703125000000, 8.398437500000, 1491214686
0.012939453125, -0.685302734375, 0.574218750000, 17.351562500000, 39.703125000000, 8.398437500000, 1491214686
0.069824218750, -0.563964843750, 0.350341796875, -10.226562500000, 30.382812500000, 1.421875000000, 1491214686
0.069824218750, -0.563964843750, 0.350341796875, -10.226562500000, 30.382812500000, 1.421875000000, 1491214686
0.069824218750, -0.563964843750, 0.350341796875, -10.226562500000, 30.382812500000, 1.421875000000, 1491214686
0.069824218750, -0.563964843750, 0.350341796875, -10.226562500000, 30.382812500000, 1.421875000000, 1491214686
-0.102783203125, -0.485595703125, 0.194091796875, -3.023437500000, -0.156250000000, 6.031250000000, 1491214686
-0.094970703125, -0.607421875000, 0.124023437500, -1.750000000000, -28.054687500000, 5.773437500000, 1491214686
-0.094970703125, -0.607421875000, 0.124023437500, -1.750000000000, -28.054687500000, 5.773437500000, 1491214686
-0.094970703125, -0.607421875000, 0.124023437500, -1.750000000000, -28.054687500000, 5.773437500000, 1491214686
0.026367187500, -0.993652343750, 0.636474609375, 10.093750000000, 44.546875000000, -1.781250000000, 1491214686
0.026367187500, -0.993652343750, 0.636474609375, 10.093750000000, 44.546875000000, -1.781250000000, 1491214686
0.026367187500, -0.993652343750, 0.636474609375, 10.093750000000, 44.546875000000, -1.781250000000, 1491214686
-0.066894531250, -1.004638671875, 0.375000000000, -25.148437500000, 24.976562500000, 0.507812500000, 1491214686
-0.066894531250, -1.004638671875, 0.375000000000, -25.148437500000, 24.976562500000, 0.507812500000, 1491214686
-0.066894531250, -1.004638671875, 0.375000000000, -25.148437500000, 24.976562500000, 0.507812500000, 1491214686
-0.095214843750, -0.822753906250, 0.436523437500, -14.453125000000, 49.406250000000, 15.132812500000, 1491214686
-0.095214843750, -0.822753906250, 0.436523437500, -14.453125000000, 49.406250000000, 15.132812500000, 1491214686
-0.095214843750, -0.822753906250, 0.436523437500, -14.453125000000, 49.406250000000, 15.132812500000, 1491214686
-0.095214843750, -0.822753906250, 0.436523437500, -14.453125000000, 49.406250000000, 15.132812500000, 1491214686
-0.100585937500, -0.838378906250, 0.449218750000, -27.046875000000, 29.242187500000, 9.937500000000, 1491214686
-0.100585937500, -0.838378906250, 0.449218750000, -27.046875000000, 29.242187500000, 9.937500000000, 1491214686
-0.100585937500, -0.838378906250, 0.449218750000, -27.046875000000, 29.242187500000, 9.937500000000, 1491214686
-0.013427734375, -0.955078125000, 0.394775390625, -33.757812500000, 27.859375000000, 11.625000000000, 1491214686
-0.013427734375, -0.955078125000, 0.394775390625, -33.757812500000, 27.859375000000, 11.625000000000, 1491214686
-0.013427734375, -0.955078125000, 0.394775390625, -33.757812500000, 27.859375000000, 11.625000000000, 1491214686
-0.271484375000, -0.942138671875, 0.309082031250, -27.367187500000, 29.359375000000, 15.578125000000, 1491214686
-0.271484375000, -0.942138671875, 0.309082031250, -27.367187500000, 29.359375000000, 15.578125000000, 1491214686
-0.271484375000, -0.942138671875, 0.309082031250, -27.367187500000, 29.359375000000, 15.578125000000, 1491214686
-0.176757812500, -0.791748046875, 0.305908203125, -7.789062500000, -16.085937500000, -4.656250000000, 1491214686
-0.176757812500, -0.791748046875, 0.305908203125, -7.789062500000, -16.085937500000, -4.656250000000, 1491214686
-0.176757812500, -0.791748046875, 0.305908203125, -7.789062500000, -16.085937500000, -4.656250000000, 1491214686
-0.176757812500, -0.791748046875, 0.305908203125, -7.789062500000, -16.085937500000, -4.656250000000, 1491214686
-0.133789062500, -0.771972656250, 0.377685546875, 2.218750000000, -47.765625000000, -8.335937500000, 1491214686
-0.133789062500, -0.771972656250, 0.377685546875, 2.218750000000, -47.765625000000, -8.335937500000, 1491214686
-0.133789062500, -0.771972656250, 0.377685546875, 2.218750000000, -47.765625000000, -8.335937500000, 1491214686
0.014648437500, -0.886230468750, 0.284179687500, 37.953125000000, -24.859375000000, 1.507812500000, 1491214686
0.014648437500, -0.886230468750, 0.284179687500, 37.953125000000, -24.859375000000, 1.507812500000, 1491214686
0.014648437500, -0.886230468750, 0.284179687500, 37.953125000000, -24.859375000000, 1.507812500000, 1491214686
0.014648437500, -0.886230468750, 0.284179687500, 37.953125000000, -24.859375000000, 1.507812500000, 1491214686
0.014648437500, -0.886230468750, 0.284179687500, 37.953125000000, -24.859375000000, 1.507812500000, 1491214686
0.182128906250, -1.177734375000, 0.761718750000, 43.718750000000, -0.218750000000, 8.531250000000, 1491214686
0.182128906250, -1.177734375000, 0.761718750000, 43.718750000000, -0.218750000000, 8.531250000000, 1491214686
0.182128906250, -1.177734375000, 0.761718750000, 43.718750000000, -0.218750000000, 8.531250000000, 1491214686
0.182128906250, -1.177734375000, 0.761718750000, 43.718750000000, -0.218750000000, 8.531250000000, 1491214686
0.182128906250, -1.177734375000, 0.761718750000, 43.718750000000, -0.218750000000, 8.531250000000, 1491214686
0.399169921875, -1.590820312500, 1.110839843750, 12.429687500000, -71.734375000000, -32.507812500000, 1491214686
0.399169921875, -1.590820312500, 1.110839843750, 12.429687500000, -71.734375000000, -32.507812500000, 1491214686
0.399169921875, -1.590820312500, 1.110839843750, 12.429687500000, -71.734375000000, -32.507812500000, 1491214686
0.399169921875, -1.590820312500, 1.110839843750, 12.429687500000, -71.734375000000, -32.507812500000, 1491214686
0.227050781250, -0.962402343750, 0.502441406250, 5.195312500000, -0.187500000000, -4.140625000000, 1491214687
0.227050781250, -0.962402343750, 0.502441406250, 5.195312500000, -0.187500000000, -4.140625000000, 1491214687
0.227050781250, -0.962402343750, 0.502441406250, 5.195312500000, -0.187500000000, -4.140625000000, 1491214687
0.227050781250, -0.962402343750, 0.502441406250, 5.195312500000, -0.187500000000, -4.140625000000, 1491214687
0.023681640625, -0.485839843750, 0.304443359375, -26.273437500000, -27.585937500000, -28.273437500000, 1491214687
0.023681640625, -0.485839843750, 0.304443359375, -26.273437500000, -27.585937500000, -28.273437500000, 1491214687
0.023681640625, -0.485839843750, 0.304443359375, -26.273437500000, -27.585937500000, -28.273437500000, 1491214687
0.023681640625, -0.485839843750, 0.304443359375, -26.273437500000, -27.585937500000, -28.273437500000, 1491214687
0.023681640625, -0.485839843750, 0.304443359375, -26.273437500000, -27.585937500000, -28.273437500000, 1491214687
0.064208984375, -0.436767578125, 0.129150390625, -4.609375000000, -36.351562500000, -26.679687500000, 1491214687
0.064208984375, -0.436767578125, 0.129150390625, -4.609375000000, -36.351562500000, -26.679687500000, 1491214687
0.064208984375, -0.436767578125, 0.129150390625, -4.609375000000, -36.351562500000, -26.679687500000, 1491214687
0.443603515625, -0.976074218750, 0.491455078125, 19.140625000000, -55.281250000000, -30.140625000000, 1491214687
0.443603515625, -0.976074218750, 0.491455078125, 19.140625000000, -55.281250000000, -30.140625000000, 1491214687
0.443603515625, -0.976074218750, 0.491455078125, 19.140625000000, -55.281250000000, -30.140625000000, 1491214687
0.275634765625, -1.143066406250, 0.498779296875, -36.414062500000, -34.414062500000, -8.054687500000, 1491214687
0.275634765625, -1.143066406250, 0.498779296875, -36.414062500000, -34.414062500000, -8.054687500000, 1491214687
0.275634765625, -1.143066406250, 0.498779296875, -36.414062500000, -34.414062500000, -8.054687500000, 1491214687
0.054687500000, -0.882324218750, 0.578613281250, -29.398437500000, -44.515625000000, -15.085937500000, 1491214687
0.054687500000, -0.882324218750, 0.578613281250, -29.398437500000, -44.515625000000, -15.085937500000, 1491214687
0.054687500000, -0.882324218750, 0.578613281250, -29.398437500000, -44.515625000000, -15.085937500000, 1491214687
0.054687500000, -0.882324218750, 0.578613281250, -29.398437500000, -44.515625000000, -15.085937500000, 1491214687
0.104980468750, -0.785888671875, 0.525390625000, -30.875000000000, -23.835937500000, -17.460937500000, 1491214687
0.104980468750, -0.785888671875, 0.525390625000, -30.875000000000, -23.835937500000, -17.460937500000, 1491214687
0.104980468750, -0.785888671875, 0.525390625000, -30.875000000000, -23.835937500000, -17.460937500000, 1491214687
0.062500000000, -0.844970703125, 0.507324218750, -28.000000000000, -17.031250000000, -24.812500000000, 1491214687
0.062500000000, -0.844970703125, 0.507324218750, -28.000000000000, -17.031250000000, -24.812500000000, 1491214687
0.062500000000, -0.844970703125, 0.507324218750, -28.000000000000, -17.031250000000, -24.812500000000, 1491214687
0.214355468750, -0.803222656250, 0.364990234375, -25.906250000000, 30.515625000000, -13.382812500000, 1491214687
0.214355468750, -0.803222656250, 0.364990234375, -25.906250000000, 30.515625000000, -13.382812500000, 1491214687
0.214355468750, -0.803222656250, 0.364990234375, -25.906250000000, 30.515625000000, -13.382812500000, 1491214687
0.333740234375, -0.847900390625, 0.262451171875, -24.539062500000, 38.476562500000, -4.835937500000, 1491214687
0.333740234375, -0.847900390625, 0.262451171875, -24.539062500000, 38.476562500000, -4.835937500000, 1491214687
0.333740234375, -0.847900390625, 0.262451171875, -24.539062500000, 38.476562500000, -4.835937500000, 1491214687
0.333740234375, -0.847900390625, 0.262451171875, -24.539062500000, 38.476562500000, -4.835937500000, 1491214687
0.157470703125, -0.732177734375, 0.406250000000, 4.390625000000, 9.218750000000, 2.351562500000, 1491214687
0.157470703125, -0.732177734375, 0.406250000000, 4.390625000000, 9.218750000000, 2.351562500000, 1491214687
0.157470703125, -0.732177734375, 0.406250000000, 4.390625000000, 9.218750000000, 2.351562500000, 1491214687
0.210937500000, -0.682861328125, 0.327392578125, -1.062500000000, -5.226562500000, 1.906250000000, 1491214687
0.210937500000, -0.682861328125, 0.327392578125, -1.062500000000, -5.226562500000, 1.906250000000, 1491214687
0.210937500000, -0.682861328125, 0.327392578125, -1.062500000000, -5.226562500000, 1.906250000000, 1491214687
0.049316406250, -0.825439453125, 0.329101562500, 11.429687500000, -3.039062500000, 0.445312500000, 1491214687
0.049316406250, -0.825439453125, 0.329101562500, 11.429687500000, -3.039062500000, 0.445312500000, 1491214687
0.049316406250, -0.825439453125, 0.329101562500, 11.429687500000, -3.039062500000, 0.445312500000, 1491214687
0.028320312500, -0.998779296875, 0.687988281250, 31.140625000000, -14.265625000000, -20.101562500000, 1491214687
0.028320312500, -0.998779296875, 0.687988281250, 31.140625000000, -14.265625000000, -20.101562500000, 1491214687
0.028320312500, -0.998779296875, 0.687988281250, 31.140625000000, -14.265625000000, -20.101562500000, 1491214687
0.028320312500, -0.998779296875, 0.687988281250, 31.140625000000, -14.265625000000, -20.101562500000, 1491214687
-0.047363281250, -1.250488281250, 0.469726562500, 20.351562500000, 1.781250000000, -24.640625000000, 1491214687
-0.047363281250, -1.250488281250, 0.469726562500, 20.351562500000, 1.781250000000, -24.640625000000, 1491214687
-0.047363281250, -1.250488281250, 0.469726562500, 20.351562500000, 1.781250000000, -24.640625000000, 1491214687
-0.394775390625, -1.454589843750, 1.072021484375, 37.406250000000, 35.875000000000, -15.312500000000, 1491214687
-0.394775390625, -1.454589843750, 1.072021484375, 37.406250000000, 35.875000000000, -15.312500000000, 1491214687
-0.394775390625, -1.454589843750, 1.072021484375, 37.406250000000, 35.875000000000, -15.312500000000, 1491214687
-0.077148437500, -0.894287109375, 0.647216796875, 28.187500000000, 39.734375000000, 3.257812500000, 1491214687
-0.077148437500, -0.894287109375, 0.647216796875, 28.187500000000, 39.734375000000, 3.257812500000, 1491214687
-0.077148437500, -0.894287109375, 0.647216796875, 28.187500000000, 39.734375000000, 3.257812500000, 1491214687
0.025634765625, -0.621337890625, 0.409423828125, -50.984375000000, 44.390625000000, 14.125000000000, 1491214687
0.025634765625, -0.621337890625, 0.409423828125, -50.984375000000, 44.390625000000, 14.125000000000, 1491214687
0.025634765625, -0.621337890625, 0.409423828125, -50.984375000000, 44.390625000000, 14.125000000000, 1491214687
0.025634765625, -0.621337890625, 0.409423828125, -50.984375000000, 44.390625000000, 14.125000000000, 1491214687
-0.090820312500, -0.665771484375, 0.306396484375, 2.328125000000, 16.929687500000, 7.945312500000, 1491214687
-0.090820312500, -0.665771484375, 0.306396484375, 2.328125000000, 16.929687500000, 7.945312500000, 1491214687
-0.090820312500, -0.665771484375, 0.306396484375, 2.328125000000, 16.929687500000, 7.945312500000, 1491214687
0.001464843750, -0.802734375000, 0.476318359375, -5.281250000000, 61.390625000000, 18.890625000000, 1491214687
0.001464843750, -0.802734375000, 0.476318359375, -5.281250000000, 61.390625000000, 18.890625000000, 1491214687
0.001464843750, -0.802734375000, 0.476318359375, -5.281250000000, 61.390625000000, 18.890625000000, 1491214687
-0.076904296875, -1.029052734375, 0.569824218750, -4.070312500000, 63.406250000000, 21.406250000000, 1491214687
-0.076904296875, -1.029052734375, 0.569824218750, -4.070312500000, 63.406250000000, 21.406250000000, 1491214687
-0.203857421875, -0.909912109375, 0.437255859375, -18.328125000000, 49.343750000000, 31.437500000000, 1491214688
-0.203857421875, -0.909912109375, 0.437255859375, -18.328125000000, 49.343750000000, 31.437500000000, 1491214688
-0.203857421875, -0.909912109375, 0.437255859375, -18.328125000000, 49.343750000000, 31.437500000000, 1491214688
-0.203857421875, -0.909912109375, 0.437255859375, -18.328125000000, 49.343750000000, 31.437500000000, 1491214688
-0.203857421875, -0.909912109375, 0.437255859375, -18.328125000000, 49.343750000000, 31.437500000000, 1491214688
-0.093505859375, -0.759765625000, 0.568115234375, -13.757812500000, 63.500000000000, 31.460937500000, 1491214688
-0.093505859375, -0.759765625000, 0.568115234375, -13.757812500000, 63.500000000000, 31.460937500000, 1491214688
-0.093505859375, -0.759765625000, 0.568115234375, -13.757812500000, 63.500000000000, 31.460937500000, 1491214688
-0.089843750000, -0.852539062500, 0.332763671875, -45.468750000000, 59.148437500000, 21.125000000000, 1491214688
-0.089843750000, -0.852539062500, 0.332763671875, -45.468750000000, 59.148437500000, 21.125000000000, 1491214688
-0.089843750000, -0.852539062500, 0.332763671875, -45.468750000000, 59.148437500000, 21.125000000000, 1491214688
-0.055419921875, -0.929931640625, 0.356201171875, -12.921875000000, 50.992187500000, 13.164062500000, 1491214688
-0.055419921875, -0.929931640625, 0.356201171875, -12.921875000000, 50.992187500000, 13.164062500000, 1491214688
-0.055419921875, -0.929931640625, 0.356201171875, -12.921875000000, 50.992187500000, 13.164062500000, 1491214688
-0.131347656250, -0.868164062500, 0.244140625000, -72.765625000000, 68.242187500000, 11.140625000000, 1491214688
-0.131347656250, -0.868164062500, 0.244140625000, -72.765625000000, 68.242187500000, 11.140625000000, 1491214688
-0.131347656250, -0.868164062500, 0.244140625000, -72.765625000000, 68.242187500000, 11.140625000000, 1491214688
-0.131347656250, -0.868164062500, 0.244140625000, -72.765625000000, 68.242187500000, 11.140625000000, 1491214688
-0.202636718750, -0.775390625000, 0.269775390625, 14.562500000000, -21.070312500000, -7.453125000000, 1491214688
-0.202636718750, -0.775390625000, 0.269775390625, 14.562500000000, -21.070312500000, -7.453125000000, 1491214688
-0.202636718750, -0.775390625000, 0.269775390625, 14.562500000000, -21.070312500000, -7.453125000000, 1491214688
0.018798828125, -0.869384765625, 0.476562500000, -14.585937500000, -2.335937500000, -29.460937500000, 1491214688
0.018798828125, -0.869384765625, 0.476562500000, -14.585937500000, -2.335937500000, -29.460937500000, 1491214688
0.018798828125, -0.869384765625, 0.476562500000, -14.585937500000, -2.335937500000, -29.460937500000, 1491214688
0.077148437500, -1.122070312500, 0.501953125000, -23.882812500000, 19.953125000000, -11.421875000000, 1491214688
0.077148437500, -1.122070312500, 0.501953125000, -23.882812500000, 19.953125000000, -11.421875000000, 1491214688
0.077148437500, -1.122070312500, 0.501953125000, -23.882812500000, 19.953125000000, -11.421875000000, 1491214688
-0.119384765625, -1.010742187500, 0.237304687500, -47.179687500000, -4.367187500000, -12.351562500000, 1491214688
-0.119384765625, -1.010742187500, 0.237304687500, -47.179687500000, -4.367187500000, -12.351562500000, 1491214688
-0.119384765625, -1.010742187500, 0.237304687500, -47.179687500000, -4.367187500000, -12.351562500000, 1491214688
-0.119384765625, -1.010742187500, 0.237304687500, -47.179687500000, -4.367187500000, -12.351562500000, 1491214688
0.038574218750, -0.675537109375, 0.485595703125, -45.929687500000, -16.578125000000, -15.070312500000, 1491214688
0.038574218750, -0.675537109375, 0.485595703125, -45.929687500000, -16.578125000000, -15.070312500000, 1491214688
0.038574218750, -0.675537109375, 0.485595703125, -45.929687500000, -16.578125000000, -15.070312500000, 1491214688
-0.084472656250, -0.829589843750, 0.508300781250, -35.523437500000, -53.968750000000, -11.812500000000, 1491214688
-0.084472656250, -0.829589843750, 0.508300781250, -35.523437500000, -53.968750000000, -11.812500000000, 1491214688
-0.084472656250, -0.829589843750, 0.508300781250, -35.523437500000, -53.968750000000, -11.812500000000, 1491214688
0.042236328125, -0.617431640625, 0.411621093750, -32.531250000000, -58.437500000000, -5.250000000000, 1491214688
0.042236328125, -0.617431640625, 0.411621093750, -32.531250000000, -58.437500000000, -5.250000000000, 1491214688
0.042236328125, -0.617431640625, 0.411621093750, -32.531250000000, -58.437500000000, -5.250000000000, 1491214688
0.219482421875, -0.589111328125, 0.363769531250, 14.273437500000, -45.718750000000, -9.914062500000, 1491214688
0.219482421875, -0.589111328125, 0.363769531250, 14.273437500000, -45.718750000000, -9.914062500000, 1491214688
0.219482421875, -0.589111328125, 0.363769531250, 14.273437500000, -45.718750000000, -9.914062500000, 1491214688
0.219482421875, -0.589111328125, 0.363769531250, 14.273437500000, -45.718750000000, -9.914062500000, 1491214688
0.257568359375, -0.519287109375, 0.334472656250, 11.382812500000, -12.406250000000, -18.726562500000, 1491214688
0.257568359375, -0.519287109375, 0.334472656250, 11.382812500000, -12.406250000000, -18.726562500000, 1491214688
0.257568359375, -0.519287109375, 0.334472656250, 11.382812500000, -12.406250000000, -18.726562500000, 1491214688
0.112548828125, -0.539306640625, 0.198974609375, -43.125000000000, -13.429687500000, -16.945312500000, 1491214688
0.339843750000, -0.477539062500, 0.232421875000, -127.765625000000, 50.335937500000, 6.515625000000, 1491214688
0.339843750000, -0.477539062500, 0.232421875000, -127.765625000000, 50.335937500000, 6.515625000000, 1491214688
0.339843750000, -0.477539062500, 0.232421875000, -127.765625000000, 50.335937500000, 6.515625000000, 1491214688
0.185791015625, -0.462158203125, 0.327636718750, -17.945312500000, -13.062500000000, 0.773437500000, 1491214688
0.185791015625, -0.462158203125, 0.327636718750, -17.945312500000, -13.062500000000, 0.773437500000, 1491214688
0.185791015625, -0.462158203125, 0.327636718750, -17.945312500000, -13.062500000000, 0.773437500000, 1491214688
0.185791015625, -0.462158203125, 0.327636718750, -17.945312500000, -13.062500000000, 0.773437500000, 1491214688
0.185791015625, -0.462158203125, 0.327636718750, -17.945312500000, -13.062500000000, 0.773437500000, 1491214688
0.185791015625, -0.462158203125, 0.327636718750, -17.945312500000, -13.062500000000, 0.773437500000, 1491214688
-0.082763671875, -0.101318359375, 0.332519531250, -64.070312500000, 15.937500000000, -34.812500000000, 1491214688
-0.082763671875, -0.101318359375, 0.332519531250, -64.070312500000, 15.937500000000, -34.812500000000, 1491214688
-0.082763671875, -0.101318359375, 0.332519531250, -64.070312500000, 15.937500000000, -34.812500000000, 1491214688
-0.015869140625, 0.051513671875, 0.342041015625, -57.492187500000, -26.820312500000, -26.476562500000, 1491214688
-0.015869140625, 0.051513671875, 0.342041015625, -57.492187500000, -26.820312500000, -26.476562500000, 1491214688
-0.015869140625, 0.051513671875, 0.342041015625, -57.492187500000, -26.820312500000, -26.476562500000, 1491214688
0.155029296875, 0.168212890625, 0.168457031250, -90.984375000000, 2.750000000000, 32.828125000000, 1491214688
0.155029296875, 0.168212890625, 0.168457031250, -90.984375000000, 2.750000000000, 32.828125000000, 1491214688
0.155029296875, 0.168212890625, 0.168457031250, -90.984375000000, 2.750000000000, 32.828125000000, 1491214688
0.253417968750, 0.004638671875, 0.170654296875, -193.453125000000, -72.531250000000, 3.429687500000, 1491214689
0.253417968750, 0.004638671875, 0.170654296875, -193.453125000000, -72.531250000000, 3.429687500000, 1491214689
0.253417968750, 0.004638671875, 0.170654296875, -193.453125000000, -72.531250000000, 3.429687500000, 1491214689
0.253417968750, 0.004638671875, 0.170654296875, -193.453125000000, -72.531250000000, 3.429687500000, 1491214689
0.157958984375, -0.318115234375, 0.125732421875, -34.101562500000, 217.437500000000, -88.500000000000, 1491214689
0.157958984375, -0.318115234375, 0.125732421875, -34.101562500000, 217.437500000000, -88.500000000000, 1491214689
0.017333984375, -0.783203125000, -0.326904296875, -256.000000000000, -178.023437500000, 33.898437500000, 1491214689
-5.027343750000, -8.000000000000, 8.000000000000, 253.992187500000, -256.000000000000, 126.140625000000, 1491214689
-5.027343750000, -8.000000000000, 8.000000000000, 253.992187500000, -256.000000000000, 126.140625000000, 1491214689
-5.027343750000, -8.000000000000, 8.000000000000, 253.992187500000, -256.000000000000, 126.140625000000, 1491214689
0.832519531250, 1.187988281250, 2.536865234375, -256.000000000000, -256.000000000000, 128.296875000000, 1491214689
0.832519531250, 1.187988281250, 2.536865234375, -256.000000000000, -256.000000000000, 128.296875000000, 1491214689
0.832519531250, 1.187988281250, 2.536865234375, -256.000000000000, -256.000000000000, 128.296875000000, 1491214689
-0.484375000000, 2.681152343750, 1.044677734375, -256.000000000000, -151.601562500000, 206.304687500000, 1491214689
-0.484375000000, 2.681152343750, 1.044677734375, -256.000000000000, -151.601562500000, 206.304687500000, 1491214689
-0.484375000000, 2.681152343750, 1.044677734375, -256.000000000000, -151.601562500000, 206.304687500000, 1491214689
-0.484375000000, 2.681152343750, 1.044677734375, -256.000000000000, -151.601562500000, 206.304687500000, 1491214689
-0.273193359375, 0.974365234375, 0.345947265625, -187.796875000000, -107.953125000000, -13.500000000000, 1491214689
-0.273193359375, 0.974365234375, 0.345947265625, -187.796875000000, -107.953125000000, -13.500000000000, 1491214689
-0.273193359375, 0.974365234375, 0.345947265625, -187.796875000000, -107.953125000000, -13.500000000000, 1491214689
0.147705078125, 0.194824218750, 0.187988281250, 4.039062500000, -183.601562500000, -163.851562500000, 1491214689
0.147705078125, 0.194824218750, 0.187988281250, 4.039062500000, -183.601562500000, -163.851562500000, 1491214689
0.147705078125, 0.194824218750, 0.187988281250, 4.039062500000, -183.601562500000, -163.851562500000, 1491214689
-0.019531250000, 0.939453125000, 0.308105468750, 119.375000000000, 147.734375000000, 15.914062500000, 1491214689
-0.019531250000, 0.939453125000, 0.308105468750, 119.375000000000, 147.734375000000, 15.914062500000, 1491214689
-0.019531250000, 0.939453125000, 0.308105468750, 119.375000000000, 147.734375000000, 15.914062500000, 1491214689
0.315429687500, 1.807373046875, 1.302978515625, 63.398437500000, 241.617187500000, 20.429687500000, 1491214689
0.315429687500, 1.807373046875, 1.302978515625, 63.398437500000, 241.617187500000, 20.429687500000, 1491214689
0.315429687500, 1.807373046875, 1.302978515625, 63.398437500000, 241.617187500000, 20.429687500000, 1491214689
0.315429687500, 1.807373046875, 1.302978515625, 63.398437500000, 241.617187500000, 20.429687500000, 1491214689
-0.267822265625, 0.413330078125, 0.920166015625, 1.898437500000, -26.007812500000, -69.632812500000, 1491214689
-0.267822265625, 0.413330078125, 0.920166015625, 1.898437500000, -26.007812500000, -69.632812500000, 1491214689
-0.267822265625, 0.413330078125, 0.920166015625, 1.898437500000, -26.007812500000, -69.632812500000, 1491214689
0.211181640625, 1.081542968750, 0.923095703125, -43.679687500000, -3.289062500000, -76.906250000000, 1491214689
0.264160156250, 1.107910156250, 0.968994140625, -43.679687500000, -3.289062500000, -76.906250000000, 1491214689
0.264160156250, 1.107910156250, 0.968994140625, -43.679687500000, -3.289062500000, -76.906250000000, 1491214689
0.264160156250, 1.107910156250, 0.968994140625, -43.679687500000, -3.289062500000, -76.906250000000, 1491214689
0.264160156250, 1.107910156250, 0.968994140625, -43.679687500000, -3.289062500000, -76.906250000000, 1491214689
0.264160156250, 1.107910156250, 0.968994140625, -43.679687500000, -3.289062500000, -76.906250000000, 1491214689
0.484130859375, 0.646484375000, 1.187988281250, -74.515625000000, 253.992187500000, 99.351562500000, 1491214689
0.484130859375, 0.646484375000, 1.187988281250, -74.515625000000, 253.992187500000, 99.351562500000, 1491214689
0.484130859375, 0.646484375000, 1.187988281250, -74.515625000000, 253.992187500000, 99.351562500000, 1491214689
0.484130859375, 0.646484375000, 1.187988281250, -74.515625000000, 253.992187500000, 99.351562500000, 1491214689
-0.031982421875, 0.590332031250, 1.316894531250, 148.484375000000, -26.726562500000, 69.289062500000, 1491214689
-0.031982421875, 0.590332031250, 1.316894531250, 148.484375000000, -26.726562500000, 69.289062500000, 1491214689
-0.031982421875, 0.590332031250, 1.316894531250, 148.484375000000, -26.726562500000, 69.289062500000, 1491214689
-0.180175781250, 0.034179687500, 1.318115234375, 13.546875000000, 41.359375000000, 45.062500000000, 1491214689
-0.180175781250, 0.034179687500, 1.318115234375, 13.546875000000, 41.359375000000, 45.062500000000, 1491214689
-0.180175781250, 0.034179687500, 1.318115234375, 13.546875000000, 41.359375000000, 45.062500000000, 1491214689
-0.237792968750, 0.145751953125, 0.967041015625, 17.765625000000, 7.890625000000, 5.781250000000, 1491214689
-0.237792968750, 0.145751953125, 0.967041015625, 17.765625000000, 7.890625000000, 5.781250000000, 1491214689
-0.237792968750, 0.145751953125, 0.967041015625, 17.765625000000, 7.890625000000, 5.781250000000, 1491214689
-0.151123046875, 0.206298828125, 0.671386718750, -20.437500000000, -75.804687500000, -20.968750000000, 1491214689
-0.151123046875, 0.206298828125, 0.671386718750, -20.437500000000, -75.804687500000, -20.968750000000, 1491214689
-0.151123046875, 0.206298828125, 0.671386718750, -20.437500000000, -75.804687500000, -20.968750000000, 1491214689
-0.151123046875, 0.206298828125, 0.671386718750, -20.437500000000, -75.804687500000, -20.968750000000, 1491214689
-0.072753906250, 0.295654296875, 0.702392578125, -38.515625000000, -37.039062500000, -32.000000000000, 1491214689
-0.072753906250, 0.295654296875, 0.702392578125, -38.515625000000, -37.039062500000, -32.000000000000, 1491214689
0.103027343750, 0.381347656250, 0.919921875000, 57.734375000000, 2.773437500000, 7.476562500000, 1491214689
0.103027343750, 0.381347656250, 0.919921875000, 57.734375000000, 2.773437500000, 7.476562500000, 1491214689
0.103027343750, 0.381347656250, 0.919921875000, 57.734375000000, 2.773437500000, 7.476562500000, 1491214689
0.103027343750, 0.381347656250, 0.919921875000, 57.734375000000, 2.773437500000, 7.476562500000, 1491214689
0.072509765625, -0.026367187500, 0.848632812500, 17.367187500000, 53.734375000000, 7.875000000000, 1491214689
0.072509765625, -0.026367187500, 0.848632812500, 17.367187500000, 53.734375000000, 7.875000000000, 1491214689
0.072509765625, -0.026367187500, 0.848632812500, 17.367187500000, 53.734375000000, 7.875000000000, 1491214689
-0.040527343750, -0.614257812500, 1.097412109375, 32.437500000000, 79.710937500000, 32.773437500000, 1491214689
-0.040527343750, -0.614257812500, 1.097412109375, 32.437500000000, 79.710937500000, 32.773437500000, 1491214689
-0.040527343750, -0.614257812500, 1.097412109375, 32.437500000000, 79.710937500000, 32.773437500000, 1491214690
-0.040527343750, -0.614257812500, 1.097412109375, 32.437500000000, 79.710937500000, 32.773437500000, 1491214690
-0.066406250000, -0.757080078125, 1.004150390625, -15.664062500000, 11.601562500000, -18.515625000000, 1491214690
-0.066406250000, -0.757080078125, 1.004150390625, -15.664062500000, 11.601562500000, -18.515625000000, 1491214690
-0.066406250000, -0.757080078125, 1.004150390625, -15.664062500000, 11.601562500000, -18.515625000000, 1491214690
-0.310302734375, -0.336914062500, 0.980224609375, -76.921875000000, -69.359375000000, -3.945312500000, 1491214690
-0.310302734375, -0.336914062500, 0.980224609375, -76.921875000000, -69.359375000000, -3.945312500000, 1491214690
-0.310302734375, -0.336914062500, 0.980224609375, -76.921875000000, -69.359375000000, -3.945312500000, 1491214690
0.087402343750, 0.340576171875, 1.193847656250, 0.351562500000, -58.765625000000, -6.937500000000, 1491214690
0.087402343750, 0.340576171875, 1.193847656250, 0.351562500000, -58.765625000000, -6.937500000000, 1491214690
0.087402343750, 0.340576171875, 1.193847656250, 0.351562500000, -58.765625000000, -6.937500000000, 1491214690
0.002441406250, -0.146728515625, 1.148925781250, 20.812500000000, -35.429687500000, -8.062500000000, 1491214690
0.002441406250, -0.146728515625, 1.148925781250, 20.812500000000, -35.429687500000, -8.062500000000, 1491214690
0.002441406250, -0.146728515625, 1.148925781250, 20.812500000000, -35.429687500000, -8.062500000000, 1491214690
0.002441406250, -0.146728515625, 1.148925781250, 20.812500000000, -35.429687500000, -8.062500000000, 1491214690
-0.198730468750, 0.071289062500, 1.068115234375, 9.945312500000, 27.453125000000, -1.882812500000, 1491214690
-0.198730468750, 0.071289062500, 1.068115234375, 9.945312500000, 27.453125000000, -1.882812500000, 1491214690
-0.198730468750, 0.071289062500, 1.068115234375, 9.945312500000, 27.453125000000, -1.882812500000, 1491214690
-0.188232421875, 0.184814453125, 0.968750000000, -4.273437500000, -14.062500000000, -14.789062500000, 1491214690
-0.188232421875, 0.184814453125, 0.968750000000, -4.273437500000, -14.062500000000, -14.789062500000, 1491214690
-0.188232421875, 0.184814453125, 0.968750000000, -4.273437500000, -14.062500000000, -14.789062500000, 1491214690
-0.026367187500, 0.467041015625, 0.948730468750, 4.648437500000, -13.726562500000, -22.460937500000, 1491214690
-0.026367187500, 0.467041015625, 0.948730468750, 4.648437500000, -13.726562500000, -22.460937500000, 1491214690
-0.026367187500, 0.467041015625, 0.948730468750, 4.648437500000, -13.726562500000, -22.460937500000, 1491214690
0.132812500000, 0.328857421875, 0.850097656250, -10.937500000000, -2.828125000000, -14.812500000000, 1491214690
0.132812500000, 0.328857421875, 0.850097656250, -10.937500000000, -2.828125000000, -14.812500000000, 1491214690
0.132812500000, 0.328857421875, 0.850097656250, -10.937500000000, -2.828125000000, -14.812500000000, 1491214690
0.132812500000, 0.328857421875, 0.850097656250, -10.937500000000, -2.828125000000, -14.812500000000, 1491214690
-0.035888671875, 0.067138671875, 1.105712890625, -18.648437500000, 23.273437500000, 0.453125000000, 1491214690
-0.035888671875, 0.067138671875, 1.105712890625, -18.648437500000, 23.273437500000, 0.453125000000, 1491214690
-0.035888671875, 0.067138671875, 1.105712890625, -18.648437500000, 23.273437500000, 0.453125000000, 1491214690
-0.098388671875, -0.147949218750, 1.096679687500, -9.718750000000, -0.976562500000, 3.500000000000, 1491214690
-0.098388671875, -0.147949218750, 1.096679687500, -9.718750000000, -0.976562500000, 3.500000000000, 1491214690
-0.098388671875, -0.147949218750, 1.096679687500, -9.718750000000, -0.976562500000, 3.500000000000, 1491214690
-0.046630859375, -0.049560546875, 1.127441406250, -14.632812500000, 5.937500000000, -2.117187500000, 1491214690
-0.046630859375, -0.049560546875, 1.127441406250, -14.632812500000, 5.937500000000, -2.117187500000, 1491214690
-0.046630859375, -0.049560546875, 1.127441406250, -14.632812500000, 5.937500000000, -2.117187500000, 1491214690
-0.063232421875, -0.069091796875, 1.001708984375, -9.171875000000, 10.375000000000, -1.867187500000, 1491214690
-0.063232421875, -0.069091796875, 1.001708984375, -9.171875000000, 10.375000000000, -1.867187500000, 1491214690
-0.063232421875, -0.069091796875, 1.001708984375, -9.171875000000, 10.375000000000, -1.867187500000, 1491214690
-0.063232421875, -0.069091796875, 1.001708984375, -9.171875000000, 10.375000000000, -1.867187500000, 1491214690
0.002441406250, 0.049072265625, 1.093505859375, -11.093750000000, -1.765625000000, -2.148437500000, 1491214690
0.002441406250, 0.049072265625, 1.093505859375, -11.093750000000, -1.765625000000, -2.148437500000, 1491214690
0.002441406250, 0.049072265625, 1.093505859375, -11.093750000000, -1.765625000000, -2.148437500000, 1491214690
-0.133544921875, 0.103515625000, 1.026855468750, -16.679687500000, -13.031250000000, 0.101562500000, 1491214690
-0.133544921875, 0.103515625000, 1.026855468750, -16.679687500000, -13.031250000000, 0.101562500000, 1491214690
-0.133544921875, 0.103515625000, 1.026855468750, -16.679687500000, -13.031250000000, 0.101562500000, 1491214690
-0.048583984375, 0.163085937500, 1.071777343750, -20.523437500000, -8.101562500000, 0.140625000000, 1491214690
-0.048583984375, 0.163085937500, 1.071777343750, -20.523437500000, -8.101562500000, 0.140625000000, 1491214690
-0.048583984375, 0.163085937500, 1.071777343750, -20.523437500000, -8.101562500000, 0.140625000000, 1491214690
-0.077392578125, 0.325439453125, 1.080566406250, -4.367187500000, -2.203125000000, -5.828125000000, 1491214690
-0.077392578125, 0.325439453125, 1.080566406250, -4.367187500000, -2.203125000000, -5.828125000000, 1491214690
-0.077392578125, 0.325439453125, 1.080566406250, -4.367187500000, -2.203125000000, -5.828125000000, 1491214690
-0.077392578125, 0.325439453125, 1.080566406250, -4.367187500000, -2.203125000000, -5.828125000000, 1491214690
-0.193847656250, 0.172119140625, 1.025634765625, 13.710937500000, 7.359375000000, 0.890625000000, 1491214690
-0.193847656250, 0.172119140625, 1.025634765625, 13.710937500000, 7.359375000000, 0.890625000000, 1491214690
-0.193847656250, 0.172119140625, 1.025634765625, 13.710937500000, 7.359375000000, 0.890625000000, 1491214690
-0.193847656250, 0.172119140625, 1.025634765625, 13.710937500000, 7.359375000000, 0.890625000000, 1491214690
-0.193847656250, 0.172119140625, 1.025634765625, 13.710937500000, 7.359375000000, 0.890625000000, 1491214690
-0.087646484375, 0.207763671875, 1.002441406250, 6.718750000000, 15.140625000000, -3.734375000000, 1491214690
-0.087646484375, 0.207763671875, 1.002441406250, 6.718750000000, 15.140625000000, -3.734375000000, 1491214690
-0.087646484375, 0.207763671875, 1.002441406250, 6.718750000000, 15.140625000000, -3.734375000000, 1491214690
-0.087646484375, 0.207763671875, 1.002441406250, 6.718750000000, 15.140625000000, -3.734375000000, 1491214690
-0.136962890625, 0.079589843750, 0.994384765625, 9.851562500000, -0.445312500000, -6.148437500000, 1491214690
-0.136962890625, 0.079589843750, 0.994384765625, 9.851562500000, -0.445312500000, -6.148437500000, 1491214690
-0.136962890625, 0.079589843750, 0.994384765625, 9.851562500000, -0.445312500000, -6.148437500000, 1491214690
-0.136962890625, 0.079589843750, 0.994384765625, 9.851562500000, -0.445312500000, -6.148437500000, 1491214690
-0.052734375000, 0.047119140625, 1.083251953125, 6.453125000000, 4.132812500000, -3.585937500000, 1491214691
-0.052734375000, 0.047119140625, 1.083251953125, 6.453125000000, 4.132812500000, -3.585937500000, 1491214691
-0.052734375000, 0.047119140625, 1.083251953125, 6.453125000000, 4.132812500000, -3.585937500000, 1491214691
-0.106933593750, 0.071533203125, 1.130126953125, 12.093750000000, -2.101562500000, -3.945312500000, 1491214691
-0.106933593750, 0.071533203125, 1.130126953125, 12.093750000000, -2.101562500000, -3.945312500000, 1491214691
-0.106933593750, 0.071533203125, 1.130126953125, 12.093750000000, -2.101562500000, -3.945312500000, 1491214691
-0.057861328125, 0.073974609375, 1.033447265625, -1.906250000000, 0.828125000000, -5.640625000000, 1491214691
-0.057861328125, 0.073974609375, 1.033447265625, -1.906250000000, 0.828125000000, -5.640625000000, 1491214691
-0.057861328125, 0.073974609375, 1.033447265625, -1.906250000000, 0.828125000000, -5.640625000000, 1491214691
-0.179199218750, 0.139648437500, 0.978027343750, 2.039062500000, -2.328125000000, -3.828125000000, 1491214691
-0.179199218750, 0.139648437500, 0.978027343750, 2.039062500000, -2.328125000000, -3.828125000000, 1491214691
-0.179199218750, 0.139648437500, 0.978027343750, 2.039062500000, -2.328125000000, -3.828125000000, 1491214691
-0.179199218750, 0.139648437500, 0.978027343750, 2.039062500000, -2.328125000000, -3.828125000000, 1491214691
-0.105224609375, 0.027343750000, 0.936035156250, -8.359375000000, -1.734375000000, -3.625000000000, 1491214691
-0.105224609375, 0.027343750000, 0.936035156250, -8.359375000000, -1.734375000000, -3.625000000000, 1491214691
-0.105224609375, 0.027343750000, 0.936035156250, -8.359375000000, -1.734375000000, -3.625000000000, 1491214691
0.026123046875, -0.000732421875, 1.087646484375, -8.710937500000, -8.328125000000, -3.914062500000, 1491214691
0.026123046875, -0.000732421875, 1.087646484375, -8.710937500000, -8.328125000000, -3.914062500000, 1491214691
0.026123046875, -0.000732421875, 1.087646484375, -8.710937500000, -8.328125000000, -3.914062500000, 1491214691
-0.053222656250, 0.169189453125, 0.926025390625, -5.351562500000, -8.250000000000, -6.523437500000, 1491214691
-0.053222656250, 0.169189453125, 0.926025390625, -5.351562500000, -8.250000000000, -6.523437500000, 1491214691
-0.053222656250, 0.169189453125, 0.926025390625, -5.351562500000, -8.250000000000, -6.523437500000, 1491214691
-0.073242187500, 0.051025390625, 0.998779296875, -6.710937500000, -4.429687500000, -4.859375000000, 1491214691
-0.073242187500, 0.051025390625, 0.998779296875, -6.710937500000, -4.429687500000, -4.859375000000, 1491214691
-0.073242187500, 0.051025390625, 0.998779296875, -6.710937500000, -4.429687500000, -4.859375000000, 1491214691
-0.073242187500, 0.051025390625, 0.998779296875, -6.710937500000, -4.429687500000, -4.859375000000, 1491214691
-0.072021484375, 0.058837890625, 1.078857421875, -3.195312500000, -4.179687500000, -3.273437500000, 1491214691
-0.072021484375, 0.058837890625, 1.078857421875, -3.195312500000, -4.179687500000, -3.273437500000, 1491214691
-0.072021484375, 0.058837890625, 1.078857421875, -3.195312500000, -4.179687500000, -3.273437500000, 1491214691
-0.032226562500, 0.087646484375, 0.977783203125, -6.476562500000, -2.921875000000, -4.390625000000, 1491214691
-0.032226562500, 0.087646484375, 0.977783203125, -6.476562500000, -2.921875000000, -4.390625000000, 1491214691
-0.032226562500, 0.087646484375, 0.977783203125, -6.476562500000, -2.921875000000, -4.390625000000, 1491214691
-0.091064453125, 0.089111328125, 1.079101562500, -3.500000000000, -1.023437500000, -4.101562500000, 1491214691
-0.091064453125, 0.089111328125, 1.079101562500, -3.500000000000, -1.023437500000, -4.101562500000, 1491214691
-0.091064453125, 0.089111328125, 1.079101562500, -3.500000000000, -1.023437500000, -4.101562500000, 1491214691
0.002197265625, 0.132324218750, 1.066894531250, -5.265625000000, 0.492187500000, -1.359375000000, 1491214691
0.002197265625, 0.132324218750, 1.066894531250, -5.265625000000, 0.492187500000, -1.359375000000, 1491214691
0.002197265625, 0.132324218750, 1.066894531250, -5.265625000000, 0.492187500000, -1.359375000000, 1491214691
0.002197265625, 0.132324218750, 1.066894531250, -5.265625000000, 0.492187500000, -1.359375000000, 1491214691
0.023681640625, 0.037109375000, 0.985839843750, -6.023437500000, 0.445312500000, -2.000000000000, 1491214691
-0.018798828125, 0.055908203125, 1.003173828125, -3.546875000000, -4.515625000000, -6.773437500000, 1491214691
-0.018798828125, 0.055908203125, 1.003173828125, -3.546875000000, -4.515625000000, -6.773437500000, 1491214691
-0.018798828125, 0.055908203125, 1.003173828125, -3.546875000000, -4.515625000000, -6.773437500000, 1491214691
-0.018798828125, 0.055908203125, 1.003173828125, -3.546875000000, -4.515625000000, -6.773437500000, 1491214691
-0.018798828125, 0.055908203125, 1.003173828125, -3.546875000000, -4.515625000000, -6.773437500000, 1491214691
-0.044921875000, 0.047851562500, 1.027832031250, -4.460937500000, -2.976562500000, -4.585937500000, 1491214691
-0.044921875000, 0.047851562500, 1.027832031250, -4.460937500000, -2.976562500000, -4.585937500000, 1491214691
-0.044921875000, 0.047851562500, 1.027832031250, -4.460937500000, -2.976562500000, -4.585937500000, 1491214691
-0.089843750000, 0.059570312500, 0.975341796875, -3.804687500000, -2.609375000000, -3.195312500000, 1491214691
-0.089843750000, 0.059570312500, 0.975341796875, -3.804687500000, -2.609375000000, -3.195312500000, 1491214691
-0.089843750000, 0.059570312500, 0.975341796875, -3.804687500000, -2.609375000000, -3.195312500000, 1491214691
-0.089843750000, 0.059570312500, 0.975341796875, -3.804687500000, -2.609375000000, -3.195312500000, 1491214691
0.000732421875, 0.045410156250, 0.980468750000, -10.070312500000, 4.828125000000, -6.398437500000, 1491214691
0.000732421875, 0.045410156250, 0.980468750000, -10.070312500000, 4.828125000000, -6.398437500000, 1491214691
0.000732421875, 0.045410156250, 0.980468750000, -10.070312500000, 4.828125000000, -6.398437500000, 1491214691
-0.070312500000, 0.009033203125, 1.001220703125, -4.789062500000, -0.742187500000, -3.304687500000, 1491214691
-0.070312500000, 0.009033203125, 1.001220703125, -4.789062500000, -0.742187500000, -3.304687500000, 1491214691
-0.070312500000, 0.009033203125, 1.001220703125, -4.789062500000, -0.742187500000, -3.304687500000, 1491214691
-0.090576171875, 0.110595703125, 1.097656250000, -3.960937500000, -0.851562500000, -6.039062500000, 1491214691
-0.090576171875, 0.110595703125, 1.097656250000, -3.960937500000, -0.851562500000, -6.039062500000, 1491214691
-0.090576171875, 0.110595703125, 1.097656250000, -3.960937500000, -0.851562500000, -6.039062500000, 1491214691
-0.073486328125, -0.003173828125, 1.072509765625, -1.351562500000, -0.906250000000, -4.710937500000, 1491214691
-0.073486328125, -0.003173828125, 1.072509765625, -1.351562500000, -0.906250000000, -4.710937500000, 1491214691
-0.073486328125, -0.003173828125, 1.072509765625, -1.351562500000, -0.906250000000, -4.710937500000, 1491214691
0.030517578125, -0.062744140625, 1.019531250000, -4.460937500000, -2.921875000000, -1.914062500000, 1491214691
0.030517578125, -0.062744140625, 1.019531250000, -4.460937500000, -2.921875000000, -1.914062500000, 1491214692
0.030517578125, -0.062744140625, 1.019531250000, -4.460937500000, -2.921875000000, -1.914062500000, 1491214692
0.030517578125, -0.062744140625, 1.019531250000, -4.460937500000, -2.921875000000, -1.914062500000, 1491214692
-0.075195312500, 0.147949218750, 0.999023437500, -8.070312500000, -2.703125000000, -3.937500000000, 1491214692
-0.075195312500, 0.147949218750, 0.999023437500, -8.070312500000, -2.703125000000, -3.937500000000, 1491214692
-0.075195312500, 0.147949218750, 0.999023437500, -8.070312500000, -2.703125000000, -3.937500000000, 1491214692
-0.056152343750, 0.115966796875, 1.053222656250, -6.406250000000, -4.218750000000, -2.773437500000, 1491214692
-0.056152343750, 0.115966796875, 1.053222656250, -6.406250000000, -4.218750000000, -2.773437500000, 1491214692
-0.056152343750, 0.115966796875, 1.053222656250, -6.406250000000, -4.218750000000, -2.773437500000, 1491214692
-0.060302734375, 0.025878906250, 1.030761718750, -10.406250000000, -2.312500000000, -3.375000000000, 1491214692
-0.060302734375, 0.025878906250, 1.030761718750, -10.406250000000, -2.312500000000, -3.375000000000, 1491214692
-0.060302734375, 0.025878906250, 1.030761718750, -10.406250000000, -2.312500000000, -3.375000000000, 1491214692
-0.060302734375, 0.025878906250, 1.030761718750, -10.406250000000, -2.312500000000, -3.375000000000, 1491214692
-0.087158203125, 0.201416015625, 0.994628906250, -8.429687500000, -1.898437500000, -2.812500000000, 1491214692
-0.087158203125, 0.201416015625, 0.994628906250, -8.429687500000, -1.898437500000, -2.812500000000, 1491214692
-0.087158203125, 0.201416015625, 0.994628906250, -8.429687500000, -1.898437500000, -2.812500000000, 1491214692
-0.091796875000, 0.080322265625, 0.971679687500, -5.867187500000, -0.242187500000, -4.984375000000, 1491214692
-0.091796875000, 0.080322265625, 0.971679687500, -5.867187500000, -0.242187500000, -4.984375000000, 1491214692
-0.091796875000, 0.080322265625, 0.971679687500, -5.867187500000, -0.242187500000, -4.984375000000, 1491214692
-0.034667968750, 0.055419921875, 1.070068359375, -7.335937500000, 0.585937500000, -4.101562500000, 1491214692
-0.034667968750, 0.055419921875, 1.070068359375, -7.335937500000, 0.585937500000, -4.101562500000, 1491214692
-0.034667968750, 0.055419921875, 1.070068359375, -7.335937500000, 0.585937500000, -4.101562500000, 1491214692
-0.041015625000, 0.063232421875, 0.988769531250, -8.351562500000, -0.320312500000, -3.203125000000, 1491214692
-0.041015625000, 0.063232421875, 0.988769531250, -8.351562500000, -0.320312500000, -3.203125000000, 1491214692
-0.041015625000, 0.063232421875, 0.988769531250, -8.351562500000, -0.320312500000, -3.203125000000, 1491214692
-0.041015625000, 0.063232421875, 0.988769531250, -8.351562500000, -0.320312500000, -3.203125000000, 1491214692
-0.093261718750, 0.151611328125, 0.974121093750, -6.945312500000, 0.664062500000, -1.507812500000, 1491214692
-0.093261718750, 0.151611328125, 0.974121093750, -6.945312500000, 0.664062500000, -1.507812500000, 1491214692
-0.093261718750, 0.151611328125, 0.974121093750, -6.945312500000, 0.664062500000, -1.507812500000, 1491214692
-0.052734375000, -0.003906250000, 1.042724609375, -5.265625000000, -0.367187500000, -3.109375000000, 1491214692
-0.052734375000, -0.003906250000, 1.042724609375, -5.265625000000, -0.367187500000, -3.109375000000, 1491214692
-0.052734375000, -0.003906250000, 1.042724609375, -5.265625000000, -0.367187500000, -3.109375000000, 1491214692
0.014404296875, 0.204833984375, 1.011962890625, -5.679687500000, 0.851562500000, -4.203125000000, 1491214692
0.014404296875, 0.204833984375, 1.011962890625, -5.679687500000, 0.851562500000, -4.203125000000, 1491214692
0.014404296875, 0.204833984375, 1.011962890625, -5.679687500000, 0.851562500000, -4.203125000000, 1491214692
-0.077148437500, 0.033691406250, 0.979980468750, -3.648437500000, -2.515625000000, -2.812500000000, 1491214692
-0.077148437500, 0.033691406250, 0.979980468750, -3.648437500000, -2.515625000000, -2.812500000000, 1491214692
-0.077148437500, 0.033691406250, 0.979980468750, -3.648437500000, -2.515625000000, -2.812500000000, 1491214692
-0.077148437500, 0.033691406250, 0.979980468750, -3.648437500000, -2.515625000000, -2.812500000000, 1491214692
-0.081298828125, 0.078857421875, 1.054199218750, -8.484375000000, -2.804687500000, -6.484375000000, 1491214692
-0.081298828125, 0.078857421875, 1.054199218750, -8.484375000000, -2.804687500000, -6.484375000000, 1491214692
-0.081298828125, 0.078857421875, 1.054199218750, -8.484375000000, -2.804687500000, -6.484375000000, 1491214692
-0.023925781250, 0.038085937500, 0.984619140625, -3.789062500000, -1.312500000000, -4.039062500000, 1491214692
-0.023925781250, 0.038085937500, 0.984619140625, -3.789062500000, -1.312500000000, -4.039062500000, 1491214692
-0.023925781250, 0.038085937500, 0.984619140625, -3.789062500000, -1.312500000000, -4.039062500000, 1491214692
-0.024658203125, 0.130126953125, 1.087646484375, -1.460937500000, 0.265625000000, -1.898437500000, 1491214692
-0.024658203125, 0.130126953125, 1.087646484375, -1.460937500000, 0.265625000000, -1.898437500000, 1491214692
-0.024658203125, 0.130126953125, 1.087646484375, -1.460937500000, 0.265625000000, -1.898437500000, 1491214692
-0.027587890625, 0.084472656250, 1.074218750000, -4.062500000000, 2.632812500000, -6.359375000000, 1491214692
-0.027587890625, 0.084472656250, 1.074218750000, -4.062500000000, 2.632812500000, -6.359375000000, 1491214692
-0.027587890625, 0.084472656250, 1.074218750000, -4.062500000000, 2.632812500000, -6.359375000000, 1491214692
-0.027587890625, 0.084472656250, 1.074218750000, -4.062500000000, 2.632812500000, -6.359375000000, 1491214692
-0.071044921875, 0.130126953125, 1.033935546875, -4.578125000000, 0.281250000000, -3.156250000000, 1491214692
-0.071044921875, 0.130126953125, 1.033935546875, -4.578125000000, 0.281250000000, -3.156250000000, 1491214692
-0.071044921875, 0.130126953125, 1.033935546875, -4.578125000000, 0.281250000000, -3.156250000000, 1491214692
0.010253906250, -0.028320312500, 1.067382812500, -1.757812500000, 0.859375000000, -1.976562500000, 1491214692
0.010253906250, -0.028320312500, 1.067382812500, -1.757812500000, 0.859375000000, -1.976562500000, 1491214692
0.010253906250, -0.028320312500, 1.067382812500, -1.757812500000, 0.859375000000, -1.976562500000, 1491214692
-0.013916015625, 0.112792968750, 1.031494140625, -4.460937500000, 1.070312500000, -1.937500000000, 1491214692
-0.013916015625, 0.112792968750, 1.031494140625, -4.460937500000, 1.070312500000, -1.937500000000, 1491214692
-0.013916015625, 0.112792968750, 1.031494140625, -4.460937500000, 1.070312500000, -1.937500000000, 1491214692
-0.072998046875, 0.050292968750, 1.064453125000, -1.609375000000, 2.210937500000, -6.500000000000, 1491214692
-0.072998046875, 0.050292968750, 1.064453125000, -1.609375000000, 2.210937500000, -6.500000000000, 1491214692
-0.072998046875, 0.050292968750, 1.064453125000, -1.609375000000, 2.210937500000, -6.500000000000, 1491214692
-0.127685546875, -0.015380859375, 1.063232421875, -4.898437500000, 0.726562500000, -4.187500000000, 1491214692
-0.127685546875, -0.015380859375, 1.063232421875, -4.898437500000, 0.726562500000, -4.187500000000, 1491214692
-0.127685546875, -0.015380859375, 1.063232421875, -4.898437500000, 0.726562500000, -4.187500000000, 1491214692
-0.038818359375, 0.060058593750, 1.028320312500, -4.500000000000, 2.726562500000, -3.898437500000, 1491214693
-0.038818359375, 0.060058593750, 1.028320312500, -4.500000000000, 2.726562500000, -3.898437500000, 1491214693
-0.038818359375, 0.060058593750, 1.028320312500, -4.500000000000, 2.726562500000, -3.898437500000, 1491214693
-0.077148437500, 0.105468750000, 1.049804687500, -3.140625000000, 2.046875000000, -3.539062500000, 1491214693
-0.044677734375, 0.031982421875, 1.131103515625, -3.562500000000, -0.781250000000, -3.007812500000, 1491214693
-0.044677734375, 0.031982421875, 1.131103515625, -3.562500000000, -0.781250000000, -3.007812500000, 1491214693
-0.044677734375, 0.031982421875, 1.131103515625, -3.562500000000, -0.781250000000, -3.007812500000, 1491214693
-0.032226562500, 0.148681640625, 1.011230468750, -4.109375000000, 0.632812500000, -3.882812500000, 1491214693
-0.052246093750, 0.152587890625, 0.993164062500, -4.351562500000, 0.953125000000, -4.976562500000, 1491214693
-0.052246093750, 0.152587890625, 0.993164062500, -4.351562500000, 0.953125000000, -4.976562500000, 1491214693
0.011962890625, 0.091552734375, 1.079101562500, -3.359375000000, -0.578125000000, -3.726562500000, 1491214693
0.003906250000, 0.092285156250, 1.091796875000, -4.367187500000, 2.148437500000, -3.601562500000, 1491214693
0.003906250000, 0.092285156250, 1.091796875000, -4.367187500000, 2.148437500000, -3.601562500000, 1491214693
0.003906250000, 0.092285156250, 1.091796875000, -4.367187500000, 2.148437500000, -3.601562500000, 1491214693
0.003906250000, 0.092285156250, 1.091796875000, -4.367187500000, 2.148437500000, -3.601562500000, 1491214693
0.003906250000, 0.092285156250, 1.091796875000, -4.367187500000, 2.148437500000, -3.601562500000, 1491214693
0.003906250000, 0.092285156250, 1.091796875000, -4.367187500000, 2.148437500000, -3.601562500000, 1491214693
-0.035888671875, 0.049316406250, 0.973144531250, -4.304687500000, -0.742187500000, -4.851562500000, 1491214693
-0.089843750000, 0.053222656250, 1.083496093750, -4.968750000000, 2.429687500000, -4.117187500000, 1491214693
-0.089843750000, 0.053222656250, 1.083496093750, -4.968750000000, 2.429687500000, -4.117187500000, 1491214693
-0.089843750000, 0.053222656250, 1.083496093750, -4.968750000000, 2.429687500000, -4.117187500000, 1491214693
-0.010986328125, 0.109375000000, 1.071533203125, -4.281250000000, -0.484375000000, -4.632812500000, 1491214693
0.009521484375, 0.057617187500, 1.047607421875, -3.500000000000, -0.609375000000, -1.531250000000, 1491214693
0.009521484375, 0.057617187500, 1.047607421875, -3.500000000000, -0.609375000000, -1.531250000000, 1491214693
0.009521484375, 0.057617187500, 1.047607421875, -3.500000000000, -0.609375000000, -1.531250000000, 1491214693
0.001953125000, 0.034667968750, 1.058105468750, -1.789062500000, -0.968750000000, -1.750000000000, 1491214693
0.001953125000, 0.034667968750, 1.058105468750, -1.789062500000, -0.968750000000, -1.750000000000, 1491214693
0.001953125000, 0.034667968750, 1.058105468750, -1.789062500000, -0.968750000000, -1.750000000000, 1491214693
0.001953125000, 0.034667968750, 1.058105468750, -1.789062500000, -0.968750000000, -1.750000000000, 1491214693
0.001953125000, 0.034667968750, 1.058105468750, -1.789062500000, -0.968750000000, -1.750000000000, 1491214693
-0.067626953125, 0.036376953125, 1.074951171875, -2.398437500000, 2.039062500000, -6.093750000000, 1491214693
-0.067626953125, 0.036376953125, 1.074951171875, -2.398437500000, 2.039062500000, -6.093750000000, 1491214693
-0.067626953125, 0.036376953125, 1.074951171875, -2.398437500000, 2.039062500000, -6.093750000000, 1491214693
-0.084960937500, -0.017578125000, 0.992187500000, -3.625000000000, -0.468750000000, -6.890625000000, 1491214693
-0.084960937500, -0.017578125000, 0.992187500000, -3.625000000000, -0.468750000000, -6.890625000000, 1491214693
-0.084960937500, -0.017578125000, 0.992187500000, -3.625000000000, -0.468750000000, -6.890625000000, 1491214693
-0.084960937500, -0.017578125000, 0.992187500000, -3.625000000000, -0.468750000000, -6.890625000000, 1491214693
-0.090576171875, 0.120605468750, 0.998535156250, -3.179687500000, 0.203125000000, -4.539062500000, 1491214693
-0.090576171875, 0.120605468750, 0.998535156250, -3.179687500000, 0.203125000000, -4.539062500000, 1491214693
-0.090576171875, 0.120605468750, 0.998535156250, -3.179687500000, 0.203125000000, -4.539062500000, 1491214693
-0.007812500000, 0.108154296875, 1.076904296875, -3.453125000000, 2.781250000000, -3.203125000000, 1491214693
-0.007812500000, 0.108154296875, 1.076904296875, -3.453125000000, 2.781250000000, -3.203125000000, 1491214693
-0.007812500000, 0.108154296875, 1.076904296875, -3.453125000000, 2.781250000000, -3.203125000000, 1491214693
-0.074951171875, 0.150146484375, 0.985351562500, -3.703125000000, 2.742187500000, -3.773437500000, 1491214693
-0.074951171875, 0.150146484375, 0.985351562500, -3.703125000000, 2.742187500000, -3.773437500000, 1491214693
-0.074951171875, 0.150146484375, 0.985351562500, -3.703125000000, 2.742187500000, -3.773437500000, 1491214693
-0.057128906250, 0.040283203125, 1.093505859375, -3.835937500000, -2.710937500000, -1.664062500000, 1491214693
-0.057128906250, 0.040283203125, 1.093505859375, -3.835937500000, -2.710937500000, -1.664062500000, 1491214693
-0.057128906250, 0.040283203125, 1.093505859375, -3.835937500000, -2.710937500000, -1.664062500000, 1491214693
-0.057128906250, 0.040283203125, 1.093505859375, -3.835937500000, -2.710937500000, -1.664062500000, 1491214693
0.012695312500, -0.009033203125, 1.056396484375, -6.648437500000, 2.734375000000, -3.531250000000, 1491214693
0.012695312500, -0.009033203125, 1.056396484375, -6.648437500000, 2.734375000000, -3.531250000000, 1491214693
0.012695312500, -0.009033203125, 1.056396484375, -6.648437500000, 2.734375000000, -3.531250000000, 1491214693
-0.030029296875, 0.129150390625, 1.081787109375, -1.210937500000, 0.460937500000, -4.953125000000, 1491214693
-0.030029296875, 0.129150390625, 1.081787109375, -1.210937500000, 0.460937500000, -4.953125000000, 1491214693
-0.030029296875, 0.129150390625, 1.081787109375, -1.210937500000, 0.460937500000, -4.953125000000, 1491214693
0.007324218750, 0.042724609375, 0.998046875000, -1.492187500000, 0.359375000000, -4.015625000000, 1491214693
0.007324218750, 0.042724609375, 0.998046875000, -1.492187500000, 0.359375000000, -4.015625000000, 1491214693
0.007324218750, 0.042724609375, 0.998046875000, -1.492187500000, 0.359375000000, -4.015625000000, 1491214693
0.003906250000, 0.085693359375, 1.035888671875, -3.101562500000, -0.476562500000, -4.937500000000, 1491214693
0.003906250000, 0.085693359375, 1.035888671875, -3.101562500000, -0.476562500000, -4.937500000000, 1491214693
0.003906250000, 0.085693359375, 1.035888671875, -3.101562500000, -0.476562500000, -4.937500000000, 1491214693
0.003906250000, 0.085693359375, 1.035888671875, -3.101562500000, -0.476562500000, -4.937500000000, 1491214693
0.021484375000, 0.078369140625, 1.083007812500, -4.906250000000, 2.359375000000, -6.351562500000, 1491214693
0.021484375000, 0.078369140625, 1.083007812500, -4.906250000000, 2.359375000000, -6.351562500000, 1491214693
0.021484375000, 0.078369140625, 1.083007812500, -4.906250000000, 2.359375000000, -6.351562500000, 1491214693
0.008300781250, 0.039794921875, 1.081298828125, -6.843750000000, 0.226562500000, -4.226562500000, 1491214693
0.008300781250, 0.039794921875, 1.081298828125, -6.843750000000, 0.226562500000, -4.226562500000, 1491214693
0.008300781250, 0.039794921875, 1.081298828125, -6.843750000000, 0.226562500000, -4.226562500000, 1491214693
-0.047119140625, 0.045654296875, 1.091552734375, -3.609375000000, -2.140625000000, -3.382812500000, 1491214694
-0.047119140625, 0.045654296875, 1.091552734375, -3.609375000000, -2.140625000000, -3.382812500000, 1491214694
-0.047119140625, 0.045654296875, 1.091552734375, -3.609375000000, -2.140625000000, -3.382812500000, 1491214694
0.030273437500, 0.071777343750, 1.087890625000, -4.000000000000, 0.812500000000, -3.109375000000, 1491214694
0.030273437500, 0.071777343750, 1.087890625000, -4.000000000000, 0.812500000000, -3.109375000000, 1491214694
0.030273437500, 0.071777343750, 1.087890625000, -4.000000000000, 0.812500000000, -3.109375000000, 1491214694
0.030273437500, 0.071777343750, 1.087890625000, -4.000000000000, 0.812500000000, -3.109375000000, 1491214694
-0.010009765625, 0.132324218750, 1.041992187500, -6.992187500000, 0.445312500000, -1.976562500000, 1491214694
-0.010009765625, 0.132324218750, 1.041992187500, -6.992187500000, 0.445312500000, -1.976562500000, 1491214694
-0.010009765625, 0.132324218750, 1.041992187500, -6.992187500000, 0.445312500000, -1.976562500000, 1491214694
0.063720703125, 0.012695312500, 1.040527343750, -6.335937500000, 2.109375000000, -1.828125000000, 1491214694
0.063720703125, 0.012695312500, 1.040527343750, -6.335937500000, 2.109375000000, -1.828125000000, 1491214694
0.063720703125, 0.012695312500, 1.040527343750, -6.335937500000, 2.109375000000, -1.828125000000, 1491214694
-0.054199218750, 0.111083984375, 0.980957031250, -3.203125000000, -0.085937500000, -3.109375000000, 1491214694
-0.054199218750, 0.111083984375, 0.980957031250, -3.203125000000, -0.085937500000, -3.109375000000, 1491214694
-0.054199218750, 0.111083984375, 0.980957031250, -3.203125000000, -0.085937500000, -3.109375000000, 1491214694
-0.032958984375, 0.084472656250, 1.081542968750, -4.734375000000, -0.656250000000, -4.007812500000, 1491214694
-0.032958984375, 0.084472656250, 1.081542968750, -4.734375000000, -0.656250000000, -4.007812500000, 1491214694
-0.032958984375, 0.084472656250, 1.081542968750, -4.734375000000, -0.656250000000, -4.007812500000, 1491214694
-0.032958984375, 0.084472656250, 1.081542968750, -4.734375000000, -0.656250000000, -4.007812500000, 1491214694
0.006347656250, 0.060058593750, 0.996826171875, -3.460937500000, -0.164062500000, -4.734375000000, 1491214694
0.006347656250, 0.060058593750, 0.996826171875, -3.460937500000, -0.164062500000, -4.734375000000, 1491214694
0.006347656250, 0.060058593750, 0.996826171875, -3.460937500000, -0.164062500000, -4.734375000000, 1491214694
-0.147705078125, 0.048583984375, 1.082275390625, -4.929687500000, 0.468750000000, -1.812500000000, 1491214694
-0.147705078125, 0.048583984375, 1.082275390625, -4.929687500000, 0.468750000000, -1.812500000000, 1491214694
-0.147705078125, 0.048583984375, 1.082275390625, -4.929687500000, 0.468750000000, -1.812500000000, 1491214694
-0.038574218750, 0.061767578125, 1.064941406250, -6.343750000000, 1.039062500000, -4.351562500000, 1491214694
-0.038574218750, 0.061767578125, 1.064941406250, -6.343750000000, 1.039062500000, -4.351562500000, 1491214694
-0.038574218750, 0.061767578125, 1.064941406250, -6.343750000000, 1.039062500000, -4.351562500000, 1491214694
-0.035156250000, 0.055908203125, 0.989746093750, -5.382812500000, -0.726562500000, -4.937500000000, 1491214694
-0.035156250000, 0.055908203125, 0.989746093750, -5.382812500000, -0.726562500000, -4.937500000000, 1491214694
-0.035156250000, 0.055908203125, 0.989746093750, -5.382812500000, -0.726562500000, -4.937500000000, 1491214694
-0.035156250000, 0.055908203125, 0.989746093750, -5.382812500000, -0.726562500000, -4.937500000000, 1491214694
0.003173828125, 0.044189453125, 1.024658203125, -4.804687500000, 0.968750000000, -4.695312500000, 1491214694
0.003173828125, 0.044189453125, 1.024658203125, -4.804687500000, 0.968750000000, -4.695312500000, 1491214694
0.003173828125, 0.044189453125, 1.024658203125, -4.804687500000, 0.968750000000, -4.695312500000, 1491214694
-0.134277343750, 0.087402343750, 1.080566406250, -4.164062500000, -0.835937500000, -3.984375000000, 1491214694
-0.134277343750, 0.087402343750, 1.080566406250, -4.164062500000, -0.835937500000, -3.984375000000, 1491214694
-0.134277343750, 0.087402343750, 1.080566406250, -4.164062500000, -0.835937500000, -3.984375000000, 1491214694
-0.019042968750, 0.129150390625, 0.973876953125, -1.390625000000, 0.726562500000, -4.171875000000, 1491214694
-0.019042968750, 0.129150390625, 0.973876953125, -1.390625000000, 0.726562500000, -4.171875000000, 1491214694
-0.019042968750, 0.129150390625, 0.973876953125, -1.390625000000, 0.726562500000, -4.171875000000, 1491214694
0.022216796875, 0.086181640625, 1.074951171875, -4.718750000000, 0.195312500000, -4.265625000000, 1491214694
0.022216796875, 0.086181640625, 1.074951171875, -4.718750000000, 0.195312500000, -4.265625000000, 1491214694
0.022216796875, 0.086181640625, 1.074951171875, -4.718750000000, 0.195312500000, -4.265625000000, 1491214694
0.022216796875, 0.086181640625, 1.074951171875, -4.718750000000, 0.195312500000, -4.265625000000, 1491214694
-0.030273437500, 0.099121093750, 0.930175781250, -6.406250000000, 0.539062500000, -4.843750000000, 1491214694
-0.030273437500, 0.099121093750, 0.930175781250, -6.406250000000, 0.539062500000, -4.843750000000, 1491214694
-0.030273437500, 0.099121093750, 0.930175781250, -6.406250000000, 0.539062500000, -4.843750000000, 1491214694
-0.047607421875, -0.030517578125, 1.084228515625, -6.585937500000, 2.945312500000, -4.945312500000, 1491214694
-0.047607421875, -0.030517578125, 1.084228515625, -6.585937500000, 2.945312500000, -4.945312500000, 1491214694
-0.047607421875, -0.030517578125, 1.084228515625, -6.585937500000, 2.945312500000, -4.945312500000, 1491214694
0.007812500000, 0.208007812500, 0.983398437500, -6.179687500000, -0.632812500000, -4.820312500000, 1491214694
0.007812500000, 0.208007812500, 0.983398437500, -6.179687500000, -0.632812500000, -4.820312500000, 1491214694
0.007812500000, 0.208007812500, 0.983398437500, -6.179687500000, -0.632812500000, -4.820312500000, 1491214694
-0.027343750000, 0.129638671875, 1.013671875000, -4.781250000000, -0.695312500000, -1.843750000000, 1491214694
-0.027343750000, 0.129638671875, 1.013671875000, -4.781250000000, -0.695312500000, -1.843750000000, 1491214694
-0.027343750000, 0.129638671875, 1.013671875000, -4.781250000000, -0.695312500000, -1.843750000000, 1491214694
-0.027343750000, 0.129638671875, 1.013671875000, -4.781250000000, -0.695312500000, -1.843750000000, 1491214694
