ACC_X,ACC_Y,ACC_Z,G_X,G_Y,G_Z,Unix Time
-0.017578125000, -0.872070312500, 0.574951171875, -6.679687500000, 1.031250000000, -3.656250000000, 1491214931
-0.017578125000, -0.872070312500, 0.574951171875, -6.679687500000, 1.031250000000, -3.656250000000, 1491214931
-0.017578125000, -0.872070312500, 0.574951171875, -6.679687500000, 1.031250000000, -3.656250000000, 1491214931
-0.025878906250, -0.862792968750, 0.425048828125, -6.500000000000, 2.070312500000, -4.226562500000, 1491214931
-0.025878906250, -0.862792968750, 0.425048828125, -6.500000000000, 2.070312500000, -4.226562500000, 1491214931
-0.025878906250, -0.862792968750, 0.425048828125, -6.500000000000, 2.070312500000, -4.226562500000, 1491214931
-0.021484375000, -0.950439453125, 0.416259765625, -6.328125000000, 1.007812500000, -3.976562500000, 1491214931
-0.021484375000, -0.950439453125, 0.416259765625, -6.328125000000, 1.007812500000, -3.976562500000, 1491214931
-0.021484375000, -0.950439453125, 0.416259765625, -6.328125000000, 1.007812500000, -3.976562500000, 1491214931
-0.003662109375, -0.917480468750, 0.452392578125, -3.421875000000, -0.773437500000, -6.554687500000, 1491214931
-0.017822265625, -0.870117187500, 0.434814453125, -6.187500000000, -0.789062500000, -6.882812500000, 1491214931
-0.017822265625, -0.870117187500, 0.434814453125, -6.187500000000, -0.789062500000, -6.882812500000, 1491214931
-0.017822265625, -0.870117187500, 0.434814453125, -6.187500000000, -0.789062500000, -6.882812500000, 1491214931
-0.017822265625, -0.870117187500, 0.434814453125, -6.187500000000, -0.789062500000, -6.882812500000, 1491214931
-0.017822265625, -0.870117187500, 0.434814453125, -6.187500000000, -0.789062500000, -6.882812500000, 1491214931
-0.013671875000, -0.848876953125, 0.469482421875, -5.570312500000, 2.820312500000, -3.539062500000, 1491214931
-0.013671875000, -0.848876953125, 0.469482421875, -5.570312500000, 2.820312500000, -3.539062500000, 1491214931
-0.013671875000, -0.848876953125, 0.469482421875, -5.570312500000, 2.820312500000, -3.539062500000, 1491214931
-0.013671875000, -0.848876953125, 0.469482421875, -5.570312500000, 2.820312500000, -3.539062500000, 1491214931
-0.031005859375, -0.846679687500, 0.504394531250, -3.101562500000, -0.242187500000, -4.164062500000, 1491214931
-0.031005859375, -0.846679687500, 0.504394531250, -3.101562500000, -0.242187500000, -4.164062500000, 1491214931
-0.031005859375, -0.846679687500, 0.504394531250, -3.101562500000, -0.242187500000, -4.164062500000, 1491214931
-0.012451171875, -1.001464843750, 0.436279296875, -4.390625000000, 2.453125000000, -4.953125000000, 1491214931
-0.012451171875, -1.001464843750, 0.436279296875, -4.390625000000, 2.453125000000, -4.953125000000, 1491214931
-0.012451171875, -1.001464843750, 0.436279296875, -4.390625000000, 2.453125000000, -4.953125000000, 1491214931
-0.012451171875, -1.001464843750, 0.436279296875, -4.390625000000, 2.453125000000, -4.953125000000, 1491214931
-0.007568359375, -0.852050781250, 0.572265625000, -0.406250000000, -0.046875000000, -6.031250000000, 1491214931
-0.007568359375, -0.852050781250, 0.572265625000, -0.406250000000, -0.046875000000, -6.031250000000, 1491214931
-0.007568359375, -0.852050781250, 0.572265625000, -0.406250000000, -0.046875000000, -6.031250000000, 1491214931
-0.026123046875, -0.904541015625, 0.370849609375, -6.656250000000, 1.585937500000, -6.703125000000, 1491214932
-0.026123046875, -0.904541015625, 0.370849609375, -6.656250000000, 1.585937500000, -6.703125000000, 1491214932
-0.026123046875, -0.904541015625, 0.370849609375, 0.820312500000, -2.429687500000, -6.414062500000, 1491214932
0.021240234375, -0.835937500000, 0.511230468750, -4.640625000000, 0.906250000000, -3.820312500000, 1491214932
0.021240234375, -0.835937500000, 0.511230468750, -4.640625000000, 0.906250000000, -3.820312500000, 1491214932
0.021240234375, -0.835937500000, 0.511230468750, -4.640625000000, 0.906250000000, -3.820312500000, 1491214932
0.006103515625, -0.954345703125, 0.466552734375, -1.343750000000, -2.703125000000, -3.937500000000, 1491214932
0.006103515625, -0.954345703125, 0.466552734375, -1.343750000000, -2.703125000000, -3.937500000000, 1491214932
0.006103515625, -0.954345703125, 0.466552734375, -1.343750000000, -2.703125000000, -3.937500000000, 1491214932
0.006103515625, -0.954345703125, 0.466552734375, -1.343750000000, -2.703125000000, -3.937500000000, 1491214932
0.074218750000, -0.878173828125, 0.521728515625, -6.859375000000, -1.000000000000, -3.953125000000, 1491214932
0.026855468750, -0.912109375000, 0.430664062500, -3.132812500000, 0.601562500000, -3.554687500000, 1491214932
0.026855468750, -0.912109375000, 0.430664062500, -3.132812500000, 0.601562500000, -3.554687500000, 1491214932
0.026855468750, -0.912109375000, 0.430664062500, -3.132812500000, 0.601562500000, -3.554687500000, 1491214932
0.026855468750, -0.912109375000, 0.430664062500, -3.132812500000, 0.601562500000, -3.554687500000, 1491214932
0.026855468750, -0.912109375000, 0.430664062500, -3.132812500000, 0.601562500000, -3.554687500000, 1491214932
0.046875000000, -0.952636718750, 0.369628906250, -4.843750000000, -2.125000000000, -4.484375000000, 1491214932
0.046875000000, -0.952636718750, 0.369628906250, -4.843750000000, -2.125000000000, -4.484375000000, 1491214932
0.046875000000, -0.952636718750, 0.369628906250, -4.843750000000, -2.125000000000, -4.484375000000, 1491214932
-0.010742187500, -0.939941406250, 0.463134765625, -4.343750000000, 0.773437500000, -6.445312500000, 1491214932
-0.010742187500, -0.939941406250, 0.463134765625, -4.343750000000, 0.773437500000, -6.445312500000, 1491214932
-0.010742187500, -0.939941406250, 0.463134765625, -4.343750000000, 0.773437500000, -6.445312500000, 1491214932
-0.010742187500, -0.939941406250, 0.463134765625, -4.343750000000, 0.773437500000, -6.445312500000, 1491214932
-0.005859375000, -0.929443359375, 0.401123046875, -6.242187500000, 2.234375000000, -3.039062500000, 1491214932
-0.005859375000, -0.929443359375, 0.401123046875, -6.242187500000, 2.234375000000, -3.039062500000, 1491214932
-0.005859375000, -0.929443359375, 0.401123046875, -6.242187500000, 2.234375000000, -3.039062500000, 1491214932
0.023681640625, -0.964843750000, 0.423583984375, -2.500000000000, -0.875000000000, -3.921875000000, 1491214932
0.023681640625, -0.964843750000, 0.423583984375, -2.500000000000, -0.875000000000, -3.921875000000, 1491214932
0.023681640625, -0.964843750000, 0.423583984375, -2.500000000000, -0.875000000000, -3.921875000000, 1491214932
0.026367187500, -0.938964843750, 0.412597656250, -3.328125000000, 0.625000000000, -3.679687500000, 1491214932
0.026367187500, -0.938964843750, 0.412597656250, -3.328125000000, 0.625000000000, -3.679687500000, 1491214932
0.026367187500, -0.938964843750, 0.412597656250, -3.328125000000, 0.625000000000, -3.679687500000, 1491214932
-0.074951171875, -0.914306640625, 0.488281250000, -1.984375000000, 0.945312500000, -6.179687500000, 1491214932
-0.074951171875, -0.914306640625, 0.488281250000, -1.984375000000, 0.945312500000, -6.179687500000, 1491214932
-0.074951171875, -0.914306640625, 0.488281250000, -1.984375000000, 0.945312500000, -6.179687500000, 1491214932
-0.074951171875, -0.914306640625, 0.488281250000, -1.984375000000, 0.945312500000, -6.179687500000, 1491214932
-0.036132812500, -0.968750000000, 0.513427734375, -3.476562500000, -0.664062500000, -6.804687500000, 1491214932
-0.036132812500, -0.968750000000, 0.513427734375, -3.476562500000, -0.664062500000, -6.804687500000, 1491214932
-0.036132812500, -0.968750000000, 0.513427734375, -3.476562500000, -0.664062500000, -6.804687500000, 1491214932
0.034179687500, -0.859130859375, 0.423095703125, -4.882812500000, -0.390625000000, -3.406250000000, 1491214932
0.034179687500, -0.859130859375, 0.423095703125, -4.882812500000, -0.390625000000, -3.406250000000, 1491214932
0.034179687500, -0.859130859375, 0.423095703125, -4.882812500000, -0.390625000000, -3.406250000000, 1491214932
-0.088378906250, -0.942626953125, 0.410156250000, -6.328125000000, 2.429687500000, -1.679687500000, 1491214932
-0.088378906250, -0.942626953125, 0.410156250000, -6.328125000000, 2.429687500000, -1.679687500000, 1491214932
-0.088378906250, -0.942626953125, 0.410156250000, -6.328125000000, 2.429687500000, -1.679687500000, 1491214932
-0.088378906250, -0.942626953125, 0.410156250000, -6.328125000000, 2.429687500000, -1.679687500000, 1491214932
0.023193359375, -0.937744140625, 0.349121093750, -0.625000000000, -3.234375000000, -5.375000000000, 1491214932
0.023193359375, -0.937744140625, 0.349121093750, -0.625000000000, -3.234375000000, -5.375000000000, 1491214932
0.023193359375, -0.937744140625, 0.349121093750, -0.625000000000, -3.234375000000, -5.375000000000, 1491214932
0.023193359375, -0.937744140625, 0.349121093750, -0.625000000000, -3.234375000000, -5.375000000000, 1491214932
0.023193359375, -0.937744140625, 0.349121093750, -0.625000000000, -3.234375000000, -5.375000000000, 1491214932
0.023193359375, -0.937744140625, 0.349121093750, -0.625000000000, -3.234375000000, -5.375000000000, 1491214932
-0.026855468750, -0.951904296875, 0.347900390625, -3.257812500000, 2.039062500000, -5.750000000000, 1491214932
-0.026855468750, -0.951904296875, 0.347900390625, -3.257812500000, 2.039062500000, -5.750000000000, 1491214932
-0.026855468750, -0.951904296875, 0.347900390625, -3.257812500000, 2.039062500000, -5.750000000000, 1491214932
0.026367187500, -0.921875000000, 0.524169921875, -1.210937500000, -3.742187500000, -6.414062500000, 1491214932
0.026367187500, -0.921875000000, 0.524169921875, -1.210937500000, -3.742187500000, -6.414062500000, 1491214932
0.026367187500, -0.921875000000, 0.524169921875, -1.210937500000, -3.742187500000, -6.414062500000, 1491214932
0.021240234375, -0.966796875000, 0.501708984375, -3.101562500000, 0.296875000000, -6.890625000000, 1491214932
0.021240234375, -0.966796875000, 0.501708984375, -3.101562500000, 0.296875000000, -6.890625000000, 1491214932
0.021240234375, -0.966796875000, 0.501708984375, -3.101562500000, 0.296875000000, -6.890625000000, 1491214932
0.021240234375, -0.966796875000, 0.501708984375, -3.101562500000, 0.296875000000, -6.890625000000, 1491214932
-0.020751953125, -0.873779296875, 0.435058593750, -0.109375000000, -1.046875000000, -3.148437500000, 1491214933
-0.020751953125, -0.873779296875, 0.435058593750, -0.109375000000, -1.046875000000, -3.148437500000, 1491214933
-0.020751953125, -0.873779296875, 0.435058593750, -0.109375000000, -1.046875000000, -3.148437500000, 1491214933
-0.077392578125, -0.968505859375, 0.423339843750, -1.117187500000, -1.421875000000, -3.414062500000, 1491214933
-0.077392578125, -0.968505859375, 0.423339843750, -1.117187500000, -1.421875000000, -3.414062500000, 1491214933
-0.077392578125, -0.968505859375, 0.423339843750, -1.117187500000, -1.421875000000, -3.414062500000, 1491214933
-0.077392578125, -0.968505859375, 0.423339843750, -1.117187500000, -1.421875000000, -3.414062500000, 1491214933
-0.077392578125, -0.968505859375, 0.423339843750, -1.117187500000, -1.421875000000, -3.414062500000, 1491214933
-0.071533203125, -0.939941406250, 0.366210937500, -1.031250000000, -2.750000000000, -6.367187500000, 1491214933
0.083984375000, -0.862792968750, 0.413330078125, -1.687500000000, -2.546875000000, -7.000000000000, 1491214933
0.083984375000, -0.862792968750, 0.413330078125, -1.687500000000, -2.546875000000, -7.000000000000, 1491214933
0.083984375000, -0.862792968750, 0.413330078125, -1.687500000000, -2.546875000000, -7.000000000000, 1491214933
0.083984375000, -0.862792968750, 0.413330078125, -1.687500000000, -2.546875000000, -7.000000000000, 1491214933
-0.027099609375, -0.852783203125, 0.459960937500, -1.390625000000, -2.406250000000, -3.390625000000, 1491214933
-0.027099609375, -0.852783203125, 0.459960937500, -1.390625000000, -2.406250000000, -3.390625000000, 1491214933
-0.027099609375, -0.852783203125, 0.459960937500, -1.390625000000, -2.406250000000, -3.390625000000, 1491214933
-0.077880859375, -0.873535156250, 0.419189453125, -1.523437500000, 0.226562500000, -6.617187500000, 1491214933
-0.077880859375, -0.873535156250, 0.419189453125, -1.523437500000, 0.226562500000, -6.617187500000, 1491214933
-0.077880859375, -0.873535156250, 0.419189453125, -1.523437500000, 0.226562500000, -6.617187500000, 1491214933
0.066894531250, -0.940429687500, 0.422363281250, -2.578125000000, 0.164062500000, -6.070312500000, 1491214933
0.066894531250, -0.940429687500, 0.422363281250, -2.578125000000, 0.164062500000, -6.070312500000, 1491214933
0.066894531250, -0.940429687500, 0.422363281250, -2.578125000000, 0.164062500000, -6.070312500000, 1491214933
0.064453125000, -0.899169921875, 0.406494140625, -3.312500000000, 0.703125000000, -6.992187500000, 1491214933
0.064453125000, -0.899169921875, 0.406494140625, -3.312500000000, 0.703125000000, -6.992187500000, 1491214933
0.064453125000, -0.899169921875, 0.406494140625, -3.312500000000, 0.703125000000, -6.992187500000, 1491214933
0.064453125000, -0.899169921875, 0.406494140625, -3.312500000000, 0.703125000000, -6.992187500000, 1491214933
-0.034667968750, -0.944091796875, 0.431396484375, -4.984375000000, 0.593750000000, -5.382812500000, 1491214933
-0.034667968750, -0.944091796875, 0.431396484375, -4.984375000000, 0.593750000000, -5.382812500000, 1491214933
-0.034667968750, -0.944091796875, 0.431396484375, -4.984375000000, 0.593750000000, -5.382812500000, 1491214933
0.067382812500, -1.003417968750, 0.350097656250, -3.125000000000, 0.484375000000, -3.453125000000, 1491214933
0.067382812500, -1.003417968750, 0.350097656250, -3.125000000000, 0.484375000000, -3.453125000000, 1491214933
0.067382812500, -1.003417968750, 0.350097656250, -3.125000000000, 0.484375000000, -3.453125000000, 1491214933
-0.018066406250, -0.853027343750, 0.529541015625, -3.148437500000, -0.265625000000, -3.164062500000, 1491214933
-0.018066406250, -0.853027343750, 0.529541015625, -3.148437500000, -0.265625000000, -3.164062500000, 1491214933
-0.018066406250, -0.853027343750, 0.529541015625, -3.148437500000, -0.265625000000, -3.164062500000, 1491214933
-0.022460937500, -0.872802734375, 0.509521484375, 0.664062500000, -1.468750000000, -5.265625000000, 1491214933
-0.022460937500, -0.872802734375, 0.509521484375, 0.664062500000, -1.468750000000, -5.265625000000, 1491214933
-0.022460937500, -0.872802734375, 0.509521484375, 0.664062500000, -1.468750000000, -5.265625000000, 1491214933
-0.022460937500, -0.872802734375, 0.509521484375, 0.664062500000, -1.468750000000, -5.265625000000, 1491214933
0.003173828125, -0.943115234375, 0.582763671875, 0.414062500000, -4.156250000000, -6.007812500000, 1491214933
0.016113281250, -0.848632812500, 0.561035156250, 3.414062500000, -6.882812500000, -5.460937500000, 1491214933
0.016113281250, -0.848632812500, 0.561035156250, 3.414062500000, -6.882812500000, -5.460937500000, 1491214933
0.016113281250, -0.848632812500, 0.561035156250, 3.414062500000, -6.882812500000, -5.460937500000, 1491214933
0.016113281250, -0.848632812500, 0.561035156250, 3.414062500000, -6.882812500000, -5.460937500000, 1491214933
0.016113281250, -0.848632812500, 0.561035156250, 3.414062500000, -6.882812500000, -5.460937500000, 1491214933
-0.081787109375, -0.821533203125, 0.731201171875, 12.437500000000, -2.859375000000, -5.328125000000, 1491214933
-0.081787109375, -0.821533203125, 0.731201171875, 12.437500000000, -2.859375000000, -5.328125000000, 1491214933
-0.081787109375, -0.821533203125, 0.731201171875, 12.437500000000, -2.859375000000, -5.328125000000, 1491214933
-0.085449218750, -0.726562500000, 1.177978515625, 6.882812500000, 10.695312500000, 0.765625000000, 1491214933
-0.085449218750, -0.726562500000, 1.177978515625, 6.882812500000, 10.695312500000, 0.765625000000, 1491214933
-0.085449218750, -0.726562500000, 1.177978515625, 6.882812500000, 10.695312500000, 0.765625000000, 1491214933
-0.085449218750, -0.726562500000, 1.177978515625, 6.882812500000, 10.695312500000, 0.765625000000, 1491214933
0.039062500000, -0.637695312500, 1.029296875000, -40.914062500000, 25.750000000000, -17.585937500000, 1491214933
0.039062500000, -0.637695312500, 1.029296875000, -40.914062500000, 25.750000000000, -17.585937500000, 1491214933
0.039062500000, -0.637695312500, 1.029296875000, -40.914062500000, 25.750000000000, -17.585937500000, 1491214933
0.001953125000, -0.333007812500, 0.529296875000, 46.671875000000, 33.906250000000, -16.687500000000, 1491214933
0.001953125000, -0.333007812500, 0.529296875000, 46.671875000000, 33.906250000000, -16.687500000000, 1491214933
0.001953125000, -0.333007812500, 0.529296875000, 46.671875000000, 33.906250000000, -16.687500000000, 1491214933
0.029785156250, -0.434570312500, 0.580322265625, 86.398437500000, 5.257812500000, 12.062500000000, 1491214933
0.029785156250, -0.434570312500, 0.580322265625, 86.398437500000, 5.257812500000, 12.062500000000, 1491214933
0.029785156250, -0.434570312500, 0.580322265625, 86.398437500000, 5.257812500000, 12.062500000000, 1491214933
0.089355468750, -0.644531250000, 0.295166015625, 94.906250000000, -44.125000000000, -8.007812500000, 1491214933
0.089355468750, -0.644531250000, 0.295166015625, 94.906250000000, -44.125000000000, -8.007812500000, 1491214933
0.089355468750, -0.644531250000, 0.295166015625, 94.906250000000, -44.125000000000, -8.007812500000, 1491214933
0.089355468750, -0.644531250000, 0.295166015625, 94.906250000000, -44.125000000000, -8.007812500000, 1491214933
-0.000488281250, -0.745117187500, 0.156494140625, 109.976562500000, -7.234375000000, 13.101562500000, 1491214933
-0.000488281250, -0.745117187500, 0.156494140625, 109.976562500000, -7.234375000000, 13.101562500000, 1491214933
-0.000488281250, -0.745117187500, 0.156494140625, 109.976562500000, -7.234375000000, 13.101562500000, 1491214933
-0.032470703125, -1.041992187500, 0.265136718750, 75.023437500000, 6.101562500000, -23.359375000000, 1491214933
-0.032470703125, -1.041992187500, 0.265136718750, 75.023437500000, 6.101562500000, -23.359375000000, 1491214933
-0.032470703125, -1.041992187500, 0.265136718750, 75.023437500000, 6.101562500000, -23.359375000000, 1491214933
0.122070312500, -0.608642578125, 0.272705078125, 104.664062500000, -20.976562500000, -28.546875000000, 1491214934
0.122070312500, -0.608642578125, 0.272705078125, 104.664062500000, -20.976562500000, -28.546875000000, 1491214934
0.122070312500, -0.608642578125, 0.272705078125, 104.664062500000, -20.976562500000, -28.546875000000, 1491214934
-0.026367187500, -0.594970703125, 0.009277343750, 95.468750000000, 48.632812500000, -24.195312500000, 1491214934
-0.026367187500, -0.594970703125, 0.009277343750, 95.468750000000, 48.632812500000, -24.195312500000, 1491214934
-0.026367187500, -0.594970703125, 0.009277343750, 95.468750000000, 48.632812500000, -24.195312500000, 1491214934
-0.026367187500, -0.594970703125, 0.009277343750, 95.468750000000, 48.632812500000, -24.195312500000, 1491214934
-0.030517578125, -0.474365234375, 0.076904296875, 87.617187500000, -4.312500000000, -19.546875000000, 1491214934
-0.030517578125, -0.474365234375, 0.076904296875, 87.617187500000, -4.312500000000, -19.546875000000, 1491214934
-0.030517578125, -0.474365234375, 0.076904296875, 87.617187500000, -4.312500000000, -19.546875000000, 1491214934
-0.030517578125, -0.474365234375, 0.076904296875, 87.617187500000, -4.312500000000, -19.546875000000, 1491214934
-0.030517578125, -0.474365234375, 0.076904296875, 87.617187500000, -4.312500000000, -19.546875000000, 1491214934
-0.030517578125, -0.474365234375, 0.076904296875, 87.617187500000, -4.312500000000, -19.546875000000, 1491214934
-0.050781250000, 0.022216796875, 0.032226562500, 43.250000000000, -4.335937500000, -29.203125000000, 1491214934
-0.050781250000, 0.022216796875, 0.032226562500, 43.250000000000, -4.335937500000, -29.203125000000, 1491214934
-0.050781250000, 0.022216796875, 0.032226562500, 43.250000000000, -4.335937500000, -29.203125000000, 1491214934
-0.050781250000, 0.022216796875, 0.032226562500, 43.250000000000, -4.335937500000, -29.203125000000, 1491214934
-0.050781250000, 0.022216796875, 0.032226562500, 43.250000000000, -4.335937500000, -29.203125000000, 1491214934
-0.050781250000, 0.022216796875, 0.032226562500, 43.250000000000, -4.335937500000, -29.203125000000, 1491214934
-0.050781250000, 0.022216796875, 0.032226562500, 43.250000000000, -4.335937500000, -29.203125000000, 1491214934
0.020996093750, 0.074218750000, 0.035644531250, 127.007812500000, -61.789062500000, -43.265625000000, 1491214934
0.020996093750, 0.074218750000, 0.035644531250, 127.007812500000, -61.789062500000, -43.265625000000, 1491214934
0.020996093750, 0.074218750000, 0.035644531250, 127.007812500000, -61.789062500000, -43.265625000000, 1491214934
0.017822265625, 0.142822265625, 0.057373046875, 177.710937500000, -92.265625000000, -26.070312500000, 1491214934
0.017822265625, 0.142822265625, 0.057373046875, 177.710937500000, -92.265625000000, -26.070312500000, 1491214934
0.017822265625, 0.142822265625, 0.057373046875, 177.710937500000, -92.265625000000, -26.070312500000, 1491214934
-0.154785156250, 0.260253906250, 0.190185546875, 149.109375000000, -90.296875000000, -105.984375000000, 1491214934
-0.154785156250, 0.260253906250, 0.190185546875, 149.109375000000, -90.296875000000, -105.984375000000, 1491214934
-0.154785156250, 0.260253906250, 0.190185546875, 149.109375000000, -90.296875000000, -105.984375000000, 1491214934
-1.925537109375, 2.531494140625, -4.347412109375, 253.992187500000, 169.203125000000, -125.960937500000, 1491214934
-1.925537109375, 2.531494140625, -4.347412109375, 253.992187500000, 169.203125000000, -125.960937500000, 1491214934
-1.925537109375, 2.531494140625, -4.347412109375, 253.992187500000, 169.203125000000, -125.960937500000, 1491214934
-1.925537109375, 2.531494140625, -4.347412109375, 253.992187500000, 169.203125000000, -125.960937500000, 1491214934
-0.817871093750, -1.718261718750, -4.407958984375, 69.968750000000, 2.390625000000, -4.156250000000, 1491214934
-0.817871093750, -1.718261718750, -4.407958984375, 69.968750000000, 2.390625000000, -4.156250000000, 1491214934
-0.817871093750, -1.718261718750, -4.407958984375, 69.968750000000, 2.390625000000, -4.156250000000, 1491214934
0.417968750000, -0.439453125000, -0.005859375000, 12.351562500000, 37.218750000000, -72.992187500000, 1491214934
0.417968750000, -0.439453125000, -0.005859375000, 12.351562500000, 37.218750000000, -72.992187500000, 1491214934
0.417968750000, -0.439453125000, -0.005859375000, 12.351562500000, 37.218750000000, -72.992187500000, 1491214934
-0.312988281250, 0.243164062500, 0.001953125000, 215.875000000000, 151.101562500000, -128.132812500000, 1491214934
-0.312988281250, 0.243164062500, 0.001953125000, 215.875000000000, 151.101562500000, -128.132812500000, 1491214934
-0.312988281250, 0.243164062500, 0.001953125000, 215.875000000000, 151.101562500000, -128.132812500000, 1491214934
0.117675781250, 0.044677734375, 0.132568359375, -115.312500000000, 143.085937500000, -40.906250000000, 1491214934
0.117675781250, 0.044677734375, 0.132568359375, -115.312500000000, 143.085937500000, -40.906250000000, 1491214934
0.117675781250, 0.044677734375, 0.132568359375, -115.312500000000, 143.085937500000, -40.906250000000, 1491214934
0.117675781250, 0.044677734375, 0.132568359375, -115.312500000000, 143.085937500000, -40.906250000000, 1491214934
-0.011474609375, -0.134277343750, 0.148193359375, -249.625000000000, -145.867187500000, -42.562500000000, 1491214934
-0.011474609375, -0.134277343750, 0.148193359375, -249.625000000000, -145.867187500000, -42.562500000000, 1491214934
-0.011474609375, -0.134277343750, 0.148193359375, -249.625000000000, -145.867187500000, -42.562500000000, 1491214934
0.224853515625, -0.769775390625, -1.504638671875, 253.992187500000, -140.328125000000, -28.609375000000, 1491214934
0.224853515625, -0.769775390625, -1.504638671875, 253.992187500000, -140.328125000000, -28.609375000000, 1491214934
0.224853515625, -0.769775390625, -1.504638671875, 253.992187500000, -140.328125000000, -28.609375000000, 1491214934
0.568359375000, 0.444580078125, 1.254150390625, -256.000000000000, -180.625000000000, 34.679687500000, 1491214934
0.568359375000, 0.444580078125, 1.254150390625, -256.000000000000, -180.625000000000, 34.679687500000, 1491214934
0.568359375000, 0.444580078125, 1.254150390625, -256.000000000000, -180.625000000000, 34.679687500000, 1491214934
-0.329833984375, -0.560546875000, -1.487060546875, -126.421875000000, -4.296875000000, 2.226562500000, 1491214934
-0.329833984375, -0.560546875000, -1.487060546875, -126.421875000000, -4.296875000000, 2.226562500000, 1491214934
-0.329833984375, -0.560546875000, -1.487060546875, -126.421875000000, -4.296875000000, 2.226562500000, 1491214934
-0.329833984375, -0.560546875000, -1.487060546875, -126.421875000000, -4.296875000000, 2.226562500000, 1491214934
-0.518310546875, -0.644042968750, -2.350341796875, -73.226562500000, 5.820312500000, 1.328125000000, 1491214934
-0.518310546875, -0.644042968750, -2.350341796875, -73.226562500000, 5.820312500000, 1.328125000000, 1491214934
-0.518310546875, -0.644042968750, -2.350341796875, -73.226562500000, 5.820312500000, 1.328125000000, 1491214934
-0.228515625000, -0.572998046875, -1.913818359375, -22.398437500000, -7.156250000000, 1.335937500000, 1491214934
-0.228515625000, -0.572998046875, -1.913818359375, -22.398437500000, -7.156250000000, 1.335937500000, 1491214934
-0.228515625000, -0.572998046875, -1.913818359375, -22.398437500000, -7.156250000000, 1.335937500000, 1491214934
-0.155761718750, -0.304931640625, -0.798339843750, 15.734375000000, 38.757812500000, 1.109375000000, 1491214935
-0.155761718750, -0.304931640625, -0.798339843750, 15.734375000000, 38.757812500000, 1.109375000000, 1491214935
-0.155761718750, -0.304931640625, -0.798339843750, 15.734375000000, 38.757812500000, 1.109375000000, 1491214935
0.071777343750, -0.229003906250, -0.045654296875, 234.890625000000, 91.570312500000, -59.109375000000, 1491214935
0.071777343750, -0.229003906250, -0.045654296875, 234.890625000000, 91.570312500000, -59.109375000000, 1491214935
0.071777343750, -0.229003906250, -0.045654296875, 234.890625000000, 91.570312500000, -59.109375000000, 1491214935
0.071777343750, -0.229003906250, -0.045654296875, 234.890625000000, 91.570312500000, -59.109375000000, 1491214935
0.020507812500, 0.156250000000, -0.643310546875, 115.242187500000, 69.500000000000, -78.929687500000, 1491214935
0.020507812500, 0.156250000000, -0.643310546875, 115.242187500000, 69.500000000000, -78.929687500000, 1491214935
0.020507812500, 0.156250000000, -0.643310546875, 115.242187500000, 69.500000000000, -78.929687500000, 1491214935
-0.064941406250, -0.211181640625, -1.003906250000, 35.101562500000, -10.500000000000, -14.609375000000, 1491214935
-0.064941406250, -0.211181640625, -1.003906250000, 35.101562500000, -10.500000000000, -14.609375000000, 1491214935
-0.064941406250, -0.211181640625, -1.003906250000, 35.101562500000, -10.500000000000, -14.609375000000, 1491214935
0.026855468750, 0.063964843750, -0.835693359375, -6.390625000000, -38.546875000000, 5.031250000000, 1491214935
0.026855468750, 0.063964843750, -0.835693359375, -6.390625000000, -38.546875000000, 5.031250000000, 1491214935
0.026855468750, 0.063964843750, -0.835693359375, -6.390625000000, -38.546875000000, 5.031250000000, 1491214935
-0.278320312500, -0.232666015625, -0.973876953125, -78.890625000000, -52.632812500000, 4.609375000000, 1491214935
-0.278320312500, -0.232666015625, -0.973876953125, -78.890625000000, -52.632812500000, 4.609375000000, 1491214935
-0.278320312500, -0.232666015625, -0.973876953125, -78.890625000000, -52.632812500000, 4.609375000000, 1491214935
-0.278320312500, -0.232666015625, -0.973876953125, -78.890625000000, -52.632812500000, 4.609375000000, 1491214935
-0.322753906250, -0.352539062500, -1.345214843750, -80.656250000000, -54.773437500000, -0.257812500000, 1491214935
-0.322753906250, -0.352539062500, -1.345214843750, -80.656250000000, -54.773437500000, -0.257812500000, 1491214935
-0.322753906250, -0.352539062500, -1.345214843750, -80.656250000000, -54.773437500000, -0.257812500000, 1491214935
-0.240722656250, -0.270019531250, -1.328369140625, 15.054687500000, 10.593750000000, -5.664062500000, 1491214935
-0.240722656250, -0.270019531250, -1.328369140625, 15.054687500000, 10.593750000000, -5.664062500000, 1491214935
-0.240722656250, -0.270019531250, -1.328369140625, 15.054687500000, 10.593750000000, -5.664062500000, 1491214935
-0.060302734375, -0.104492187500, -1.066894531250, 41.250000000000, 36.882812500000, -5.656250000000, 1491214935
-0.060302734375, -0.104492187500, -1.066894531250, 41.250000000000, 36.882812500000, -5.656250000000, 1491214935
-0.060302734375, -0.104492187500, -1.066894531250, 41.250000000000, 36.882812500000, -5.656250000000, 1491214935
-0.059570312500, -0.146728515625, -0.715332031250, 19.828125000000, 13.390625000000, -4.210937500000, 1491214935
-0.059570312500, -0.146728515625, -0.715332031250, 19.828125000000, 13.390625000000, -4.210937500000, 1491214935
-0.059570312500, -0.146728515625, -0.715332031250, 19.828125000000, 13.390625000000, -4.210937500000, 1491214935
-0.059570312500, -0.146728515625, -0.715332031250, 19.828125000000, 13.390625000000, -4.210937500000, 1491214935
-0.048339843750, -0.143798828125, -0.723876953125, -16.070312500000, -1.445312500000, -1.289062500000, 1491214935
-0.048339843750, -0.143798828125, -0.723876953125, -16.070312500000, -1.445312500000, -1.289062500000, 1491214935
-0.048339843750, -0.143798828125, -0.723876953125, -16.070312500000, -1.445312500000, -1.289062500000, 1491214935
-0.035644531250, -0.165527343750, -0.739501953125, -51.468750000000, -27.390625000000, 3.734375000000, 1491214935
-0.035644531250, -0.165527343750, -0.739501953125, -51.468750000000, -27.390625000000, 3.734375000000, 1491214935
-0.035644531250, -0.165527343750, -0.739501953125, -51.468750000000, -27.390625000000, 3.734375000000, 1491214935
-0.111083984375, -0.252685546875, -1.071533203125, -54.195312500000, -33.062500000000, -0.343750000000, 1491214935
-0.111083984375, -0.252685546875, -1.071533203125, -54.195312500000, -33.062500000000, -0.343750000000, 1491214935
-0.111083984375, -0.252685546875, -1.071533203125, -54.195312500000, -33.062500000000, -0.343750000000, 1491214935
-0.150634765625, -0.324951171875, -1.167480468750, -7.242187500000, -8.640625000000, -3.351562500000, 1491214935
-0.150634765625, -0.324951171875, -1.167480468750, -7.242187500000, -8.640625000000, -3.351562500000, 1491214935
-0.150634765625, -0.324951171875, -1.167480468750, -7.242187500000, -8.640625000000, -3.351562500000, 1491214935
-0.150634765625, -0.324951171875, -1.167480468750, -8.179687500000, -1.523437500000, -4.359375000000, 1491214935
-0.136962890625, -0.273681640625, -0.973876953125, 3.218750000000, 3.898437500000, -3.210937500000, 1491214935
-0.136962890625, -0.273681640625, -0.973876953125, 3.218750000000, 3.898437500000, -3.210937500000, 1491214935
-0.136962890625, -0.273681640625, -0.973876953125, 3.218750000000, 3.898437500000, -3.210937500000, 1491214935
-0.163574218750, -0.263916015625, -0.939697265625, 45.382812500000, 26.945312500000, -8.218750000000, 1491214935
-0.163574218750, -0.263916015625, -0.939697265625, 45.382812500000, 26.945312500000, -8.218750000000, 1491214935
-0.163574218750, -0.263916015625, -0.939697265625, 45.382812500000, 26.945312500000, -8.218750000000, 1491214935
-0.031738281250, -0.035400390625, -0.734863281250, 25.742187500000, 20.132812500000, -8.437500000000, 1491214935
-0.031738281250, -0.035400390625, -0.734863281250, 25.742187500000, 20.132812500000, -8.437500000000, 1491214935
-0.031738281250, -0.035400390625, -0.734863281250, 25.742187500000, 20.132812500000, -8.437500000000, 1491214935
-0.036376953125, -0.093750000000, -0.875976562500, -6.039062500000, -3.031250000000, -5.257812500000, 1491214935
-0.036376953125, -0.093750000000, -0.875976562500, -6.039062500000, -3.031250000000, -5.257812500000, 1491214935
-0.036376953125, -0.093750000000, -0.875976562500, -6.039062500000, -3.031250000000, -5.257812500000, 1491214935
-0.036376953125, -0.093750000000, -0.875976562500, -6.039062500000, -3.031250000000, -5.257812500000, 1491214935
-0.166748046875, -0.189697265625, -1.021972656250, -22.906250000000, -8.335937500000, -1.179687500000, 1491214935
-0.166748046875, -0.189697265625, -1.021972656250, -22.906250000000, -8.335937500000, -1.179687500000, 1491214935
-0.166748046875, -0.189697265625, -1.021972656250, -22.906250000000, -8.335937500000, -1.179687500000, 1491214935
0.026123046875, -0.140136718750, -0.987060546875, -20.171875000000, -8.015625000000, -3.406250000000, 1491214935
0.026123046875, -0.140136718750, -0.987060546875, -20.171875000000, -8.015625000000, -3.406250000000, 1491214935
0.026123046875, -0.140136718750, -0.987060546875, -20.171875000000, -8.015625000000, -3.406250000000, 1491214935
-0.189941406250, -0.083496093750, -1.082519531250, -4.093750000000, 0.718750000000, -3.585937500000, 1491214935
-0.189941406250, -0.083496093750, -1.082519531250, -4.093750000000, 0.718750000000, -3.585937500000, 1491214935
-0.189941406250, -0.083496093750, -1.082519531250, -4.093750000000, 0.718750000000, -3.585937500000, 1491214935
-0.127197265625, -0.163818359375, -1.010986328125, 4.109375000000, 6.226562500000, -5.085937500000, 1491214936
-0.127197265625, -0.163818359375, -1.010986328125, 4.109375000000, 6.226562500000, -5.085937500000, 1491214936
-0.127197265625, -0.163818359375, -1.010986328125, 4.109375000000, 6.226562500000, -5.085937500000, 1491214936
-0.127197265625, -0.163818359375, -1.010986328125, 4.109375000000, 6.226562500000, -5.085937500000, 1491214936
-0.135742187500, -0.192382812500, -0.805664062500, 1.562500000000, 4.343750000000, -3.960937500000, 1491214936
-0.135742187500, -0.192382812500, -0.805664062500, 1.562500000000, 4.343750000000, -3.960937500000, 1491214936
-0.135742187500, -0.192382812500, -0.805664062500, 1.562500000000, 4.343750000000, -3.960937500000, 1491214936
-0.129394531250, -0.129150390625, -0.843750000000, -1.093750000000, -4.304687500000, -1.476562500000, 1491214936
-0.129394531250, -0.129150390625, -0.843750000000, -1.093750000000, -4.304687500000, -1.476562500000, 1491214936
-0.129394531250, -0.129150390625, -0.843750000000, -1.093750000000, -4.304687500000, -1.476562500000, 1491214936
-0.200195312500, -0.117675781250, -0.926025390625, -5.203125000000, 0.523437500000, -6.015625000000, 1491214936
-0.200195312500, -0.117675781250, -0.926025390625, -5.203125000000, 0.523437500000, -6.015625000000, 1491214936
-0.200195312500, -0.117675781250, -0.926025390625, -5.203125000000, 0.523437500000, -6.015625000000, 1491214936
-0.161621093750, -0.259765625000, -1.216064453125, -8.437500000000, -2.351562500000, -4.062500000000, 1491214936
-0.161621093750, -0.259765625000, -1.216064453125, -8.437500000000, -2.351562500000, -4.062500000000, 1491214936
-0.161621093750, -0.259765625000, -1.216064453125, -8.437500000000, -2.351562500000, -4.062500000000, 1491214936
-0.161621093750, -0.259765625000, -1.216064453125, -8.437500000000, -2.351562500000, -4.062500000000, 1491214936
-0.074951171875, -0.189208984375, -0.941162109375, -9.039062500000, 0.617187500000, -4.703125000000, 1491214936
-0.074951171875, -0.189208984375, -0.941162109375, -9.039062500000, 0.617187500000, -4.703125000000, 1491214936
-0.074951171875, -0.189208984375, -0.941162109375, -9.039062500000, 0.617187500000, -4.703125000000, 1491214936
-0.048828125000, -0.212158203125, -0.959228515625, -0.164062500000, 3.359375000000, -5.218750000000, 1491214936
-0.048828125000, -0.212158203125, -0.959228515625, -0.164062500000, 3.359375000000, -5.218750000000, 1491214936
-0.048828125000, -0.212158203125, -0.959228515625, -0.164062500000, 3.359375000000, -5.218750000000, 1491214936
-0.182373046875, -0.051757812500, -1.022705078125, -3.632812500000, 2.664062500000, -5.414062500000, 1491214936
-0.182373046875, -0.051757812500, -1.022705078125, -3.632812500000, 2.664062500000, -5.414062500000, 1491214936
-0.182373046875, -0.051757812500, -1.022705078125, -3.632812500000, 2.664062500000, -5.414062500000, 1491214936
-0.205078125000, -0.171875000000, -1.148193359375, 0.164062500000, -0.273437500000, -2.242187500000, 1491214936
-0.205078125000, -0.171875000000, -1.148193359375, 0.164062500000, -0.273437500000, -2.242187500000, 1491214936
-0.205078125000, -0.171875000000, -1.148193359375, 0.164062500000, -0.273437500000, -2.242187500000, 1491214936
-0.205078125000, -0.171875000000, -1.148193359375, 0.164062500000, -0.273437500000, -2.242187500000, 1491214936
-0.129638671875, -0.159667968750, -0.844970703125, -3.226562500000, 0.148437500000, -3.718750000000, 1491214936
-0.129638671875, -0.159667968750, -0.844970703125, -3.226562500000, 0.148437500000, -3.718750000000, 1491214936
-0.129638671875, -0.159667968750, -0.844970703125, -3.226562500000, 0.148437500000, -3.718750000000, 1491214936
-0.111816406250, -0.217773437500, -1.030517578125, -0.992187500000, 2.750000000000, -6.414062500000, 1491214936
-0.111816406250, -0.217773437500, -1.030517578125, -0.992187500000, 2.750000000000, -6.414062500000, 1491214936
-0.111816406250, -0.217773437500, -1.030517578125, -0.992187500000, 2.750000000000, -6.414062500000, 1491214936
-0.105468750000, -0.196289062500, -0.924072265625, 0.507812500000, 4.085937500000, -4.898437500000, 1491214936
-0.105468750000, -0.196289062500, -0.924072265625, 0.507812500000, 4.085937500000, -4.898437500000, 1491214936
-0.105468750000, -0.196289062500, -0.924072265625, 0.507812500000, 4.085937500000, -4.898437500000, 1491214936
-0.127685546875, -0.100830078125, -1.092285156250, -6.250000000000, -0.156250000000, -4.843750000000, 1491214936
-0.127685546875, -0.100830078125, -1.092285156250, -6.250000000000, -0.156250000000, -4.843750000000, 1491214936
-0.127685546875, -0.100830078125, -1.092285156250, -6.250000000000, -0.156250000000, -4.843750000000, 1491214936
-0.127685546875, -0.100830078125, -1.092285156250, -6.250000000000, -0.156250000000, -4.843750000000, 1491214936
-0.051269531250, -0.099365234375, -0.920654296875, -3.976562500000, 4.960937500000, -5.031250000000, 1491214936
-0.051269531250, -0.099365234375, -0.920654296875, -3.976562500000, 4.960937500000, -5.031250000000, 1491214936
-0.051269531250, -0.099365234375, -0.920654296875, -3.976562500000, 4.960937500000, -5.031250000000, 1491214936
-0.204101562500, -0.110595703125, -0.967529296875, -3.562500000000, -2.835937500000, -3.523437500000, 1491214936
-0.204101562500, -0.110595703125, -0.967529296875, -3.562500000000, -2.835937500000, -3.523437500000, 1491214936
-0.204101562500, -0.110595703125, -0.967529296875, -3.562500000000, -2.835937500000, -3.523437500000, 1491214936
-0.148681640625, -0.111572265625, -1.029052734375, -1.734375000000, 1.289062500000, -6.484375000000, 1491214936
-0.148681640625, -0.111572265625, -1.029052734375, -1.734375000000, 1.289062500000, -6.484375000000, 1491214936
-0.148681640625, -0.111572265625, -1.029052734375, -1.734375000000, 1.289062500000, -6.484375000000, 1491214936
-0.117919921875, -0.188476562500, -1.010009765625, -5.312500000000, 0.773437500000, -3.921875000000, 1491214936
-0.117919921875, -0.188476562500, -1.010009765625, -5.312500000000, 0.773437500000, -3.921875000000, 1491214936
-0.145507812500, -0.118896484375, -0.916503906250, -6.476562500000, 0.320312500000, -3.609375000000, 1491214936
-0.124511718750, -0.148437500000, -0.946533203125, -2.593750000000, 0.476562500000, -6.117187500000, 1491214936
-0.124511718750, -0.148437500000, -0.946533203125, -2.593750000000, 0.476562500000, -6.117187500000, 1491214936
-0.124511718750, -0.148437500000, -0.946533203125, -2.593750000000, 0.476562500000, -6.117187500000, 1491214936
-0.108398437500, -0.116943359375, -0.919677734375, -7.000000000000, -2.226562500000, -3.476562500000, 1491214936
-0.108398437500, -0.116943359375, -0.919677734375, -7.000000000000, -2.226562500000, -3.476562500000, 1491214936
-0.108398437500, -0.116943359375, -0.919677734375, -7.000000000000, -2.226562500000, -3.476562500000, 1491214936
-0.108398437500, -0.116943359375, -0.919677734375, -7.000000000000, -2.226562500000, -3.476562500000, 1491214936
-0.038330078125, -0.273193359375, -1.010498046875, -2.140625000000, -0.671875000000, -6.070312500000, 1491214936
-0.038330078125, -0.273193359375, -1.010498046875, -2.140625000000, -0.671875000000, -6.070312500000, 1491214936
-0.038330078125, -0.273193359375, -1.010498046875, -2.140625000000, -0.671875000000, -6.070312500000, 1491214936
-0.136474609375, -0.196289062500, -0.933593750000, -4.242187500000, -0.804687500000, -4.445312500000, 1491214936
-0.136474609375, -0.196289062500, -0.933593750000, -4.242187500000, -0.804687500000, -4.445312500000, 1491214937
-0.136474609375, -0.196289062500, -0.933593750000, -4.242187500000, -0.804687500000, -4.445312500000, 1491214937
-0.136474609375, -0.196289062500, -0.933593750000, -4.242187500000, -0.804687500000, -4.445312500000, 1491214937
-0.101074218750, -0.062255859375, -0.951171875000, -2.757812500000, 0.835937500000, -5.078125000000, 1491214937
-0.101074218750, -0.062255859375, -0.951171875000, -2.757812500000, 0.835937500000, -5.078125000000, 1491214937
-0.101074218750, -0.062255859375, -0.951171875000, -2.757812500000, 0.835937500000, -5.078125000000, 1491214937
-0.058105468750, -0.083251953125, -0.956542968750, 0.195312500000, 0.968750000000, -6.335937500000, 1491214937
-0.058105468750, -0.083251953125, -0.956542968750, 0.195312500000, 0.968750000000, -6.335937500000, 1491214937
-0.058105468750, -0.083251953125, -0.956542968750, 0.195312500000, 0.968750000000, -6.335937500000, 1491214937
-0.063232421875, -0.180175781250, -0.937988281250, -4.398437500000, 2.742187500000, -3.718750000000, 1491214937
-0.063232421875, -0.180175781250, -0.937988281250, -4.398437500000, 2.742187500000, -3.718750000000, 1491214937
-0.063232421875, -0.180175781250, -0.937988281250, -4.398437500000, 2.742187500000, -3.718750000000, 1491214937
-0.206542968750, -0.164306640625, -0.906982421875, -5.234375000000, 0.851562500000, -3.250000000000, 1491214937
-0.206542968750, -0.164306640625, -0.906982421875, -5.234375000000, 0.851562500000, -3.250000000000, 1491214937
-0.206542968750, -0.164306640625, -0.906982421875, -5.234375000000, 0.851562500000, -3.250000000000, 1491214937
-0.206542968750, -0.164306640625, -0.906982421875, -5.234375000000, 0.851562500000, -3.250000000000, 1491214937
-0.102539062500, -0.205810546875, -1.010253906250, -4.859375000000, 0.695312500000, -3.617187500000, 1491214937
-0.102539062500, -0.205810546875, -1.010253906250, -4.859375000000, 0.695312500000, -3.617187500000, 1491214937
-0.102539062500, -0.205810546875, -1.010253906250, -4.859375000000, 0.695312500000, -3.617187500000, 1491214937
-0.182617187500, -0.071289062500, -0.964355468750, -1.609375000000, -0.617187500000, -5.203125000000, 1491214937
-0.182617187500, -0.071289062500, -0.964355468750, -1.609375000000, -0.617187500000, -5.203125000000, 1491214937
-0.182617187500, -0.071289062500, -0.964355468750, -1.609375000000, -0.617187500000, -5.203125000000, 1491214937
-0.105468750000, -0.129882812500, -0.958740234375, -4.546875000000, 4.242187500000, -5.937500000000, 1491214937
-0.105468750000, -0.129882812500, -0.958740234375, -4.546875000000, 4.242187500000, -5.937500000000, 1491214937
-0.105468750000, -0.129882812500, -0.958740234375, -4.546875000000, 4.242187500000, -5.937500000000, 1491214937
-0.117675781250, -0.124267578125, -0.913085937500, -8.546875000000, -2.046875000000, -3.656250000000, 1491214937
-0.117675781250, -0.124267578125, -0.913085937500, -8.546875000000, -2.046875000000, -3.656250000000, 1491214937
-0.117675781250, -0.124267578125, -0.913085937500, -8.546875000000, -2.046875000000, -3.656250000000, 1491214937
-0.117675781250, -0.124267578125, -0.913085937500, -8.546875000000, -2.046875000000, -3.656250000000, 1491214937
-0.197509765625, -0.095947265625, -1.072265625000, -6.164062500000, 0.953125000000, -3.859375000000, 1491214937
-0.197509765625, -0.095947265625, -1.072265625000, -6.164062500000, 0.953125000000, -3.859375000000, 1491214937
-0.197509765625, -0.095947265625, -1.072265625000, -6.164062500000, 0.953125000000, -3.859375000000, 1491214937
-0.158203125000, -0.146240234375, -0.967773437500, -4.507812500000, -0.273437500000, -3.546875000000, 1491214937
-0.158203125000, -0.146240234375, -0.967773437500, -4.507812500000, -0.273437500000, -3.546875000000, 1491214937
-0.158203125000, -0.146240234375, -0.967773437500, -4.507812500000, -0.273437500000, -3.546875000000, 1491214937
-0.196777343750, -0.174804687500, -0.927978515625, -1.062500000000, -0.468750000000, -3.335937500000, 1491214937
-0.196777343750, -0.174804687500, -0.927978515625, -1.062500000000, -0.468750000000, -3.335937500000, 1491214937
-0.196777343750, -0.174804687500, -0.927978515625, -1.062500000000, -0.468750000000, -3.335937500000, 1491214937
-0.127685546875, -0.191406250000, -1.030517578125, -5.882812500000, 2.375000000000, -1.562500000000, 1491214937
-0.127685546875, -0.191406250000, -1.030517578125, -5.882812500000, 2.375000000000, -1.562500000000, 1491214937
-0.127685546875, -0.191406250000, -1.030517578125, -5.882812500000, 2.375000000000, -1.562500000000, 1491214937
-0.127685546875, -0.191406250000, -1.030517578125, -5.882812500000, 2.375000000000, -1.562500000000, 1491214937
-0.170898437500, -0.143798828125, -0.864013671875, -4.945312500000, 0.421875000000, -3.203125000000, 1491214937
-0.170898437500, -0.143798828125, -0.864013671875, -4.945312500000, 0.421875000000, -3.203125000000, 1491214937
-0.170898437500, -0.143798828125, -0.864013671875, -4.945312500000, 0.421875000000, -3.203125000000, 1491214937
-0.110595703125, -0.055175781250, -0.959960937500, -4.851562500000, -0.609375000000, -3.617187500000, 1491214937
-0.110595703125, -0.055175781250, -0.959960937500, -4.851562500000, -0.609375000000, -3.617187500000, 1491214937
-0.110595703125, -0.055175781250, -0.959960937500, -4.851562500000, -0.609375000000, -3.617187500000, 1491214937
-0.129882812500, -0.132568359375, -0.960693359375, -3.046875000000, -0.765625000000, -4.101562500000, 1491214937
-0.129882812500, -0.132568359375, -0.960693359375, -3.046875000000, -0.765625000000, -4.101562500000, 1491214937
-0.129882812500, -0.132568359375, -0.960693359375, -3.046875000000, -0.765625000000, -4.101562500000, 1491214937
-0.194091796875, 0.004150390625, -0.927734375000, -6.648437500000, -2.226562500000, -3.468750000000, 1491214937
-0.194091796875, 0.004150390625, -0.927734375000, -6.648437500000, -2.226562500000, -3.468750000000, 1491214937
-0.194091796875, 0.004150390625, -0.927734375000, -6.648437500000, -2.226562500000, -3.468750000000, 1491214937
-0.194091796875, 0.004150390625, -0.927734375000, -6.648437500000, -2.226562500000, -3.468750000000, 1491214937
-0.051757812500, -0.116210937500, -1.008300781250, -4.367187500000, 0.265625000000, -5.710937500000, 1491214937
-0.051757812500, -0.116210937500, -1.008300781250, -4.367187500000, 0.265625000000, -5.710937500000, 1491214937
-0.051757812500, -0.116210937500, -1.008300781250, -4.367187500000, 0.265625000000, -5.710937500000, 1491214937
-0.198242187500, -0.180908203125, -1.023437500000, -4.781250000000, -0.929687500000, -3.937500000000, 1491214937
-0.198242187500, -0.180908203125, -1.023437500000, -4.781250000000, -0.929687500000, -3.937500000000, 1491214937
-0.198242187500, -0.180908203125, -1.023437500000, -4.781250000000, -0.929687500000, -3.937500000000, 1491214937
-0.124755859375, -0.278320312500, -0.926757812500, -4.007812500000, 2.468750000000, -3.421875000000, 1491214937
-0.124755859375, -0.278320312500, -0.926757812500, -4.007812500000, 2.468750000000, -3.421875000000, 1491214937
-0.124755859375, -0.278320312500, -0.926757812500, -4.007812500000, 2.468750000000, -3.421875000000, 1491214937
-0.103515625000, -0.034423828125, -0.971435546875, -5.164062500000, 0.820312500000, -4.742187500000, 1491214937
-0.103515625000, -0.034423828125, -0.971435546875, -5.164062500000, 0.820312500000, -4.742187500000, 1491214937
-0.103515625000, -0.034423828125, -0.971435546875, -5.164062500000, 0.820312500000, -4.742187500000, 1491214938
-0.103515625000, -0.034423828125, -0.971435546875, -5.164062500000, 0.820312500000, -4.742187500000, 1491214938
-0.163574218750, -0.218261718750, -0.910156250000, -5.132812500000, -0.937500000000, -3.898437500000, 1491214938
-0.163574218750, -0.218261718750, -0.910156250000, -5.132812500000, -0.937500000000, -3.898437500000, 1491214938
-0.163574218750, -0.218261718750, -0.910156250000, -5.132812500000, -0.937500000000, -3.898437500000, 1491214938
-0.128906250000, -0.056640625000, -1.023193359375, -4.679687500000, -0.742187500000, -6.476562500000, 1491214938
-0.128906250000, -0.056640625000, -1.023193359375, -4.679687500000, -0.742187500000, -6.476562500000, 1491214938
-0.128906250000, -0.056640625000, -1.023193359375, -4.679687500000, -0.742187500000, -6.476562500000, 1491214938
-0.204589843750, -0.119384765625, -1.019531250000, -3.703125000000, 2.929687500000, -3.484375000000, 1491214938
-0.204589843750, -0.119384765625, -1.019531250000, -3.703125000000, 2.929687500000, -3.484375000000, 1491214938
-0.204589843750, -0.119384765625, -1.019531250000, -3.703125000000, 2.929687500000, -3.484375000000, 1491214938
-0.034912109375, -0.202392578125, -0.943603515625, -6.492187500000, 0.593750000000, -3.515625000000, 1491214938
-0.034912109375, -0.202392578125, -0.943603515625, -6.492187500000, 0.593750000000, -3.515625000000, 1491214938
-0.034912109375, -0.202392578125, -0.943603515625, -6.492187500000, 0.593750000000, -3.515625000000, 1491214938
-0.034912109375, -0.202392578125, -0.943603515625, -6.492187500000, 0.593750000000, -3.515625000000, 1491214938
-0.161376953125, -0.115722656250, -0.929687500000, -5.781250000000, 0.554687500000, -3.984375000000, 1491214938
-0.161376953125, -0.115722656250, -0.929687500000, -5.781250000000, 0.554687500000, -3.984375000000, 1491214938
-0.161376953125, -0.115722656250, -0.929687500000, -5.781250000000, 0.554687500000, -3.984375000000, 1491214938
-0.045654296875, -0.196777343750, -0.920166015625, -2.062500000000, -2.953125000000, -6.882812500000, 1491214938
-0.045654296875, -0.196777343750, -0.920166015625, -2.062500000000, -2.953125000000, -6.882812500000, 1491214938
-0.045654296875, -0.196777343750, -0.920166015625, -2.062500000000, -2.953125000000, -6.882812500000, 1491214938
-0.280517578125, -0.251220703125, -0.911621093750, -4.945312500000, -0.343750000000, -5.539062500000, 1491214938
-0.280517578125, -0.251220703125, -0.911621093750, -4.945312500000, -0.343750000000, -5.539062500000, 1491214938
-0.280517578125, -0.251220703125, -0.911621093750, -4.945312500000, -0.343750000000, -5.539062500000, 1491214938
-0.050292968750, -0.201904296875, -0.980468750000, -6.718750000000, 2.765625000000, -3.445312500000, 1491214938
-0.050292968750, -0.201904296875, -0.980468750000, -6.718750000000, 2.765625000000, -3.445312500000, 1491214938
-0.050292968750, -0.201904296875, -0.980468750000, -6.718750000000, 2.765625000000, -3.445312500000, 1491214938
-0.050292968750, -0.201904296875, -0.980468750000, -6.718750000000, 2.765625000000, -3.445312500000, 1491214938
0.005615234375, -0.082763671875, -0.965332031250, -6.937500000000, -0.406250000000, -6.109375000000, 1491214938
0.005615234375, -0.082763671875, -0.965332031250, -6.937500000000, -0.406250000000, -6.109375000000, 1491214938
0.005615234375, -0.082763671875, -0.965332031250, -6.937500000000, -0.406250000000, -6.109375000000, 1491214938
-0.136230468750, -0.202880859375, -0.918701171875, -3.851562500000, -0.796875000000, -6.703125000000, 1491214938
-0.136230468750, -0.202880859375, -0.918701171875, -3.851562500000, -0.796875000000, -6.703125000000, 1491214938
-0.136230468750, -0.202880859375, -0.918701171875, -3.851562500000, -0.796875000000, -6.703125000000, 1491214938
-0.123779296875, -0.140625000000, -1.013183593750, -6.273437500000, 0.789062500000, -3.648437500000, 1491214938
-0.123779296875, -0.140625000000, -1.013183593750, -6.273437500000, 0.789062500000, -3.648437500000, 1491214938
-0.123779296875, -0.140625000000, -1.013183593750, -6.273437500000, 0.789062500000, -3.648437500000, 1491214938
-0.050292968750, -0.126708984375, -0.967041015625, -3.945312500000, -1.476562500000, -3.828125000000, 1491214938
-0.050292968750, -0.126708984375, -0.967041015625, -3.945312500000, -1.476562500000, -3.828125000000, 1491214938
-0.050292968750, -0.126708984375, -0.967041015625, -3.945312500000, -1.476562500000, -3.828125000000, 1491214938
-0.050292968750, -0.126708984375, -0.967041015625, -3.945312500000, -1.476562500000, -3.828125000000, 1491214938
-0.055664062500, -0.149414062500, -1.027099609375, -11.085937500000, -1.937500000000, -7.148437500000, 1491214938
-0.055664062500, -0.149414062500, -1.027099609375, -11.085937500000, -1.937500000000, -7.148437500000, 1491214938
-0.055664062500, -0.149414062500, -1.027099609375, -11.085937500000, -1.937500000000, -7.148437500000, 1491214938
-0.153808593750, -0.266357421875, -0.927246093750, -10.000000000000, -4.367187500000, -3.968750000000, 1491214938
-0.153808593750, -0.266357421875, -0.927246093750, -10.000000000000, -4.367187500000, -3.968750000000, 1491214938
-0.153808593750, -0.266357421875, -0.927246093750, -10.000000000000, -4.367187500000, -3.968750000000, 1491214938
-0.106689453125, -0.175292968750, -0.806396484375, -20.734375000000, -3.929687500000, -6.687500000000, 1491214938
-0.106689453125, -0.175292968750, -0.806396484375, -20.734375000000, -3.929687500000, -6.687500000000, 1491214938
-0.106689453125, -0.175292968750, -0.806396484375, -20.734375000000, -3.929687500000, -6.687500000000, 1491214938
-0.264648437500, -0.185302734375, -0.864746093750, -14.773437500000, -6.015625000000, -5.828125000000, 1491214938
-0.264648437500, -0.185302734375, -0.864746093750, -14.773437500000, -6.015625000000, -5.828125000000, 1491214938
-0.264648437500, -0.185302734375, -0.864746093750, -14.773437500000, -6.015625000000, -5.828125000000, 1491214938
-0.264648437500, -0.185302734375, -0.864746093750, -14.773437500000, -6.015625000000, -5.828125000000, 1491214938
-0.154052734375, -0.192871093750, -1.003906250000, -13.859375000000, -3.007812500000, -5.500000000000, 1491214938
-0.154052734375, -0.192871093750, -1.003906250000, -13.859375000000, -3.007812500000, -5.500000000000, 1491214938
-0.154052734375, -0.192871093750, -1.003906250000, -13.859375000000, -3.007812500000, -5.500000000000, 1491214938
-0.190673828125, -0.191162109375, -0.952392578125, -19.054687500000, -8.125000000000, -5.984375000000, 1491214938
-0.190673828125, -0.191162109375, -0.952392578125, -19.054687500000, -8.125000000000, -5.984375000000, 1491214938
-0.190673828125, -0.191162109375, -0.952392578125, -19.054687500000, -8.125000000000, -5.984375000000, 1491214938
-0.139892578125, -0.147216796875, -1.011962890625, -8.343750000000, -4.992187500000, -5.281250000000, 1491214938
-0.139892578125, -0.147216796875, -1.011962890625, -8.343750000000, -4.992187500000, -5.281250000000, 1491214938
-0.139892578125, -0.147216796875, -1.011962890625, -8.343750000000, -4.992187500000, -5.281250000000, 1491214938
-0.112060546875, -0.171875000000, -0.956787109375, -8.671875000000, -9.179687500000, -8.742187500000, 1491214938
-0.112060546875, -0.171875000000, -0.956787109375, -8.671875000000, -9.179687500000, -8.742187500000, 1491214938
-0.112060546875, -0.171875000000, -0.956787109375, -8.671875000000, -9.179687500000, -8.742187500000, 1491214938
-0.112060546875, -0.171875000000, -0.956787109375, -8.671875000000, -9.179687500000, -8.742187500000, 1491214938
-0.162353515625, -0.195800781250, -0.942626953125, 4.539062500000, -2.789062500000, -8.296875000000, 1491214939
-0.162353515625, -0.195800781250, -0.942626953125, 4.539062500000, -2.789062500000, -8.296875000000, 1491214939
-0.162353515625, -0.195800781250, -0.942626953125, 4.539062500000, -2.789062500000, -8.296875000000, 1491214939
-0.115234375000, -0.279541015625, -1.075195312500, 8.117187500000, -9.250000000000, -3.718750000000, 1491214939
-0.115234375000, -0.279541015625, -1.075195312500, 8.117187500000, -9.250000000000, -3.718750000000, 1491214939
-0.115234375000, -0.279541015625, -1.075195312500, 8.117187500000, -9.250000000000, -3.718750000000, 1491214939
-0.180908203125, -0.237060546875, -1.085205078125, -2.218750000000, -25.117187500000, -8.750000000000, 1491214939
-0.180908203125, -0.237060546875, -1.085205078125, -2.218750000000, -25.117187500000, -8.750000000000, 1491214939
-0.180908203125, -0.237060546875, -1.085205078125, -2.218750000000, -25.117187500000, -8.750000000000, 1491214939
-0.092041015625, -0.340820312500, -0.806884765625, 33.507812500000, 39.070312500000, -12.156250000000, 1491214939
-0.092041015625, -0.340820312500, -0.806884765625, 33.507812500000, 39.070312500000, -12.156250000000, 1491214939
-0.092041015625, -0.340820312500, -0.806884765625, 33.507812500000, 39.070312500000, -12.156250000000, 1491214939
-0.092041015625, -0.340820312500, -0.806884765625, 33.507812500000, 39.070312500000, -12.156250000000, 1491214939
-0.211181640625, -0.054687500000, -1.087402343750, 35.742187500000, 45.367187500000, -9.812500000000, 1491214939
-0.211181640625, -0.054687500000, -1.087402343750, 35.742187500000, 45.367187500000, -9.812500000000, 1491214939
-0.211181640625, -0.054687500000, -1.087402343750, 35.742187500000, 45.367187500000, -9.812500000000, 1491214939
0.126708984375, -0.163574218750, -1.042480468750, 37.726562500000, 91.359375000000, -14.156250000000, 1491214939
0.126708984375, -0.163574218750, -1.042480468750, 37.726562500000, 91.359375000000, -14.156250000000, 1491214939
0.126708984375, -0.163574218750, -1.042480468750, 37.726562500000, 91.359375000000, -14.156250000000, 1491214939
