ACC_X,ACC_Y,ACC_Z,G_X,G_Y,G_Z,Unix Time
-0.131103515625, -0.498291015625, 0.181396484375, 43.710937500000, -20.210937500000, -14.859375000000, 1492761116
-0.131103515625, -0.498291015625, 0.181396484375, 43.710937500000, -20.210937500000, -14.859375000000, 1492761116
-0.131103515625, -0.498291015625, 0.181396484375, 43.710937500000, -20.210937500000, -14.859375000000, 1492761116
-0.131103515625, -0.498291015625, 0.181396484375, 43.710937500000, -20.210937500000, -14.859375000000, 1492761116
-0.123046875000, -0.747314453125, 0.296875000000, -18.070312500000, -96.562500000000, -15.429687500000, 1492761116
-0.123046875000, -0.747314453125, 0.296875000000, -18.070312500000, -96.562500000000, -15.429687500000, 1492761116
-0.123046875000, -0.747314453125, 0.296875000000, -18.070312500000, -96.562500000000, -15.429687500000, 1492761116
0.084472656250, -0.969726562500, 0.730957031250, -73.289062500000, -79.984375000000, -20.414062500000, 1492761116
0.084472656250, -0.969726562500, 0.730957031250, -73.289062500000, -79.984375000000, -20.414062500000, 1492761116
0.084472656250, -0.969726562500, 0.730957031250, -73.289062500000, -79.984375000000, -20.414062500000, 1492761116
0.120117187500, -0.812255859375, 0.670166015625, 71.781250000000, -63.750000000000, -10.265625000000, 1492761116
0.120117187500, -0.812255859375, 0.670166015625, 71.781250000000, -63.750000000000, -10.265625000000, 1492761116
0.039062500000, -0.754638671875, 0.685302734375, 52.929687500000, -47.343750000000, -9.937500000000, 1492761116
0.077392578125, -0.754394531250, 0.411621093750, -19.921875000000, -31.781250000000, -5.710937500000, 1492761116
0.077392578125, -0.754394531250, 0.411621093750, -19.921875000000, -31.781250000000, -5.710937500000, 1492761116
0.077392578125, -0.754394531250, 0.411621093750, -19.921875000000, -31.781250000000, -5.710937500000, 1492761116
0.077392578125, -0.754394531250, 0.411621093750, -19.921875000000, -31.781250000000, -5.710937500000, 1492761116
-0.015625000000, -0.748291015625, 0.489746093750, -35.304687500000, -14.726562500000, -5.101562500000, 1492761116
-0.015625000000, -0.748291015625, 0.489746093750, -35.304687500000, -14.726562500000, -5.101562500000, 1492761116
-0.015625000000, -0.748291015625, 0.489746093750, -35.304687500000, -14.726562500000, -5.101562500000, 1492761116
-0.015625000000, -0.748291015625, 0.489746093750, -35.304687500000, -14.726562500000, -5.101562500000, 1492761116
0.013916015625, -0.880371093750, 0.552734375000, -15.132812500000, 0.921875000000, -5.507812500000, 1492761116
0.013916015625, -0.880371093750, 0.552734375000, -15.132812500000, 0.921875000000, -5.507812500000, 1492761116
0.013916015625, -0.880371093750, 0.552734375000, -15.132812500000, 0.921875000000, -5.507812500000, 1492761116
0.013916015625, -0.880371093750, 0.552734375000, -15.132812500000, 0.921875000000, -5.507812500000, 1492761116
0.013916015625, -0.880371093750, 0.552734375000, -15.132812500000, 0.921875000000, -5.507812500000, 1492761116
0.061767578125, -1.007080078125, 0.731201171875, -18.703125000000, 3.273437500000, -1.484375000000, 1492761116
0.061767578125, -1.007080078125, 0.731201171875, -18.703125000000, 3.273437500000, -1.484375000000, 1492761116
0.061767578125, -1.007080078125, 0.731201171875, -18.703125000000, 3.273437500000, -1.484375000000, 1492761116
0.061767578125, -1.007080078125, 0.731201171875, -18.703125000000, 3.273437500000, -1.484375000000, 1492761116
0.010009765625, -0.961181640625, 0.670654296875, -12.304687500000, 28.601562500000, 4.179687500000, 1492761116
0.010009765625, -0.961181640625, 0.670654296875, -12.304687500000, 28.601562500000, 4.179687500000, 1492761116
0.010009765625, -0.961181640625, 0.670654296875, -12.304687500000, 28.601562500000, 4.179687500000, 1492761116
0.145507812500, -0.932617187500, 0.785644531250, -62.179687500000, 22.656250000000, 9.296875000000, 1492761116
0.145507812500, -0.932617187500, 0.785644531250, -62.179687500000, 22.656250000000, 9.296875000000, 1492761116
0.145507812500, -0.932617187500, 0.785644531250, -62.179687500000, 22.656250000000, 9.296875000000, 1492761116
0.103515625000, -0.942382812500, 0.609130859375, -37.742187500000, 39.789062500000, 7.500000000000, 1492761116
0.103515625000, -0.942382812500, 0.609130859375, -37.742187500000, 39.789062500000, 7.500000000000, 1492761116
0.103515625000, -0.942382812500, 0.609130859375, -37.742187500000, 39.789062500000, 7.500000000000, 1492761116
0.253417968750, -0.620117187500, 0.197265625000, 79.523437500000, 29.570312500000, 6.375000000000, 1492761116
0.253417968750, -0.620117187500, 0.197265625000, 79.523437500000, 29.570312500000, 6.375000000000, 1492761116
0.253417968750, -0.620117187500, 0.197265625000, 79.523437500000, 29.570312500000, 6.375000000000, 1492761116
0.253417968750, -0.620117187500, 0.197265625000, 79.523437500000, 29.570312500000, 6.375000000000, 1492761116
0.295898437500, -0.617919921875, 0.308105468750, 32.257812500000, 30.679687500000, 1.914062500000, 1492761116
0.295898437500, -0.617919921875, 0.308105468750, 32.257812500000, 30.679687500000, 1.914062500000, 1492761116
0.295898437500, -0.617919921875, 0.308105468750, 32.257812500000, 30.679687500000, 1.914062500000, 1492761116
-0.001464843750, -0.783935546875, 0.337158203125, 44.304687500000, 101.625000000000, 14.125000000000, 1492761116
-0.001464843750, -0.783935546875, 0.337158203125, 44.304687500000, 101.625000000000, 14.125000000000, 1492761116
-0.001464843750, -0.783935546875, 0.337158203125, 44.304687500000, 101.625000000000, 14.125000000000, 1492761116
-0.021728515625, -0.745361328125, 0.680664062500, 73.007812500000, 11.257812500000, 18.015625000000, 1492761116
-0.021728515625, -0.745361328125, 0.680664062500, 73.007812500000, 11.257812500000, 18.015625000000, 1492761116
-0.021728515625, -0.745361328125, 0.680664062500, 73.007812500000, 11.257812500000, 18.015625000000, 1492761116
-0.021728515625, -0.745361328125, 0.680664062500, 73.007812500000, 11.257812500000, 18.015625000000, 1492761116
-0.021728515625, -0.745361328125, 0.680664062500, 73.007812500000, 11.257812500000, 18.015625000000, 1492761116
-0.021728515625, -0.745361328125, 0.680664062500, 73.007812500000, 11.257812500000, 18.015625000000, 1492761116
-0.023681640625, -0.737304687500, 0.750732421875, 24.343750000000, 15.828125000000, 14.468750000000, 1492761117
-0.038330078125, -0.711914062500, 0.511230468750, -27.414062500000, 19.875000000000, 4.476562500000, 1492761117
-0.038330078125, -0.711914062500, 0.511230468750, -27.414062500000, 19.875000000000, 4.476562500000, 1492761117
-0.038330078125, -0.711914062500, 0.511230468750, -27.414062500000, 19.875000000000, 4.476562500000, 1492761117
-0.048339843750, -0.842529296875, 0.589111328125, -17.562500000000, 10.546875000000, 4.687500000000, 1492761117
-0.048339843750, -0.842529296875, 0.589111328125, -17.562500000000, 10.546875000000, 4.687500000000, 1492761117
-0.048339843750, -0.842529296875, 0.589111328125, -17.562500000000, 10.546875000000, 4.687500000000, 1492761117
0.066894531250, -0.888916015625, 0.702148437500, -12.468750000000, 1.429687500000, 0.265625000000, 1492761117
0.066894531250, -0.888916015625, 0.702148437500, -12.468750000000, 1.429687500000, 0.265625000000, 1492761117
0.066894531250, -0.888916015625, 0.702148437500, -12.468750000000, 1.429687500000, 0.265625000000, 1492761117
0.030029296875, -1.102539062500, 0.794921875000, -56.218750000000, -35.148437500000, -19.375000000000, 1492761117
0.030029296875, -1.102539062500, 0.794921875000, -56.218750000000, -35.148437500000, -19.375000000000, 1492761117
0.030029296875, -1.102539062500, 0.794921875000, -56.218750000000, -35.148437500000, -19.375000000000, 1492761117
0.030029296875, -1.102539062500, 0.794921875000, -56.218750000000, -35.148437500000, -19.375000000000, 1492761117
0.014892578125, -0.532958984375, 0.268310546875, 55.828125000000, -79.546875000000, -20.000000000000, 1492761117
0.014892578125, -0.532958984375, 0.268310546875, 55.828125000000, -79.546875000000, -20.000000000000, 1492761117
0.014892578125, -0.532958984375, 0.268310546875, 55.828125000000, -79.546875000000, -20.000000000000, 1492761117
0.014892578125, -0.532958984375, 0.268310546875, 55.828125000000, -79.546875000000, -20.000000000000, 1492761117
0.027587890625, -0.570312500000, 0.332031250000, -6.585937500000, -34.609375000000, -25.414062500000, 1492761117
0.027587890625, -0.570312500000, 0.332031250000, -6.585937500000, -34.609375000000, -25.414062500000, 1492761117
0.027587890625, -0.570312500000, 0.332031250000, -6.585937500000, -34.609375000000, -25.414062500000, 1492761117
0.027587890625, -0.570312500000, 0.332031250000, -6.585937500000, -34.609375000000, -25.414062500000, 1492761117
0.027587890625, -0.570312500000, 0.332031250000, -6.585937500000, -34.609375000000, -25.414062500000, 1492761117
0.027587890625, -0.570312500000, 0.332031250000, -6.585937500000, -34.609375000000, -25.414062500000, 1492761117
0.027587890625, -0.570312500000, 0.332031250000, -6.585937500000, -34.609375000000, -25.414062500000, 1492761117
0.027587890625, -0.570312500000, 0.332031250000, -6.585937500000, -34.609375000000, -25.414062500000, 1492761117
0.010742187500, -0.913330078125, 0.537353515625, -89.414062500000, -84.554687500000, -22.234375000000, 1492761117
0.010742187500, -0.913330078125, 0.537353515625, -89.414062500000, -84.554687500000, -22.234375000000, 1492761117
0.010742187500, -0.913330078125, 0.537353515625, -89.414062500000, -84.554687500000, -22.234375000000, 1492761117
0.010742187500, -0.913330078125, 0.537353515625, -89.414062500000, -84.554687500000, -22.234375000000, 1492761117
0.043457031250, -0.936279296875, 0.484375000000, 4.734375000000, -31.046875000000, -29.265625000000, 1492761117
0.043457031250, -0.936279296875, 0.484375000000, 4.734375000000, -31.046875000000, -29.265625000000, 1492761117
0.043457031250, -0.936279296875, 0.484375000000, 4.734375000000, -31.046875000000, -29.265625000000, 1492761117
0.006347656250, -0.917236328125, 0.454345703125, 87.335937500000, -82.679687500000, -23.195312500000, 1492761117
0.006347656250, -0.917236328125, 0.454345703125, 87.335937500000, -82.679687500000, -23.195312500000, 1492761117
0.006347656250, -0.917236328125, 0.454345703125, 87.335937500000, -82.679687500000, -23.195312500000, 1492761117
-0.030761718750, -0.705078125000, 0.591064453125, -1.218750000000, -62.000000000000, -20.437500000000, 1492761117
-0.030761718750, -0.705078125000, 0.591064453125, -1.218750000000, -62.000000000000, -20.437500000000, 1492761117
-0.030761718750, -0.705078125000, 0.591064453125, -1.218750000000, -62.000000000000, -20.437500000000, 1492761117
-0.030761718750, -0.705078125000, 0.591064453125, -1.218750000000, -62.000000000000, -20.437500000000, 1492761117
0.029541015625, -0.790283203125, 0.497802734375, -38.554687500000, -44.578125000000, -15.179687500000, 1492761117
0.029541015625, -0.790283203125, 0.497802734375, -38.554687500000, -44.578125000000, -15.179687500000, 1492761117
0.029541015625, -0.790283203125, 0.497802734375, -38.554687500000, -44.578125000000, -15.179687500000, 1492761117
0.008544921875, -0.856201171875, 0.688720703125, -29.382812500000, -18.851562500000, -11.234375000000, 1492761117
0.008544921875, -0.856201171875, 0.688720703125, -29.382812500000, -18.851562500000, -11.234375000000, 1492761117
0.008544921875, -0.856201171875, 0.688720703125, -29.382812500000, -18.851562500000, -11.234375000000, 1492761117
0.076416015625, -1.015136718750, 0.691894531250, -4.484375000000, -16.421875000000, -11.921875000000, 1492761117
0.076416015625, -1.015136718750, 0.691894531250, -4.484375000000, -16.421875000000, -11.921875000000, 1492761117
0.076416015625, -1.015136718750, 0.691894531250, -4.484375000000, -16.421875000000, -11.921875000000, 1492761117
-0.091796875000, -0.962890625000, 0.704589843750, -16.281250000000, -13.023437500000, -10.773437500000, 1492761117
-0.091796875000, -0.962890625000, 0.704589843750, -16.281250000000, -13.023437500000, -10.773437500000, 1492761117
-0.091796875000, -0.962890625000, 0.704589843750, -16.281250000000, -13.023437500000, -10.773437500000, 1492761117
-0.091796875000, -0.962890625000, 0.704589843750, -16.281250000000, -13.023437500000, -10.773437500000, 1492761117
0.082763671875, -1.103515625000, 0.954833984375, -101.328125000000, 17.468750000000, -2.914062500000, 1492761117
0.082763671875, -1.103515625000, 0.954833984375, -101.328125000000, 17.468750000000, -2.914062500000, 1492761117
0.082763671875, -1.103515625000, 0.954833984375, -101.328125000000, 17.468750000000, -2.914062500000, 1492761117
0.136474609375, -0.874023437500, 0.285156250000, 12.468750000000, 23.468750000000, -18.109375000000, 1492761117
0.136474609375, -0.874023437500, 0.285156250000, 12.468750000000, 23.468750000000, -18.109375000000, 1492761117
0.136474609375, -0.874023437500, 0.285156250000, 12.468750000000, 23.468750000000, -18.109375000000, 1492761117
0.160644531250, -0.649169921875, 0.268066406250, 87.328125000000, 5.820312500000, -17.343750000000, 1492761117
0.160644531250, -0.649169921875, 0.268066406250, 87.328125000000, 5.820312500000, -17.343750000000, 1492761117
0.160644531250, -0.649169921875, 0.268066406250, 87.328125000000, 5.820312500000, -17.343750000000, 1492761117
0.254150390625, -0.651855468750, 0.527099609375, -24.343750000000, -17.367187500000, -4.867187500000, 1492761117
0.254150390625, -0.651855468750, 0.527099609375, -24.343750000000, -17.367187500000, -4.867187500000, 1492761117
0.254150390625, -0.651855468750, 0.527099609375, -24.343750000000, -17.367187500000, -4.867187500000, 1492761117
0.254150390625, -0.651855468750, 0.527099609375, -24.343750000000, -17.367187500000, -4.867187500000, 1492761117
-0.001464843750, -1.103027343750, 0.736572265625, -100.781250000000, 24.562500000000, 14.695312500000, 1492761117
-0.001464843750, -1.103027343750, 0.736572265625, -100.781250000000, 24.562500000000, 14.695312500000, 1492761117
-0.001464843750, -1.103027343750, 0.736572265625, -100.781250000000, 24.562500000000, 14.695312500000, 1492761118
0.094482421875, -0.999511718750, 0.269775390625, 42.523437500000, 87.367187500000, 4.601562500000, 1492761118
0.094482421875, -0.999511718750, 0.269775390625, 42.523437500000, 87.367187500000, 4.601562500000, 1492761118
0.094482421875, -0.999511718750, 0.269775390625, 42.523437500000, 87.367187500000, 4.601562500000, 1492761118
0.026611328125, -0.748779296875, 0.656250000000, 79.718750000000, -22.984375000000, 1.601562500000, 1492761118
0.026611328125, -0.748779296875, 0.656250000000, 79.718750000000, -22.984375000000, 1.601562500000, 1492761118
0.026611328125, -0.748779296875, 0.656250000000, 79.718750000000, -22.984375000000, 1.601562500000, 1492761118
-0.087890625000, -0.732421875000, 0.493164062500, -20.703125000000, -2.914062500000, -5.835937500000, 1492761118
-0.087890625000, -0.732421875000, 0.493164062500, -20.703125000000, -2.914062500000, -5.835937500000, 1492761118
-0.087890625000, -0.732421875000, 0.493164062500, -20.703125000000, -2.914062500000, -5.835937500000, 1492761118
-0.087890625000, -0.732421875000, 0.493164062500, -20.703125000000, -2.914062500000, -5.835937500000, 1492761118
0.103027343750, -0.830566406250, 0.541503906250, -30.710937500000, 3.945312500000, -7.742187500000, 1492761118
0.103027343750, -0.830566406250, 0.541503906250, -30.710937500000, 3.945312500000, -7.742187500000, 1492761118
0.103027343750, -0.830566406250, 0.541503906250, -30.710937500000, 3.945312500000, -7.742187500000, 1492761118
0.040771484375, -0.895019531250, 0.603759765625, -7.875000000000, -12.187500000000, -6.406250000000, 1492761118
0.040771484375, -0.895019531250, 0.603759765625, -7.875000000000, -12.187500000000, -6.406250000000, 1492761118
0.040771484375, -0.895019531250, 0.603759765625, -7.875000000000, -12.187500000000, -6.406250000000, 1492761118
0.093261718750, -0.939208984375, 0.677490234375, -0.687500000000, -24.773437500000, -9.125000000000, 1492761118
0.093261718750, -0.939208984375, 0.677490234375, -0.687500000000, -24.773437500000, -9.125000000000, 1492761118
0.093261718750, -0.939208984375, 0.677490234375, -0.687500000000, -24.773437500000, -9.125000000000, 1492761118
0.048583984375, -1.078125000000, 0.719726562500, -42.382812500000, -25.398437500000, -15.945312500000, 1492761118
0.048583984375, -1.078125000000, 0.719726562500, -42.382812500000, -25.398437500000, -15.945312500000, 1492761118
0.048583984375, -1.078125000000, 0.719726562500, -42.382812500000, -25.398437500000, -15.945312500000, 1492761118
0.048583984375, -1.078125000000, 0.719726562500, -42.382812500000, -25.398437500000, -15.945312500000, 1492761118
0.127441406250, -1.212646484375, 0.909912109375, -77.585937500000, -33.742187500000, -13.367187500000, 1492761118
0.127441406250, -1.212646484375, 0.909912109375, -77.585937500000, -33.742187500000, -13.367187500000, 1492761118
0.127441406250, -1.212646484375, 0.909912109375, -77.585937500000, -33.742187500000, -13.367187500000, 1492761118
0.088623046875, -0.905273437500, 0.314697265625, 32.718750000000, 14.343750000000, -25.539062500000, 1492761118
0.088623046875, -0.905273437500, 0.314697265625, 32.718750000000, 14.343750000000, -25.539062500000, 1492761118
0.088623046875, -0.905273437500, 0.314697265625, 32.718750000000, 14.343750000000, -25.539062500000, 1492761118
-0.040527343750, -0.550048828125, 0.322021484375, 68.875000000000, -88.453125000000, -14.945312500000, 1492761118
-0.040527343750, -0.550048828125, 0.322021484375, 68.875000000000, -88.453125000000, -14.945312500000, 1492761118
-0.040527343750, -0.550048828125, 0.322021484375, 68.875000000000, -88.453125000000, -14.945312500000, 1492761118
-0.291259765625, -0.805175781250, 0.509765625000, -60.570312500000, -62.062500000000, -32.304687500000, 1492761118
-0.291259765625, -0.805175781250, 0.509765625000, -60.570312500000, -62.062500000000, -32.304687500000, 1492761118
-0.291259765625, -0.805175781250, 0.509765625000, -60.570312500000, -62.062500000000, -32.304687500000, 1492761118
-0.291259765625, -0.805175781250, 0.509765625000, -60.570312500000, -62.062500000000, -32.304687500000, 1492761118
0.020996093750, -1.091308593750, 0.714843750000, -67.851562500000, -71.210937500000, -31.664062500000, 1492761118
0.020996093750, -1.091308593750, 0.714843750000, -67.851562500000, -71.210937500000, -31.664062500000, 1492761118
0.020996093750, -1.091308593750, 0.714843750000, -67.851562500000, -71.210937500000, -31.664062500000, 1492761118
0.000244140625, -0.902587890625, 0.107421875000, 45.695312500000, -12.867187500000, -42.820312500000, 1492761118
0.000244140625, -0.902587890625, 0.107421875000, 45.695312500000, -12.867187500000, -42.820312500000, 1492761118
0.000244140625, -0.902587890625, 0.107421875000, 45.695312500000, -12.867187500000, -42.820312500000, 1492761118
-0.084960937500, -0.756347656250, 0.672851562500, 92.250000000000, -139.585937500000, -19.242187500000, 1492761118
-0.084960937500, -0.756347656250, 0.672851562500, 92.250000000000, -139.585937500000, -19.242187500000, 1492761118
-0.084960937500, -0.756347656250, 0.672851562500, 92.250000000000, -139.585937500000, -19.242187500000, 1492761118
0.002441406250, -0.729980468750, 0.527343750000, -69.117187500000, -53.359375000000, -21.796875000000, 1492761118
0.002441406250, -0.729980468750, 0.527343750000, -69.117187500000, -53.359375000000, -21.796875000000, 1492761118
0.002441406250, -0.729980468750, 0.527343750000, -69.117187500000, -53.359375000000, -21.796875000000, 1492761118
0.002441406250, -0.729980468750, 0.527343750000, -69.117187500000, -53.359375000000, -21.796875000000, 1492761118
-0.077880859375, -0.850097656250, 0.524414062500, -42.171875000000, -27.125000000000, -24.914062500000, 1492761118
-0.077880859375, -0.850097656250, 0.524414062500, -42.171875000000, -27.125000000000, -24.914062500000, 1492761118
-0.077880859375, -0.850097656250, 0.524414062500, -42.171875000000, -27.125000000000, -24.914062500000, 1492761118
0.015380859375, -0.859375000000, 0.654052734375, -15.421875000000, -44.312500000000, -17.757812500000, 1492761118
0.015380859375, -0.859375000000, 0.654052734375, -15.421875000000, -44.312500000000, -17.757812500000, 1492761118
0.015380859375, -0.859375000000, 0.654052734375, -15.421875000000, -44.312500000000, -17.757812500000, 1492761118
-0.030273437500, -0.968505859375, 0.753173828125, -27.968750000000, -34.367187500000, -15.750000000000, 1492761118
-0.030273437500, -0.968505859375, 0.753173828125, -27.968750000000, -34.367187500000, -15.750000000000, 1492761118
-0.030273437500, -0.968505859375, 0.753173828125, -27.968750000000, -34.367187500000, -15.750000000000, 1492761118
0.134521484375, -1.051513671875, 0.984375000000, -91.828125000000, -27.265625000000, -8.523437500000, 1492761118
0.134521484375, -1.051513671875, 0.984375000000, -91.828125000000, -27.265625000000, -8.523437500000, 1492761118
0.134521484375, -1.051513671875, 0.984375000000, -91.828125000000, -27.265625000000, -8.523437500000, 1492761118
0.134521484375, -1.051513671875, 0.984375000000, -91.828125000000, -27.265625000000, -8.523437500000, 1492761118
-0.030273437500, -0.784667968750, 0.331542968750, 23.039062500000, -17.039062500000, -24.656250000000, 1492761118
-0.030273437500, -0.784667968750, 0.331542968750, 23.039062500000, -17.039062500000, -24.656250000000, 1492761118
-0.030273437500, -0.784667968750, 0.331542968750, 23.039062500000, -17.039062500000, -24.656250000000, 1492761118
0.195556640625, -0.424560546875, 0.232910156250, 50.820312500000, -41.476562500000, -41.546875000000, 1492761119
0.195556640625, -0.424560546875, 0.232910156250, 50.820312500000, -41.476562500000, -41.546875000000, 1492761119
0.195556640625, -0.424560546875, 0.232910156250, 50.820312500000, -41.476562500000, -41.546875000000, 1492761119
0.059326171875, -0.585449218750, 0.361572265625, -33.921875000000, -80.320312500000, -54.492187500000, 1492761119
0.059326171875, -0.585449218750, 0.361572265625, -33.921875000000, -80.320312500000, -54.492187500000, 1492761119
0.059326171875, -0.585449218750, 0.361572265625, -33.921875000000, -80.320312500000, -54.492187500000, 1492761119
-0.143066406250, -0.970458984375, 1.090576171875, -74.023437500000, -22.164062500000, -42.359375000000, 1492761119
-0.143066406250, -0.970458984375, 1.090576171875, -74.023437500000, -22.164062500000, -42.359375000000, 1492761119
-0.143066406250, -0.970458984375, 1.090576171875, -74.023437500000, -22.164062500000, -42.359375000000, 1492761119
-0.143066406250, -0.970458984375, 1.090576171875, -74.023437500000, -22.164062500000, -42.359375000000, 1492761119
-0.105468750000, -1.083984375000, 0.196044921875, 35.945312500000, 21.500000000000, -75.234375000000, 1492761119
-0.105468750000, -1.083984375000, 0.196044921875, 35.945312500000, 21.500000000000, -75.234375000000, 1492761119
-0.105468750000, -1.083984375000, 0.196044921875, 35.945312500000, 21.500000000000, -75.234375000000, 1492761119
-0.242675781250, -0.867431640625, 0.312011718750, 132.679687500000, -185.609375000000, -75.992187500000, 1492761119
-0.242675781250, -0.867431640625, 0.312011718750, 132.679687500000, -185.609375000000, -75.992187500000, 1492761119
-0.242675781250, -0.867431640625, 0.312011718750, 132.679687500000, -185.609375000000, -75.992187500000, 1492761119
-0.022705078125, -0.869873046875, 0.597656250000, 23.562500000000, -134.093750000000, -67.781250000000, 1492761119
-0.022705078125, -0.869873046875, 0.597656250000, 23.562500000000, -134.093750000000, -67.781250000000, 1492761119
-0.022705078125, -0.869873046875, 0.597656250000, 23.562500000000, -134.093750000000, -67.781250000000, 1492761119
0.062011718750, -0.673095703125, 0.120117187500, 68.671875000000, -134.187500000000, -56.570312500000, 1492761119
0.062011718750, -0.673095703125, 0.120117187500, 68.671875000000, -134.187500000000, -56.570312500000, 1492761119
0.062011718750, -0.673095703125, 0.120117187500, 68.671875000000, -134.187500000000, -56.570312500000, 1492761119
0.068847656250, -0.295654296875, 0.027099609375, 94.023437500000, -194.703125000000, -41.203125000000, 1492761119
-0.036132812500, -0.329833984375, -0.027832031250, 61.250000000000, -211.148437500000, -45.140625000000, 1492761119
-0.036132812500, -0.329833984375, -0.027832031250, 61.250000000000, -211.148437500000, -45.140625000000, 1492761119
-0.036132812500, -0.329833984375, -0.027832031250, 61.250000000000, -211.148437500000, -45.140625000000, 1492761119
0.265625000000, -1.459472656250, 0.275634765625, 144.921875000000, 22.085937500000, -84.757812500000, 1492761119
-0.431396484375, -2.364746093750, 1.603759765625, 115.335937500000, -256.000000000000, -94.835937500000, 1492761119
-0.431396484375, -2.364746093750, 1.603759765625, 115.335937500000, -256.000000000000, -94.835937500000, 1492761119
-0.142089843750, -0.980712890625, 0.111083984375, -92.187500000000, -77.312500000000, -64.851562500000, 1492761119
-0.142089843750, -0.980712890625, 0.111083984375, -92.187500000000, -77.312500000000, -64.851562500000, 1492761119
-0.142089843750, -0.980712890625, 0.111083984375, -92.187500000000, -77.312500000000, -64.851562500000, 1492761119
-0.142089843750, -0.980712890625, 0.111083984375, -92.187500000000, -77.312500000000, -64.851562500000, 1492761119
-0.142089843750, -0.980712890625, 0.111083984375, -92.187500000000, -77.312500000000, -64.851562500000, 1492761119
0.152343750000, -1.320556640625, 0.569580078125, 191.921875000000, -256.000000000000, -82.742187500000, 1492761119
0.152343750000, -1.320556640625, 0.569580078125, 191.921875000000, -256.000000000000, -82.742187500000, 1492761119
0.152343750000, -1.320556640625, 0.569580078125, 191.921875000000, -256.000000000000, -82.742187500000, 1492761119
0.152343750000, -1.320556640625, 0.569580078125, 191.921875000000, -256.000000000000, -82.742187500000, 1492761119
0.152343750000, -1.320556640625, 0.569580078125, 191.921875000000, -256.000000000000, -82.742187500000, 1492761119
0.528320312500, -1.147460937500, 0.868652343750, -256.000000000000, 24.992187500000, 0.656250000000, 1492761119
0.528320312500, -1.147460937500, 0.868652343750, -256.000000000000, 24.992187500000, 0.656250000000, 1492761119
0.528320312500, -1.147460937500, 0.868652343750, -256.000000000000, 24.992187500000, 0.656250000000, 1492761119
-0.049560546875, -0.776367187500, -0.084472656250, 26.812500000000, -15.921875000000, -39.812500000000, 1492761119
-0.049560546875, -0.776367187500, -0.084472656250, 26.812500000000, -15.921875000000, -39.812500000000, 1492761119
-0.049560546875, -0.776367187500, -0.084472656250, 26.812500000000, -15.921875000000, -39.812500000000, 1492761119
-0.129150390625, -0.090820312500, -0.057128906250, 137.171875000000, 5.882812500000, -102.500000000000, 1492761119
-0.129150390625, -0.090820312500, -0.057128906250, 137.171875000000, 5.882812500000, -102.500000000000, 1492761119
-0.129150390625, -0.090820312500, -0.057128906250, 137.171875000000, 5.882812500000, -102.500000000000, 1492761119
-0.129150390625, -0.090820312500, -0.057128906250, 137.171875000000, 5.882812500000, -102.500000000000, 1492761119
0.206787109375, -0.456542968750, 0.075683593750, 62.140625000000, 33.742187500000, -59.593750000000, 1492761119
0.206787109375, -0.456542968750, 0.075683593750, 62.140625000000, 33.742187500000, -59.593750000000, 1492761119
0.206787109375, -0.456542968750, 0.075683593750, 62.140625000000, 33.742187500000, -59.593750000000, 1492761119
0.659179687500, -1.291992187500, 0.327636718750, -8.046875000000, -63.851562500000, -49.664062500000, 1492761119
0.659179687500, -1.291992187500, 0.327636718750, -8.046875000000, -63.851562500000, -49.664062500000, 1492761119
0.659179687500, -1.291992187500, 0.327636718750, -8.046875000000, -63.851562500000, -49.664062500000, 1492761119
0.406494140625, -1.430419921875, 0.508300781250, -128.046875000000, -186.953125000000, 59.648437500000, 1492761119
0.406494140625, -1.430419921875, 0.508300781250, -128.046875000000, -186.953125000000, 59.648437500000, 1492761119
0.406494140625, -1.430419921875, 0.508300781250, -128.046875000000, -186.953125000000, 59.648437500000, 1492761119
0.038085937500, -1.264404296875, 0.918945312500, 152.117187500000, 74.093750000000, -45.109375000000, 1492761119
0.038085937500, -1.264404296875, 0.918945312500, 152.117187500000, 74.093750000000, -45.109375000000, 1492761119
0.038085937500, -1.264404296875, 0.918945312500, 152.117187500000, 74.093750000000, -45.109375000000, 1492761119
0.038085937500, -1.264404296875, 0.918945312500, 152.117187500000, 74.093750000000, -45.109375000000, 1492761119
0.520507812500, -1.080566406250, 0.875488281250, -37.406250000000, 118.312500000000, -48.250000000000, 1492761119
0.391601562500, -0.911376953125, 0.639648437500, -32.078125000000, 166.992187500000, -26.203125000000, 1492761119
0.391601562500, -0.911376953125, 0.639648437500, -32.078125000000, 166.992187500000, -26.203125000000, 1492761119
0.015625000000, -0.888916015625, 0.229736328125, 111.125000000000, -30.203125000000, 5.414062500000, 1492761119
0.015625000000, -0.888916015625, 0.229736328125, 111.125000000000, -30.203125000000, 5.414062500000, 1492761119
0.015625000000, -0.888916015625, 0.229736328125, 111.125000000000, -30.203125000000, 5.414062500000, 1492761119
-0.219238281250, -0.639892578125, 0.328125000000, 120.695312500000, -111.554687500000, -19.015625000000, 1492761120
-0.219238281250, -0.639892578125, 0.328125000000, 120.695312500000, -111.554687500000, -19.015625000000, 1492761120
-0.219238281250, -0.639892578125, 0.328125000000, 120.695312500000, -111.554687500000, -19.015625000000, 1492761120
0.023681640625, -0.059814453125, 0.003662109375, -102.437500000000, -173.320312500000, -45.015625000000, 1492761120
0.023681640625, -0.059814453125, 0.003662109375, -102.437500000000, -173.320312500000, -45.015625000000, 1492761120
0.023681640625, -0.059814453125, 0.003662109375, -102.437500000000, -173.320312500000, -45.015625000000, 1492761120
0.023681640625, -0.059814453125, 0.003662109375, -102.437500000000, -173.320312500000, -45.015625000000, 1492761120
-0.230468750000, -1.346923828125, -0.308349609375, -256.000000000000, -62.210937500000, 58.164062500000, 1492761120
-0.230468750000, -1.346923828125, -0.308349609375, -256.000000000000, -62.210937500000, 58.164062500000, 1492761120
-0.230468750000, -1.346923828125, -0.308349609375, -256.000000000000, -62.210937500000, 58.164062500000, 1492761120
-0.244628906250, -2.365478515625, 0.417724609375, 171.359375000000, 253.992187500000, -40.390625000000, 1492761120
-0.244628906250, -2.365478515625, 0.417724609375, 171.359375000000, 253.992187500000, -40.390625000000, 1492761120
-0.244628906250, -2.365478515625, 0.417724609375, 171.359375000000, 253.992187500000, -40.390625000000, 1492761120
0.440917968750, -1.251953125000, 0.930908203125, 54.445312500000, -256.000000000000, 25.859375000000, 1492761120
0.440917968750, -1.251953125000, 0.930908203125, 54.445312500000, -256.000000000000, 25.859375000000, 1492761120
0.440917968750, -1.251953125000, 0.930908203125, 54.445312500000, -256.000000000000, 25.859375000000, 1492761120
0.150390625000, -0.597656250000, 0.234375000000, -50.710937500000, 17.101562500000, -66.601562500000, 1492761120
0.144042968750, -0.704345703125, 0.211425781250, -32.734375000000, 69.640625000000, -61.726562500000, 1492761120
0.144042968750, -0.704345703125, 0.211425781250, -32.734375000000, 69.640625000000, -61.726562500000, 1492761120
0.106201171875, -0.343750000000, 0.046142578125, 74.843750000000, 10.710937500000, -95.921875000000, 1492761120
0.106201171875, -0.343750000000, 0.046142578125, 74.843750000000, 10.710937500000, -95.921875000000, 1492761120
0.106201171875, -0.343750000000, 0.046142578125, 74.843750000000, 10.710937500000, -95.921875000000, 1492761120
0.106201171875, -0.343750000000, 0.046142578125, 74.843750000000, 10.710937500000, -95.921875000000, 1492761120
0.106201171875, -0.343750000000, 0.046142578125, 74.843750000000, 10.710937500000, -95.921875000000, 1492761120
0.106201171875, -0.343750000000, 0.046142578125, 74.843750000000, 10.710937500000, -95.921875000000, 1492761120
0.033691406250, -0.115234375000, -0.008056640625, 83.531250000000, -1.421875000000, -114.687500000000, 1492761120
0.197998046875, -0.088134765625, 0.110107421875, 80.210937500000, 117.898437500000, -138.132812500000, 1492761120
0.197998046875, -0.088134765625, 0.110107421875, 80.210937500000, 117.898437500000, -138.132812500000, 1492761120
0.197998046875, -0.088134765625, 0.110107421875, 80.210937500000, 117.898437500000, -138.132812500000, 1492761120
1.063476562500, -1.822998046875, 1.774169921875, -21.867187500000, 162.304687500000, -33.046875000000, 1492761120
1.063476562500, -1.822998046875, 1.774169921875, -21.867187500000, 162.304687500000, -33.046875000000, 1492761120
1.063476562500, -1.822998046875, 1.774169921875, -21.867187500000, 162.304687500000, -33.046875000000, 1492761120
1.063476562500, -1.822998046875, 1.774169921875, -21.867187500000, 162.304687500000, -33.046875000000, 1492761120
0.681396484375, -1.685058593750, 0.403564453125, -256.000000000000, -209.859375000000, 35.671875000000, 1492761120
0.681396484375, -1.685058593750, 0.403564453125, -256.000000000000, -209.859375000000, 35.671875000000, 1492761120
0.681396484375, -1.685058593750, 0.403564453125, -256.000000000000, -209.859375000000, 35.671875000000, 1492761120
-0.354248046875, -1.345214843750, 1.071533203125, 253.992187500000, -156.437500000000, 37.984375000000, 1492761120
-0.354248046875, -1.345214843750, 1.071533203125, 253.992187500000, -156.437500000000, 37.984375000000, 1492761120
-0.354248046875, -1.345214843750, 1.071533203125, 253.992187500000, -156.437500000000, 37.984375000000, 1492761120
-0.302246093750, -0.834228515625, 1.009521484375, -20.281250000000, 62.445312500000, -59.726562500000, 1492761120
-0.302246093750, -0.834228515625, 1.009521484375, -20.281250000000, 62.445312500000, -59.726562500000, 1492761120
-0.302246093750, -0.834228515625, 1.009521484375, -20.281250000000, 62.445312500000, -59.726562500000, 1492761120
-0.081542968750, -0.496826171875, 0.075927734375, -54.820312500000, 235.492187500000, -26.226562500000, 1492761120
-0.081542968750, -0.496826171875, 0.075927734375, -54.820312500000, 235.492187500000, -26.226562500000, 1492761120
-0.081542968750, -0.496826171875, 0.075927734375, -54.820312500000, 235.492187500000, -26.226562500000, 1492761120
-0.081542968750, -0.496826171875, 0.075927734375, -54.820312500000, 235.492187500000, -26.226562500000, 1492761120
-0.006347656250, -0.156738281250, -0.022216796875, -1.859375000000, -7.265625000000, -47.804687500000, 1492761120
-0.006347656250, -0.156738281250, -0.022216796875, -1.859375000000, -7.265625000000, -47.804687500000, 1492761120
-0.006347656250, -0.156738281250, -0.022216796875, -1.859375000000, -7.265625000000, -47.804687500000, 1492761120
0.012939453125, 0.095947265625, 0.029052734375, 2.695312500000, -74.234375000000, -75.992187500000, 1492761120
0.012939453125, 0.095947265625, 0.029052734375, 2.695312500000, -74.234375000000, -75.992187500000, 1492761120
0.012939453125, 0.095947265625, 0.029052734375, 2.695312500000, -74.234375000000, -75.992187500000, 1492761120
0.129882812500, -0.969726562500, -0.493164062500, -256.000000000000, -256.000000000000, -31.296875000000, 1492761120
0.129882812500, -0.969726562500, -0.493164062500, -256.000000000000, -256.000000000000, -31.296875000000, 1492761120
0.129882812500, -0.969726562500, -0.493164062500, -256.000000000000, -256.000000000000, -31.296875000000, 1492761120
0.432861328125, -1.488281250000, 1.463378906250, 141.882812500000, -256.000000000000, -117.765625000000, 1492761120
0.432861328125, -1.488281250000, 1.463378906250, 141.882812500000, -256.000000000000, -117.765625000000, 1492761120
0.432861328125, -1.488281250000, 1.463378906250, 141.882812500000, -256.000000000000, -117.765625000000, 1492761120
0.432861328125, -1.488281250000, 1.463378906250, 141.882812500000, -256.000000000000, -117.765625000000, 1492761120
0.139892578125, -1.517578125000, 0.782470703125, -30.984375000000, -175.851562500000, -38.460937500000, 1492761120
0.139892578125, -1.517578125000, 0.782470703125, -30.984375000000, -175.851562500000, -38.460937500000, 1492761120
0.139892578125, -1.517578125000, 0.782470703125, -30.984375000000, -175.851562500000, -38.460937500000, 1492761120
0.156982421875, -0.943603515625, 0.388671875000, -68.078125000000, -13.375000000000, -38.929687500000, 1492761120
0.156982421875, -0.943603515625, 0.388671875000, -68.078125000000, -13.375000000000, -38.929687500000, 1492761120
0.156982421875, -0.943603515625, 0.388671875000, -68.078125000000, -13.375000000000, -38.929687500000, 1492761120
0.195556640625, -0.535888671875, 0.227294921875, 21.085937500000, -55.609375000000, -62.218750000000, 1492761121
0.195556640625, -0.535888671875, 0.227294921875, 21.085937500000, -55.609375000000, -62.218750000000, 1492761121
0.195556640625, -0.535888671875, 0.227294921875, 21.085937500000, -55.609375000000, -62.218750000000, 1492761121
0.154296875000, 0.012939453125, 0.113769531250, 15.968750000000, -45.898437500000, -101.757812500000, 1492761121
0.154296875000, 0.012939453125, 0.113769531250, 15.968750000000, -45.898437500000, -101.757812500000, 1492761121
0.154296875000, 0.012939453125, 0.113769531250, 15.968750000000, -45.898437500000, -101.757812500000, 1492761121
0.281005859375, -0.252441406250, 0.126464843750, 21.359375000000, 253.992187500000, -114.093750000000, 1492761121
0.281005859375, -0.252441406250, 0.126464843750, 21.359375000000, 253.992187500000, -114.093750000000, 1492761121
0.281005859375, -0.252441406250, 0.126464843750, 21.359375000000, 253.992187500000, -114.093750000000, 1492761121
0.281005859375, -0.252441406250, 0.126464843750, 21.359375000000, 253.992187500000, -114.093750000000, 1492761121
0.814697265625, -2.100830078125, 1.013916015625, 85.835937500000, 253.992187500000, -9.984375000000, 1492761121
0.814697265625, -2.100830078125, 1.013916015625, 85.835937500000, 253.992187500000, -9.984375000000, 1492761121
0.814697265625, -2.100830078125, 1.013916015625, 85.835937500000, 253.992187500000, -9.984375000000, 1492761121
0.895507812500, -1.769287109375, 0.483154296875, -256.000000000000, -256.000000000000, 94.984375000000, 1492761121
0.895507812500, -1.769287109375, 0.483154296875, -256.000000000000, -256.000000000000, 94.984375000000, 1492761121
0.895507812500, -1.769287109375, 0.483154296875, -256.000000000000, -256.000000000000, 94.984375000000, 1492761121
-0.334228515625, -1.113281250000, 0.694824218750, 253.992187500000, 119.953125000000, 57.632812500000, 1492761121
-0.334228515625, -1.113281250000, 0.694824218750, 253.992187500000, 119.953125000000, 57.632812500000, 1492761121
-0.334228515625, -1.113281250000, 0.694824218750, 253.992187500000, 119.953125000000, 57.632812500000, 1492761121
-0.334228515625, -1.113281250000, 0.694824218750, 253.992187500000, 119.953125000000, 57.632812500000, 1492761121
-0.459228515625, -0.795410156250, 0.992919921875, -53.203125000000, 20.593750000000, -19.117187500000, 1492761121
-0.459228515625, -0.795410156250, 0.992919921875, -53.203125000000, 20.593750000000, -19.117187500000, 1492761121
-0.459228515625, -0.795410156250, 0.992919921875, -53.203125000000, 20.593750000000, -19.117187500000, 1492761121
-0.076171875000, -0.476074218750, 0.100585937500, -77.179687500000, 190.164062500000, -22.171875000000, 1492761121
-0.076171875000, -0.476074218750, 0.100585937500, -77.179687500000, 190.164062500000, -22.171875000000, 1492761121
-0.076171875000, -0.476074218750, 0.100585937500, -77.179687500000, 190.164062500000, -22.171875000000, 1492761121
-0.021728515625, -0.383789062500, 0.005615234375, 91.960937500000, 11.828125000000, -6.328125000000, 1492761121
-0.021728515625, -0.383789062500, 0.005615234375, 91.960937500000, 11.828125000000, -6.328125000000, 1492761121
-0.021728515625, -0.383789062500, 0.005615234375, 91.960937500000, 11.828125000000, -6.328125000000, 1492761121
-0.145996093750, 0.037109375000, -0.141601562500, -48.703125000000, -82.531250000000, -16.156250000000, 1492761121
-0.145996093750, 0.037109375000, -0.141601562500, -48.703125000000, -82.531250000000, -16.156250000000, 1492761121
-0.145996093750, 0.037109375000, -0.141601562500, -48.703125000000, -82.531250000000, -16.156250000000, 1492761121
-0.145996093750, 0.037109375000, -0.141601562500, -48.703125000000, -82.531250000000, -16.156250000000, 1492761121
-0.211425781250, -1.911865234375, -0.415039062500, -256.000000000000, -256.000000000000, -58.710937500000, 1492761121
-0.211425781250, -1.911865234375, -0.415039062500, -256.000000000000, -256.000000000000, -58.710937500000, 1492761121
-0.211425781250, -1.911865234375, -0.415039062500, -256.000000000000, -256.000000000000, -58.710937500000, 1492761121
-0.103759765625, -2.986572265625, 1.512207031250, 253.992187500000, 101.195312500000, -256.000000000000, 1492761121
-0.103759765625, -2.986572265625, 1.512207031250, 253.992187500000, 101.195312500000, -256.000000000000, 1492761121
-0.103759765625, -2.986572265625, 1.512207031250, 253.992187500000, 101.195312500000, -256.000000000000, 1492761121
-0.023681640625, -1.312500000000, 0.505859375000, -75.171875000000, -124.304687500000, -5.585937500000, 1492761121
-0.023681640625, -1.312500000000, 0.505859375000, -75.171875000000, -124.304687500000, -5.585937500000, 1492761121
-0.023681640625, -1.312500000000, 0.505859375000, -75.171875000000, -124.304687500000, -5.585937500000, 1492761121
0.042968750000, -0.983642578125, 0.380615234375, -33.593750000000, -235.914062500000, -61.750000000000, 1492761121
0.042968750000, -0.983642578125, 0.380615234375, -33.593750000000, -235.914062500000, -61.750000000000, 1492761121
0.042968750000, -0.983642578125, 0.380615234375, -33.593750000000, -235.914062500000, -61.750000000000, 1492761121
0.042968750000, -0.983642578125, 0.380615234375, -33.593750000000, -235.914062500000, -61.750000000000, 1492761121
0.186523437500, -0.662841796875, 0.140869140625, -64.968750000000, -17.210937500000, -107.289062500000, 1492761121
0.186523437500, -0.662841796875, 0.140869140625, -64.968750000000, -17.210937500000, -107.289062500000, 1492761121
0.186523437500, -0.662841796875, 0.140869140625, -64.968750000000, -17.210937500000, -107.289062500000, 1492761121
0.051269531250, -0.378906250000, 0.033935546875, -44.750000000000, -130.203125000000, -146.507812500000, 1492761121
0.141601562500, 0.004882812500, 0.209472656250, -52.914062500000, -38.648437500000, -113.195312500000, 1492761121
0.141601562500, 0.004882812500, 0.209472656250, -52.914062500000, -38.648437500000, -113.195312500000, 1492761121
0.141601562500, 0.004882812500, 0.209472656250, -52.914062500000, -38.648437500000, -113.195312500000, 1492761121
0.091796875000, -0.112548828125, 0.059082031250, -71.968750000000, 88.789062500000, -90.890625000000, 1492761121
0.568847656250, -1.273193359375, 0.068115234375, -256.000000000000, 253.992187500000, -84.304687500000, 1492761121
0.568847656250, -1.273193359375, 0.068115234375, -256.000000000000, 253.992187500000, -84.304687500000, 1492761121
0.568847656250, -1.273193359375, 0.068115234375, -256.000000000000, 253.992187500000, -84.304687500000, 1492761121
0.568847656250, -1.273193359375, 0.068115234375, -256.000000000000, 253.992187500000, -84.304687500000, 1492761121
0.568847656250, -1.273193359375, 0.068115234375, -256.000000000000, 253.992187500000, -84.304687500000, 1492761121
0.789550781250, -2.130371093750, 0.177734375000, 253.992187500000, -256.000000000000, -3.687500000000, 1492761121
0.789550781250, -2.130371093750, 0.177734375000, 253.992187500000, -256.000000000000, -3.687500000000, 1492761121
0.789550781250, -2.130371093750, 0.177734375000, 253.992187500000, -256.000000000000, -3.687500000000, 1492761121
-0.317138671875, -1.160644531250, 2.093261718750, 114.437500000000, -163.203125000000, 24.945312500000, 1492761121
-0.317138671875, -1.160644531250, 2.093261718750, 114.437500000000, -163.203125000000, 24.945312500000, 1492761121
-0.317138671875, -1.160644531250, 2.093261718750, 114.437500000000, -163.203125000000, 24.945312500000, 1492761121
0.192626953125, -0.986572265625, 0.401123046875, -30.679687500000, 221.976562500000, -72.007812500000, 1492761121
0.192626953125, -0.986572265625, 0.401123046875, -30.679687500000, 221.976562500000, -72.007812500000, 1492761121
0.192626953125, -0.986572265625, 0.401123046875, -30.679687500000, 221.976562500000, -72.007812500000, 1492761121
-0.020263671875, -0.465576171875, 0.083984375000, 45.250000000000, -23.695312500000, -11.867187500000, 1492761122
-0.020263671875, -0.465576171875, 0.083984375000, 45.250000000000, -23.695312500000, -11.867187500000, 1492761122
-0.020263671875, -0.465576171875, 0.083984375000, 45.250000000000, -23.695312500000, -11.867187500000, 1492761122
-0.020263671875, -0.465576171875, 0.083984375000, 45.250000000000, -23.695312500000, -11.867187500000, 1492761122
-0.062744140625, -0.542724609375, 0.052246093750, 96.945312500000, -94.601562500000, 4.054687500000, 1492761122
-0.062744140625, -0.542724609375, 0.052246093750, 96.945312500000, -94.601562500000, 4.054687500000, 1492761122
-0.062744140625, -0.542724609375, 0.052246093750, 96.945312500000, -94.601562500000, 4.054687500000, 1492761122
-0.320068359375, -0.390136718750, -0.075439453125, 45.851562500000, -124.687500000000, 57.187500000000, 1492761122
-0.320068359375, -0.390136718750, -0.075439453125, 45.851562500000, -124.687500000000, 57.187500000000, 1492761122
-0.320068359375, -0.390136718750, -0.075439453125, 45.851562500000, -124.687500000000, 57.187500000000, 1492761122
-0.335449218750, -1.229248046875, -0.068603515625, -193.992187500000, -256.000000000000, 10.531250000000, 1492761122
-0.335449218750, -1.229248046875, -0.068603515625, -193.992187500000, -256.000000000000, 10.531250000000, 1492761122
-0.335449218750, -1.229248046875, -0.068603515625, -193.992187500000, -256.000000000000, 10.531250000000, 1492761122
-0.220458984375, -2.595703125000, 1.196044921875, -107.601562500000, -202.710937500000, -65.976562500000, 1492761122
-0.220458984375, -2.595703125000, 1.196044921875, -107.601562500000, -202.710937500000, -65.976562500000, 1492761122
-0.220458984375, -2.595703125000, 1.196044921875, -107.601562500000, -202.710937500000, -65.976562500000, 1492761122
-0.220458984375, -2.595703125000, 1.196044921875, -107.601562500000, -202.710937500000, -65.976562500000, 1492761122
