ACC_X,ACC_Y,ACC_Z,G_X,G_Y,G_Z,Unix Time
-0.127929687500, -1.031005859375, 0.058349609375, -22.054687500000, 2.929687500000, -0.890625000000, 1492760919
-0.127929687500, -1.031005859375, 0.058349609375, -22.054687500000, 2.929687500000, -0.890625000000, 1492760919
-0.127929687500, -1.031005859375, 0.058349609375, -22.054687500000, 2.929687500000, -0.890625000000, 1492760919
-0.146240234375, -1.023925781250, 0.094970703125, -15.718750000000, 1.218750000000, -2.820312500000, 1492760919
-0.146240234375, -1.023925781250, 0.094970703125, -15.718750000000, 1.218750000000, -2.820312500000, 1492760919
-0.146240234375, -1.023925781250, 0.094970703125, -15.718750000000, 1.218750000000, -2.820312500000, 1492760919
-0.079101562500, -0.874267578125, 0.155029296875, -6.960937500000, 0.445312500000, -8.617187500000, 1492760919
-0.079101562500, -0.874267578125, 0.155029296875, -6.960937500000, 0.445312500000, -8.617187500000, 1492760919
-0.079101562500, -0.874267578125, 0.155029296875, -6.960937500000, 0.445312500000, -8.617187500000, 1492760919
0.017089843750, -1.085205078125, 0.138427734375, 6.976562500000, -3.296875000000, -3.476562500000, 1492760919
0.017089843750, -1.085205078125, 0.138427734375, 6.976562500000, -3.296875000000, -3.476562500000, 1492760919
0.017089843750, -1.085205078125, 0.138427734375, 6.976562500000, -3.296875000000, -3.476562500000, 1492760919
-0.058837890625, -1.065917968750, 0.135986328125, 5.437500000000, -3.351562500000, -0.101562500000, 1492760919
-0.058837890625, -1.065917968750, 0.135986328125, 5.437500000000, -3.351562500000, -0.101562500000, 1492760919
-0.058837890625, -1.065917968750, 0.135986328125, 5.437500000000, -3.351562500000, -0.101562500000, 1492760919
-0.058837890625, -1.065917968750, 0.135986328125, 5.437500000000, -3.351562500000, -0.101562500000, 1492760919
-0.108154296875, -1.084472656250, 0.050292968750, 2.242187500000, -2.937500000000, -2.031250000000, 1492760919
-0.108154296875, -1.084472656250, 0.050292968750, 2.242187500000, -2.937500000000, -2.031250000000, 1492760919
-0.108154296875, -1.084472656250, 0.050292968750, 2.242187500000, -2.937500000000, -2.031250000000, 1492760919
0.020019531250, -1.010498046875, 0.107177734375, -7.656250000000, -0.570312500000, -1.867187500000, 1492760919
0.020019531250, -1.010498046875, 0.107177734375, -7.656250000000, -0.570312500000, -1.867187500000, 1492760919
0.020019531250, -1.010498046875, 0.107177734375, -7.656250000000, -0.570312500000, -1.867187500000, 1492760919
-0.092773437500, -0.954589843750, 0.093994140625, -12.382812500000, 1.171875000000, -4.460937500000, 1492760919
-0.092773437500, -0.954589843750, 0.093994140625, -12.382812500000, 1.171875000000, -4.460937500000, 1492760919
-0.092773437500, -0.954589843750, 0.093994140625, -12.382812500000, 1.171875000000, -4.460937500000, 1492760919
-0.092773437500, -0.954589843750, 0.093994140625, -12.382812500000, 1.171875000000, -4.460937500000, 1492760919
-0.036621093750, -1.006347656250, 0.061767578125, -6.953125000000, 2.492187500000, -2.078125000000, 1492760919
-0.036621093750, -1.006347656250, 0.061767578125, -6.953125000000, 2.492187500000, -2.078125000000, 1492760919
-0.036621093750, -1.006347656250, 0.061767578125, -6.953125000000, 2.492187500000, -2.078125000000, 1492760919
-0.038085937500, -1.068603515625, 0.139160156250, 0.835937500000, -1.320312500000, -6.304687500000, 1492760920
-0.038085937500, -1.068603515625, 0.139160156250, 0.835937500000, -1.320312500000, -6.304687500000, 1492760920
-0.038085937500, -1.068603515625, 0.139160156250, 0.835937500000, -1.320312500000, -6.304687500000, 1492760920
-0.055908203125, -0.978271484375, 0.058105468750, 2.945312500000, -1.203125000000, -6.429687500000, 1492760920
-0.053955078125, -0.981689453125, 0.191406250000, -0.562500000000, 0.007812500000, -2.195312500000, 1492760920
-0.053955078125, -0.981689453125, 0.191406250000, -0.562500000000, 0.007812500000, -2.195312500000, 1492760920
-0.053955078125, -0.981689453125, 0.191406250000, -0.562500000000, 0.007812500000, -2.195312500000, 1492760920
-0.053955078125, -0.981689453125, 0.191406250000, -0.562500000000, 0.007812500000, -2.195312500000, 1492760920
-0.033935546875, -1.014648437500, 0.098632812500, -6.242187500000, 0.539062500000, -8.148437500000, 1492760920
-0.033935546875, -1.014648437500, 0.098632812500, -6.242187500000, 0.539062500000, -8.148437500000, 1492760920
-0.033935546875, -1.014648437500, 0.098632812500, -6.242187500000, 0.539062500000, -8.148437500000, 1492760920
-0.033935546875, -1.014648437500, 0.098632812500, -6.242187500000, 0.539062500000, -8.148437500000, 1492760920
-0.063232421875, -0.927490234375, 0.083496093750, -6.492187500000, 0.710937500000, -6.039062500000, 1492760920
-0.063232421875, -0.927490234375, 0.083496093750, -6.492187500000, 0.710937500000, -6.039062500000, 1492760920
-0.063232421875, -0.927490234375, 0.083496093750, -6.492187500000, 0.710937500000, -6.039062500000, 1492760920
-0.063232421875, -0.927490234375, 0.083496093750, -6.492187500000, 0.710937500000, -6.039062500000, 1492760920
-0.051757812500, -1.003173828125, 0.093994140625, -6.289062500000, 0.554687500000, -3.195312500000, 1492760920
-0.051757812500, -1.003173828125, 0.093994140625, -6.289062500000, 0.554687500000, -3.195312500000, 1492760920
-0.136718750000, -0.974121093750, 0.150634765625, -2.570312500000, 0.054687500000, -5.484375000000, 1492760920
-0.136718750000, -0.974121093750, 0.150634765625, -2.570312500000, 0.054687500000, -5.484375000000, 1492760920
-0.136718750000, -0.974121093750, 0.150634765625, -2.570312500000, 0.054687500000, -5.484375000000, 1492760920
-0.136718750000, -0.974121093750, 0.150634765625, -2.570312500000, 0.054687500000, -5.484375000000, 1492760920
-0.136718750000, -0.974121093750, 0.150634765625, -2.570312500000, 0.054687500000, -5.484375000000, 1492760920
-0.058105468750, -0.960205078125, 0.101806640625, 0.648437500000, 0.031250000000, -6.632812500000, 1492760920
-0.058105468750, -0.960205078125, 0.101806640625, 0.648437500000, 0.031250000000, -6.632812500000, 1492760920
-0.058105468750, -0.960205078125, 0.101806640625, 0.648437500000, 0.031250000000, -6.632812500000, 1492760920
-0.075927734375, -1.067626953125, 0.037841796875, -1.257812500000, 0.242187500000, -4.765625000000, 1492760920
-0.075927734375, -1.067626953125, 0.037841796875, -1.257812500000, 0.242187500000, -4.765625000000, 1492760920
-0.075927734375, -1.067626953125, 0.037841796875, -1.257812500000, 0.242187500000, -4.765625000000, 1492760920
-0.136962890625, -1.027099609375, 0.125000000000, -6.242187500000, -0.734375000000, -8.250000000000, 1492760920
-0.136962890625, -1.027099609375, 0.125000000000, -6.242187500000, -0.734375000000, -8.250000000000, 1492760920
-0.136962890625, -1.027099609375, 0.125000000000, -6.242187500000, -0.734375000000, -8.250000000000, 1492760920
-0.149902343750, -1.089355468750, 0.042236328125, -5.312500000000, -0.234375000000, -6.609375000000, 1492760920
-0.149902343750, -1.089355468750, 0.042236328125, -5.312500000000, -0.234375000000, -6.609375000000, 1492760920
-0.149902343750, -1.089355468750, 0.042236328125, -5.312500000000, -0.234375000000, -6.609375000000, 1492760920
-0.149902343750, -1.089355468750, 0.042236328125, -5.312500000000, -0.234375000000, -6.609375000000, 1492760920
-0.058837890625, -1.028076171875, 0.146484375000, -6.460937500000, 0.984375000000, -3.703125000000, 1492760920
-0.058837890625, -1.028076171875, 0.146484375000, -6.460937500000, 0.984375000000, -3.703125000000, 1492760920
-0.058837890625, -1.028076171875, 0.146484375000, -6.460937500000, 0.984375000000, -3.703125000000, 1492760920
-0.043945312500, -0.993652343750, 0.138671875000, -5.007812500000, -0.250000000000, -5.929687500000, 1492760920
-0.067871093750, -0.999267578125, -0.005371093750, 0.031250000000, -2.437500000000, -7.171875000000, 1492760920
-0.091064453125, -1.071533203125, 0.202392578125, -4.203125000000, 0.429687500000, -6.539062500000, 1492760920
-0.091064453125, -1.071533203125, 0.202392578125, -4.203125000000, 0.429687500000, -6.539062500000, 1492760920
-0.136474609375, -1.072509765625, 0.096679687500, -3.703125000000, -0.937500000000, -10.500000000000, 1492760920
-0.136474609375, -1.072509765625, 0.096679687500, -3.703125000000, -0.937500000000, -10.500000000000, 1492760920
-0.136474609375, -1.072509765625, 0.096679687500, -3.703125000000, -0.937500000000, -10.500000000000, 1492760920
-0.136474609375, -1.072509765625, 0.096679687500, -3.703125000000, -0.937500000000, -10.500000000000, 1492760920
-0.136474609375, -1.072509765625, 0.096679687500, -3.703125000000, -0.937500000000, -10.500000000000, 1492760920
-0.136474609375, -1.072509765625, 0.096679687500, -3.703125000000, -0.937500000000, -10.500000000000, 1492760920
-0.105712890625, -1.030517578125, 0.150146484375, -1.734375000000, -0.515625000000, -6.359375000000, 1492760920
-0.105712890625, -1.030517578125, 0.150146484375, -1.734375000000, -0.515625000000, -6.359375000000, 1492760920
-0.105712890625, -1.030517578125, 0.150146484375, -1.734375000000, -0.515625000000, -6.359375000000, 1492760920
0.016113281250, -1.077880859375, 0.052246093750, -4.773437500000, -2.101562500000, -6.203125000000, 1492760920
0.016113281250, -1.077880859375, 0.052246093750, -4.773437500000, -2.101562500000, -6.203125000000, 1492760920
0.016113281250, -1.077880859375, 0.052246093750, -4.773437500000, -2.101562500000, -6.203125000000, 1492760920
-0.119384765625, -0.989990234375, 0.140136718750, -4.218750000000, 0.406250000000, -6.031250000000, 1492760920
0.009521484375, -0.981689453125, 0.070556640625, -6.117187500000, 0.562500000000, -10.398437500000, 1492760920
-0.042480468750, -0.975097656250, 0.142578125000, -4.226562500000, -0.015625000000, -5.835937500000, 1492760920
-0.042480468750, -0.975097656250, 0.142578125000, -4.226562500000, -0.015625000000, -5.835937500000, 1492760920
-0.042480468750, -0.975097656250, 0.142578125000, -4.226562500000, -0.015625000000, -5.835937500000, 1492760920
-0.145507812500, -1.007568359375, 0.072509765625, -3.335937500000, -0.257812500000, -3.000000000000, 1492760920
-0.145507812500, -1.007568359375, 0.072509765625, -3.335937500000, -0.257812500000, -3.000000000000, 1492760920
-0.145507812500, -1.007568359375, 0.072509765625, -3.335937500000, -0.257812500000, -3.000000000000, 1492760920
-0.145507812500, -1.007568359375, 0.072509765625, -3.335937500000, -0.257812500000, -3.000000000000, 1492760920
-0.134521484375, -1.021972656250, 0.130371093750, -6.125000000000, -0.234375000000, -6.750000000000, 1492760920
-0.133544921875, -1.091552734375, 0.151123046875, -3.054687500000, -0.250000000000, -4.007812500000, 1492760920
-0.133544921875, -1.091552734375, 0.151123046875, -3.054687500000, -0.250000000000, -4.007812500000, 1492760921
-0.133544921875, -1.091552734375, 0.151123046875, -3.054687500000, -0.250000000000, -4.007812500000, 1492760921
-0.079345703125, -0.984375000000, 0.032470703125, -3.890625000000, 0.390625000000, -10.140625000000, 1492760921
-0.079345703125, -0.984375000000, 0.032470703125, -3.890625000000, 0.390625000000, -10.140625000000, 1492760921
-0.079345703125, -0.984375000000, 0.032470703125, -3.890625000000, 0.390625000000, -10.140625000000, 1492760921
-0.044921875000, -1.015869140625, 0.096435546875, -1.070312500000, 0.203125000000, -4.140625000000, 1492760921
-0.044921875000, -1.015869140625, 0.096435546875, -1.070312500000, 0.203125000000, -4.140625000000, 1492760921
-0.044921875000, -1.015869140625, 0.096435546875, -1.070312500000, 0.203125000000, -4.140625000000, 1492760921
-0.044921875000, -1.015869140625, 0.096435546875, -1.070312500000, 0.203125000000, -4.140625000000, 1492760921
-0.049072265625, -0.988281250000, 0.144287109375, -4.226562500000, -2.617187500000, -1.695312500000, 1492760921
-0.049072265625, -0.988281250000, 0.144287109375, -4.226562500000, -2.617187500000, -1.695312500000, 1492760921
-0.049072265625, -0.988281250000, 0.144287109375, -4.226562500000, -2.617187500000, -1.695312500000, 1492760921
-0.046630859375, -1.022949218750, 0.041015625000, -1.890625000000, 0.484375000000, -6.437500000000, 1492760921
-0.046630859375, -1.022949218750, 0.041015625000, -1.890625000000, 0.484375000000, -6.437500000000, 1492760921
-0.046630859375, -1.022949218750, 0.041015625000, -1.890625000000, 0.484375000000, -6.437500000000, 1492760921
-0.120849609375, -0.977050781250, 0.156250000000, -3.148437500000, 0.156250000000, -4.914062500000, 1492760921
-0.120849609375, -0.977050781250, 0.156250000000, -3.148437500000, 0.156250000000, -4.914062500000, 1492760921
-0.120849609375, -0.977050781250, 0.156250000000, -3.148437500000, 0.156250000000, -4.914062500000, 1492760921
-0.188964843750, -0.968994140625, 0.055908203125, -3.156250000000, 0.890625000000, -6.554687500000, 1492760921
-0.188964843750, -0.968994140625, 0.055908203125, -3.156250000000, 0.890625000000, -6.554687500000, 1492760921
-0.188964843750, -0.968994140625, 0.055908203125, -3.156250000000, 0.890625000000, -6.554687500000, 1492760921
-0.188964843750, -0.968994140625, 0.055908203125, -3.156250000000, 0.890625000000, -6.554687500000, 1492760921
-0.145751953125, -1.073486328125, 0.076904296875, -1.492187500000, 2.328125000000, -5.859375000000, 1492760921
-0.145751953125, -1.073486328125, 0.076904296875, -1.492187500000, 2.328125000000, -5.859375000000, 1492760921
-0.145751953125, -1.073486328125, 0.076904296875, -1.492187500000, 2.328125000000, -5.859375000000, 1492760921
-0.074707031250, -0.985351562500, 0.139892578125, -1.468750000000, 0.179687500000, -3.023437500000, 1492760921
-0.074707031250, -0.985351562500, 0.139892578125, -1.468750000000, 0.179687500000, -3.023437500000, 1492760921
-0.074707031250, -0.985351562500, 0.139892578125, -1.468750000000, 0.179687500000, -3.023437500000, 1492760921
-0.192382812500, -1.023437500000, 0.118896484375, -1.789062500000, 0.257812500000, -6.843750000000, 1492760921
-0.192382812500, -1.023437500000, 0.118896484375, -1.789062500000, 0.257812500000, -6.843750000000, 1492760921
-0.192382812500, -1.023437500000, 0.118896484375, -1.789062500000, 0.257812500000, -6.843750000000, 1492760921
-0.090087890625, -0.963134765625, 0.137451171875, -5.312500000000, 0.273437500000, -8.718750000000, 1492760921
-0.090087890625, -0.963134765625, 0.137451171875, -5.312500000000, 0.273437500000, -8.718750000000, 1492760921
-0.090087890625, -0.963134765625, 0.137451171875, -5.312500000000, 0.273437500000, -8.718750000000, 1492760921
-0.090087890625, -0.963134765625, 0.137451171875, -5.312500000000, 0.273437500000, -8.718750000000, 1492760921
-0.082519531250, -1.016113281250, 0.059082031250, -6.304687500000, 0.101562500000, -6.726562500000, 1492760921
-0.082519531250, -1.016113281250, 0.059082031250, -6.304687500000, 0.101562500000, -6.726562500000, 1492760921
-0.082519531250, -1.016113281250, 0.059082031250, -6.304687500000, 0.101562500000, -6.726562500000, 1492760921
-0.048095703125, -1.022705078125, 0.119140625000, -4.367187500000, -2.351562500000, 0.265625000000, 1492760921
-0.048095703125, -1.022705078125, 0.119140625000, -4.367187500000, -2.351562500000, 0.265625000000, 1492760921
-0.048095703125, -1.022705078125, 0.119140625000, -4.367187500000, -2.351562500000, 0.265625000000, 1492760921
-0.136962890625, -1.030273437500, 0.100830078125, -1.312500000000, -0.484375000000, -7.882812500000, 1492760921
-0.136962890625, -1.030273437500, 0.100830078125, -1.312500000000, -0.484375000000, -7.882812500000, 1492760921
-0.136962890625, -1.030273437500, 0.100830078125, -1.312500000000, -0.484375000000, -7.882812500000, 1492760921
-0.113037109375, -0.966064453125, 0.055664062500, -1.984375000000, -0.937500000000, -8.562500000000, 1492760921
-0.113037109375, -0.966064453125, 0.055664062500, -1.984375000000, -0.937500000000, -8.562500000000, 1492760921
-0.113037109375, -0.966064453125, 0.055664062500, -1.984375000000, -0.937500000000, -8.562500000000, 1492760921
-0.113037109375, -0.966064453125, 0.055664062500, -1.984375000000, -0.937500000000, -8.562500000000, 1492760921
-0.096679687500, -0.929687500000, 0.147949218750, -1.164062500000, -0.953125000000, -6.898437500000, 1492760921
-0.096679687500, -0.929687500000, 0.147949218750, -1.164062500000, -0.953125000000, -6.898437500000, 1492760921
-0.096679687500, -0.929687500000, 0.147949218750, -1.164062500000, -0.953125000000, -6.898437500000, 1492760921
-0.095214843750, -1.020751953125, 0.041015625000, -6.851562500000, -0.085937500000, -7.054687500000, 1492760921
-0.095214843750, -1.020751953125, 0.041015625000, -6.851562500000, -0.085937500000, -7.054687500000, 1492760921
-0.095214843750, -1.020751953125, 0.041015625000, -6.851562500000, -0.085937500000, -7.054687500000, 1492760921
-0.068115234375, -1.079833984375, 0.047607421875, -5.273437500000, -0.007812500000, -7.851562500000, 1492760921
-0.068115234375, -1.079833984375, 0.047607421875, -5.273437500000, -0.007812500000, -7.851562500000, 1492760921
-0.068115234375, -1.079833984375, 0.047607421875, -5.273437500000, -0.007812500000, -7.851562500000, 1492760921
-0.077880859375, -1.063964843750, 0.141845703125, -4.210937500000, 0.312500000000, -4.562500000000, 1492760921
-0.077880859375, -1.063964843750, 0.141845703125, -4.210937500000, 0.312500000000, -4.562500000000, 1492760921
-0.077880859375, -1.063964843750, 0.141845703125, -4.210937500000, 0.312500000000, -4.562500000000, 1492760921
-0.077880859375, -1.063964843750, 0.141845703125, -4.210937500000, 0.312500000000, -4.562500000000, 1492760921
-0.045410156250, -1.014160156250, 0.135986328125, -1.882812500000, 0.796875000000, -3.234375000000, 1492760921
-0.045410156250, -1.014160156250, 0.135986328125, -1.882812500000, 0.796875000000, -3.234375000000, 1492760921
-0.045410156250, -1.014160156250, 0.135986328125, -1.882812500000, 0.796875000000, -3.234375000000, 1492760921
-0.136230468750, -1.050781250000, 0.102050781250, -1.320312500000, -0.773437500000, -8.171875000000, 1492760921
-0.136230468750, -1.050781250000, 0.102050781250, -1.320312500000, -0.773437500000, -8.171875000000, 1492760921
-0.136230468750, -1.050781250000, 0.102050781250, -1.320312500000, -0.773437500000, -8.171875000000, 1492760921
-0.083984375000, -1.021240234375, 0.103027343750, -3.703125000000, -2.429687500000, -6.578125000000, 1492760922
-0.083984375000, -1.021240234375, 0.103027343750, -3.703125000000, -2.429687500000, -6.578125000000, 1492760922
-0.083984375000, -1.021240234375, 0.103027343750, -3.703125000000, -2.429687500000, -6.578125000000, 1492760922
0.026855468750, -0.969482421875, 0.127929687500, -7.976562500000, 0.382812500000, -9.093750000000, 1492760922
0.026855468750, -0.969482421875, 0.127929687500, -7.976562500000, 0.382812500000, -9.093750000000, 1492760922
0.026855468750, -0.969482421875, 0.127929687500, -7.976562500000, 0.382812500000, -9.093750000000, 1492760922
0.026855468750, -0.969482421875, 0.127929687500, -7.976562500000, 0.382812500000, -9.093750000000, 1492760922
-0.033935546875, -0.980468750000, 0.046630859375, -6.937500000000, 0.390625000000, -6.656250000000, 1492760922
-0.033935546875, -0.980468750000, 0.046630859375, -6.937500000000, 0.390625000000, -6.656250000000, 1492760922
-0.033935546875, -0.980468750000, 0.046630859375, -6.937500000000, 0.390625000000, -6.656250000000, 1492760922
-0.091308593750, -1.039306640625, 0.128662109375, -5.539062500000, 0.828125000000, -3.007812500000, 1492760922
-0.091308593750, -1.039306640625, 0.128662109375, -5.539062500000, 0.828125000000, -3.007812500000, 1492760922
-0.091308593750, -1.039306640625, 0.128662109375, -5.539062500000, 0.828125000000, -3.007812500000, 1492760922
-0.033447265625, -0.998535156250, 0.050292968750, -10.429687500000, -2.429687500000, -1.187500000000, 1492760922
-0.033447265625, -0.998535156250, 0.050292968750, -10.429687500000, -2.429687500000, -1.187500000000, 1492760922
-0.033447265625, -0.998535156250, 0.050292968750, -10.429687500000, -2.429687500000, -1.187500000000, 1492760922
-0.053466796875, -0.977294921875, 0.052978515625, -7.078125000000, -4.875000000000, -5.375000000000, 1492760922
-0.053466796875, -0.977294921875, 0.052978515625, -7.078125000000, -4.875000000000, -5.375000000000, 1492760922
-0.053466796875, -0.977294921875, 0.052978515625, -7.078125000000, -4.875000000000, -5.375000000000, 1492760922
-0.053466796875, -0.977294921875, 0.052978515625, -7.078125000000, -4.875000000000, -5.375000000000, 1492760922
-0.070312500000, -0.973876953125, 0.122314453125, -9.382812500000, -1.960937500000, -3.820312500000, 1492760922
-0.070312500000, -0.973876953125, 0.122314453125, -9.382812500000, -1.960937500000, -3.820312500000, 1492760922
-0.070312500000, -0.973876953125, 0.122314453125, -9.382812500000, -1.960937500000, -3.820312500000, 1492760922
-0.102294921875, -1.012451171875, 0.049804687500, -14.203125000000, -2.968750000000, -5.250000000000, 1492760922
-0.102294921875, -1.012451171875, 0.049804687500, -14.203125000000, -2.968750000000, -5.250000000000, 1492760922
-0.102294921875, -1.012451171875, 0.049804687500, -14.203125000000, -2.968750000000, -5.250000000000, 1492760922
-0.131591796875, -0.922363281250, 0.136962890625, -20.054687500000, -3.640625000000, -6.335937500000, 1492760922
-0.131591796875, -0.922363281250, 0.136962890625, -20.054687500000, -3.640625000000, -6.335937500000, 1492760922
-0.131591796875, -0.922363281250, 0.136962890625, -20.054687500000, -3.640625000000, -6.335937500000, 1492760922
0.004638671875, -0.970703125000, 0.046875000000, -20.351562500000, -6.179687500000, -8.593750000000, 1492760922
0.004638671875, -0.970703125000, 0.046875000000, -20.351562500000, -6.179687500000, -8.593750000000, 1492760922
0.004638671875, -0.970703125000, 0.046875000000, -20.351562500000, -6.179687500000, -8.593750000000, 1492760922
0.004638671875, -0.970703125000, 0.046875000000, -20.351562500000, -6.179687500000, -8.593750000000, 1492760922
-0.046875000000, -1.016845703125, 0.155029296875, -20.632812500000, -7.593750000000, -6.414062500000, 1492760922
-0.046875000000, -1.016845703125, 0.155029296875, -20.632812500000, -7.593750000000, -6.414062500000, 1492760922
-0.046875000000, -1.016845703125, 0.155029296875, -20.632812500000, -7.593750000000, -6.414062500000, 1492760922
-0.153564453125, -1.006591796875, 0.118896484375, -22.476562500000, -10.664062500000, -8.187500000000, 1492760922
-0.153564453125, -1.006591796875, 0.118896484375, -22.476562500000, -10.664062500000, -8.187500000000, 1492760922
-0.153564453125, -1.006591796875, 0.118896484375, -22.476562500000, -10.664062500000, -8.187500000000, 1492760922
-0.125488281250, -1.074951171875, 0.207031250000, -23.250000000000, -13.984375000000, 0.007812500000, 1492760922
-0.125488281250, -1.074951171875, 0.207031250000, -23.250000000000, -13.984375000000, 0.007812500000, 1492760922
-0.125488281250, -1.074951171875, 0.207031250000, -23.250000000000, -13.984375000000, 0.007812500000, 1492760922
-0.038085937500, -0.992919921875, 0.132568359375, -26.078125000000, -12.679687500000, 6.023437500000, 1492760922
-0.038085937500, -0.992919921875, 0.132568359375, -26.078125000000, -12.679687500000, 6.023437500000, 1492760922
-0.038085937500, -0.992919921875, 0.132568359375, -26.078125000000, -12.679687500000, 6.023437500000, 1492760922
-0.038085937500, -0.992919921875, 0.132568359375, -26.078125000000, -12.679687500000, 6.023437500000, 1492760922
-0.035400390625, -1.010986328125, 0.195800781250, -30.281250000000, -9.882812500000, -0.265625000000, 1492760922
-0.035400390625, -1.010986328125, 0.195800781250, -30.281250000000, -9.882812500000, -0.265625000000, 1492760922
-0.035400390625, -1.010986328125, 0.195800781250, -30.281250000000, -9.882812500000, -0.265625000000, 1492760922
-0.088867187500, -1.020996093750, 0.316406250000, -37.914062500000, 4.039062500000, -3.562500000000, 1492760922
-0.150146484375, -1.000976562500, 0.119140625000, -50.023437500000, 2.523437500000, -2.281250000000, 1492760922
-0.150146484375, -1.000976562500, 0.119140625000, -50.023437500000, 2.523437500000, -2.281250000000, 1492760922
-0.150146484375, -1.000976562500, 0.119140625000, -50.023437500000, 2.523437500000, -2.281250000000, 1492760922
-0.150146484375, -1.000976562500, 0.119140625000, -50.023437500000, 2.523437500000, -2.281250000000, 1492760922
-0.150146484375, -1.000976562500, 0.119140625000, -50.023437500000, 2.523437500000, -2.281250000000, 1492760922
0.011962890625, -0.887207031250, 0.340087890625, -53.570312500000, -5.632812500000, 0.218750000000, 1492760922
0.011962890625, -0.887207031250, 0.340087890625, -53.570312500000, -5.632812500000, 0.218750000000, 1492760922
0.011962890625, -0.887207031250, 0.340087890625, -53.570312500000, -5.632812500000, 0.218750000000, 1492760922
0.011962890625, -0.887207031250, 0.340087890625, -53.570312500000, -5.632812500000, 0.218750000000, 1492760922
-0.145996093750, -0.966796875000, 0.446533203125, -69.507812500000, -8.445312500000, 0.171875000000, 1492760922
-0.145996093750, -0.966796875000, 0.446533203125, -69.507812500000, -8.445312500000, 0.171875000000, 1492760922
-0.145996093750, -0.966796875000, 0.446533203125, -69.507812500000, -8.445312500000, 0.171875000000, 1492760922
-0.020263671875, -0.852783203125, 0.368408203125, -78.890625000000, -17.601562500000, 4.375000000000, 1492760922
-0.020263671875, -0.852783203125, 0.368408203125, -78.890625000000, -17.601562500000, 4.375000000000, 1492760922
-0.020263671875, -0.852783203125, 0.368408203125, -78.890625000000, -17.601562500000, 4.375000000000, 1492760922
0.017333984375, -0.925292968750, 0.349853515625, -64.484375000000, -17.976562500000, 2.367187500000, 1492760922
0.017333984375, -0.925292968750, 0.349853515625, -64.484375000000, -17.976562500000, 2.367187500000, 1492760922
0.017333984375, -0.925292968750, 0.349853515625, -64.484375000000, -17.976562500000, 2.367187500000, 1492760922
0.090087890625, -0.855957031250, 0.480224609375, -67.117187500000, 0.593750000000, 14.648437500000, 1492760923
0.090087890625, -0.855957031250, 0.480224609375, -67.117187500000, 0.593750000000, 14.648437500000, 1492760923
0.090087890625, -0.855957031250, 0.480224609375, -67.117187500000, 0.593750000000, 14.648437500000, 1492760923
0.090087890625, -0.855957031250, 0.480224609375, -67.117187500000, 0.593750000000, 14.648437500000, 1492760923
0.028808593750, -0.865478515625, 0.482177734375, -65.750000000000, -3.789062500000, 20.367187500000, 1492760923
-0.092285156250, -0.760253906250, 0.616210937500, -63.585937500000, -16.398437500000, -3.718750000000, 1492760923
-0.005615234375, -0.598876953125, 0.675537109375, -67.218750000000, -13.265625000000, -7.015625000000, 1492760923
-0.005615234375, -0.598876953125, 0.675537109375, -67.218750000000, -13.265625000000, -7.015625000000, 1492760923
0.031494140625, -0.667480468750, 0.693115234375, -65.234375000000, -12.687500000000, -10.718750000000, 1492760923
0.046630859375, -0.614013671875, 0.762939453125, -70.546875000000, -18.656250000000, -5.804687500000, 1492760923
0.046630859375, -0.614013671875, 0.762939453125, -70.546875000000, -18.656250000000, -5.804687500000, 1492760923
0.046630859375, -0.614013671875, 0.762939453125, -70.546875000000, -18.656250000000, -5.804687500000, 1492760923
0.046630859375, -0.614013671875, 0.762939453125, -70.546875000000, -18.656250000000, -5.804687500000, 1492760923
0.046630859375, -0.614013671875, 0.762939453125, -70.546875000000, -18.656250000000, -5.804687500000, 1492760923
0.072509765625, -0.624023437500, 0.768310546875, -74.093750000000, -20.984375000000, -9.960937500000, 1492760923
0.072509765625, -0.624023437500, 0.768310546875, -74.093750000000, -20.984375000000, -9.960937500000, 1492760923
0.072509765625, -0.624023437500, 0.768310546875, -74.093750000000, -20.984375000000, -9.960937500000, 1492760923
0.072509765625, -0.624023437500, 0.768310546875, -74.093750000000, -20.984375000000, -9.960937500000, 1492760923
0.055664062500, -0.578613281250, 0.827880859375, -75.429687500000, -5.250000000000, -6.812500000000, 1492760923
0.055664062500, -0.578613281250, 0.827880859375, -75.429687500000, -5.250000000000, -6.812500000000, 1492760923
0.055664062500, -0.578613281250, 0.827880859375, -75.429687500000, -5.250000000000, -6.812500000000, 1492760923
0.055664062500, -0.578613281250, 0.827880859375, -75.429687500000, -5.250000000000, -6.812500000000, 1492760923
0.055664062500, -0.578613281250, 0.827880859375, -75.429687500000, -5.250000000000, -6.812500000000, 1492760923
0.073730468750, -0.546142578125, 0.788330078125, -79.554687500000, -12.187500000000, -3.093750000000, 1492760923
0.073730468750, -0.546142578125, 0.788330078125, -79.554687500000, -12.187500000000, -3.093750000000, 1492760923
0.073730468750, -0.546142578125, 0.788330078125, -79.554687500000, -12.187500000000, -3.093750000000, 1492760923
-0.068359375000, -0.374023437500, 0.951660156250, -78.398437500000, -14.156250000000, -6.445312500000, 1492760923
-0.068359375000, -0.374023437500, 0.951660156250, -78.398437500000, -14.156250000000, -6.445312500000, 1492760923
-0.068359375000, -0.374023437500, 0.951660156250, -78.398437500000, -14.156250000000, -6.445312500000, 1492760923
-0.074951171875, -0.358886718750, 0.870117187500, -83.039062500000, -8.195312500000, -14.726562500000, 1492760923
0.064208984375, -0.360839843750, 0.944335937500, -83.039062500000, -8.195312500000, -14.726562500000, 1492760923
0.064208984375, -0.360839843750, 0.944335937500, -83.039062500000, -8.195312500000, -14.726562500000, 1492760923
0.064208984375, -0.360839843750, 0.944335937500, -83.039062500000, -8.195312500000, -14.726562500000, 1492760923
0.071533203125, -0.335937500000, 0.931884765625, -75.070312500000, -17.601562500000, -21.421875000000, 1492760923
0.071533203125, -0.335937500000, 0.931884765625, -75.070312500000, -17.601562500000, -21.421875000000, 1492760923
0.071533203125, -0.335937500000, 0.931884765625, -75.070312500000, -17.601562500000, -21.421875000000, 1492760923
0.148925781250, -0.372802734375, 0.965087890625, -82.218750000000, -15.375000000000, -14.890625000000, 1492760923
0.148925781250, -0.372802734375, 0.965087890625, -82.218750000000, -15.375000000000, -14.890625000000, 1492760923
0.148925781250, -0.372802734375, 0.965087890625, -82.218750000000, -15.375000000000, -14.890625000000, 1492760923
0.042724609375, -0.281494140625, 0.992431640625, -73.773437500000, -11.242187500000, -11.171875000000, 1492760923
0.042724609375, -0.281494140625, 0.992431640625, -73.773437500000, -11.242187500000, -11.171875000000, 1492760923
0.042724609375, -0.281494140625, 0.992431640625, -73.773437500000, -11.242187500000, -11.171875000000, 1492760923
0.042724609375, -0.281494140625, 0.992431640625, -73.773437500000, -11.242187500000, -11.171875000000, 1492760923
0.100341796875, -0.219726562500, 0.996826171875, -75.867187500000, -13.273437500000, -10.351562500000, 1492760923
0.060302734375, -0.002197265625, 1.115722656250, -92.031250000000, 17.453125000000, -8.562500000000, 1492760923
0.060302734375, -0.002197265625, 1.115722656250, -92.031250000000, 17.453125000000, -8.562500000000, 1492760923
0.060302734375, -0.002197265625, 1.115722656250, -92.031250000000, 17.453125000000, -8.562500000000, 1492760923
0.060302734375, -0.002197265625, 1.115722656250, -92.031250000000, 17.453125000000, -8.562500000000, 1492760923
0.070312500000, 0.053222656250, 1.105712890625, -85.492187500000, 35.250000000000, 0.835937500000, 1492760923
0.070312500000, 0.053222656250, 1.105712890625, -85.492187500000, 35.250000000000, 0.835937500000, 1492760923
0.070312500000, 0.053222656250, 1.105712890625, -85.492187500000, 35.250000000000, 0.835937500000, 1492760923
0.070312500000, 0.053222656250, 1.105712890625, -85.492187500000, 35.250000000000, 0.835937500000, 1492760923
-0.009521484375, 0.186035156250, 1.132568359375, -67.585937500000, 12.171875000000, -13.851562500000, 1492760923
-0.009521484375, 0.186035156250, 1.132568359375, -67.585937500000, 12.171875000000, -13.851562500000, 1492760923
-0.009521484375, 0.186035156250, 1.132568359375, -67.585937500000, 12.171875000000, -13.851562500000, 1492760923
-0.009521484375, 0.186035156250, 1.132568359375, -67.585937500000, 12.171875000000, -13.851562500000, 1492760923
0.026367187500, 0.039062500000, 1.318603515625, -123.312500000000, 36.351562500000, 6.945312500000, 1492760923
0.026367187500, 0.039062500000, 1.318603515625, -123.312500000000, 36.351562500000, 6.945312500000, 1492760923
0.026367187500, 0.039062500000, 1.318603515625, -123.312500000000, 36.351562500000, 6.945312500000, 1492760923
-0.030761718750, 0.181884765625, 0.808593750000, -2.820312500000, -33.929687500000, -18.343750000000, 1492760923
-0.030761718750, 0.181884765625, 0.808593750000, -2.820312500000, -33.929687500000, -18.343750000000, 1492760923
-0.030761718750, 0.181884765625, 0.808593750000, -2.820312500000, -33.929687500000, -18.343750000000, 1492760923
-0.081298828125, 0.456054687500, 0.895507812500, -0.210937500000, 45.875000000000, -33.726562500000, 1492760923
-0.081298828125, 0.456054687500, 0.895507812500, -0.210937500000, 45.875000000000, -33.726562500000, 1492760923
-0.053222656250, 0.588378906250, 0.786132812500, 4.031250000000, -18.703125000000, 14.375000000000, 1492760924
-0.053222656250, 0.588378906250, 0.786132812500, 4.031250000000, -18.703125000000, 14.375000000000, 1492760924
-0.053222656250, 0.588378906250, 0.786132812500, 4.031250000000, -18.703125000000, 14.375000000000, 1492760924
-0.053222656250, 0.588378906250, 0.786132812500, 4.031250000000, -18.703125000000, 14.375000000000, 1492760924
0.077880859375, 0.400146484375, 1.090087890625, 31.593750000000, -9.757812500000, -8.070312500000, 1492760924
0.077880859375, 0.400146484375, 1.090087890625, 31.593750000000, -9.757812500000, -8.070312500000, 1492760924
0.077880859375, 0.400146484375, 1.090087890625, 31.593750000000, -9.757812500000, -8.070312500000, 1492760924
0.077880859375, 0.400146484375, 1.090087890625, 31.593750000000, -9.757812500000, -8.070312500000, 1492760924
0.145263671875, 0.041992187500, 1.166748046875, 5.007812500000, -21.132812500000, -3.937500000000, 1492760924
0.145263671875, 0.041992187500, 1.166748046875, 5.007812500000, -21.132812500000, -3.937500000000, 1492760924
0.145263671875, 0.041992187500, 1.166748046875, 5.007812500000, -21.132812500000, -3.937500000000, 1492760924
0.083007812500, -0.025390625000, 0.976318359375, -55.617187500000, -4.835937500000, -1.281250000000, 1492760924
0.083007812500, -0.025390625000, 0.976318359375, -55.617187500000, -4.835937500000, -1.281250000000, 1492760924
0.083007812500, -0.025390625000, 0.976318359375, -55.617187500000, -4.835937500000, -1.281250000000, 1492760924
0.106689453125, 0.197021484375, 0.956298828125, -35.593750000000, -1.398437500000, -2.625000000000, 1492760924
0.106689453125, 0.197021484375, 0.956298828125, -35.593750000000, -1.398437500000, -2.625000000000, 1492760924
0.106689453125, 0.197021484375, 0.956298828125, -35.593750000000, -1.398437500000, -2.625000000000, 1492760924
0.106689453125, 0.197021484375, 0.956298828125, -35.593750000000, -1.398437500000, -2.625000000000, 1492760924
0.120117187500, 0.322509765625, 1.125976562500, 6.617187500000, 0.062500000000, -6.687500000000, 1492760924
0.120117187500, 0.322509765625, 1.125976562500, 6.617187500000, 0.062500000000, -6.687500000000, 1492760924
0.120117187500, 0.322509765625, 1.125976562500, 6.617187500000, 0.062500000000, -6.687500000000, 1492760924
0.120117187500, 0.322509765625, 1.125976562500, 6.617187500000, 0.062500000000, -6.687500000000, 1492760924
0.120117187500, 0.322509765625, 1.125976562500, 6.617187500000, 0.062500000000, -6.687500000000, 1492760924
0.072998046875, 0.342041015625, 0.998779296875, 1.171875000000, 0.835937500000, -2.343750000000, 1492760924
0.072998046875, 0.342041015625, 0.998779296875, 1.171875000000, 0.835937500000, -2.343750000000, 1492760924
0.072998046875, 0.342041015625, 0.998779296875, 1.171875000000, 0.835937500000, -2.343750000000, 1492760924
0.127685546875, 0.169921875000, 1.014404296875, -9.250000000000, 4.000000000000, -1.914062500000, 1492760924
0.127685546875, 0.169921875000, 1.014404296875, -9.250000000000, 4.000000000000, -1.914062500000, 1492760924
0.127685546875, 0.169921875000, 1.014404296875, -9.250000000000, 4.000000000000, -1.914062500000, 1492760924
0.127685546875, 0.169921875000, 1.014404296875, -9.250000000000, 4.000000000000, -1.914062500000, 1492760924
0.008300781250, 0.272705078125, 1.074218750000, -3.257812500000, -0.476562500000, -1.820312500000, 1492760924
0.008300781250, 0.272705078125, 1.074218750000, -3.257812500000, -0.476562500000, -1.820312500000, 1492760924
0.008300781250, 0.272705078125, 1.074218750000, -3.257812500000, -0.476562500000, -1.820312500000, 1492760924
0.008300781250, 0.272705078125, 1.074218750000, -3.257812500000, -0.476562500000, -1.820312500000, 1492760924
-0.020263671875, 0.165771484375, 0.992675781250, 0.906250000000, 1.882812500000, -1.812500000000, 1492760924
-0.020263671875, 0.165771484375, 0.992675781250, 0.906250000000, 1.882812500000, -1.812500000000, 1492760924
-0.020263671875, 0.165771484375, 0.992675781250, 0.906250000000, 1.882812500000, -1.812500000000, 1492760924
-0.011962890625, 0.273925781250, 1.067382812500, 2.234375000000, 0.000000000000, -3.687500000000, 1492760924
-0.011962890625, 0.273925781250, 1.067382812500, 2.234375000000, 0.000000000000, -3.687500000000, 1492760924
-0.011962890625, 0.273925781250, 1.067382812500, 2.234375000000, 0.000000000000, -3.687500000000, 1492760924
0.038574218750, 0.167236328125, 0.983642578125, -4.343750000000, -1.921875000000, -1.929687500000, 1492760924
0.038574218750, 0.167236328125, 0.983642578125, -4.343750000000, -1.921875000000, -1.929687500000, 1492760924
0.038574218750, 0.167236328125, 0.983642578125, -4.343750000000, -1.921875000000, -1.929687500000, 1492760924
0.038574218750, 0.167236328125, 0.983642578125, -4.343750000000, -1.921875000000, -1.929687500000, 1492760924
-0.012695312500, 0.187011718750, 1.030761718750, 0.390625000000, -2.273437500000, -6.453125000000, 1492760924
-0.012695312500, 0.187011718750, 1.030761718750, 0.390625000000, -2.273437500000, -6.453125000000, 1492760924
-0.012695312500, 0.187011718750, 1.030761718750, 0.390625000000, -2.273437500000, -6.453125000000, 1492760924
0.033935546875, 0.179687500000, 0.987548828125, -4.718750000000, -1.164062500000, -8.351562500000, 1492760924
0.033935546875, 0.179687500000, 0.987548828125, -4.718750000000, -1.164062500000, -8.351562500000, 1492760924
0.033935546875, 0.179687500000, 0.987548828125, -4.718750000000, -1.164062500000, -8.351562500000, 1492760924
0.131591796875, 0.251953125000, 1.029052734375, 0.835937500000, -4.265625000000, -7.257812500000, 1492760924
0.131591796875, 0.251953125000, 1.029052734375, 0.835937500000, -4.265625000000, -7.257812500000, 1492760924
0.131591796875, 0.251953125000, 1.029052734375, 0.835937500000, -4.265625000000, -7.257812500000, 1492760924
0.091796875000, 0.274658203125, 1.028564453125, 0.562500000000, -1.078125000000, -5.218750000000, 1492760924
0.091796875000, 0.274658203125, 1.028564453125, 0.562500000000, -1.078125000000, -5.218750000000, 1492760924
0.091796875000, 0.274658203125, 1.028564453125, 0.562500000000, -1.078125000000, -5.218750000000, 1492760924
0.091796875000, 0.274658203125, 1.028564453125, 0.562500000000, -1.078125000000, -5.218750000000, 1492760924
0.041748046875, 0.146240234375, 1.014648437500, 0.476562500000, -1.210937500000, -3.078125000000, 1492760924
0.041748046875, 0.146240234375, 1.014648437500, 0.476562500000, -1.210937500000, -3.078125000000, 1492760924
0.041748046875, 0.146240234375, 1.014648437500, 0.476562500000, -1.210937500000, -3.078125000000, 1492760924
0.148193359375, 0.212402343750, 0.986083984375, -4.070312500000, 2.507812500000, -5.796875000000, 1492760924
0.148193359375, 0.212402343750, 0.986083984375, -4.070312500000, 2.507812500000, -5.796875000000, 1492760924
0.148193359375, 0.212402343750, 0.986083984375, -4.070312500000, 2.507812500000, -5.796875000000, 1492760924
0.068603515625, 0.173583984375, 1.082275390625, -1.937500000000, -0.539062500000, -4.234375000000, 1492760924
0.068603515625, 0.173583984375, 1.082275390625, -1.937500000000, -0.539062500000, -4.234375000000, 1492760924
0.068603515625, 0.173583984375, 1.082275390625, -1.937500000000, -0.539062500000, -4.234375000000, 1492760924
0.068603515625, 0.173583984375, 1.082275390625, -1.937500000000, -0.539062500000, -4.234375000000, 1492760925
0.068603515625, 0.173583984375, 1.082275390625, -1.937500000000, -0.539062500000, -4.234375000000, 1492760925
0.068603515625, 0.173583984375, 1.082275390625, -1.937500000000, -0.539062500000, -4.234375000000, 1492760925
-0.020996093750, 0.261962890625, 0.919921875000, -2.695312500000, 0.382812500000, -2.796875000000, 1492760925
-0.005615234375, 0.218017578125, 1.072265625000, -2.226562500000, -2.070312500000, -3.101562500000, 1492760925
-0.005615234375, 0.218017578125, 1.072265625000, -2.226562500000, -2.070312500000, -3.101562500000, 1492760925
-0.005615234375, 0.218017578125, 1.072265625000, -2.226562500000, -2.070312500000, -3.101562500000, 1492760925
0.096191406250, 0.194335937500, 0.982910156250, -2.640625000000, 0.257812500000, -3.187500000000, 1492760925
0.096191406250, 0.194335937500, 0.982910156250, -2.640625000000, 0.257812500000, -3.187500000000, 1492760925
0.096191406250, 0.194335937500, 0.982910156250, -2.640625000000, 0.257812500000, -3.187500000000, 1492760925
-0.019042968750, 0.187500000000, 0.934814453125, -4.984375000000, -2.031250000000, -4.671875000000, 1492760925
0.037841796875, 0.123291015625, 0.998535156250, -6.523437500000, 0.882812500000, -6.195312500000, 1492760925
0.037841796875, 0.123291015625, 0.998535156250, -6.523437500000, 0.882812500000, -6.195312500000, 1492760925
0.125732421875, 0.207519531250, 0.970703125000, -4.179687500000, 0.351562500000, -5.632812500000, 1492760925
0.072753906250, 0.166259765625, 0.991699218750, -2.945312500000, -0.992187500000, -3.960937500000, 1492760925
0.072753906250, 0.166259765625, 0.991699218750, -2.945312500000, -0.992187500000, -3.960937500000, 1492760925
0.072753906250, 0.166259765625, 0.991699218750, -2.945312500000, -0.992187500000, -3.960937500000, 1492760925
0.072753906250, 0.166259765625, 0.991699218750, -2.945312500000, -0.992187500000, -3.960937500000, 1492760925
0.072753906250, 0.166259765625, 0.991699218750, -2.945312500000, -0.992187500000, -3.960937500000, 1492760925
-0.020996093750, 0.215332031250, 1.073730468750, -4.093750000000, -1.195312500000, 2.296875000000, 1492760925
0.131591796875, 0.116943359375, 0.989990234375, -4.289062500000, -0.226562500000, -2.679687500000, 1492760925
0.131591796875, 0.116943359375, 0.989990234375, -4.289062500000, -0.226562500000, -2.679687500000, 1492760925
0.131591796875, 0.116943359375, 0.989990234375, -4.289062500000, -0.226562500000, -2.679687500000, 1492760925
0.044189453125, 0.178955078125, 1.070312500000, -2.765625000000, -2.250000000000, -1.039062500000, 1492760925
0.044189453125, 0.178955078125, 1.070312500000, -2.765625000000, -2.250000000000, -1.039062500000, 1492760925
0.044189453125, 0.178955078125, 1.070312500000, -2.765625000000, -2.250000000000, -1.039062500000, 1492760925
0.024169921875, 0.273925781250, 0.975097656250, -4.585937500000, 0.882812500000, -3.062500000000, 1492760925
0.024169921875, 0.273925781250, 0.975097656250, -4.585937500000, 0.882812500000, -3.062500000000, 1492760925
0.024169921875, 0.273925781250, 0.975097656250, -4.585937500000, 0.882812500000, -3.062500000000, 1492760925
0.024169921875, 0.273925781250, 0.975097656250, -4.585937500000, 0.882812500000, -3.062500000000, 1492760925
0.086425781250, 0.254150390625, 1.001953125000, -3.343750000000, 0.484375000000, -6.804687500000, 1492760925
0.086425781250, 0.254150390625, 1.001953125000, -3.343750000000, 0.484375000000, -6.804687500000, 1492760925
0.086425781250, 0.254150390625, 1.001953125000, -3.343750000000, 0.484375000000, -6.804687500000, 1492760925
0.139160156250, 0.270996093750, 1.155517578125, -3.929687500000, -0.117187500000, -6.156250000000, 1492760925
0.139160156250, 0.270996093750, 1.155517578125, -3.929687500000, -0.117187500000, -6.156250000000, 1492760925
0.139160156250, 0.270996093750, 1.155517578125, -3.929687500000, -0.117187500000, -6.156250000000, 1492760925
0.089111328125, 0.153808593750, 0.977294921875, -3.859375000000, 2.195312500000, -3.445312500000, 1492760925
0.089111328125, 0.153808593750, 0.977294921875, -3.859375000000, 2.195312500000, -3.445312500000, 1492760925
0.089111328125, 0.153808593750, 0.977294921875, -3.859375000000, 2.195312500000, -3.445312500000, 1492760925
0.068115234375, 0.125976562500, 1.018310546875, -6.656250000000, 1.179687500000, -6.640625000000, 1492760925
0.068115234375, 0.125976562500, 1.018310546875, -6.656250000000, 1.179687500000, -6.640625000000, 1492760925
0.068115234375, 0.125976562500, 1.018310546875, -6.656250000000, 1.179687500000, -6.640625000000, 1492760925
0.068115234375, 0.125976562500, 1.018310546875, -6.656250000000, 1.179687500000, -6.640625000000, 1492760925
0.127197265625, 0.218017578125, 1.089843750000, -6.640625000000, -0.906250000000, -3.015625000000, 1492760925
0.127197265625, 0.218017578125, 1.089843750000, -6.640625000000, -0.906250000000, -3.015625000000, 1492760925
0.127197265625, 0.218017578125, 1.089843750000, -6.640625000000, -0.906250000000, -3.015625000000, 1492760925
0.130126953125, 0.266113281250, 1.064941406250, -6.125000000000, -0.570312500000, -3.515625000000, 1492760925
0.130126953125, 0.266113281250, 1.064941406250, -6.125000000000, -0.570312500000, -3.515625000000, 1492760925
0.130126953125, 0.266113281250, 1.064941406250, -6.125000000000, -0.570312500000, -3.515625000000, 1492760925
0.155029296875, 0.231201171875, 1.084228515625, -4.835937500000, -2.437500000000, -8.789062500000, 1492760925
0.155029296875, 0.231201171875, 1.084228515625, -4.835937500000, -2.437500000000, -8.789062500000, 1492760925
0.155029296875, 0.231201171875, 1.084228515625, -4.835937500000, -2.437500000000, -8.789062500000, 1492760925
0.069824218750, 0.176757812500, 0.994140625000, -4.843750000000, 0.453125000000, -1.257812500000, 1492760925
0.069824218750, 0.176757812500, 0.994140625000, -4.843750000000, 0.453125000000, -1.257812500000, 1492760925
0.069824218750, 0.176757812500, 0.994140625000, -4.843750000000, 0.453125000000, -1.257812500000, 1492760925
0.069824218750, 0.176757812500, 0.994140625000, -4.843750000000, 0.453125000000, -1.257812500000, 1492760925
0.062255859375, 0.277099609375, 1.034912109375, -1.406250000000, -2.148437500000, -3.937500000000, 1492760925
0.062255859375, 0.277099609375, 1.034912109375, -1.406250000000, -2.148437500000, -3.937500000000, 1492760925
0.062255859375, 0.277099609375, 1.034912109375, -1.406250000000, -2.148437500000, -3.937500000000, 1492760925
0.009765625000, 0.267089843750, 0.917480468750, -3.101562500000, 2.015625000000, -1.382812500000, 1492760925
0.060546875000, 0.192138671875, 0.907958984375, -1.265625000000, -1.093750000000, -5.796875000000, 1492760925
0.142333984375, 0.205078125000, 0.985595703125, -4.312500000000, -2.281250000000, -1.421875000000, 1492760925
0.142333984375, 0.205078125000, 0.985595703125, -4.312500000000, -2.281250000000, -1.421875000000, 1492760925
0.142333984375, 0.205078125000, 0.985595703125, -4.312500000000, -2.281250000000, -1.421875000000, 1492760925
-0.012207031250, 0.172363281250, 1.012207031250, -3.015625000000, -2.226562500000, -4.039062500000, 1492760925
-0.012207031250, 0.172363281250, 1.012207031250, -3.015625000000, -2.226562500000, -4.039062500000, 1492760925
-0.012207031250, 0.172363281250, 1.012207031250, -3.015625000000, -2.226562500000, -4.039062500000, 1492760925
-0.012207031250, 0.172363281250, 1.012207031250, -3.015625000000, -2.226562500000, -4.039062500000, 1492760925
-0.012207031250, 0.172363281250, 1.012207031250, -3.015625000000, -2.226562500000, -4.039062500000, 1492760925
0.067382812500, 0.228027343750, 0.992919921875, -3.039062500000, -2.382812500000, -6.203125000000, 1492760926
0.040039062500, 0.333740234375, 1.089111328125, -4.328125000000, -2.632812500000, -6.960937500000, 1492760926
0.040039062500, 0.333740234375, 1.089111328125, -4.328125000000, -2.632812500000, -6.960937500000, 1492760926
0.040039062500, 0.333740234375, 1.089111328125, -4.328125000000, -2.632812500000, -6.960937500000, 1492760926
0.040039062500, 0.333740234375, 1.089111328125, -4.328125000000, -2.632812500000, -6.960937500000, 1492760926
0.040039062500, 0.333740234375, 1.089111328125, -4.328125000000, -2.632812500000, -6.960937500000, 1492760926
0.086914062500, 0.316894531250, 1.013183593750, -3.406250000000, -0.492187500000, -5.648437500000, 1492760926
0.086914062500, 0.316894531250, 1.013183593750, -3.406250000000, -0.492187500000, -5.648437500000, 1492760926
0.086914062500, 0.316894531250, 1.013183593750, -3.406250000000, -0.492187500000, -5.648437500000, 1492760926
0.037353515625, 0.111328125000, 1.056884765625, -1.507812500000, 0.335937500000, -1.304687500000, 1492760926
0.037353515625, 0.111328125000, 1.056884765625, -1.507812500000, 0.335937500000, -1.304687500000, 1492760926
0.037353515625, 0.111328125000, 1.056884765625, -1.507812500000, 0.335937500000, -1.304687500000, 1492760926
0.037353515625, 0.111328125000, 1.056884765625, -1.507812500000, 0.335937500000, -1.304687500000, 1492760926
0.090332031250, 0.181396484375, 1.039062500000, -4.000000000000, -0.757812500000, -4.593750000000, 1492760926
0.090332031250, 0.181396484375, 1.039062500000, -4.000000000000, -0.757812500000, -4.593750000000, 1492760926
0.090332031250, 0.181396484375, 1.039062500000, -4.000000000000, -0.757812500000, -4.593750000000, 1492760926
0.090332031250, 0.181396484375, 1.039062500000, -4.000000000000, -0.757812500000, -4.593750000000, 1492760926
0.090332031250, 0.181396484375, 1.039062500000, -4.000000000000, -0.757812500000, -4.593750000000, 1492760926
0.061767578125, 0.203857421875, 1.087890625000, -4.703125000000, -0.406250000000, 0.015625000000, 1492760926
0.061767578125, 0.203857421875, 1.087890625000, -4.703125000000, -0.406250000000, 0.015625000000, 1492760926
0.061767578125, 0.203857421875, 1.087890625000, -4.703125000000, -0.406250000000, 0.015625000000, 1492760926
0.061767578125, 0.203857421875, 1.087890625000, -4.703125000000, -0.406250000000, 0.015625000000, 1492760926
