ACC_X,ACC_Y,ACC_Z,G_X,G_Y,G_Z,Unix Time
-0.104980468750, 0.016601562500, 1.088867187500, -3.828125000000, 0.921875000000, -5.531250000000, 1492760109
-0.104980468750, 0.016601562500, 1.088867187500, -3.828125000000, 0.921875000000, -5.531250000000, 1492760109
-0.104980468750, 0.016601562500, 1.088867187500, -3.828125000000, 0.921875000000, -5.531250000000, 1492760109
-0.166259765625, 0.028808593750, 0.991943359375, -6.281250000000, -0.429687500000, -4.203125000000, 1492760109
-0.166259765625, 0.028808593750, 0.991943359375, -6.281250000000, -0.429687500000, -4.203125000000, 1492760109
-0.166259765625, 0.028808593750, 0.991943359375, -6.281250000000, -0.429687500000, -4.203125000000, 1492760109
-0.166259765625, 0.028808593750, 0.991943359375, -6.281250000000, -0.429687500000, -4.203125000000, 1492760109
-0.103759765625, 0.143798828125, 0.917236328125, -5.398437500000, 0.828125000000, -4.898437500000, 1492760109
-0.103759765625, 0.143798828125, 0.917236328125, -5.398437500000, 0.828125000000, -4.898437500000, 1492760109
-0.103759765625, 0.143798828125, 0.917236328125, -5.398437500000, 0.828125000000, -4.898437500000, 1492760109
-0.164062500000, -0.023925781250, 1.034912109375, -3.937500000000, -0.554687500000, -4.500000000000, 1492760109
-0.164062500000, -0.023925781250, 1.034912109375, -3.937500000000, -0.554687500000, -4.500000000000, 1492760109
-0.164062500000, -0.023925781250, 1.034912109375, -3.937500000000, -0.554687500000, -4.500000000000, 1492760109
-0.090332031250, -0.010009765625, 1.022460937500, -3.023437500000, 2.507812500000, -6.007812500000, 1492760109
-0.090332031250, -0.010009765625, 1.022460937500, -3.023437500000, 2.507812500000, -6.007812500000, 1492760109
-0.090332031250, -0.010009765625, 1.022460937500, -3.023437500000, 2.507812500000, -6.007812500000, 1492760109
-0.211669921875, 0.133544921875, 1.069091796875, -4.906250000000, 0.453125000000, -6.453125000000, 1492760109
-0.211669921875, 0.133544921875, 1.069091796875, -4.906250000000, 0.453125000000, -6.453125000000, 1492760109
-0.211669921875, 0.133544921875, 1.069091796875, -4.906250000000, 0.453125000000, -6.453125000000, 1492760109
-0.143310546875, 0.041015625000, 0.979736328125, -5.062500000000, 2.406250000000, -4.781250000000, 1492760109
-0.119384765625, -0.002685546875, 0.980224609375, -3.320312500000, -0.117187500000, -2.921875000000, 1492760109
-0.119384765625, -0.002685546875, 0.980224609375, -3.320312500000, -0.117187500000, -2.921875000000, 1492760109
-0.119384765625, -0.002685546875, 0.980224609375, -3.320312500000, -0.117187500000, -2.921875000000, 1492760109
-0.099853515625, -0.016601562500, 0.965087890625, -3.898437500000, 2.203125000000, -6.101562500000, 1492760109
-0.099853515625, -0.016601562500, 0.965087890625, -3.898437500000, 2.203125000000, -6.101562500000, 1492760109
-0.099853515625, -0.016601562500, 0.965087890625, -3.898437500000, 2.203125000000, -6.101562500000, 1492760109
-0.099609375000, 0.031738281250, 1.064697265625, -5.257812500000, -0.992187500000, -4.375000000000, 1492760109
-0.099609375000, 0.031738281250, 1.064697265625, -5.257812500000, -0.992187500000, -4.375000000000, 1492760109
-0.269775390625, 0.044677734375, 1.064453125000, -5.398437500000, 0.898437500000, -5.992187500000, 1492760109
-0.269775390625, 0.044677734375, 1.064453125000, -5.398437500000, 0.898437500000, -5.992187500000, 1492760109
-0.269775390625, 0.044677734375, 1.064453125000, -5.398437500000, 0.898437500000, -5.992187500000, 1492760109
-0.269775390625, 0.044677734375, 1.064453125000, -5.398437500000, 0.898437500000, -5.992187500000, 1492760109
-0.269775390625, 0.044677734375, 1.064453125000, -5.398437500000, 0.898437500000, -5.992187500000, 1492760109
-0.209716796875, -0.021972656250, 1.063476562500, -4.750000000000, -1.296875000000, -3.492187500000, 1492760109
-0.209716796875, -0.021972656250, 1.063476562500, -4.750000000000, -1.296875000000, -3.492187500000, 1492760109
-0.209716796875, -0.021972656250, 1.063476562500, -4.750000000000, -1.296875000000, -3.492187500000, 1492760109
-0.212158203125, -0.082519531250, 1.023681640625, -1.726562500000, 0.531250000000, -4.734375000000, 1492760109
-0.212158203125, -0.082519531250, 1.023681640625, -1.726562500000, 0.531250000000, -4.734375000000, 1492760109
-0.212158203125, -0.082519531250, 1.023681640625, -1.726562500000, 0.531250000000, -4.734375000000, 1492760109
-0.213623046875, 0.056884765625, 0.916992187500, -4.890625000000, -0.476562500000, -3.218750000000, 1492760110
-0.213623046875, 0.056884765625, 0.916992187500, -4.890625000000, -0.476562500000, -3.218750000000, 1492760110
-0.213623046875, 0.056884765625, 0.916992187500, -4.890625000000, -0.476562500000, -3.218750000000, 1492760110
-0.189453125000, 0.080078125000, 0.970458984375, -1.625000000000, -2.320312500000, -3.460937500000, 1492760110
-0.189453125000, 0.080078125000, 0.970458984375, -1.625000000000, -2.320312500000, -3.460937500000, 1492760110
-0.189453125000, 0.080078125000, 0.970458984375, -1.625000000000, -2.320312500000, -3.460937500000, 1492760110
-0.189453125000, 0.080078125000, 0.970458984375, -1.625000000000, -2.320312500000, -3.460937500000, 1492760110
-0.194335937500, -0.001708984375, 1.065429687500, -3.109375000000, 0.085937500000, -4.304687500000, 1492760110
-0.194335937500, -0.001708984375, 1.065429687500, -3.109375000000, 0.085937500000, -4.304687500000, 1492760110
-0.194335937500, -0.001708984375, 1.065429687500, -3.109375000000, 0.085937500000, -4.304687500000, 1492760110
-0.204345703125, -0.001464843750, 1.011718750000, -4.515625000000, -2.460937500000, -1.562500000000, 1492760110
-0.204345703125, -0.001464843750, 1.011718750000, -4.515625000000, -2.460937500000, -1.562500000000, 1492760110
-0.204345703125, -0.001464843750, 1.011718750000, -4.515625000000, -2.460937500000, -1.562500000000, 1492760110
-0.195800781250, -0.006835937500, 0.926269531250, -4.867187500000, 0.906250000000, -3.156250000000, 1492760110
-0.195800781250, -0.006835937500, 0.926269531250, -4.867187500000, 0.906250000000, -3.156250000000, 1492760110
-0.195800781250, -0.006835937500, 0.926269531250, -4.867187500000, 0.906250000000, -3.156250000000, 1492760110
-0.197753906250, 0.042724609375, 1.037841796875, -4.570312500000, 0.484375000000, -7.000000000000, 1492760110
-0.197753906250, 0.042724609375, 1.037841796875, -4.570312500000, 0.484375000000, -7.000000000000, 1492760110
-0.197753906250, 0.042724609375, 1.037841796875, -4.570312500000, 0.484375000000, -7.000000000000, 1492760110
-0.197753906250, 0.042724609375, 1.037841796875, -4.570312500000, 0.484375000000, -7.000000000000, 1492760110
-0.144531250000, 0.026367187500, 1.051513671875, -1.960937500000, -0.890625000000, -3.593750000000, 1492760110
-0.144531250000, 0.026367187500, 1.051513671875, -1.960937500000, -0.890625000000, -3.593750000000, 1492760110
-0.144531250000, 0.026367187500, 1.051513671875, -1.960937500000, -0.890625000000, -3.593750000000, 1492760110
-0.130371093750, -0.008544921875, 1.066406250000, -4.375000000000, 0.789062500000, -4.031250000000, 1492760110
-0.130371093750, -0.008544921875, 1.066406250000, -4.375000000000, 0.789062500000, -4.031250000000, 1492760110
-0.130371093750, -0.008544921875, 1.066406250000, -4.375000000000, 0.789062500000, -4.031250000000, 1492760110
-0.066406250000, 0.089599609375, 0.931640625000, -6.031250000000, -0.242187500000, -6.085937500000, 1492760110
-0.066406250000, 0.089599609375, 0.931640625000, -6.031250000000, -0.242187500000, -6.085937500000, 1492760110
-0.066406250000, 0.089599609375, 0.931640625000, -6.031250000000, -0.242187500000, -6.085937500000, 1492760110
-0.216552734375, 0.055908203125, 1.071777343750, -4.820312500000, 0.171875000000, -3.156250000000, 1492760110
-0.216552734375, 0.055908203125, 1.071777343750, -4.820312500000, 0.171875000000, -3.156250000000, 1492760110
-0.216552734375, 0.055908203125, 1.071777343750, -4.820312500000, 0.171875000000, -3.156250000000, 1492760110
-0.216552734375, 0.055908203125, 1.071777343750, -4.820312500000, 0.171875000000, -3.156250000000, 1492760110
-0.208007812500, -0.027099609375, 1.067871093750, -6.585937500000, 0.648437500000, -4.710937500000, 1492760110
-0.208007812500, -0.027099609375, 1.067871093750, -6.585937500000, 0.648437500000, -4.710937500000, 1492760110
-0.208007812500, -0.027099609375, 1.067871093750, -6.585937500000, 0.648437500000, -4.710937500000, 1492760110
-0.193603515625, 0.084716796875, 1.063964843750, -3.960937500000, -2.101562500000, -1.515625000000, 1492760110
-0.193603515625, 0.084716796875, 1.063964843750, -3.960937500000, -2.101562500000, -1.515625000000, 1492760110
-0.193603515625, 0.084716796875, 1.063964843750, -3.960937500000, -2.101562500000, -1.515625000000, 1492760110
-0.198730468750, 0.126708984375, 0.993652343750, -2.296875000000, 0.765625000000, -4.492187500000, 1492760110
-0.198730468750, 0.126708984375, 0.993652343750, -2.296875000000, 0.765625000000, -4.492187500000, 1492760110
-0.198730468750, 0.126708984375, 0.993652343750, -2.296875000000, 0.765625000000, -4.492187500000, 1492760110
-0.095947265625, -0.085937500000, 1.074951171875, -3.750000000000, -1.523437500000, -3.773437500000, 1492760110
-0.095947265625, -0.085937500000, 1.074951171875, -3.750000000000, -1.523437500000, -3.773437500000, 1492760110
-0.095947265625, -0.085937500000, 1.074951171875, -3.750000000000, -1.523437500000, -3.773437500000, 1492760110
-0.095947265625, -0.085937500000, 1.074951171875, -3.750000000000, -1.523437500000, -3.773437500000, 1492760110
-0.213867187500, -0.002197265625, 0.981689453125, -3.179687500000, 2.289062500000, -3.531250000000, 1492760110
-0.213867187500, -0.002197265625, 0.981689453125, -3.179687500000, 2.289062500000, -3.531250000000, 1492760110
-0.213867187500, -0.002197265625, 0.981689453125, -3.179687500000, 2.289062500000, -3.531250000000, 1492760110
-0.203369140625, 0.083740234375, 1.012939453125, -3.007812500000, -0.226562500000, -3.710937500000, 1492760110
-0.203369140625, 0.083740234375, 1.012939453125, -3.007812500000, -0.226562500000, -3.710937500000, 1492760110
-0.203369140625, 0.083740234375, 1.012939453125, -3.007812500000, -0.226562500000, -3.710937500000, 1492760110
-0.197265625000, 0.125732421875, 1.023437500000, -3.257812500000, -0.757812500000, -1.234375000000, 1492760110
-0.197265625000, 0.125732421875, 1.023437500000, -3.257812500000, -0.757812500000, -1.234375000000, 1492760110
-0.197265625000, 0.125732421875, 1.023437500000, -3.257812500000, -0.757812500000, -1.234375000000, 1492760110
-0.044677734375, 0.013427734375, 0.971435546875, -4.796875000000, 0.773437500000, -1.468750000000, 1492760110
-0.044677734375, 0.013427734375, 0.971435546875, -4.796875000000, 0.773437500000, -1.468750000000, 1492760110
-0.044677734375, 0.013427734375, 0.971435546875, -4.796875000000, 0.773437500000, -1.468750000000, 1492760110
-0.044677734375, 0.013427734375, 0.971435546875, -4.796875000000, 0.773437500000, -1.468750000000, 1492760110
-0.208496093750, 0.088134765625, 0.972900390625, -1.507812500000, -0.382812500000, -3.500000000000, 1492760110
-0.208496093750, 0.088134765625, 0.972900390625, -1.507812500000, -0.382812500000, -3.500000000000, 1492760110
-0.208496093750, 0.088134765625, 0.972900390625, -1.507812500000, -0.382812500000, -3.500000000000, 1492760110
-0.188964843750, 0.063720703125, 1.031738281250, -3.171875000000, 0.742187500000, -6.906250000000, 1492760110
-0.188964843750, 0.063720703125, 1.031738281250, -3.171875000000, 0.742187500000, -6.906250000000, 1492760110
-0.188964843750, 0.063720703125, 1.031738281250, -3.171875000000, 0.742187500000, -6.906250000000, 1492760110
-0.207519531250, 0.063964843750, 0.979003906250, -3.242187500000, 0.632812500000, -4.101562500000, 1492760110
-0.207519531250, 0.063964843750, 0.979003906250, -3.242187500000, 0.632812500000, -4.101562500000, 1492760111
-0.207519531250, 0.063964843750, 0.979003906250, -3.242187500000, 0.632812500000, -4.101562500000, 1492760111
-0.103759765625, 0.084960937500, 0.920410156250, -3.320312500000, 2.210937500000, -4.476562500000, 1492760111
-0.103759765625, 0.084960937500, 0.920410156250, -3.320312500000, 2.210937500000, -4.476562500000, 1492760111
-0.103759765625, 0.084960937500, 0.920410156250, -3.320312500000, 2.210937500000, -4.476562500000, 1492760111
-0.202880859375, -0.009521484375, 0.984375000000, -3.015625000000, -0.523437500000, -4.312500000000, 1492760111
-0.178710937500, 0.018310546875, 0.989746093750, -3.242187500000, 0.460937500000, -3.226562500000, 1492760111
-0.178710937500, 0.018310546875, 0.989746093750, -3.242187500000, 0.460937500000, -3.226562500000, 1492760111
-0.178710937500, 0.018310546875, 0.989746093750, -3.242187500000, 0.460937500000, -3.226562500000, 1492760111
-0.183837890625, -0.013671875000, 0.921142578125, -4.554687500000, -0.351562500000, -4.609375000000, 1492760111
-0.183837890625, -0.013671875000, 0.921142578125, -4.554687500000, -0.351562500000, -4.609375000000, 1492760111
-0.183837890625, -0.013671875000, 0.921142578125, -4.554687500000, -0.351562500000, -4.609375000000, 1492760111
-0.138183593750, 0.055908203125, 0.914306640625, -4.156250000000, -2.296875000000, -4.742187500000, 1492760111
-0.138183593750, 0.055908203125, 0.914306640625, -4.156250000000, -2.296875000000, -4.742187500000, 1492760111
-0.138183593750, 0.055908203125, 0.914306640625, -4.156250000000, -2.296875000000, -4.742187500000, 1492760111
-0.205810546875, 0.085449218750, 0.976562500000, -6.273437500000, 0.421875000000, -6.250000000000, 1492760111
-0.143310546875, -0.022216796875, 1.089599609375, -4.796875000000, 0.664062500000, -1.859375000000, 1492760111
-0.143310546875, -0.022216796875, 1.089599609375, -4.796875000000, 0.664062500000, -1.859375000000, 1492760111
-0.143310546875, -0.022216796875, 1.089599609375, -4.796875000000, 0.664062500000, -1.859375000000, 1492760111
-0.143310546875, -0.022216796875, 1.089599609375, -4.796875000000, 0.664062500000, -1.859375000000, 1492760111
-0.143310546875, -0.022216796875, 1.089599609375, -4.796875000000, 0.664062500000, -1.859375000000, 1492760111
-0.143310546875, -0.022216796875, 1.089599609375, -4.796875000000, 0.664062500000, -1.859375000000, 1492760111
-0.143310546875, -0.022216796875, 1.089599609375, -4.796875000000, 0.664062500000, -1.859375000000, 1492760111
-0.143310546875, -0.022216796875, 1.089599609375, -4.796875000000, 0.664062500000, -1.859375000000, 1492760111
-0.143310546875, -0.022216796875, 1.089599609375, -4.796875000000, 0.664062500000, -1.859375000000, 1492760111
-0.214111328125, -0.021728515625, 1.093017578125, -3.218750000000, -0.273437500000, -4.906250000000, 1492760111
-0.214111328125, -0.021728515625, 1.093017578125, -3.218750000000, -0.273437500000, -4.906250000000, 1492760111
-0.214111328125, -0.021728515625, 1.093017578125, -3.218750000000, -0.273437500000, -4.906250000000, 1492760111
-0.214111328125, -0.021728515625, 1.093017578125, -3.218750000000, -0.273437500000, -4.906250000000, 1492760111
-0.214111328125, -0.021728515625, 1.093017578125, -3.218750000000, -0.273437500000, -4.906250000000, 1492760111
-0.169189453125, 0.065185546875, 1.025146484375, -4.617187500000, 0.390625000000, -3.328125000000, 1492760111
-0.169189453125, 0.065185546875, 1.025146484375, -4.617187500000, 0.390625000000, -3.328125000000, 1492760111
-0.169189453125, 0.065185546875, 1.025146484375, -4.617187500000, 0.390625000000, -3.328125000000, 1492760111
-0.169189453125, 0.065185546875, 1.025146484375, -4.617187500000, 0.390625000000, -3.328125000000, 1492760111
-0.169189453125, 0.065185546875, 1.025146484375, -4.617187500000, 0.390625000000, -3.328125000000, 1492760111
-0.184082031250, 0.044189453125, 1.030273437500, -3.101562500000, -2.210937500000, -6.140625000000, 1492760111
-0.184082031250, 0.044189453125, 1.030273437500, -3.101562500000, -2.210937500000, -6.140625000000, 1492760111
-0.184082031250, 0.044189453125, 1.030273437500, -3.101562500000, -2.210937500000, -6.140625000000, 1492760111
-0.161865234375, 0.071533203125, 1.030029296875, -3.062500000000, -0.039062500000, -4.218750000000, 1492760111
-0.161865234375, 0.071533203125, 1.030029296875, -3.062500000000, -0.039062500000, -4.218750000000, 1492760111
-0.161865234375, 0.071533203125, 1.030029296875, -3.062500000000, -0.039062500000, -4.218750000000, 1492760111
-0.138671875000, 0.003662109375, 1.081542968750, -3.687500000000, -0.617187500000, -5.023437500000, 1492760111
-0.053955078125, 0.003906250000, 1.069824218750, -3.562500000000, -0.351562500000, -3.023437500000, 1492760111
-0.053955078125, 0.003906250000, 1.069824218750, -3.562500000000, -0.351562500000, -3.023437500000, 1492760111
-0.053955078125, 0.003906250000, 1.069824218750, -3.562500000000, -0.351562500000, -3.023437500000, 1492760111
-0.157958984375, -0.017822265625, 1.016845703125, -6.250000000000, 2.484375000000, -4.476562500000, 1492760111
-0.158935546875, 0.072998046875, 1.049072265625, -6.851562500000, 2.093750000000, -6.273437500000, 1492760111
-0.158935546875, 0.072998046875, 1.049072265625, -6.851562500000, 2.093750000000, -6.273437500000, 1492760111
-0.158935546875, 0.072998046875, 1.049072265625, -6.851562500000, 2.093750000000, -6.273437500000, 1492760111
-0.158935546875, 0.072998046875, 1.049072265625, -6.851562500000, 2.093750000000, -6.273437500000, 1492760111
-0.158935546875, 0.072998046875, 1.049072265625, -6.851562500000, 2.093750000000, -6.273437500000, 1492760111
-0.135253906250, 0.136718750000, 1.018310546875, -3.015625000000, -0.351562500000, -3.007812500000, 1492760111
-0.135253906250, 0.136718750000, 1.018310546875, -3.015625000000, -0.351562500000, -3.007812500000, 1492760111
-0.135253906250, 0.136718750000, 1.018310546875, -3.015625000000, -0.351562500000, -3.007812500000, 1492760111
-0.260253906250, 0.039062500000, 0.966308593750, -3.585937500000, 0.804687500000, -3.898437500000, 1492760111
-0.260253906250, 0.039062500000, 0.966308593750, -3.585937500000, 0.804687500000, -3.898437500000, 1492760111
-0.260253906250, 0.039062500000, 0.966308593750, -3.585937500000, 0.804687500000, -3.898437500000, 1492760111
-0.260253906250, 0.039062500000, 0.966308593750, -3.585937500000, 0.804687500000, -3.898437500000, 1492760111
-0.183349609375, 0.065185546875, 0.925781250000, -4.851562500000, 2.367187500000, -4.859375000000, 1492760111
-0.183349609375, 0.065185546875, 0.925781250000, -4.851562500000, 2.367187500000, -4.859375000000, 1492760111
-0.183349609375, 0.065185546875, 0.925781250000, -4.851562500000, 2.367187500000, -4.859375000000, 1492760111
-0.164062500000, 0.020263671875, 1.007568359375, -6.320312500000, 2.023437500000, -3.179687500000, 1492760111
-0.164062500000, 0.020263671875, 1.007568359375, -6.320312500000, 2.023437500000, -3.179687500000, 1492760111
-0.164062500000, 0.020263671875, 1.007568359375, -6.320312500000, 2.023437500000, -3.179687500000, 1492760111
-0.117919921875, -0.009521484375, 1.076171875000, -6.976562500000, -0.828125000000, -6.203125000000, 1492760111
-0.117919921875, -0.009521484375, 1.076171875000, -6.976562500000, -0.828125000000, -6.203125000000, 1492760111
-0.117919921875, -0.009521484375, 1.076171875000, -6.976562500000, -0.828125000000, -6.203125000000, 1492760111
-0.115478515625, 0.012939453125, 1.013916015625, -3.304687500000, -0.460937500000, -4.679687500000, 1492760112
-0.115478515625, 0.012939453125, 1.013916015625, -3.304687500000, -0.460937500000, -4.679687500000, 1492760112
-0.115478515625, 0.012939453125, 1.013916015625, -3.304687500000, -0.460937500000, -4.679687500000, 1492760112
-0.115478515625, 0.012939453125, 1.013916015625, -3.304687500000, -0.460937500000, -4.679687500000, 1492760112
-0.193847656250, 0.043945312500, 0.980712890625, -6.195312500000, -0.359375000000, -4.781250000000, 1492760112
-0.193847656250, 0.043945312500, 0.980712890625, -6.195312500000, -0.359375000000, -4.781250000000, 1492760112
-0.193847656250, 0.043945312500, 0.980712890625, -6.195312500000, -0.359375000000, -4.781250000000, 1492760112
-0.111083984375, 0.040283203125, 1.023925781250, -6.523437500000, 2.179687500000, -4.687500000000, 1492760112
-0.111083984375, 0.040283203125, 1.023925781250, -6.523437500000, 2.179687500000, -4.687500000000, 1492760112
-0.111083984375, 0.040283203125, 1.023925781250, -6.523437500000, 2.179687500000, -4.687500000000, 1492760112
-0.156005859375, -0.003662109375, 1.041259765625, -5.460937500000, 2.031250000000, -6.101562500000, 1492760112
-0.187988281250, 0.039062500000, 0.983398437500, -4.226562500000, -0.906250000000, -4.421875000000, 1492760112
-0.187988281250, 0.039062500000, 0.983398437500, -4.226562500000, -0.906250000000, -4.421875000000, 1492760112
-0.187988281250, 0.039062500000, 0.983398437500, -4.226562500000, -0.906250000000, -4.421875000000, 1492760112
-0.187988281250, 0.039062500000, 0.983398437500, -4.226562500000, -0.906250000000, -4.421875000000, 1492760112
-0.142578125000, -0.020263671875, 0.988525390625, -4.664062500000, -0.953125000000, -3.726562500000, 1492760112
-0.142578125000, -0.020263671875, 0.988525390625, -4.664062500000, -0.953125000000, -3.726562500000, 1492760112
-0.142578125000, -0.020263671875, 0.988525390625, -4.664062500000, -0.953125000000, -3.726562500000, 1492760112
-0.142578125000, -0.020263671875, 0.988525390625, -4.664062500000, -0.953125000000, -3.726562500000, 1492760112
-0.142578125000, -0.020263671875, 0.988525390625, -4.664062500000, -0.953125000000, -3.726562500000, 1492760112
-0.187744140625, -0.065917968750, 1.136474609375, -3.796875000000, -0.429687500000, -3.656250000000, 1492760112
-0.187744140625, -0.065917968750, 1.136474609375, -3.796875000000, -0.429687500000, -3.656250000000, 1492760112
-0.187744140625, -0.065917968750, 1.136474609375, -3.796875000000, -0.429687500000, -3.656250000000, 1492760112
-0.185058593750, -0.013916015625, 1.031494140625, -3.296875000000, -0.078125000000, -4.914062500000, 1492760112
-0.185058593750, -0.013916015625, 1.031494140625, -3.296875000000, -0.078125000000, -4.914062500000, 1492760112
-0.185058593750, -0.013916015625, 1.031494140625, -3.296875000000, -0.078125000000, -4.914062500000, 1492760112
-0.161621093750, -0.029052734375, 1.131835937500, -3.101562500000, 0.695312500000, -4.109375000000, 1492760112
-0.161621093750, -0.029052734375, 1.131835937500, -3.101562500000, 0.695312500000, -4.109375000000, 1492760112
-0.161621093750, -0.029052734375, 1.131835937500, -3.101562500000, 0.695312500000, -4.109375000000, 1492760112
-0.161621093750, -0.029052734375, 1.131835937500, -3.101562500000, 0.695312500000, -4.109375000000, 1492760112
-0.177734375000, 0.138671875000, 0.989990234375, -4.656250000000, -0.734375000000, -6.078125000000, 1492760112
-0.177734375000, 0.138671875000, 0.989990234375, -4.656250000000, -0.734375000000, -6.078125000000, 1492760112
-0.177734375000, 0.138671875000, 0.989990234375, -4.656250000000, -0.734375000000, -6.078125000000, 1492760112
-0.177734375000, 0.138671875000, 0.989990234375, -4.656250000000, -0.734375000000, -6.078125000000, 1492760112
-0.123535156250, -0.029541015625, 0.987304687500, -1.656250000000, -2.210937500000, -3.476562500000, 1492760112
-0.123535156250, -0.029541015625, 0.987304687500, -1.656250000000, -2.210937500000, -3.476562500000, 1492760112
-0.123535156250, -0.029541015625, 0.987304687500, -1.656250000000, -2.210937500000, -3.476562500000, 1492760112
-0.123535156250, -0.029541015625, 0.987304687500, -1.656250000000, -2.210937500000, -3.476562500000, 1492760112
-0.271728515625, 0.045654296875, 0.994140625000, -1.265625000000, -2.890625000000, -4.976562500000, 1492760112
-0.175048828125, -0.011230468750, 1.050048828125, -4.562500000000, 0.875000000000, -6.328125000000, 1492760112
-0.175048828125, -0.011230468750, 1.050048828125, -4.562500000000, 0.875000000000, -6.328125000000, 1492760112
-0.175048828125, -0.011230468750, 1.050048828125, -4.562500000000, 0.875000000000, -6.328125000000, 1492760112
-0.175048828125, -0.011230468750, 1.050048828125, -4.562500000000, 0.875000000000, -6.328125000000, 1492760112
-0.188720703125, 0.040527343750, 1.022949218750, -4.601562500000, -0.343750000000, -1.109375000000, 1492760112
-0.188720703125, 0.040527343750, 1.022949218750, -4.601562500000, -0.343750000000, -1.109375000000, 1492760112
-0.188720703125, 0.040527343750, 1.022949218750, -4.601562500000, -0.343750000000, -1.109375000000, 1492760112
-0.116210937500, 0.050048828125, 1.031005859375, -4.578125000000, 0.171875000000, -6.101562500000, 1492760112
-0.116210937500, 0.050048828125, 1.031005859375, -4.578125000000, 0.171875000000, -6.101562500000, 1492760112
-0.116210937500, 0.050048828125, 1.031005859375, -4.578125000000, 0.171875000000, -6.101562500000, 1492760112
-0.156982421875, 0.073974609375, 1.010986328125, -1.679687500000, 0.234375000000, -4.890625000000, 1492760112
-0.156982421875, 0.073974609375, 1.010986328125, -1.679687500000, 0.234375000000, -4.890625000000, 1492760112
-0.156982421875, 0.073974609375, 1.010986328125, -1.679687500000, 0.234375000000, -4.890625000000, 1492760112
-0.132812500000, 0.111572265625, 0.935546875000, -1.960937500000, 0.859375000000, -4.140625000000, 1492760112
-0.132812500000, 0.111572265625, 0.935546875000, -1.960937500000, 0.859375000000, -4.140625000000, 1492760112
-0.132812500000, 0.111572265625, 0.935546875000, -1.960937500000, 0.859375000000, -4.140625000000, 1492760112
-0.132812500000, 0.111572265625, 0.935546875000, -1.960937500000, 0.859375000000, -4.140625000000, 1492760112
-0.205810546875, -0.080322265625, 0.981445312500, -4.015625000000, -2.828125000000, -6.445312500000, 1492760112
-0.205810546875, -0.080322265625, 0.981445312500, -4.015625000000, -2.828125000000, -6.445312500000, 1492760112
-0.205810546875, -0.080322265625, 0.981445312500, -4.015625000000, -2.828125000000, -6.445312500000, 1492760112
-0.183593750000, 0.019775390625, 0.969726562500, -4.992187500000, 0.992187500000, -4.210937500000, 1492760112
-0.183593750000, 0.019775390625, 0.969726562500, -4.992187500000, 0.992187500000, -4.210937500000, 1492760112
-0.183593750000, 0.019775390625, 0.969726562500, -4.992187500000, 0.992187500000, -4.210937500000, 1492760112
-0.144042968750, 0.069091796875, 0.976074218750, -3.835937500000, -0.640625000000, -3.531250000000, 1492760112
-0.144042968750, 0.069091796875, 0.976074218750, -3.835937500000, -0.640625000000, -3.531250000000, 1492760112
-0.144042968750, 0.069091796875, 0.976074218750, -3.835937500000, -0.640625000000, -3.531250000000, 1492760112
-0.120605468750, 0.146972656250, 1.013183593750, -4.734375000000, -0.562500000000, -1.898437500000, 1492760113
-0.120605468750, 0.146972656250, 1.013183593750, -4.734375000000, -0.562500000000, -1.898437500000, 1492760113
-0.120605468750, 0.146972656250, 1.013183593750, -4.734375000000, -0.562500000000, -1.898437500000, 1492760113
-0.120605468750, 0.146972656250, 1.013183593750, -4.734375000000, -0.562500000000, -1.898437500000, 1492760113
-0.105957031250, -0.016845703125, 0.977050781250, -4.929687500000, -0.648437500000, -4.812500000000, 1492760113
-0.105957031250, -0.016845703125, 0.977050781250, -4.929687500000, -0.648437500000, -4.812500000000, 1492760113
-0.105957031250, -0.016845703125, 0.977050781250, -4.929687500000, -0.648437500000, -4.812500000000, 1492760113
-0.117187500000, 0.081054687500, 1.038330078125, -4.960937500000, -2.218750000000, -4.015625000000, 1492760113
-0.117187500000, 0.081054687500, 1.038330078125, -4.960937500000, -2.218750000000, -4.015625000000, 1492760113
-0.117187500000, 0.081054687500, 1.038330078125, -4.960937500000, -2.218750000000, -4.015625000000, 1492760113
-0.207519531250, 0.086181640625, 0.975097656250, -1.375000000000, 2.695312500000, -5.421875000000, 1492760113
-0.207519531250, 0.086181640625, 0.975097656250, -1.375000000000, 2.695312500000, -5.421875000000, 1492760113
-0.207519531250, 0.086181640625, 0.975097656250, -1.375000000000, 2.695312500000, -5.421875000000, 1492760113
-0.114257812500, -0.023193359375, 1.085693359375, -3.226562500000, 0.078125000000, -1.734375000000, 1492760113
-0.114257812500, -0.023193359375, 1.085693359375, -3.226562500000, 0.078125000000, -1.734375000000, 1492760113
-0.114257812500, -0.023193359375, 1.085693359375, -3.226562500000, 0.078125000000, -1.734375000000, 1492760113
-0.114257812500, -0.023193359375, 1.085693359375, -3.226562500000, 0.078125000000, -1.734375000000, 1492760113
-0.251953125000, 0.134521484375, 0.978027343750, -4.750000000000, 0.921875000000, -4.312500000000, 1492760113
-0.251953125000, 0.134521484375, 0.978027343750, -4.750000000000, 0.921875000000, -4.312500000000, 1492760113
-0.251953125000, 0.134521484375, 0.978027343750, -4.750000000000, 0.921875000000, -4.312500000000, 1492760113
-0.273925781250, 0.076660156250, 1.024658203125, -4.523437500000, -0.945312500000, -1.414062500000, 1492760113
-0.273925781250, 0.076660156250, 1.024658203125, -4.523437500000, -0.945312500000, -1.414062500000, 1492760113
-0.273925781250, 0.076660156250, 1.024658203125, -4.523437500000, -0.945312500000, -1.414062500000, 1492760113
