ACC_X,ACC_Y,ACC_Z,G_X,G_Y,G_Z,Unix Time
-0.008789062500, -0.587646484375, -0.029296875000, 21.210937500000, 7.820312500000, -3.218750000000, 1492762615
-0.008789062500, -0.587646484375, -0.029296875000, 21.210937500000, 7.820312500000, -3.218750000000, 1492762615
-0.008789062500, -0.587646484375, -0.029296875000, 21.210937500000, 7.820312500000, -3.218750000000, 1492762615
0.124755859375, -0.721435546875, -0.047851562500, -74.398437500000, 40.085937500000, 4.218750000000, 1492762615
0.124755859375, -0.721435546875, -0.047851562500, -74.398437500000, 40.085937500000, 4.218750000000, 1492762615
0.124755859375, -0.721435546875, -0.047851562500, -74.398437500000, 40.085937500000, 4.218750000000, 1492762615
0.062011718750, -1.220458984375, 0.096923828125, -5.765625000000, 75.218750000000, 16.914062500000, 1492762615
0.062011718750, -1.220458984375, 0.096923828125, -5.765625000000, 75.218750000000, 16.914062500000, 1492762615
0.138427734375, -1.188720703125, 0.096191406250, 9.109375000000, 64.695312500000, 13.382812500000, 1492762615
-0.021240234375, -0.999755859375, 0.062744140625, 15.640625000000, 75.617187500000, 8.632812500000, 1492762615
-0.021240234375, -0.999755859375, 0.062744140625, 15.640625000000, 75.617187500000, 8.632812500000, 1492762615
-0.021240234375, -0.999755859375, 0.062744140625, 15.640625000000, 75.617187500000, 8.632812500000, 1492762615
-0.021240234375, -0.999755859375, 0.062744140625, 15.640625000000, 75.617187500000, 8.632812500000, 1492762615
-0.146484375000, -0.895019531250, 0.147460937500, 54.789062500000, 52.976562500000, -5.546875000000, 1492762615
-0.146484375000, -0.895019531250, 0.147460937500, 54.789062500000, 52.976562500000, -5.546875000000, 1492762615
-0.146484375000, -0.895019531250, 0.147460937500, 54.789062500000, 52.976562500000, -5.546875000000, 1492762615
-0.036376953125, -0.735351562500, 0.097900390625, 2.898437500000, 50.820312500000, -20.273437500000, 1492762615
-0.036376953125, -0.735351562500, 0.097900390625, 2.898437500000, 50.820312500000, -20.273437500000, 1492762615
-0.036376953125, -0.735351562500, 0.097900390625, 2.898437500000, 50.820312500000, -20.273437500000, 1492762615
0.028320312500, -0.894775390625, 0.056396484375, -17.406250000000, 14.078125000000, -7.750000000000, 1492762615
0.028320312500, -0.894775390625, 0.056396484375, -17.406250000000, 14.078125000000, -7.750000000000, 1492762615
0.028320312500, -0.894775390625, 0.056396484375, -17.406250000000, 14.078125000000, -7.750000000000, 1492762615
0.028320312500, -0.894775390625, 0.056396484375, -17.406250000000, 14.078125000000, -7.750000000000, 1492762615
0.076660156250, -0.908691406250, 0.207763671875, -17.765625000000, 22.398437500000, -10.117187500000, 1492762615
0.076660156250, -0.908691406250, 0.207763671875, -17.765625000000, 22.398437500000, -10.117187500000, 1492762615
0.076660156250, -0.908691406250, 0.207763671875, -17.765625000000, 22.398437500000, -10.117187500000, 1492762615
0.019775390625, -0.960693359375, 0.099121093750, -7.437500000000, 12.867187500000, -8.960937500000, 1492762616
0.019775390625, -0.960693359375, 0.099121093750, -7.437500000000, 12.867187500000, -8.960937500000, 1492762616
0.019775390625, -0.960693359375, 0.099121093750, -7.437500000000, 12.867187500000, -8.960937500000, 1492762616
-0.041259765625, -0.907958984375, 0.202636718750, -12.570312500000, -20.796875000000, -7.648437500000, 1492762616
-0.041259765625, -0.907958984375, 0.202636718750, -12.570312500000, -20.796875000000, -7.648437500000, 1492762616
-0.041259765625, -0.907958984375, 0.202636718750, -12.570312500000, -20.796875000000, -7.648437500000, 1492762616
-0.036132812500, -0.917724609375, 0.187255859375, -27.414062500000, -27.835937500000, -16.773437500000, 1492762616
-0.036132812500, -0.917724609375, 0.187255859375, -27.414062500000, -27.835937500000, -16.773437500000, 1492762616
-0.036132812500, -0.917724609375, 0.187255859375, -27.414062500000, -27.835937500000, -16.773437500000, 1492762616
-0.036132812500, -0.917724609375, 0.187255859375, -27.414062500000, -27.835937500000, -16.773437500000, 1492762616
-0.092529296875, -1.179199218750, 0.399902343750, -78.109375000000, -32.703125000000, -25.320312500000, 1492762616
-0.092529296875, -1.179199218750, 0.399902343750, -78.109375000000, -32.703125000000, -25.320312500000, 1492762616
-0.092529296875, -1.179199218750, 0.399902343750, -78.109375000000, -32.703125000000, -25.320312500000, 1492762616
-0.060791015625, -0.999267578125, 0.114257812500, -25.085937500000, 28.250000000000, -19.007812500000, 1492762616
-0.060791015625, -0.999267578125, 0.114257812500, -25.085937500000, 28.250000000000, -19.007812500000, 1492762616
-0.060791015625, -0.999267578125, 0.114257812500, -25.085937500000, 28.250000000000, -19.007812500000, 1492762616
-0.129882812500, -0.764160156250, 0.009277343750, 46.023437500000, -6.656250000000, 4.132812500000, 1492762616
-0.129882812500, -0.764160156250, 0.009277343750, 46.023437500000, -6.656250000000, 4.132812500000, 1492762616
-0.129882812500, -0.764160156250, 0.009277343750, 46.023437500000, -6.656250000000, 4.132812500000, 1492762616
-0.039794921875, -0.605224609375, 0.107177734375, 12.117187500000, -26.078125000000, 0.320312500000, 1492762616
-0.039794921875, -0.605224609375, 0.107177734375, 12.117187500000, -26.078125000000, 0.320312500000, 1492762616
-0.039794921875, -0.605224609375, 0.107177734375, 12.117187500000, -26.078125000000, 0.320312500000, 1492762616
-0.039794921875, -0.605224609375, 0.107177734375, 12.117187500000, -26.078125000000, 0.320312500000, 1492762616
-0.189941406250, -0.711425781250, -0.008056640625, -46.593750000000, -0.929687500000, -26.921875000000, 1492762616
-0.189941406250, -0.711425781250, -0.008056640625, -46.593750000000, -0.929687500000, -26.921875000000, 1492762616
-0.189941406250, -0.711425781250, -0.008056640625, -46.593750000000, -0.929687500000, -26.921875000000, 1492762616
-0.338134765625, -0.967041015625, 0.000732421875, -34.617187500000, -23.085937500000, -22.718750000000, 1492762616
-0.338134765625, -0.967041015625, 0.000732421875, -34.617187500000, -23.085937500000, -22.718750000000, 1492762616
-0.338134765625, -0.967041015625, 0.000732421875, -34.617187500000, -23.085937500000, -22.718750000000, 1492762616
-0.227783203125, -1.147949218750, 0.158691406250, 42.750000000000, -100.289062500000, 9.695312500000, 1492762616
-0.227783203125, -1.147949218750, 0.158691406250, 42.750000000000, -100.289062500000, 9.695312500000, 1492762616
-0.227783203125, -1.147949218750, 0.158691406250, 42.750000000000, -100.289062500000, 9.695312500000, 1492762616
-0.032958984375, -0.845458984375, 0.216064453125, 41.453125000000, -59.679687500000, -1.851562500000, 1492762616
-0.032958984375, -0.845458984375, 0.216064453125, 41.453125000000, -59.679687500000, -1.851562500000, 1492762616
-0.032958984375, -0.845458984375, 0.216064453125, 41.453125000000, -59.679687500000, -1.851562500000, 1492762616
-0.032958984375, -0.845458984375, 0.216064453125, 41.453125000000, -59.679687500000, -1.851562500000, 1492762616
0.020751953125, -0.818847656250, 0.139160156250, 52.414062500000, -56.093750000000, 10.687500000000, 1492762616
0.020751953125, -0.818847656250, 0.139160156250, 52.414062500000, -56.093750000000, 10.687500000000, 1492762616
0.020751953125, -0.818847656250, 0.139160156250, 52.414062500000, -56.093750000000, 10.687500000000, 1492762616
-0.037353515625, -0.836181640625, 0.165283203125, -7.156250000000, -45.437500000000, 11.328125000000, 1492762616
-0.037353515625, -0.836181640625, 0.165283203125, -7.156250000000, -45.437500000000, 11.328125000000, 1492762616
-0.037353515625, -0.836181640625, 0.165283203125, -7.156250000000, -45.437500000000, 11.328125000000, 1492762616
-0.046875000000, -0.905517578125, 0.153076171875, -30.742187500000, -35.046875000000, 0.367187500000, 1492762616
-0.046875000000, -0.905517578125, 0.153076171875, -30.742187500000, -35.046875000000, 0.367187500000, 1492762616
-0.137451171875, -0.925781250000, 0.168212890625, 15.375000000000, -7.054687500000, 6.664062500000, 1492762616
-0.137451171875, -0.925781250000, 0.168212890625, 15.375000000000, -7.054687500000, 6.664062500000, 1492762616
-0.137451171875, -0.925781250000, 0.168212890625, 15.375000000000, -7.054687500000, 6.664062500000, 1492762616
-0.137451171875, -0.925781250000, 0.168212890625, 15.375000000000, -7.054687500000, 6.664062500000, 1492762616
-0.137451171875, -0.925781250000, 0.168212890625, 15.375000000000, -7.054687500000, 6.664062500000, 1492762616
-0.088623046875, -0.964111328125, 0.263183593750, -7.390625000000, 12.968750000000, 7.484375000000, 1492762616
-0.088623046875, -0.964111328125, 0.263183593750, -7.390625000000, 12.968750000000, 7.484375000000, 1492762616
-0.088623046875, -0.964111328125, 0.263183593750, -7.390625000000, 12.968750000000, 7.484375000000, 1492762616
-0.126464843750, -1.020263671875, 0.198730468750, -22.343750000000, 23.570312500000, 6.710937500000, 1492762616
-0.126464843750, -1.020263671875, 0.198730468750, -22.343750000000, 23.570312500000, 6.710937500000, 1492762616
-0.126464843750, -1.020263671875, 0.198730468750, -22.343750000000, 23.570312500000, 6.710937500000, 1492762616
-0.104492187500, -0.961914062500, 0.270019531250, -125.000000000000, -55.062500000000, 29.187500000000, 1492762616
-0.104492187500, -0.961914062500, 0.270019531250, -125.000000000000, -55.062500000000, 29.187500000000, 1492762616
-0.104492187500, -0.961914062500, 0.270019531250, -125.000000000000, -55.062500000000, 29.187500000000, 1492762616
-0.031005859375, -1.105957031250, 0.468261718750, -81.140625000000, 47.218750000000, 10.851562500000, 1492762616
-0.031005859375, -1.105957031250, 0.468261718750, -81.140625000000, 47.218750000000, 10.851562500000, 1492762616
-0.031005859375, -1.105957031250, 0.468261718750, -81.140625000000, 47.218750000000, 10.851562500000, 1492762616
-0.031005859375, -1.105957031250, 0.468261718750, -81.140625000000, 47.218750000000, 10.851562500000, 1492762616
0.078369140625, -0.789062500000, 0.088867187500, -17.890625000000, 23.765625000000, 20.289062500000, 1492762616
0.078369140625, -0.789062500000, 0.088867187500, -17.890625000000, 23.765625000000, 20.289062500000, 1492762616
0.078369140625, -0.789062500000, 0.088867187500, -17.890625000000, 23.765625000000, 20.289062500000, 1492762616
0.111083984375, -0.615966796875, 0.022460937500, 68.757812500000, 35.359375000000, -2.484375000000, 1492762616
0.111083984375, -0.615966796875, 0.022460937500, 68.757812500000, 35.359375000000, -2.484375000000, 1492762617
0.111083984375, -0.615966796875, 0.022460937500, 68.757812500000, 35.359375000000, -2.484375000000, 1492762617
0.100585937500, -0.635742187500, 0.043212890625, 17.921875000000, 6.812500000000, 11.476562500000, 1492762617
0.100585937500, -0.635742187500, 0.043212890625, 17.921875000000, 6.812500000000, 11.476562500000, 1492762617
0.100585937500, -0.635742187500, 0.043212890625, 17.921875000000, 6.812500000000, 11.476562500000, 1492762617
0.058837890625, -1.058837890625, 0.338378906250, -72.312500000000, 58.078125000000, 26.117187500000, 1492762617
0.058837890625, -1.058837890625, 0.338378906250, -72.312500000000, 58.078125000000, 26.117187500000, 1492762617
0.058837890625, -1.058837890625, 0.338378906250, -72.312500000000, 58.078125000000, 26.117187500000, 1492762617
0.058837890625, -1.058837890625, 0.338378906250, -72.312500000000, 58.078125000000, 26.117187500000, 1492762617
0.206298828125, -1.031494140625, 0.227050781250, -16.906250000000, 47.242187500000, 23.734375000000, 1492762617
0.206298828125, -1.031494140625, 0.227050781250, -16.906250000000, 47.242187500000, 23.734375000000, 1492762617
0.206298828125, -1.031494140625, 0.227050781250, -16.906250000000, 47.242187500000, 23.734375000000, 1492762617
0.090087890625, -0.942382812500, 0.143554687500, 47.531250000000, 32.546875000000, 20.015625000000, 1492762617
0.090087890625, -0.942382812500, 0.143554687500, 47.531250000000, 32.546875000000, 20.015625000000, 1492762617
0.090087890625, -0.942382812500, 0.143554687500, 47.531250000000, 32.546875000000, 20.015625000000, 1492762617
0.048339843750, -0.823974609375, 0.454833984375, 37.007812500000, 17.640625000000, -11.718750000000, 1492762617
0.048339843750, -0.823974609375, 0.454833984375, 37.007812500000, 17.640625000000, -11.718750000000, 1492762617
0.048339843750, -0.823974609375, 0.454833984375, 37.007812500000, 17.640625000000, -11.718750000000, 1492762617
0.032958984375, -0.699707031250, 0.097900390625, -33.273437500000, 66.171875000000, -3.390625000000, 1492762617
0.032958984375, -0.699707031250, 0.097900390625, -33.273437500000, 66.171875000000, -3.390625000000, 1492762617
0.032958984375, -0.699707031250, 0.097900390625, -33.273437500000, 66.171875000000, -3.390625000000, 1492762617
0.032958984375, -0.699707031250, 0.097900390625, -33.273437500000, 66.171875000000, -3.390625000000, 1492762617
0.082031250000, -0.801025390625, 0.269775390625, 5.539062500000, 3.140625000000, 6.359375000000, 1492762617
0.082031250000, -0.801025390625, 0.269775390625, 5.539062500000, 3.140625000000, 6.359375000000, 1492762617
0.082031250000, -0.801025390625, 0.269775390625, 5.539062500000, 3.140625000000, 6.359375000000, 1492762617
0.092041015625, -0.863281250000, 0.377441406250, 6.679687500000, -2.570312500000, -1.453125000000, 1492762617
0.072998046875, -0.900878906250, 0.256591796875, -0.757812500000, -20.226562500000, -7.953125000000, 1492762617
0.072998046875, -0.900878906250, 0.256591796875, -0.757812500000, -20.226562500000, -7.953125000000, 1492762617
0.072998046875, -0.900878906250, 0.256591796875, -0.757812500000, -20.226562500000, -7.953125000000, 1492762617
0.072998046875, -0.900878906250, 0.256591796875, -0.757812500000, -20.226562500000, -7.953125000000, 1492762617
-0.003173828125, -0.845947265625, 0.340087890625, -2.992187500000, -31.367187500000, -14.320312500000, 1492762617
0.070312500000, -0.891357421875, 0.236816406250, -18.046875000000, -25.953125000000, -22.242187500000, 1492762617
0.070312500000, -0.891357421875, 0.236816406250, -18.046875000000, -25.953125000000, -22.242187500000, 1492762617
0.070312500000, -0.891357421875, 0.236816406250, -18.046875000000, -25.953125000000, -22.242187500000, 1492762617
0.036376953125, -0.891845703125, 0.248779296875, -20.890625000000, -35.554687500000, -21.984375000000, 1492762617
0.136474609375, -0.886230468750, 0.295410156250, -13.148437500000, -40.085937500000, -22.773437500000, 1492762617
0.136474609375, -0.886230468750, 0.295410156250, -13.148437500000, -40.085937500000, -22.773437500000, 1492762617
0.136474609375, -0.886230468750, 0.295410156250, -13.148437500000, -40.085937500000, -22.773437500000, 1492762617
0.047119140625, -1.054443359375, 0.458251953125, -33.906250000000, -15.187500000000, -18.093750000000, 1492762617
0.047119140625, -1.054443359375, 0.458251953125, -33.906250000000, -15.187500000000, -18.093750000000, 1492762617
0.047119140625, -1.054443359375, 0.458251953125, -33.906250000000, -15.187500000000, -18.093750000000, 1492762617
0.120117187500, -1.183105468750, 0.479736328125, -68.726562500000, -27.414062500000, -8.195312500000, 1492762617
0.120117187500, -1.183105468750, 0.479736328125, -68.726562500000, -27.414062500000, -8.195312500000, 1492762617
0.120117187500, -1.183105468750, 0.479736328125, -68.726562500000, -27.414062500000, -8.195312500000, 1492762617
-0.015869140625, -0.955078125000, 0.188476562500, 37.250000000000, -12.679687500000, -11.125000000000, 1492762617
-0.015869140625, -0.955078125000, 0.188476562500, 37.250000000000, -12.679687500000, -11.125000000000, 1492762617
-0.015869140625, -0.955078125000, 0.188476562500, 37.250000000000, -12.679687500000, -11.125000000000, 1492762617
-0.015869140625, -0.955078125000, 0.188476562500, 37.250000000000, -12.679687500000, -11.125000000000, 1492762617
0.015625000000, -0.703857421875, 0.237792968750, 58.554687500000, -17.484375000000, -20.914062500000, 1492762617
0.015625000000, -0.703857421875, 0.237792968750, 58.554687500000, -17.484375000000, -20.914062500000, 1492762617
0.015625000000, -0.703857421875, 0.237792968750, 58.554687500000, -17.484375000000, -20.914062500000, 1492762617
-0.027099609375, -0.572509765625, 0.116210937500, -16.523437500000, -7.250000000000, -15.179687500000, 1492762617
-0.027099609375, -0.572509765625, 0.116210937500, -16.523437500000, -7.250000000000, -15.179687500000, 1492762617
-0.027099609375, -0.572509765625, 0.116210937500, -16.523437500000, -7.250000000000, -15.179687500000, 1492762617
-0.149658203125, -0.663085937500, -0.022949218750, -41.101562500000, -2.218750000000, -26.468750000000, 1492762617
-0.149658203125, -0.663085937500, -0.022949218750, -41.101562500000, -2.218750000000, -26.468750000000, 1492762617
-0.149658203125, -0.663085937500, -0.022949218750, -41.101562500000, -2.218750000000, -26.468750000000, 1492762617
-0.093261718750, -1.192382812500, 0.448242187500, -8.562500000000, -113.328125000000, -30.546875000000, 1492762617
-0.093261718750, -1.192382812500, 0.448242187500, -8.562500000000, -113.328125000000, -30.546875000000, 1492762617
-0.093261718750, -1.192382812500, 0.448242187500, -8.562500000000, -113.328125000000, -30.546875000000, 1492762617
-0.093261718750, -1.192382812500, 0.448242187500, -8.562500000000, -113.328125000000, -30.546875000000, 1492762617
-0.135742187500, -1.023437500000, 0.339355468750, 16.296875000000, -61.710937500000, -54.765625000000, 1492762617
-0.135742187500, -1.023437500000, 0.339355468750, 16.296875000000, -61.710937500000, -54.765625000000, 1492762617
-0.135742187500, -1.023437500000, 0.339355468750, 16.296875000000, -61.710937500000, -54.765625000000, 1492762617
-0.026367187500, -0.792480468750, 0.178222656250, 68.609375000000, 0.101562500000, -31.851562500000, 1492762617
-0.026367187500, -0.792480468750, 0.178222656250, 68.609375000000, 0.101562500000, -31.851562500000, 1492762617
-0.026367187500, -0.792480468750, 0.178222656250, 68.609375000000, 0.101562500000, -31.851562500000, 1492762617
-0.093750000000, -0.613769531250, 0.247558593750, 3.093750000000, 13.625000000000, 4.250000000000, 1492762618
-0.093750000000, -0.613769531250, 0.247558593750, 3.093750000000, 13.625000000000, 4.250000000000, 1492762618
-0.093750000000, -0.613769531250, 0.247558593750, 3.093750000000, 13.625000000000, 4.250000000000, 1492762618
-0.098876953125, -0.794677734375, 0.252441406250, -6.757812500000, 3.710937500000, -7.039062500000, 1492762618
-0.098876953125, -0.794677734375, 0.252441406250, -6.757812500000, 3.710937500000, -7.039062500000, 1492762618
-0.098876953125, -0.794677734375, 0.252441406250, -6.757812500000, 3.710937500000, -7.039062500000, 1492762618
-0.098876953125, -0.794677734375, 0.252441406250, -6.757812500000, 3.710937500000, -7.039062500000, 1492762618
-0.146240234375, -0.961669921875, 0.467285156250, 21.351562500000, -1.843750000000, -2.367187500000, 1492762618
-0.146240234375, -0.961669921875, 0.467285156250, 21.351562500000, -1.843750000000, -2.367187500000, 1492762618
-0.146240234375, -0.961669921875, 0.467285156250, 21.351562500000, -1.843750000000, -2.367187500000, 1492762618
-0.156005859375, -0.795166015625, 0.274414062500, 3.750000000000, 18.585937500000, 4.484375000000, 1492762618
-0.156005859375, -0.795166015625, 0.274414062500, 3.750000000000, 18.585937500000, 4.484375000000, 1492762618
-0.156005859375, -0.795166015625, 0.274414062500, 3.750000000000, 18.585937500000, 4.484375000000, 1492762618
-0.101806640625, -0.792480468750, 0.340087890625, -0.164062500000, 14.921875000000, 8.484375000000, 1492762618
-0.101806640625, -0.792480468750, 0.340087890625, -0.164062500000, 14.921875000000, 8.484375000000, 1492762618
-0.101806640625, -0.792480468750, 0.340087890625, -0.164062500000, 14.921875000000, 8.484375000000, 1492762618
-0.149414062500, -0.846679687500, 0.306640625000, -14.242187500000, -1.125000000000, 8.257812500000, 1492762618
-0.149414062500, -0.846679687500, 0.306640625000, -14.242187500000, -1.125000000000, 8.257812500000, 1492762618
-0.149414062500, -0.846679687500, 0.306640625000, -14.242187500000, -1.125000000000, 8.257812500000, 1492762618
-0.149414062500, -0.846679687500, 0.306640625000, -14.242187500000, -1.125000000000, 8.257812500000, 1492762618
-0.149169921875, -0.844970703125, 0.291015625000, -8.960937500000, -1.828125000000, 10.554687500000, 1492762618
-0.149169921875, -0.844970703125, 0.291015625000, -8.960937500000, -1.828125000000, 10.554687500000, 1492762618
-0.149169921875, -0.844970703125, 0.291015625000, -8.960937500000, -1.828125000000, 10.554687500000, 1492762618
-0.187988281250, -0.939208984375, 0.378906250000, -10.640625000000, 2.804687500000, 12.757812500000, 1492762618
-0.187988281250, -0.939208984375, 0.378906250000, -10.640625000000, 2.804687500000, 12.757812500000, 1492762618
-0.187988281250, -0.939208984375, 0.378906250000, -10.640625000000, 2.804687500000, 12.757812500000, 1492762618
-0.117919921875, -0.942138671875, 0.301269531250, -13.164062500000, 2.375000000000, 8.406250000000, 1492762618
-0.079833984375, -0.921630859375, 0.239257812500, -42.273437500000, 25.421875000000, 1.742187500000, 1492762618
-0.079833984375, -0.921630859375, 0.239257812500, -42.273437500000, 25.421875000000, 1.742187500000, 1492762618
-0.079833984375, -0.921630859375, 0.239257812500, -42.273437500000, 25.421875000000, 1.742187500000, 1492762618
-0.079833984375, -0.921630859375, 0.239257812500, -42.273437500000, 25.421875000000, 1.742187500000, 1492762618
-0.079833984375, -0.921630859375, 0.239257812500, -42.273437500000, 25.421875000000, 1.742187500000, 1492762618
0.019042968750, -0.678466796875, 0.072509765625, 51.156250000000, 30.062500000000, 11.570312500000, 1492762618
0.019042968750, -0.678466796875, 0.072509765625, 51.156250000000, 30.062500000000, 11.570312500000, 1492762618
0.019042968750, -0.678466796875, 0.072509765625, 51.156250000000, 30.062500000000, 11.570312500000, 1492762618
0.019042968750, -0.678466796875, 0.072509765625, 51.156250000000, 30.062500000000, 11.570312500000, 1492762618
0.065917968750, -0.611816406250, 0.223632812500, 58.242187500000, -10.125000000000, 1.898437500000, 1492762618
0.065917968750, -0.611816406250, 0.223632812500, 58.242187500000, -10.125000000000, 1.898437500000, 1492762618
0.065917968750, -0.611816406250, 0.223632812500, 58.242187500000, -10.125000000000, 1.898437500000, 1492762618
0.070800781250, -0.684082031250, 0.099609375000, -57.679687500000, 46.921875000000, 7.140625000000, 1492762618
0.070800781250, -0.684082031250, 0.099609375000, -57.679687500000, 46.921875000000, 7.140625000000, 1492762618
0.070800781250, -0.684082031250, 0.099609375000, -57.679687500000, 46.921875000000, 7.140625000000, 1492762618
0.127929687500, -0.987792968750, 0.201416015625, -17.515625000000, 83.203125000000, 27.796875000000, 1492762618
0.127929687500, -0.987792968750, 0.201416015625, -17.515625000000, 83.203125000000, 27.796875000000, 1492762618
0.127929687500, -0.987792968750, 0.201416015625, -17.515625000000, 83.203125000000, 27.796875000000, 1492762618
0.127929687500, -0.987792968750, 0.201416015625, -17.515625000000, 83.203125000000, 27.796875000000, 1492762618
0.109863281250, -1.073730468750, 0.334228515625, 39.531250000000, 76.109375000000, 46.265625000000, 1492762618
0.109863281250, -1.073730468750, 0.334228515625, 39.531250000000, 76.109375000000, 46.265625000000, 1492762618
0.109863281250, -1.073730468750, 0.334228515625, 39.531250000000, 76.109375000000, 46.265625000000, 1492762618
0.021240234375, -0.782714843750, 0.384521484375, 26.062500000000, 85.156250000000, 37.710937500000, 1492762618
0.021240234375, -0.782714843750, 0.384521484375, 26.062500000000, 85.156250000000, 37.710937500000, 1492762618
0.021240234375, -0.782714843750, 0.384521484375, 26.062500000000, 85.156250000000, 37.710937500000, 1492762618
-0.045410156250, -0.770507812500, 0.186035156250, 12.265625000000, 61.101562500000, 20.890625000000, 1492762618
-0.045410156250, -0.770507812500, 0.186035156250, 12.265625000000, 61.101562500000, 20.890625000000, 1492762618
-0.045410156250, -0.770507812500, 0.186035156250, 12.265625000000, 61.101562500000, 20.890625000000, 1492762618
0.064208984375, -0.790771484375, 0.180175781250, -5.453125000000, 18.992187500000, 9.835937500000, 1492762618
0.064208984375, -0.790771484375, 0.180175781250, -5.453125000000, 18.992187500000, 9.835937500000, 1492762618
0.064208984375, -0.790771484375, 0.180175781250, -5.453125000000, 18.992187500000, 9.835937500000, 1492762618
0.064208984375, -0.790771484375, 0.180175781250, -5.453125000000, 18.992187500000, 9.835937500000, 1492762618
-0.001708984375, -0.863281250000, 0.243408203125, -16.359375000000, -18.695312500000, 4.460937500000, 1492762618
-0.001708984375, -0.863281250000, 0.243408203125, -16.359375000000, -18.695312500000, 4.460937500000, 1492762618
-0.001708984375, -0.863281250000, 0.243408203125, -16.359375000000, -18.695312500000, 4.460937500000, 1492762618
0.018066406250, -0.878173828125, 0.263427734375, -16.367187500000, -29.468750000000, -5.125000000000, 1492762618
0.018066406250, -0.878173828125, 0.263427734375, -16.367187500000, -29.468750000000, -5.125000000000, 1492762618
0.018066406250, -0.878173828125, 0.263427734375, -16.367187500000, -29.468750000000, -5.125000000000, 1492762618
0.009033203125, -0.954101562500, 0.221679687500, -3.562500000000, -50.687500000000, -11.054687500000, 1492762618
0.009033203125, -0.954101562500, 0.221679687500, -3.562500000000, -50.687500000000, -11.054687500000, 1492762619
0.009033203125, -0.954101562500, 0.221679687500, -3.562500000000, -50.687500000000, -11.054687500000, 1492762619
0.132080078125, -0.946044921875, 0.331787109375, -29.406250000000, -59.101562500000, -26.343750000000, 1492762619
0.132080078125, -0.946044921875, 0.331787109375, -29.406250000000, -59.101562500000, -26.343750000000, 1492762619
0.132080078125, -0.946044921875, 0.331787109375, -29.406250000000, -59.101562500000, -26.343750000000, 1492762619
0.132080078125, -0.946044921875, 0.331787109375, -29.406250000000, -59.101562500000, -26.343750000000, 1492762619
0.064208984375, -1.162841796875, 0.414550781250, -47.335937500000, -60.695312500000, -29.898437500000, 1492762619
0.064208984375, -1.162841796875, 0.414550781250, -47.335937500000, -60.695312500000, -29.898437500000, 1492762619
0.064208984375, -1.162841796875, 0.414550781250, -47.335937500000, -60.695312500000, -29.898437500000, 1492762619
0.037597656250, -1.127929687500, 0.298828125000, -53.257812500000, -23.867187500000, -28.781250000000, 1492762619
0.037597656250, -1.127929687500, 0.298828125000, -53.257812500000, -23.867187500000, -28.781250000000, 1492762619
0.037597656250, -1.127929687500, 0.298828125000, -53.257812500000, -23.867187500000, -28.781250000000, 1492762619
0.045654296875, -0.821289062500, 0.085449218750, 38.937500000000, -26.195312500000, -20.718750000000, 1492762619
0.045654296875, -0.821289062500, 0.085449218750, 38.937500000000, -26.195312500000, -20.718750000000, 1492762619
0.045654296875, -0.821289062500, 0.085449218750, 38.937500000000, -26.195312500000, -20.718750000000, 1492762619
-0.070068359375, -0.537109375000, 0.114257812500, 14.687500000000, -42.539062500000, -21.921875000000, 1492762619
-0.088134765625, -0.680664062500, 0.129394531250, -36.796875000000, -29.085937500000, -8.609375000000, 1492762619
-0.088134765625, -0.680664062500, 0.129394531250, -36.796875000000, -29.085937500000, -8.609375000000, 1492762619
-0.088134765625, -0.680664062500, 0.129394531250, -36.796875000000, -29.085937500000, -8.609375000000, 1492762619
-0.153564453125, -1.046386718750, 0.312988281250, -57.203125000000, -41.734375000000, 0.179687500000, 1492762619
-0.153564453125, -1.046386718750, 0.312988281250, -57.203125000000, -41.734375000000, 0.179687500000, 1492762619
-0.153564453125, -1.046386718750, 0.312988281250, -57.203125000000, -41.734375000000, 0.179687500000, 1492762619
-0.153564453125, -1.046386718750, 0.312988281250, -57.203125000000, -41.734375000000, 0.179687500000, 1492762619
-0.153564453125, -1.046386718750, 0.312988281250, -57.203125000000, -41.734375000000, 0.179687500000, 1492762619
-0.153564453125, -1.046386718750, 0.312988281250, -57.203125000000, -41.734375000000, 0.179687500000, 1492762619
0.028076171875, -1.010986328125, 0.102294921875, 17.875000000000, -41.875000000000, -11.640625000000, 1492762619
0.028076171875, -1.010986328125, 0.102294921875, 17.875000000000, -41.875000000000, -11.640625000000, 1492762619
0.028076171875, -1.010986328125, 0.102294921875, 17.875000000000, -41.875000000000, -11.640625000000, 1492762619
0.057373046875, -0.777099609375, 0.332031250000, -5.546875000000, -8.507812500000, -22.023437500000, 1492762619
0.057373046875, -0.777099609375, 0.332031250000, -5.546875000000, -8.507812500000, -22.023437500000, 1492762619
-0.045410156250, -0.798095703125, 0.094726562500, -26.117187500000, 14.179687500000, -22.882812500000, 1492762619
-0.045410156250, -0.798095703125, 0.094726562500, -26.117187500000, 14.179687500000, -22.882812500000, 1492762619
-0.045410156250, -0.798095703125, 0.094726562500, -26.117187500000, 14.179687500000, -22.882812500000, 1492762619
-0.045410156250, -0.798095703125, 0.094726562500, -26.117187500000, 14.179687500000, -22.882812500000, 1492762619
-0.045410156250, -0.798095703125, 0.094726562500, -26.117187500000, 14.179687500000, -22.882812500000, 1492762619
-0.045410156250, -0.798095703125, 0.094726562500, -26.117187500000, 14.179687500000, -22.882812500000, 1492762619
-0.032714843750, -0.892578125000, 0.223876953125, 10.921875000000, -16.789062500000, -8.648437500000, 1492762619
-0.032714843750, -0.892578125000, 0.223876953125, 10.921875000000, -16.789062500000, -8.648437500000, 1492762619
-0.032714843750, -0.892578125000, 0.223876953125, 10.921875000000, -16.789062500000, -8.648437500000, 1492762619
-0.032714843750, -0.892578125000, 0.223876953125, 10.921875000000, -16.789062500000, -8.648437500000, 1492762619
-0.032714843750, -0.892578125000, 0.223876953125, 10.921875000000, -16.789062500000, -8.648437500000, 1492762619
0.008544921875, -0.793945312500, 0.375732421875, 1.031250000000, -0.851562500000, 3.671875000000, 1492762619
0.008544921875, -0.793945312500, 0.375732421875, 1.031250000000, -0.851562500000, 3.671875000000, 1492762619
0.008544921875, -0.793945312500, 0.375732421875, 1.031250000000, -0.851562500000, 3.671875000000, 1492762619
0.008544921875, -0.793945312500, 0.375732421875, 1.031250000000, -0.851562500000, 3.671875000000, 1492762619
0.016601562500, -0.807617187500, 0.379882812500, -17.359375000000, 20.015625000000, 1.187500000000, 1492762619
0.016601562500, -0.807617187500, 0.379882812500, -17.359375000000, 20.015625000000, 1.187500000000, 1492762619
0.016601562500, -0.807617187500, 0.379882812500, -17.359375000000, 20.015625000000, 1.187500000000, 1492762619
0.020263671875, -0.985107421875, 0.331542968750, -36.250000000000, 9.429687500000, 4.531250000000, 1492762619
0.020263671875, -0.985107421875, 0.331542968750, -36.250000000000, 9.429687500000, 4.531250000000, 1492762619
0.020263671875, -0.985107421875, 0.331542968750, -36.250000000000, 9.429687500000, 4.531250000000, 1492762619
-0.089355468750, -0.966796875000, 0.384765625000, -28.765625000000, 28.187500000000, 18.468750000000, 1492762619
-0.089355468750, -0.966796875000, 0.384765625000, -28.765625000000, 28.187500000000, 18.468750000000, 1492762619
-0.089355468750, -0.966796875000, 0.384765625000, -28.765625000000, 28.187500000000, 18.468750000000, 1492762619
-0.085205078125, -1.189941406250, 0.465332031250, -50.609375000000, 25.562500000000, 17.945312500000, 1492762619
-0.085205078125, -1.189941406250, 0.465332031250, -50.609375000000, 25.562500000000, 17.945312500000, 1492762619
-0.085205078125, -1.189941406250, 0.465332031250, -50.609375000000, 25.562500000000, 17.945312500000, 1492762619
-0.085205078125, -1.189941406250, 0.465332031250, -50.609375000000, 25.562500000000, 17.945312500000, 1492762619
-0.031494140625, -1.109130859375, 0.558349609375, -57.468750000000, 19.718750000000, 27.218750000000, 1492762619
-0.031494140625, -1.109130859375, 0.558349609375, -57.468750000000, 19.718750000000, 27.218750000000, 1492762619
-0.031494140625, -1.109130859375, 0.558349609375, -57.468750000000, 19.718750000000, 27.218750000000, 1492762619
-0.002441406250, -0.840087890625, 0.161621093750, 15.070312500000, 46.531250000000, 1.296875000000, 1492762619
-0.002441406250, -0.840087890625, 0.161621093750, 15.070312500000, 46.531250000000, 1.296875000000, 1492762619
-0.002441406250, -0.840087890625, 0.161621093750, 15.070312500000, 46.531250000000, 1.296875000000, 1492762619
0.084472656250, -0.700683593750, 0.153320312500, 60.992187500000, 5.882812500000, -1.382812500000, 1492762619
0.084472656250, -0.700683593750, 0.153320312500, 60.992187500000, 5.882812500000, -1.382812500000, 1492762619
0.142333984375, -0.525634765625, 0.037597656250, -21.195312500000, 47.835937500000, -0.210937500000, 1492762620
0.142333984375, -0.525634765625, 0.037597656250, -21.195312500000, 47.835937500000, -0.210937500000, 1492762620
0.142333984375, -0.525634765625, 0.037597656250, -21.195312500000, 47.835937500000, -0.210937500000, 1492762620
0.183349609375, -0.837890625000, 0.120849609375, -42.890625000000, 38.992187500000, 19.882812500000, 1492762620
0.183349609375, -0.837890625000, 0.120849609375, -42.890625000000, 38.992187500000, 19.882812500000, 1492762620
0.183349609375, -0.837890625000, 0.120849609375, -42.890625000000, 38.992187500000, 19.882812500000, 1492762620
0.183349609375, -0.837890625000, 0.120849609375, -42.890625000000, 38.992187500000, 19.882812500000, 1492762620
0.183349609375, -0.837890625000, 0.120849609375, -42.890625000000, 38.992187500000, 19.882812500000, 1492762620
0.224853515625, -1.183593750000, 0.520996093750, -19.804687500000, 29.289062500000, 52.953125000000, 1492762620
0.224853515625, -1.183593750000, 0.520996093750, -19.804687500000, 29.289062500000, 52.953125000000, 1492762620
0.224853515625, -1.183593750000, 0.520996093750, -19.804687500000, 29.289062500000, 52.953125000000, 1492762620
0.104980468750, -1.029541015625, 0.221679687500, -12.140625000000, 57.101562500000, 36.531250000000, 1492762620
0.104980468750, -1.029541015625, 0.221679687500, -12.140625000000, 57.101562500000, 36.531250000000, 1492762620
0.026123046875, -0.801025390625, 0.351318359375, 61.531250000000, 86.203125000000, 17.296875000000, 1492762620
0.026123046875, -0.801025390625, 0.351318359375, 61.531250000000, 86.203125000000, 17.296875000000, 1492762620
0.026123046875, -0.801025390625, 0.351318359375, 61.531250000000, 86.203125000000, 17.296875000000, 1492762620
0.026123046875, -0.801025390625, 0.351318359375, 61.531250000000, 86.203125000000, 17.296875000000, 1492762620
-0.031494140625, -0.716552734375, 0.141845703125, -4.687500000000, 85.585937500000, 0.046875000000, 1492762620
-0.031494140625, -0.716552734375, 0.141845703125, -4.687500000000, 85.585937500000, 0.046875000000, 1492762620
-0.031494140625, -0.716552734375, 0.141845703125, -4.687500000000, 85.585937500000, 0.046875000000, 1492762620
-0.031494140625, -0.716552734375, 0.141845703125, -4.687500000000, 85.585937500000, 0.046875000000, 1492762620
-0.000976562500, -0.780029296875, 0.279541015625, 20.585937500000, 33.046875000000, 2.125000000000, 1492762620
-0.000976562500, -0.780029296875, 0.279541015625, 20.585937500000, 33.046875000000, 2.125000000000, 1492762620
-0.000976562500, -0.780029296875, 0.279541015625, 20.585937500000, 33.046875000000, 2.125000000000, 1492762620
0.021972656250, -0.782470703125, 0.283935546875, -5.953125000000, 19.703125000000, 5.734375000000, 1492762620
0.021972656250, -0.782470703125, 0.283935546875, -5.953125000000, 19.703125000000, 5.734375000000, 1492762620
0.026611328125, -0.920654296875, 0.223632812500, 2.328125000000, -31.257812500000, -1.867187500000, 1492762620
0.026611328125, -0.920654296875, 0.223632812500, 2.328125000000, -31.257812500000, -1.867187500000, 1492762620
0.026611328125, -0.920654296875, 0.223632812500, 2.328125000000, -31.257812500000, -1.867187500000, 1492762620
-0.000488281250, -0.968505859375, 0.402099609375, -18.312500000000, -51.281250000000, -17.531250000000, 1492762620
-0.000488281250, -0.968505859375, 0.402099609375, -18.312500000000, -51.281250000000, -17.531250000000, 1492762620
-0.000488281250, -0.968505859375, 0.402099609375, -18.312500000000, -51.281250000000, -17.531250000000, 1492762620
-0.000488281250, -0.968505859375, 0.402099609375, -18.312500000000, -51.281250000000, -17.531250000000, 1492762620
-0.000488281250, -0.968505859375, 0.402099609375, -18.312500000000, -51.281250000000, -17.531250000000, 1492762620
0.090087890625, -0.984375000000, 0.299560546875, -41.796875000000, -48.750000000000, -28.796875000000, 1492762620
0.090087890625, -0.984375000000, 0.299560546875, -41.796875000000, -48.750000000000, -28.796875000000, 1492762620
0.090087890625, -0.984375000000, 0.299560546875, -41.796875000000, -48.750000000000, -28.796875000000, 1492762620
0.034179687500, -1.274658203125, 0.687988281250, -72.679687500000, -75.976562500000, -33.765625000000, 1492762620
0.034179687500, -1.274658203125, 0.687988281250, -72.679687500000, -75.976562500000, -33.765625000000, 1492762620
0.034179687500, -1.274658203125, 0.687988281250, -72.679687500000, -75.976562500000, -33.765625000000, 1492762620
0.065673828125, -0.957763671875, 0.207763671875, 35.398437500000, -13.578125000000, -41.671875000000, 1492762620
0.065673828125, -0.957763671875, 0.207763671875, 35.398437500000, -13.578125000000, -41.671875000000, 1492762620
0.065673828125, -0.957763671875, 0.207763671875, 35.398437500000, -13.578125000000, -41.671875000000, 1492762620
0.065673828125, -0.957763671875, 0.207763671875, 35.398437500000, -13.578125000000, -41.671875000000, 1492762620
-0.084960937500, -0.630615234375, 0.145019531250, 77.203125000000, -21.945312500000, -42.343750000000, 1492762620
-0.084960937500, -0.630615234375, 0.145019531250, 77.203125000000, -21.945312500000, -42.343750000000, 1492762620
-0.084960937500, -0.630615234375, 0.145019531250, 77.203125000000, -21.945312500000, -42.343750000000, 1492762620
-0.030517578125, -0.487304687500, 0.070312500000, 3.710937500000, -45.195312500000, -14.820312500000, 1492762620
-0.030517578125, -0.487304687500, 0.070312500000, 3.710937500000, -45.195312500000, -14.820312500000, 1492762620
-0.030517578125, -0.487304687500, 0.070312500000, 3.710937500000, -45.195312500000, -14.820312500000, 1492762620
-0.121582031250, -0.737792968750, 0.062011718750, -60.453125000000, -47.007812500000, -18.179687500000, 1492762620
-0.121582031250, -0.737792968750, 0.062011718750, -60.453125000000, -47.007812500000, -18.179687500000, 1492762620
-0.121582031250, -0.737792968750, 0.062011718750, -60.453125000000, -47.007812500000, -18.179687500000, 1492762620
-0.099365234375, -1.070312500000, 0.370849609375, 5.843750000000, -79.398437500000, -21.539062500000, 1492762620
-0.099365234375, -1.070312500000, 0.370849609375, 5.843750000000, -79.398437500000, -21.539062500000, 1492762620
-0.099365234375, -1.070312500000, 0.370849609375, 5.843750000000, -79.398437500000, -21.539062500000, 1492762620
-0.099365234375, -1.070312500000, 0.370849609375, 5.843750000000, -79.398437500000, -21.539062500000, 1492762620
-0.106445312500, -0.980957031250, 0.360351562500, 14.601562500000, -54.632812500000, -30.695312500000, 1492762620
0.073242187500, -0.739990234375, 0.315185546875, 82.070312500000, -58.937500000000, -22.812500000000, 1492762620
0.073242187500, -0.739990234375, 0.315185546875, 82.070312500000, -58.937500000000, -22.812500000000, 1492762620
0.073242187500, -0.739990234375, 0.315185546875, 82.070312500000, -58.937500000000, -22.812500000000, 1492762620
0.073242187500, -0.739990234375, 0.315185546875, 82.070312500000, -58.937500000000, -22.812500000000, 1492762620
-0.005859375000, -0.741699218750, 0.335449218750, 0.609375000000, -33.328125000000, 4.640625000000, 1492762620
-0.005859375000, -0.741699218750, 0.335449218750, 0.609375000000, -33.328125000000, 4.640625000000, 1492762620
-0.005859375000, -0.741699218750, 0.335449218750, 0.609375000000, -33.328125000000, 4.640625000000, 1492762620
-0.005859375000, -0.741699218750, 0.335449218750, 0.609375000000, -33.328125000000, 4.640625000000, 1492762620
0.028076171875, -0.887451171875, 0.171142578125, 3.617187500000, -24.179687500000, 6.656250000000, 1492762620
0.028076171875, -0.887451171875, 0.171142578125, 3.617187500000, -24.179687500000, 6.656250000000, 1492762621
0.028076171875, -0.887451171875, 0.171142578125, 3.617187500000, -24.179687500000, 6.656250000000, 1492762621
0.028076171875, -0.887451171875, 0.171142578125, 3.617187500000, -24.179687500000, 6.656250000000, 1492762621
0.005371093750, -0.938476562500, 0.464355468750, 3.242187500000, -12.437500000000, 4.507812500000, 1492762621
0.005371093750, -0.938476562500, 0.464355468750, 3.242187500000, -12.437500000000, 4.507812500000, 1492762621
0.005371093750, -0.938476562500, 0.464355468750, 3.242187500000, -12.437500000000, 4.507812500000, 1492762621
0.006591796875, -0.863525390625, 0.283691406250, 0.250000000000, -8.039062500000, 1.781250000000, 1492762621
0.006591796875, -0.863525390625, 0.283691406250, 0.250000000000, -8.039062500000, 1.781250000000, 1492762621
0.006591796875, -0.863525390625, 0.283691406250, 0.250000000000, -8.039062500000, 1.781250000000, 1492762621
-0.003906250000, -0.942138671875, 0.349365234375, -5.531250000000, -14.437500000000, 16.820312500000, 1492762621
-0.003906250000, -0.942138671875, 0.349365234375, -5.531250000000, -14.437500000000, 16.820312500000, 1492762621
-0.003906250000, -0.942138671875, 0.349365234375, -5.531250000000, -14.437500000000, 16.820312500000, 1492762621
-0.011230468750, -0.960693359375, 0.322265625000, -24.210937500000, 13.546875000000, 24.335937500000, 1492762621
-0.011230468750, -0.960693359375, 0.322265625000, -24.210937500000, 13.546875000000, 24.335937500000, 1492762621
-0.011230468750, -0.960693359375, 0.322265625000, -24.210937500000, 13.546875000000, 24.335937500000, 1492762621
-0.011230468750, -0.960693359375, 0.322265625000, -24.210937500000, 13.546875000000, 24.335937500000, 1492762621
-0.011962890625, -1.144042968750, 0.381591796875, -18.484375000000, 27.687500000000, 23.953125000000, 1492762621
-0.011962890625, -1.144042968750, 0.381591796875, -18.484375000000, 27.687500000000, 23.953125000000, 1492762621
-0.011962890625, -1.144042968750, 0.381591796875, -18.484375000000, 27.687500000000, 23.953125000000, 1492762621
-0.022460937500, -1.157226562500, 0.494873046875, -72.632812500000, 46.734375000000, 31.718750000000, 1492762621
-0.022460937500, -1.157226562500, 0.494873046875, -72.632812500000, 46.734375000000, 31.718750000000, 1492762621
-0.022460937500, -1.157226562500, 0.494873046875, -72.632812500000, 46.734375000000, 31.718750000000, 1492762621
0.066162109375, -0.746337890625, 0.153320312500, -6.210937500000, 72.281250000000, 15.023437500000, 1492762621
0.066162109375, -0.746337890625, 0.153320312500, -6.210937500000, 72.281250000000, 15.023437500000, 1492762621
0.066162109375, -0.746337890625, 0.153320312500, -6.210937500000, 72.281250000000, 15.023437500000, 1492762621
0.097900390625, -0.540527343750, -0.025390625000, 56.593750000000, 85.078125000000, -1.429687500000, 1492762621
0.097900390625, -0.540527343750, -0.025390625000, 56.593750000000, 85.078125000000, -1.429687500000, 1492762621
0.097900390625, -0.540527343750, -0.025390625000, 56.593750000000, 85.078125000000, -1.429687500000, 1492762621
0.097900390625, -0.540527343750, -0.025390625000, 56.593750000000, 85.078125000000, -1.429687500000, 1492762621
0.185791015625, -0.647460937500, -0.027587890625, -30.859375000000, 61.539062500000, 16.476562500000, 1492762621
0.185791015625, -0.647460937500, -0.027587890625, -30.859375000000, 61.539062500000, 16.476562500000, 1492762621
0.185791015625, -0.647460937500, -0.027587890625, -30.859375000000, 61.539062500000, 16.476562500000, 1492762621
0.066894531250, -1.076904296875, 0.463134765625, -53.054687500000, 63.578125000000, 47.656250000000, 1492762621
0.066894531250, -1.076904296875, 0.463134765625, -53.054687500000, 63.578125000000, 47.656250000000, 1492762621
0.066894531250, -1.076904296875, 0.463134765625, -53.054687500000, 63.578125000000, 47.656250000000, 1492762621
0.202880859375, -1.083984375000, 0.237304687500, -36.273437500000, 75.320312500000, 33.812500000000, 1492762621
0.202880859375, -1.083984375000, 0.237304687500, -36.273437500000, 75.320312500000, 33.812500000000, 1492762621
0.202880859375, -1.083984375000, 0.237304687500, -36.273437500000, 75.320312500000, 33.812500000000, 1492762621
0.067138671875, -0.859130859375, 0.238037109375, 83.867187500000, 49.703125000000, 17.203125000000, 1492762621
0.067138671875, -0.859130859375, 0.238037109375, 83.867187500000, 49.703125000000, 17.203125000000, 1492762621
0.067138671875, -0.859130859375, 0.238037109375, 83.867187500000, 49.703125000000, 17.203125000000, 1492762621
0.067138671875, -0.859130859375, 0.238037109375, 83.867187500000, 49.703125000000, 17.203125000000, 1492762621
-0.024414062500, -0.773681640625, 0.502441406250, -5.632812500000, 67.531250000000, -4.007812500000, 1492762621
-0.024414062500, -0.773681640625, 0.502441406250, -5.632812500000, 67.531250000000, -4.007812500000, 1492762621
-0.024414062500, -0.773681640625, 0.502441406250, -5.632812500000, 67.531250000000, -4.007812500000, 1492762621
0.092285156250, -0.772949218750, 0.152587890625, -38.085937500000, 76.304687500000, -4.039062500000, 1492762621
0.092285156250, -0.772949218750, 0.152587890625, -38.085937500000, 76.304687500000, -4.039062500000, 1492762621
0.092285156250, -0.772949218750, 0.152587890625, -38.085937500000, 76.304687500000, -4.039062500000, 1492762621
0.017578125000, -0.807373046875, 0.254394531250, 26.726562500000, -10.835937500000, 10.460937500000, 1492762621
0.017578125000, -0.807373046875, 0.254394531250, 26.726562500000, -10.835937500000, 10.460937500000, 1492762621
0.017578125000, -0.807373046875, 0.254394531250, 26.726562500000, -10.835937500000, 10.460937500000, 1492762621
0.022705078125, -0.862548828125, 0.249511718750, -12.734375000000, -4.156250000000, -10.226562500000, 1492762621
0.022705078125, -0.862548828125, 0.249511718750, -12.734375000000, -4.156250000000, -10.226562500000, 1492762621
0.022705078125, -0.862548828125, 0.249511718750, -12.734375000000, -4.156250000000, -10.226562500000, 1492762621
0.022705078125, -0.862548828125, 0.249511718750, -12.734375000000, -4.156250000000, -10.226562500000, 1492762621
-0.088623046875, -0.928466796875, 0.224609375000, 11.007812500000, -46.609375000000, -14.890625000000, 1492762621
-0.088623046875, -0.928466796875, 0.224609375000, 11.007812500000, -46.609375000000, -14.890625000000, 1492762621
-0.088623046875, -0.928466796875, 0.224609375000, 11.007812500000, -46.609375000000, -14.890625000000, 1492762621
-0.009277343750, -1.014160156250, 0.376708984375, -3.398437500000, -61.968750000000, -30.492187500000, 1492762621
-0.009277343750, -1.014160156250, 0.376708984375, -3.398437500000, -61.968750000000, -30.492187500000, 1492762621
-0.009277343750, -1.014160156250, 0.376708984375, -3.398437500000, -61.968750000000, -30.492187500000, 1492762621
0.031250000000, -1.056152343750, 0.397216796875, -45.804687500000, -82.554687500000, -37.960937500000, 1492762621
0.031250000000, -1.056152343750, 0.397216796875, -45.804687500000, -82.554687500000, -37.960937500000, 1492762621
0.031250000000, -1.056152343750, 0.397216796875, -45.804687500000, -82.554687500000, -37.960937500000, 1492762621
0.259765625000, -1.068115234375, 0.302001953125, -33.789062500000, -62.148437500000, -35.734375000000, 1492762621
0.259765625000, -1.068115234375, 0.302001953125, -33.789062500000, -62.148437500000, -35.734375000000, 1492762621
0.259765625000, -1.068115234375, 0.302001953125, -33.789062500000, -62.148437500000, -35.734375000000, 1492762621
0.259765625000, -1.068115234375, 0.302001953125, -33.789062500000, -62.148437500000, -35.734375000000, 1492762621
0.102783203125, -0.748779296875, 0.137451171875, 74.320312500000, -28.937500000000, -28.375000000000, 1492762622
0.102783203125, -0.748779296875, 0.137451171875, 74.320312500000, -28.937500000000, -28.375000000000, 1492762622
0.102783203125, -0.748779296875, 0.137451171875, 74.320312500000, -28.937500000000, -28.375000000000, 1492762622
0.085693359375, -0.642578125000, 0.163818359375, 82.203125000000, -44.757812500000, -8.867187500000, 1492762622
0.085693359375, -0.642578125000, 0.163818359375, 82.203125000000, -44.757812500000, -8.867187500000, 1492762622
0.085693359375, -0.642578125000, 0.163818359375, 82.203125000000, -44.757812500000, -8.867187500000, 1492762622
-0.004882812500, -0.655761718750, 0.173828125000, -29.546875000000, -13.507812500000, -9.179687500000, 1492762622
-0.004882812500, -0.655761718750, 0.173828125000, -29.546875000000, -13.507812500000, -9.179687500000, 1492762622
-0.004882812500, -0.655761718750, 0.173828125000, -29.546875000000, -13.507812500000, -9.179687500000, 1492762622
-0.275634765625, -0.915283203125, 0.090332031250, -65.320312500000, -64.289062500000, -35.664062500000, 1492762622
-0.275634765625, -0.915283203125, 0.090332031250, -65.320312500000, -64.289062500000, -35.664062500000, 1492762622
-0.275634765625, -0.915283203125, 0.090332031250, -65.320312500000, -64.289062500000, -35.664062500000, 1492762622
-0.275634765625, -0.915283203125, 0.090332031250, -65.320312500000, -64.289062500000, -35.664062500000, 1492762622
-0.329589843750, -1.087646484375, 0.217041015625, 21.320312500000, -87.218750000000, -37.812500000000, 1492762622
-0.329589843750, -1.087646484375, 0.217041015625, 21.320312500000, -87.218750000000, -37.812500000000, 1492762622
-0.329589843750, -1.087646484375, 0.217041015625, 21.320312500000, -87.218750000000, -37.812500000000, 1492762622
0.007568359375, -1.004882812500, 0.379638671875, 61.656250000000, -75.351562500000, -26.390625000000, 1492762622
0.007568359375, -1.004882812500, 0.379638671875, 61.656250000000, -75.351562500000, -26.390625000000, 1492762622
0.007568359375, -1.004882812500, 0.379638671875, 61.656250000000, -75.351562500000, -26.390625000000, 1492762622
0.049072265625, -0.804687500000, 0.235839843750, 70.492187500000, -57.320312500000, -12.546875000000, 1492762622
0.049072265625, -0.804687500000, 0.235839843750, 70.492187500000, -57.320312500000, -12.546875000000, 1492762622
0.049072265625, -0.804687500000, 0.235839843750, 70.492187500000, -57.320312500000, -12.546875000000, 1492762622
-0.020263671875, -0.826171875000, 0.217529296875, -9.062500000000, -21.875000000000, 5.140625000000, 1492762622
-0.020263671875, -0.826171875000, 0.217529296875, -9.062500000000, -21.875000000000, 5.140625000000, 1492762622
-0.020263671875, -0.826171875000, 0.217529296875, -9.062500000000, -21.875000000000, 5.140625000000, 1492762622
-0.020263671875, -0.826171875000, 0.217529296875, -9.062500000000, -21.875000000000, 5.140625000000, 1492762622
0.027099609375, -0.808837890625, 0.201660156250, -17.867187500000, -29.976562500000, -1.867187500000, 1492762622
0.027099609375, -0.808837890625, 0.201660156250, -17.867187500000, -29.976562500000, -1.867187500000, 1492762622
0.027099609375, -0.808837890625, 0.201660156250, -17.867187500000, -29.976562500000, -1.867187500000, 1492762622
-0.051269531250, -0.968750000000, 0.328857421875, -6.750000000000, -23.625000000000, 0.390625000000, 1492762622
-0.051269531250, -0.968750000000, 0.328857421875, -6.750000000000, -23.625000000000, 0.390625000000, 1492762622
-0.051269531250, -0.968750000000, 0.328857421875, -6.750000000000, -23.625000000000, 0.390625000000, 1492762622
0.001953125000, -0.939697265625, 0.324707031250, 9.093750000000, -4.085937500000, 2.539062500000, 1492762622
0.001953125000, -0.939697265625, 0.324707031250, 9.093750000000, -4.085937500000, 2.539062500000, 1492762622
0.001953125000, -0.939697265625, 0.324707031250, 9.093750000000, -4.085937500000, 2.539062500000, 1492762622
0.066650390625, -0.945556640625, 0.300781250000, -13.703125000000, -0.453125000000, 12.578125000000, 1492762622
0.066650390625, -0.945556640625, 0.300781250000, -13.703125000000, -0.453125000000, 12.578125000000, 1492762622
0.066650390625, -0.945556640625, 0.300781250000, -13.703125000000, -0.453125000000, 12.578125000000, 1492762622
0.066650390625, -0.945556640625, 0.300781250000, -13.703125000000, -0.453125000000, 12.578125000000, 1492762622
-0.012939453125, -0.915527343750, 0.296630859375, -33.835937500000, 11.929687500000, 14.000000000000, 1492762622
-0.012939453125, -0.915527343750, 0.296630859375, -33.835937500000, 11.929687500000, 14.000000000000, 1492762622
-0.012939453125, -0.915527343750, 0.296630859375, -33.835937500000, 11.929687500000, 14.000000000000, 1492762622
-0.015869140625, -0.966796875000, 0.286132812500, -24.054687500000, 35.976562500000, 17.304687500000, 1492762622
-0.015869140625, -0.966796875000, 0.286132812500, -24.054687500000, 35.976562500000, 17.304687500000, 1492762622
-0.015869140625, -0.966796875000, 0.286132812500, -24.054687500000, 35.976562500000, 17.304687500000, 1492762622
0.144042968750, -1.251708984375, 0.383300781250, -58.953125000000, 37.171875000000, 22.804687500000, 1492762622
0.144042968750, -1.251708984375, 0.383300781250, -58.953125000000, 37.171875000000, 22.804687500000, 1492762622
0.144042968750, -1.251708984375, 0.383300781250, -58.953125000000, 37.171875000000, 22.804687500000, 1492762622
0.041503906250, -0.905517578125, 0.161621093750, -58.523437500000, 107.968750000000, 33.429687500000, 1492762622
0.041503906250, -0.905517578125, 0.161621093750, -58.523437500000, 107.968750000000, 33.429687500000, 1492762622
0.041503906250, -0.905517578125, 0.161621093750, -58.523437500000, 107.968750000000, 33.429687500000, 1492762622
0.041503906250, -0.905517578125, 0.161621093750, -58.523437500000, 107.968750000000, 33.429687500000, 1492762622
0.101562500000, -0.761474609375, -0.081787109375, 24.804687500000, 138.031250000000, 42.992187500000, 1492762622
0.101562500000, -0.761474609375, -0.081787109375, 24.804687500000, 138.031250000000, 42.992187500000, 1492762622
0.101562500000, -0.761474609375, -0.081787109375, 24.804687500000, 138.031250000000, 42.992187500000, 1492762622
0.186767578125, -0.623291015625, -0.035644531250, 32.921875000000, 90.484375000000, 36.601562500000, 1492762622
0.186767578125, -0.623291015625, -0.035644531250, 32.921875000000, 90.484375000000, 36.601562500000, 1492762622
0.186767578125, -0.623291015625, -0.035644531250, 32.921875000000, 90.484375000000, 36.601562500000, 1492762622
0.143310546875, -0.820800781250, 0.209472656250, -16.343750000000, 49.976562500000, 20.429687500000, 1492762622
0.143310546875, -0.820800781250, 0.209472656250, -16.343750000000, 49.976562500000, 20.429687500000, 1492762622
0.001953125000, -0.921142578125, 0.452880859375, -30.109375000000, 47.046875000000, 31.843750000000, 1492762622
-0.000000000000, -1.088134765625, 0.380859375000, -49.789062500000, 120.406250000000, 26.023437500000, 1492762622
0.076416015625, -0.813232421875, 0.095947265625, 46.773437500000, 49.289062500000, 16.523437500000, 1492762623
0.076416015625, -0.813232421875, 0.095947265625, 46.773437500000, 49.289062500000, 16.523437500000, 1492762623
0.090087890625, -0.766113281250, 0.516113281250, 23.757812500000, -9.601562500000, -2.398437500000, 1492762623
0.090087890625, -0.766113281250, 0.516113281250, 23.757812500000, -9.601562500000, -2.398437500000, 1492762623
0.090087890625, -0.766113281250, 0.516113281250, 23.757812500000, -9.601562500000, -2.398437500000, 1492762623
0.090087890625, -0.766113281250, 0.516113281250, 23.757812500000, -9.601562500000, -2.398437500000, 1492762623
0.090087890625, -0.766113281250, 0.516113281250, 23.757812500000, -9.601562500000, -2.398437500000, 1492762623
0.090087890625, -0.766113281250, 0.516113281250, 23.757812500000, -9.601562500000, -2.398437500000, 1492762623
0.090087890625, -0.766113281250, 0.516113281250, -23.046875000000, 17.898437500000, -4.101562500000, 1492762623
0.141601562500, -0.780761718750, 0.225585937500, -58.039062500000, 99.679687500000, -1.335937500000, 1492762623
0.141601562500, -0.780761718750, 0.225585937500, -58.039062500000, 99.679687500000, -1.335937500000, 1492762623
0.141601562500, -0.780761718750, 0.225585937500, -58.039062500000, 99.679687500000, -1.335937500000, 1492762623
0.093750000000, -0.744628906250, 0.171386718750, 15.554687500000, -32.820312500000, -0.937500000000, 1492762623
0.093750000000, -0.744628906250, 0.171386718750, 15.554687500000, -32.820312500000, -0.937500000000, 1492762623
0.093750000000, -0.744628906250, 0.171386718750, 15.554687500000, -32.820312500000, -0.937500000000, 1492762623
0.093750000000, -0.744628906250, 0.171386718750, 15.554687500000, -32.820312500000, -0.937500000000, 1492762623
0.079589843750, -0.898925781250, 0.350585937500, 23.882812500000, -38.960937500000, -10.515625000000, 1492762623
0.079589843750, -0.898925781250, 0.350585937500, 23.882812500000, -38.960937500000, -10.515625000000, 1492762623
-0.019775390625, -0.898437500000, 0.289062500000, -18.320312500000, -14.492187500000, -20.445312500000, 1492762623
-0.019775390625, -0.898437500000, 0.289062500000, -18.320312500000, -14.492187500000, -20.445312500000, 1492762623
-0.019775390625, -0.898437500000, 0.289062500000, -18.320312500000, -14.492187500000, -20.445312500000, 1492762623
-0.019775390625, -0.898437500000, 0.289062500000, -18.320312500000, -14.492187500000, -20.445312500000, 1492762623
-0.007080078125, -0.858398437500, 0.378906250000, -8.726562500000, -38.671875000000, -25.617187500000, 1492762623
-0.007080078125, -0.858398437500, 0.378906250000, -8.726562500000, -38.671875000000, -25.617187500000, 1492762623
0.127929687500, -0.867187500000, 0.354736328125, -14.156250000000, -43.171875000000, -26.210937500000, 1492762623
0.127929687500, -0.867187500000, 0.354736328125, -14.156250000000, -43.171875000000, -26.210937500000, 1492762623
0.127929687500, -0.867187500000, 0.354736328125, -14.156250000000, -43.171875000000, -26.210937500000, 1492762623
0.127929687500, -0.867187500000, 0.354736328125, -14.156250000000, -43.171875000000, -26.210937500000, 1492762623
0.127929687500, -0.867187500000, 0.354736328125, -14.156250000000, -43.171875000000, -26.210937500000, 1492762623
0.035888671875, -0.999755859375, 0.509521484375, -30.929687500000, -46.546875000000, -18.562500000000, 1492762623
0.035888671875, -0.999755859375, 0.509521484375, -30.929687500000, -46.546875000000, -18.562500000000, 1492762623
0.100585937500, -0.982421875000, 0.453125000000, -38.000000000000, -23.500000000000, -18.593750000000, 1492762623
0.100585937500, -0.982421875000, 0.453125000000, -38.000000000000, -23.500000000000, -18.593750000000, 1492762623
0.100585937500, -0.982421875000, 0.453125000000, -38.000000000000, -23.500000000000, -18.593750000000, 1492762623
0.100585937500, -0.982421875000, 0.453125000000, -38.000000000000, -23.500000000000, -18.593750000000, 1492762623
0.060302734375, -0.809570312500, 0.312500000000, -5.828125000000, -29.609375000000, -12.320312500000, 1492762623
0.060302734375, -0.809570312500, 0.312500000000, -5.828125000000, -29.609375000000, -12.320312500000, 1492762623
0.060302734375, -0.809570312500, 0.312500000000, -5.828125000000, -29.609375000000, -12.320312500000, 1492762623
-0.021728515625, -0.761718750000, 0.221191406250, 11.703125000000, -29.789062500000, -12.718750000000, 1492762623
0.089111328125, -0.715820312500, 0.222167968750, 7.593750000000, -26.195312500000, -9.718750000000, 1492762623
0.089111328125, -0.715820312500, 0.222167968750, 7.593750000000, -26.195312500000, -9.718750000000, 1492762623
0.089111328125, -0.715820312500, 0.222167968750, 7.593750000000, -26.195312500000, -9.718750000000, 1492762623
-0.064453125000, -0.614746093750, 0.261962890625, -2.593750000000, -24.500000000000, -15.343750000000, 1492762623
-0.064453125000, -0.614746093750, 0.261962890625, -2.593750000000, -24.500000000000, -15.343750000000, 1492762623
-0.104736328125, -0.731933593750, 0.111328125000, -10.312500000000, -25.773437500000, -20.390625000000, 1492762623
-0.104736328125, -0.731933593750, 0.111328125000, -10.312500000000, -25.773437500000, -20.390625000000, 1492762623
-0.104736328125, -0.731933593750, 0.111328125000, -10.312500000000, -25.773437500000, -20.390625000000, 1492762623
-0.104736328125, -0.731933593750, 0.111328125000, -10.312500000000, -25.773437500000, -20.390625000000, 1492762623
-0.036621093750, -1.018798828125, 0.309326171875, -7.398437500000, -72.765625000000, -23.367187500000, 1492762623
-0.036621093750, -1.018798828125, 0.309326171875, -7.398437500000, -72.765625000000, -23.367187500000, 1492762623
-0.036621093750, -1.018798828125, 0.309326171875, -7.398437500000, -72.765625000000, -23.367187500000, 1492762623
0.036865234375, -0.946777343750, 0.450195312500, 26.914062500000, -57.351562500000, -19.640625000000, 1492762623
0.036865234375, -0.946777343750, 0.450195312500, 26.914062500000, -57.351562500000, -19.640625000000, 1492762623
0.036865234375, -0.946777343750, 0.450195312500, 26.914062500000, -57.351562500000, -19.640625000000, 1492762623
0.036865234375, -0.946777343750, 0.450195312500, 26.914062500000, -57.351562500000, -19.640625000000, 1492762623
0.089355468750, -0.843750000000, 0.313232421875, 55.585937500000, -30.031250000000, -24.953125000000, 1492762623
0.089355468750, -0.843750000000, 0.313232421875, 55.585937500000, -30.031250000000, -24.953125000000, 1492762623
0.089355468750, -0.843750000000, 0.313232421875, 55.585937500000, -30.031250000000, -24.953125000000, 1492762623
0.001220703125, -0.664794921875, 0.358398437500, 27.242187500000, -7.984375000000, -4.890625000000, 1492762623
0.001220703125, -0.664794921875, 0.358398437500, 27.242187500000, -7.984375000000, -4.890625000000, 1492762623
0.001220703125, -0.664794921875, 0.358398437500, 27.242187500000, -7.984375000000, -4.890625000000, 1492762623
-0.071533203125, -0.685546875000, 0.288330078125, -19.648437500000, -8.289062500000, -8.000000000000, 1492762623
-0.071533203125, -0.685546875000, 0.288330078125, -19.648437500000, -8.289062500000, -8.000000000000, 1492762623
-0.072265625000, -0.802001953125, 0.289550781250, 6.414062500000, -2.335937500000, -3.835937500000, 1492762623
-0.072265625000, -0.802001953125, 0.289550781250, 6.414062500000, -2.335937500000, -3.835937500000, 1492762623
-0.072265625000, -0.802001953125, 0.289550781250, 6.414062500000, -2.335937500000, -3.835937500000, 1492762623
-0.072265625000, -0.802001953125, 0.289550781250, 6.414062500000, -2.335937500000, -3.835937500000, 1492762623
-0.080810546875, -0.871093750000, 0.400634765625, 14.906250000000, 7.578125000000, -3.234375000000, 1492762623
0.025878906250, -0.898437500000, 0.300048828125, 11.523437500000, 6.695312500000, -6.023437500000, 1492762623
0.025878906250, -0.898437500000, 0.300048828125, 11.523437500000, 6.695312500000, -6.023437500000, 1492762623
0.025878906250, -0.898437500000, 0.300048828125, 11.523437500000, 6.695312500000, -6.023437500000, 1492762623
-0.027099609375, -0.850341796875, 0.387939453125, 10.250000000000, 9.468750000000, 2.632812500000, 1492762624
-0.027099609375, -0.850341796875, 0.387939453125, 10.250000000000, 9.468750000000, 2.632812500000, 1492762624
-0.027099609375, -0.850341796875, 0.387939453125, 10.250000000000, 9.468750000000, 2.632812500000, 1492762624
-0.017089843750, -0.793701171875, 0.388916015625, -12.085937500000, 19.804687500000, 7.304687500000, 1492762624
-0.017089843750, -0.793701171875, 0.388916015625, -12.085937500000, 19.804687500000, 7.304687500000, 1492762624
-0.017089843750, -0.793701171875, 0.388916015625, -12.085937500000, 19.804687500000, 7.304687500000, 1492762624
-0.065917968750, -0.913818359375, 0.450927734375, -17.445312500000, 23.507812500000, 9.156250000000, 1492762624
-0.065917968750, -0.913818359375, 0.450927734375, -17.445312500000, 23.507812500000, 9.156250000000, 1492762624
-0.065917968750, -0.913818359375, 0.450927734375, -17.445312500000, 23.507812500000, 9.156250000000, 1492762624
-0.065917968750, -0.913818359375, 0.450927734375, -17.445312500000, 23.507812500000, 9.156250000000, 1492762624
0.007812500000, -1.013916015625, 0.449218750000, -21.851562500000, 29.484375000000, 10.320312500000, 1492762624
0.007812500000, -1.013916015625, 0.449218750000, -21.851562500000, 29.484375000000, 10.320312500000, 1492762624
0.007812500000, -1.013916015625, 0.449218750000, -21.851562500000, 29.484375000000, 10.320312500000, 1492762624
0.001464843750, -1.136962890625, 0.592529296875, -64.750000000000, 30.609375000000, 7.484375000000, 1492762624
0.001464843750, -1.136962890625, 0.592529296875, -64.750000000000, 30.609375000000, 7.484375000000, 1492762624
0.001464843750, -1.136962890625, 0.592529296875, -64.750000000000, 30.609375000000, 7.484375000000, 1492762624
0.083007812500, -0.694824218750, 0.145996093750, 55.476562500000, 17.976562500000, 2.562500000000, 1492762624
0.083007812500, -0.694824218750, 0.145996093750, 55.476562500000, 17.976562500000, 2.562500000000, 1492762624
0.083007812500, -0.694824218750, 0.145996093750, 55.476562500000, 17.976562500000, 2.562500000000, 1492762624
0.212402343750, -0.493652343750, 0.095214843750, 34.585937500000, 10.851562500000, -2.828125000000, 1492762624
0.212402343750, -0.493652343750, 0.095214843750, 34.585937500000, 10.851562500000, -2.828125000000, 1492762624
0.212402343750, -0.493652343750, 0.095214843750, 34.585937500000, 10.851562500000, -2.828125000000, 1492762624
0.212402343750, -0.493652343750, 0.095214843750, 34.585937500000, 10.851562500000, -2.828125000000, 1492762624
0.212402343750, -0.493652343750, 0.095214843750, 34.585937500000, 10.851562500000, -2.828125000000, 1492762624
0.212402343750, -0.493652343750, 0.095214843750, 34.585937500000, 10.851562500000, -2.828125000000, 1492762624
0.186279296875, -0.653320312500, 0.151123046875, -28.773437500000, 34.593750000000, 16.031250000000, 1492762624
0.217285156250, -0.765136718750, 0.112548828125, -51.812500000000, 46.156250000000, 18.531250000000, 1492762624
0.217285156250, -0.765136718750, 0.112548828125, -51.812500000000, 46.156250000000, 18.531250000000, 1492762624
0.217285156250, -0.765136718750, 0.112548828125, -51.812500000000, 46.156250000000, 18.531250000000, 1492762624
0.098876953125, -1.102294921875, 0.411376953125, -40.242187500000, 75.382812500000, 60.398437500000, 1492762624
0.098876953125, -1.102294921875, 0.411376953125, -40.242187500000, 75.382812500000, 60.398437500000, 1492762624
0.098876953125, -1.102294921875, 0.411376953125, -40.242187500000, 75.382812500000, 60.398437500000, 1492762624
-0.002685546875, -0.933593750000, 0.276611328125, 29.773437500000, 83.320312500000, 31.343750000000, 1492762624
-0.002685546875, -0.933593750000, 0.276611328125, 29.773437500000, 83.320312500000, 31.343750000000, 1492762624
-0.002685546875, -0.933593750000, 0.276611328125, 29.773437500000, 83.320312500000, 31.343750000000, 1492762624
-0.002685546875, -0.933593750000, 0.276611328125, 29.773437500000, 83.320312500000, 31.343750000000, 1492762624
-0.094238281250, -0.810058593750, 0.306640625000, 62.046875000000, 50.718750000000, 18.125000000000, 1492762624
-0.094238281250, -0.810058593750, 0.306640625000, 62.046875000000, 50.718750000000, 18.125000000000, 1492762624
-0.094238281250, -0.810058593750, 0.306640625000, 62.046875000000, 50.718750000000, 18.125000000000, 1492762624
-0.027343750000, -0.718261718750, 0.290527343750, -22.820312500000, 57.789062500000, -5.070312500000, 1492762624
-0.027343750000, -0.718261718750, 0.290527343750, -22.820312500000, 57.789062500000, -5.070312500000, 1492762624
-0.027343750000, -0.718261718750, 0.290527343750, -22.820312500000, 57.789062500000, -5.070312500000, 1492762624
-0.009033203125, -0.763916015625, 0.142822265625, -11.531250000000, 12.007812500000, 10.976562500000, 1492762624
-0.009033203125, -0.763916015625, 0.142822265625, -11.531250000000, 12.007812500000, 10.976562500000, 1492762624
-0.009033203125, -0.763916015625, 0.142822265625, -11.531250000000, 12.007812500000, 10.976562500000, 1492762624
0.022216796875, -0.872070312500, 0.408935546875, 15.117187500000, -28.578125000000, -0.812500000000, 1492762624
0.022216796875, -0.872070312500, 0.408935546875, 15.117187500000, -28.578125000000, -0.812500000000, 1492762624
0.022216796875, -0.872070312500, 0.408935546875, 15.117187500000, -28.578125000000, -0.812500000000, 1492762624
0.022216796875, -0.872070312500, 0.408935546875, 15.117187500000, -28.578125000000, -0.812500000000, 1492762624
0.020751953125, -0.830078125000, 0.218994140625, 1.273437500000, -9.171875000000, 4.414062500000, 1492762624
0.020751953125, -0.830078125000, 0.218994140625, 1.273437500000, -9.171875000000, 4.414062500000, 1492762624
0.020751953125, -0.830078125000, 0.218994140625, 1.273437500000, -9.171875000000, 4.414062500000, 1492762624
-0.062500000000, -0.937744140625, 0.302001953125, 40.531250000000, -60.007812500000, -7.265625000000, 1492762624
-0.062500000000, -0.937744140625, 0.302001953125, 40.531250000000, -60.007812500000, -7.265625000000, 1492762624
-0.062500000000, -0.937744140625, 0.302001953125, 40.531250000000, -60.007812500000, -7.265625000000, 1492762624
0.055664062500, -0.946777343750, 0.420898437500, -21.000000000000, -66.382812500000, -30.359375000000, 1492762624
0.055664062500, -0.946777343750, 0.420898437500, -21.000000000000, -66.382812500000, -30.359375000000, 1492762624
0.055664062500, -0.946777343750, 0.420898437500, -21.000000000000, -66.382812500000, -30.359375000000, 1492762624
0.037841796875, -1.154052734375, 0.458984375000, -36.929687500000, -69.054687500000, -33.679687500000, 1492762624
0.037841796875, -1.154052734375, 0.458984375000, -36.929687500000, -69.054687500000, -33.679687500000, 1492762624
0.037841796875, -1.154052734375, 0.458984375000, -36.929687500000, -69.054687500000, -33.679687500000, 1492762624
0.190917968750, -1.139160156250, 0.509033203125, -41.265625000000, -47.296875000000, -30.117187500000, 1492762624
0.187744140625, -1.101318359375, 0.359863281250, -41.265625000000, -47.296875000000, -30.117187500000, 1492762624
0.187744140625, -1.101318359375, 0.359863281250, -41.265625000000, -47.296875000000, -30.117187500000, 1492762624
0.187744140625, -1.101318359375, 0.359863281250, -41.265625000000, -47.296875000000, -30.117187500000, 1492762624
0.041015625000, -0.849609375000, 0.135498046875, 14.953125000000, -30.992187500000, -28.031250000000, 1492762624
0.041015625000, -0.849609375000, 0.135498046875, 14.953125000000, -30.992187500000, -28.031250000000, 1492762625
0.034179687500, -0.739257812500, 0.126220703125, 62.804687500000, -50.390625000000, -21.343750000000, 1492762625
0.068115234375, -0.621337890625, 0.217285156250, 62.953125000000, -53.000000000000, -22.546875000000, 1492762625
0.068115234375, -0.621337890625, 0.217285156250, 62.953125000000, -53.000000000000, -22.546875000000, 1492762625
0.068115234375, -0.621337890625, 0.217285156250, 62.953125000000, -53.000000000000, -22.546875000000, 1492762625
-0.080566406250, -0.654541015625, 0.144042968750, -10.312500000000, -40.648437500000, -15.320312500000, 1492762625
-0.080566406250, -0.654541015625, 0.144042968750, -10.312500000000, -40.648437500000, -15.320312500000, 1492762625
-0.080566406250, -0.654541015625, 0.144042968750, -10.312500000000, -40.648437500000, -15.320312500000, 1492762625
-0.080566406250, -0.654541015625, 0.144042968750, -10.312500000000, -40.648437500000, -15.320312500000, 1492762625
-0.167724609375, -1.000732421875, 0.106689453125, -39.546875000000, -80.046875000000, -25.093750000000, 1492762625
-0.167724609375, -1.000732421875, 0.106689453125, -39.546875000000, -80.046875000000, -25.093750000000, 1492762625
-0.167724609375, -1.000732421875, 0.106689453125, -39.546875000000, -80.046875000000, -25.093750000000, 1492762625
0.011718750000, -1.107910156250, 0.325195312500, -16.382812500000, -68.296875000000, -30.546875000000, 1492762625
0.011718750000, -1.107910156250, 0.325195312500, -16.382812500000, -68.296875000000, -30.546875000000, 1492762625
0.011718750000, -1.107910156250, 0.325195312500, -16.382812500000, -68.296875000000, -30.546875000000, 1492762625
-0.007812500000, -0.932861328125, 0.174804687500, 34.187500000000, -40.562500000000, -24.828125000000, 1492762625
-0.007812500000, -0.932861328125, 0.174804687500, 34.187500000000, -40.562500000000, -24.828125000000, 1492762625
-0.007812500000, -0.932861328125, 0.174804687500, 34.187500000000, -40.562500000000, -24.828125000000, 1492762625
0.044433593750, -0.746093750000, 0.285644531250, 41.437500000000, -34.140625000000, -19.789062500000, 1492762625
0.044433593750, -0.746093750000, 0.285644531250, 41.437500000000, -34.140625000000, -19.789062500000, 1492762625
0.044433593750, -0.746093750000, 0.285644531250, 41.437500000000, -34.140625000000, -19.789062500000, 1492762625
0.044433593750, -0.746093750000, 0.285644531250, 41.437500000000, -34.140625000000, -19.789062500000, 1492762625
0.006591796875, -0.732910156250, 0.271484375000, -28.484375000000, -19.750000000000, -2.960937500000, 1492762625
0.006591796875, -0.732910156250, 0.271484375000, -28.484375000000, -19.750000000000, -2.960937500000, 1492762625
0.006591796875, -0.732910156250, 0.271484375000, -28.484375000000, -19.750000000000, -2.960937500000, 1492762625
-0.156005859375, -0.858154296875, 0.257324218750, -40.921875000000, -44.203125000000, -20.656250000000, 1492762625
-0.156005859375, -0.858154296875, 0.257324218750, -40.921875000000, -44.203125000000, -20.656250000000, 1492762625
-0.156005859375, -0.858154296875, 0.257324218750, -40.921875000000, -44.203125000000, -20.656250000000, 1492762625
-0.030517578125, -0.874755859375, 0.300537109375, 3.882812500000, -50.257812500000, 14.664062500000, 1492762625
-0.030517578125, -0.874755859375, 0.300537109375, 3.882812500000, -50.257812500000, 14.664062500000, 1492762625
-0.030517578125, -0.874755859375, 0.300537109375, 3.882812500000, -50.257812500000, 14.664062500000, 1492762625
-0.011718750000, -0.802001953125, 0.319335937500, -2.710937500000, -11.257812500000, 3.164062500000, 1492762625
-0.011718750000, -0.802001953125, 0.319335937500, -2.710937500000, -11.257812500000, 3.164062500000, 1492762625
-0.011718750000, -0.802001953125, 0.319335937500, -2.710937500000, -11.257812500000, 3.164062500000, 1492762625
-0.011718750000, -0.802001953125, 0.319335937500, -2.710937500000, -11.257812500000, 3.164062500000, 1492762625
0.069091796875, -0.837646484375, 0.335937500000, -11.710937500000, -3.320312500000, -0.023437500000, 1492762625
0.069091796875, -0.837646484375, 0.335937500000, -11.710937500000, -3.320312500000, -0.023437500000, 1492762625
0.069091796875, -0.837646484375, 0.335937500000, -11.710937500000, -3.320312500000, -0.023437500000, 1492762625
0.063720703125, -0.904052734375, 0.376220703125, -9.460937500000, 17.632812500000, 8.390625000000, 1492762625
0.063720703125, -0.904052734375, 0.376220703125, -9.460937500000, 17.632812500000, 8.390625000000, 1492762625
0.063720703125, -0.904052734375, 0.376220703125, -9.460937500000, 17.632812500000, 8.390625000000, 1492762625
0.008056640625, -0.860107421875, 0.443847656250, -24.179687500000, 41.476562500000, -5.828125000000, 1492762625
0.008056640625, -0.860107421875, 0.443847656250, -24.179687500000, 41.476562500000, -5.828125000000, 1492762625
0.008056640625, -0.860107421875, 0.443847656250, -24.179687500000, 41.476562500000, -5.828125000000, 1492762625
-0.067871093750, -1.005859375000, 0.373535156250, -23.125000000000, 28.109375000000, 2.109375000000, 1492762625
-0.067871093750, -1.005859375000, 0.373535156250, -23.125000000000, 28.109375000000, 2.109375000000, 1492762625
-0.067871093750, -1.005859375000, 0.373535156250, -23.125000000000, 28.109375000000, 2.109375000000, 1492762625
-0.067871093750, -1.005859375000, 0.373535156250, -23.125000000000, 28.109375000000, 2.109375000000, 1492762625
-0.067626953125, -1.083007812500, 0.514892578125, -56.148437500000, 38.750000000000, -6.851562500000, 1492762625
-0.067626953125, -1.083007812500, 0.514892578125, -56.148437500000, 38.750000000000, -6.851562500000, 1492762625
-0.067626953125, -1.083007812500, 0.514892578125, -56.148437500000, 38.750000000000, -6.851562500000, 1492762625
0.006347656250, -0.902832031250, 0.278320312500, 0.304687500000, 40.750000000000, 2.773437500000, 1492762625
0.006347656250, -0.902832031250, 0.278320312500, 0.304687500000, 40.750000000000, 2.773437500000, 1492762625
0.006347656250, -0.902832031250, 0.278320312500, 0.304687500000, 40.750000000000, 2.773437500000, 1492762625
0.070800781250, -0.679443359375, 0.217041015625, 15.140625000000, 43.132812500000, 2.531250000000, 1492762625
0.070800781250, -0.679443359375, 0.217041015625, 15.140625000000, 43.132812500000, 2.531250000000, 1492762625
0.070800781250, -0.679443359375, 0.217041015625, 15.140625000000, 43.132812500000, 2.531250000000, 1492762625
0.134765625000, -0.623046875000, 0.059814453125, -29.929687500000, 78.335937500000, 4.273437500000, 1492762625
0.134765625000, -0.623046875000, 0.059814453125, -29.929687500000, 78.335937500000, 4.273437500000, 1492762625
0.134765625000, -0.623046875000, 0.059814453125, -29.929687500000, 78.335937500000, 4.273437500000, 1492762625
0.134765625000, -0.623046875000, 0.059814453125, -29.929687500000, 78.335937500000, 4.273437500000, 1492762625
0.215332031250, -0.937011718750, 0.250732421875, -37.273437500000, 87.031250000000, 1.242187500000, 1492762625
0.215332031250, -0.937011718750, 0.250732421875, -37.273437500000, 87.031250000000, 1.242187500000, 1492762625
0.215332031250, -0.937011718750, 0.250732421875, -37.273437500000, 87.031250000000, 1.242187500000, 1492762625
0.022460937500, -1.051513671875, 0.371337890625, 9.914062500000, 41.570312500000, 25.726562500000, 1492762625
0.022460937500, -1.051513671875, 0.371337890625, 9.914062500000, 41.570312500000, 25.726562500000, 1492762625
0.022460937500, -1.051513671875, 0.371337890625, 9.914062500000, 41.570312500000, 25.726562500000, 1492762625
-0.010253906250, -0.865234375000, 0.185546875000, 31.546875000000, 62.343750000000, 29.085937500000, 1492762626
-0.010253906250, -0.865234375000, 0.185546875000, 31.546875000000, 62.343750000000, 29.085937500000, 1492762626
-0.010253906250, -0.865234375000, 0.185546875000, 31.546875000000, 62.343750000000, 29.085937500000, 1492762626
-0.076171875000, -0.776367187500, 0.288330078125, 32.265625000000, 15.992187500000, -5.781250000000, 1492762626
-0.076171875000, -0.776367187500, 0.288330078125, 32.265625000000, 15.992187500000, -5.781250000000, 1492762626
-0.076171875000, -0.776367187500, 0.288330078125, 32.265625000000, 15.992187500000, -5.781250000000, 1492762626
-0.076171875000, -0.776367187500, 0.288330078125, 32.265625000000, 15.992187500000, -5.781250000000, 1492762626
0.015380859375, -0.720703125000, 0.233154296875, -29.960937500000, 44.265625000000, -1.156250000000, 1492762626
0.015380859375, -0.720703125000, 0.233154296875, -29.960937500000, 44.265625000000, -1.156250000000, 1492762626
0.015380859375, -0.720703125000, 0.233154296875, -29.960937500000, 44.265625000000, -1.156250000000, 1492762626
-0.003906250000, -0.844238281250, 0.260986328125, -30.898437500000, 14.796875000000, 13.289062500000, 1492762626
-0.003906250000, -0.844238281250, 0.260986328125, -30.898437500000, 14.796875000000, 13.289062500000, 1492762626
-0.003906250000, -0.844238281250, 0.260986328125, -30.898437500000, 14.796875000000, 13.289062500000, 1492762626
0.009765625000, -0.890869140625, 0.315673828125, 6.968750000000, -26.289062500000, 7.601562500000, 1492762626
0.009765625000, -0.890869140625, 0.315673828125, 6.968750000000, -26.289062500000, 7.601562500000, 1492762626
0.009765625000, -0.890869140625, 0.315673828125, 6.968750000000, -26.289062500000, 7.601562500000, 1492762626
-0.000732421875, -1.004394531250, 0.381835937500, -6.210937500000, -22.109375000000, -7.320312500000, 1492762626
-0.000732421875, -1.004394531250, 0.381835937500, -6.210937500000, -22.109375000000, -7.320312500000, 1492762626
-0.000732421875, -1.004394531250, 0.381835937500, -6.210937500000, -22.109375000000, -7.320312500000, 1492762626
-0.000732421875, -1.004394531250, 0.381835937500, -6.210937500000, -22.109375000000, -7.320312500000, 1492762626
0.074218750000, -0.997070312500, 0.303710937500, -31.828125000000, -34.992187500000, -17.218750000000, 1492762626
0.074218750000, -0.997070312500, 0.303710937500, -31.828125000000, -34.992187500000, -17.218750000000, 1492762626
0.074218750000, -0.997070312500, 0.303710937500, -31.828125000000, -34.992187500000, -17.218750000000, 1492762626
-0.011474609375, -1.147949218750, 0.485351562500, -49.718750000000, -42.804687500000, -20.914062500000, 1492762626
-0.011474609375, -1.147949218750, 0.485351562500, -49.718750000000, -42.804687500000, -20.914062500000, 1492762626
-0.011474609375, -1.147949218750, 0.485351562500, -49.718750000000, -42.804687500000, -20.914062500000, 1492762626
0.025634765625, -0.876708984375, 0.159667968750, 12.507812500000, 0.882812500000, -14.062500000000, 1492762626
0.025634765625, -0.876708984375, 0.159667968750, 12.507812500000, 0.882812500000, -14.062500000000, 1492762626
0.025634765625, -0.876708984375, 0.159667968750, 12.507812500000, 0.882812500000, -14.062500000000, 1492762626
-0.012695312500, -0.607177734375, 0.104980468750, 35.601562500000, -47.820312500000, -4.007812500000, 1492762626
-0.012695312500, -0.607177734375, 0.104980468750, 35.601562500000, -47.820312500000, -4.007812500000, 1492762626
-0.012695312500, -0.607177734375, 0.104980468750, 35.601562500000, -47.820312500000, -4.007812500000, 1492762626
-0.012695312500, -0.607177734375, 0.104980468750, 35.601562500000, -47.820312500000, -4.007812500000, 1492762626
0.011718750000, -0.634521484375, 0.115478515625, -14.570312500000, -56.460937500000, -1.523437500000, 1492762626
0.011718750000, -0.634521484375, 0.115478515625, -14.570312500000, -56.460937500000, -1.523437500000, 1492762626
0.011718750000, -0.634521484375, 0.115478515625, -14.570312500000, -56.460937500000, -1.523437500000, 1492762626
-0.115234375000, -0.879150390625, 0.228271484375, -49.726562500000, -41.468750000000, -6.343750000000, 1492762626
-0.115234375000, -0.879150390625, 0.228271484375, -49.726562500000, -41.468750000000, -6.343750000000, 1492762626
-0.115234375000, -0.879150390625, 0.228271484375, -49.726562500000, -41.468750000000, -6.343750000000, 1492762626
-0.218017578125, -1.133300781250, 0.387695312500, -23.375000000000, -41.875000000000, -10.156250000000, 1492762626
-0.218017578125, -1.133300781250, 0.387695312500, -23.375000000000, -41.875000000000, -10.156250000000, 1492762626
-0.218017578125, -1.133300781250, 0.387695312500, -23.375000000000, -41.875000000000, -10.156250000000, 1492762626
0.071533203125, -0.892333984375, 0.333496093750, 70.468750000000, -74.117187500000, -1.445312500000, 1492762626
0.071533203125, -0.892333984375, 0.333496093750, 70.468750000000, -74.117187500000, -1.445312500000, 1492762626
0.071533203125, -0.892333984375, 0.333496093750, 70.468750000000, -74.117187500000, -1.445312500000, 1492762626
0.071533203125, -0.892333984375, 0.333496093750, 70.468750000000, -74.117187500000, -1.445312500000, 1492762626
0.054443359375, -0.777832031250, 0.387451171875, 45.125000000000, -24.554687500000, 0.953125000000, 1492762626
0.054443359375, -0.777832031250, 0.387451171875, 45.125000000000, -24.554687500000, 0.953125000000, 1492762626
0.054443359375, -0.777832031250, 0.387451171875, 45.125000000000, -24.554687500000, 0.953125000000, 1492762626
0.063232421875, -0.657470703125, 0.338378906250, -23.046875000000, -22.343750000000, 0.109375000000, 1492762626
0.063232421875, -0.657470703125, 0.338378906250, -23.046875000000, -22.343750000000, 0.109375000000, 1492762626
0.063232421875, -0.657470703125, 0.338378906250, -23.046875000000, -22.343750000000, 0.109375000000, 1492762626
0.016845703125, -0.810791015625, 0.325195312500, -46.375000000000, 0.843750000000, -31.367187500000, 1492762626
0.016845703125, -0.810791015625, 0.325195312500, -46.375000000000, 0.843750000000, -31.367187500000, 1492762626
0.016845703125, -0.810791015625, 0.325195312500, -46.375000000000, 0.843750000000, -31.367187500000, 1492762626
-0.019531250000, -0.870117187500, 0.291503906250, 20.484375000000, 1.882812500000, 1.828125000000, 1492762626
-0.019531250000, -0.870117187500, 0.291503906250, 20.484375000000, 1.882812500000, 1.828125000000, 1492762626
-0.019531250000, -0.870117187500, 0.291503906250, 20.484375000000, 1.882812500000, 1.828125000000, 1492762626
-0.019531250000, -0.870117187500, 0.291503906250, 20.484375000000, 1.882812500000, 1.828125000000, 1492762626
-0.012939453125, -0.854492187500, 0.455322265625, 10.500000000000, -5.000000000000, 3.515625000000, 1492762626
-0.012939453125, -0.854492187500, 0.455322265625, 10.500000000000, -5.000000000000, 3.515625000000, 1492762626
-0.012939453125, -0.854492187500, 0.455322265625, 10.500000000000, -5.000000000000, 3.515625000000, 1492762626
-0.004394531250, -0.883300781250, 0.298828125000, -20.375000000000, 11.851562500000, 4.937500000000, 1492762626
-0.004394531250, -0.883300781250, 0.298828125000, -20.375000000000, 11.851562500000, 4.937500000000, 1492762626
-0.004394531250, -0.883300781250, 0.298828125000, -20.375000000000, 11.851562500000, 4.937500000000, 1492762626
-0.079345703125, -0.865966796875, 0.290283203125, -20.218750000000, 29.015625000000, 12.976562500000, 1492762626
-0.079345703125, -0.865966796875, 0.290283203125, -20.218750000000, 29.015625000000, 12.976562500000, 1492762626
-0.079345703125, -0.865966796875, 0.290283203125, -20.218750000000, 29.015625000000, 12.976562500000, 1492762627
-0.079589843750, -1.201660156250, 0.503173828125, -59.445312500000, 40.359375000000, 20.695312500000, 1492762627
-0.079589843750, -1.201660156250, 0.503173828125, -59.445312500000, 40.359375000000, 20.695312500000, 1492762627
-0.079589843750, -1.201660156250, 0.503173828125, -59.445312500000, 40.359375000000, 20.695312500000, 1492762627
-0.079589843750, -1.201660156250, 0.503173828125, -59.445312500000, 40.359375000000, 20.695312500000, 1492762627
0.074462890625, -1.010986328125, 0.300537109375, -18.156250000000, 14.531250000000, 5.843750000000, 1492762627
0.074462890625, -1.010986328125, 0.300537109375, -18.156250000000, 14.531250000000, 5.843750000000, 1492762627
0.074462890625, -1.010986328125, 0.300537109375, -18.156250000000, 14.531250000000, 5.843750000000, 1492762627
0.046142578125, -0.770507812500, 0.206054687500, 54.726562500000, 10.273437500000, 6.609375000000, 1492762627
0.046142578125, -0.770507812500, 0.206054687500, 54.726562500000, 10.273437500000, 6.609375000000, 1492762627
0.046142578125, -0.770507812500, 0.206054687500, 54.726562500000, 10.273437500000, 6.609375000000, 1492762627
-0.020507812500, -0.643554687500, 0.043945312500, 38.679687500000, 15.617187500000, -11.968750000000, 1492762627
-0.020507812500, -0.643554687500, 0.043945312500, 38.679687500000, 15.617187500000, -11.968750000000, 1492762627
-0.020507812500, -0.643554687500, 0.043945312500, 38.679687500000, 15.617187500000, -11.968750000000, 1492762627
0.252197265625, -0.739257812500, 0.178955078125, -52.507812500000, 44.218750000000, 3.851562500000, 1492762627
0.252197265625, -0.739257812500, 0.178955078125, -52.507812500000, 44.218750000000, 3.851562500000, 1492762627
0.252197265625, -0.739257812500, 0.178955078125, -52.507812500000, 44.218750000000, 3.851562500000, 1492762627
0.252197265625, -0.739257812500, 0.178955078125, -52.507812500000, 44.218750000000, 3.851562500000, 1492762627
0.168945312500, -1.030029296875, 0.109375000000, -30.968750000000, 75.882812500000, 28.070312500000, 1492762627
0.168945312500, -1.030029296875, 0.109375000000, -30.968750000000, 75.882812500000, 28.070312500000, 1492762627
0.168945312500, -1.030029296875, 0.109375000000, -30.968750000000, 75.882812500000, 28.070312500000, 1492762627
0.095458984375, -1.029541015625, 0.236816406250, 33.968750000000, 51.140625000000, 34.359375000000, 1492762627
0.095458984375, -1.029541015625, 0.236816406250, 33.968750000000, 51.140625000000, 34.359375000000, 1492762627
0.095458984375, -1.029541015625, 0.236816406250, 33.968750000000, 51.140625000000, 34.359375000000, 1492762627
-0.002441406250, -0.898437500000, 0.229736328125, 47.687500000000, 62.812500000000, 32.843750000000, 1492762627
-0.002441406250, -0.898437500000, 0.229736328125, 47.687500000000, 62.812500000000, 32.843750000000, 1492762627
-0.002441406250, -0.898437500000, 0.229736328125, 47.687500000000, 62.812500000000, 32.843750000000, 1492762627
0.027343750000, -0.781738281250, 0.170654296875, 30.632812500000, 59.554687500000, 0.343750000000, 1492762627
0.027343750000, -0.781738281250, 0.170654296875, 30.632812500000, 59.554687500000, 0.343750000000, 1492762627
0.027343750000, -0.781738281250, 0.170654296875, 30.632812500000, 59.554687500000, 0.343750000000, 1492762627
0.027343750000, -0.781738281250, 0.170654296875, 30.632812500000, 59.554687500000, 0.343750000000, 1492762627
0.035644531250, -0.809082031250, 0.259765625000, -12.843750000000, 31.921875000000, -5.867187500000, 1492762627
0.035644531250, -0.809082031250, 0.259765625000, -12.843750000000, 31.921875000000, -5.867187500000, 1492762627
0.035644531250, -0.809082031250, 0.259765625000, -12.843750000000, 31.921875000000, -5.867187500000, 1492762627
0.144531250000, -0.857177734375, 0.267822265625, -21.210937500000, 7.609375000000, -7.734375000000, 1492762627
0.144531250000, -0.857177734375, 0.267822265625, -21.210937500000, 7.609375000000, -7.734375000000, 1492762627
0.144531250000, -0.857177734375, 0.267822265625, -21.210937500000, 7.609375000000, -7.734375000000, 1492762627
0.142333984375, -0.873291015625, 0.280517578125, -7.023437500000, -3.515625000000, -8.187500000000, 1492762627
0.142333984375, -0.873291015625, 0.280517578125, -7.023437500000, -3.515625000000, -8.187500000000, 1492762627
0.142333984375, -0.873291015625, 0.280517578125, -7.023437500000, -3.515625000000, -8.187500000000, 1492762627
0.043701171875, -0.950927734375, 0.234130859375, -17.898437500000, -9.875000000000, -9.273437500000, 1492762627
0.043701171875, -0.950927734375, 0.234130859375, -17.898437500000, -9.875000000000, -9.273437500000, 1492762627
0.043701171875, -0.950927734375, 0.234130859375, -17.898437500000, -9.875000000000, -9.273437500000, 1492762627
0.043701171875, -0.950927734375, 0.234130859375, -17.898437500000, -9.875000000000, -9.273437500000, 1492762627
0.089843750000, -0.919921875000, 0.325439453125, -17.539062500000, -16.906250000000, -21.000000000000, 1492762627
0.089843750000, -0.919921875000, 0.325439453125, -17.539062500000, -16.906250000000, -21.000000000000, 1492762627
0.089843750000, -0.919921875000, 0.325439453125, -17.539062500000, -16.906250000000, -21.000000000000, 1492762627
0.072265625000, -0.972656250000, 0.306152343750, -25.218750000000, -20.398437500000, -16.929687500000, 1492762627
0.072265625000, -0.972656250000, 0.306152343750, -25.218750000000, -20.398437500000, -16.929687500000, 1492762627
0.072265625000, -0.972656250000, 0.306152343750, -25.218750000000, -20.398437500000, -16.929687500000, 1492762627
0.043212890625, -1.081542968750, 0.527099609375, -68.648437500000, -5.867187500000, -28.976562500000, 1492762627
0.043212890625, -1.081542968750, 0.527099609375, -68.648437500000, -5.867187500000, -28.976562500000, 1492762627
0.043212890625, -1.081542968750, 0.527099609375, -68.648437500000, -5.867187500000, -28.976562500000, 1492762627
0.143066406250, -0.880126953125, 0.121337890625, -7.250000000000, 0.257812500000, -20.242187500000, 1492762627
0.143066406250, -0.880126953125, 0.121337890625, -7.250000000000, 0.257812500000, -20.242187500000, 1492762627
0.143066406250, -0.880126953125, 0.121337890625, -7.250000000000, 0.257812500000, -20.242187500000, 1492762627
0.143066406250, -0.880126953125, 0.121337890625, -7.250000000000, 0.257812500000, -20.242187500000, 1492762627
0.006835937500, -0.690917968750, 0.102783203125, 59.000000000000, -26.585937500000, -8.000000000000, 1492762627
0.006835937500, -0.690917968750, 0.102783203125, 59.000000000000, -26.585937500000, -8.000000000000, 1492762627
0.006835937500, -0.690917968750, 0.102783203125, 59.000000000000, -26.585937500000, -8.000000000000, 1492762627
-0.074707031250, -0.597656250000, 0.153808593750, 26.226562500000, -12.484375000000, -18.992187500000, 1492762627
-0.074707031250, -0.597656250000, 0.153808593750, 26.226562500000, -12.484375000000, -18.992187500000, 1492762627
-0.074707031250, -0.597656250000, 0.153808593750, 26.226562500000, -12.484375000000, -18.992187500000, 1492762627
-0.110107421875, -0.875488281250, 0.251220703125, -69.789062500000, 2.843750000000, -21.328125000000, 1492762627
-0.110107421875, -0.875488281250, 0.251220703125, -69.789062500000, 2.843750000000, -21.328125000000, 1492762627
-0.110107421875, -0.875488281250, 0.251220703125, -69.789062500000, 2.843750000000, -21.328125000000, 1492762627
0.019775390625, -1.087158203125, 0.240478515625, -5.195312500000, -95.914062500000, -0.726562500000, 1492762628
0.019775390625, -1.087158203125, 0.240478515625, -5.195312500000, -95.914062500000, -0.726562500000, 1492762628
0.019775390625, -1.087158203125, 0.240478515625, -5.195312500000, -95.914062500000, -0.726562500000, 1492762628
0.019775390625, -1.087158203125, 0.240478515625, -5.195312500000, -95.914062500000, -0.726562500000, 1492762628
-0.027343750000, -0.869384765625, 0.317626953125, 107.210937500000, -116.757812500000, -10.250000000000, 1492762628
-0.027343750000, -0.869384765625, 0.317626953125, 107.210937500000, -116.757812500000, -10.250000000000, 1492762628
-0.027343750000, -0.869384765625, 0.317626953125, 107.210937500000, -116.757812500000, -10.250000000000, 1492762628
-0.001953125000, -0.748291015625, 0.421142578125, 42.054687500000, -42.007812500000, -7.507812500000, 1492762628
-0.001953125000, -0.748291015625, 0.421142578125, 42.054687500000, -42.007812500000, -7.507812500000, 1492762628
-0.001953125000, -0.748291015625, 0.421142578125, 42.054687500000, -42.007812500000, -7.507812500000, 1492762628
0.009277343750, -0.657958984375, 0.274414062500, -36.023437500000, -6.476562500000, -1.414062500000, 1492762628
0.009277343750, -0.657958984375, 0.274414062500, -36.023437500000, -6.476562500000, -1.414062500000, 1492762628
0.009277343750, -0.657958984375, 0.274414062500, -36.023437500000, -6.476562500000, -1.414062500000, 1492762628
-0.022216796875, -0.829101562500, 0.320556640625, -18.710937500000, -6.273437500000, -9.109375000000, 1492762628
-0.022216796875, -0.829101562500, 0.320556640625, -18.710937500000, -6.273437500000, -9.109375000000, 1492762628
-0.022216796875, -0.829101562500, 0.320556640625, -18.710937500000, -6.273437500000, -9.109375000000, 1492762628
-0.022216796875, -0.829101562500, 0.320556640625, -18.710937500000, -6.273437500000, -9.109375000000, 1492762628
0.022949218750, -0.904541015625, 0.281738281250, 10.671875000000, -8.859375000000, -7.054687500000, 1492762628
0.022949218750, -0.904541015625, 0.281738281250, 10.671875000000, -8.859375000000, -7.054687500000, 1492762628
0.022949218750, -0.904541015625, 0.281738281250, 10.671875000000, -8.859375000000, -7.054687500000, 1492762628
0.017578125000, -0.877197265625, 0.396240234375, 2.296875000000, 20.671875000000, -0.734375000000, 1492762628
0.017578125000, -0.877197265625, 0.396240234375, 2.296875000000, 20.671875000000, -0.734375000000, 1492762628
0.017578125000, -0.877197265625, 0.396240234375, 2.296875000000, 20.671875000000, -0.734375000000, 1492762628
-0.018066406250, -0.801025390625, 0.383544921875, -11.906250000000, 22.234375000000, 7.976562500000, 1492762628
-0.018066406250, -0.801025390625, 0.383544921875, -11.906250000000, 22.234375000000, 7.976562500000, 1492762628
-0.018066406250, -0.801025390625, 0.383544921875, -11.906250000000, 22.234375000000, 7.976562500000, 1492762628
0.022949218750, -0.897949218750, 0.347900390625, -28.609375000000, 30.906250000000, 9.867187500000, 1492762628
0.022949218750, -0.897949218750, 0.347900390625, -28.609375000000, 30.906250000000, 9.867187500000, 1492762628
0.022949218750, -0.897949218750, 0.347900390625, -28.609375000000, 30.906250000000, 9.867187500000, 1492762628
0.022949218750, -0.897949218750, 0.347900390625, -28.609375000000, 30.906250000000, 9.867187500000, 1492762628
-0.036132812500, -0.963134765625, 0.350097656250, -17.937500000000, 29.382812500000, 14.023437500000, 1492762628
-0.036132812500, -0.963134765625, 0.350097656250, -17.937500000000, 29.382812500000, 14.023437500000, 1492762628
-0.036132812500, -0.963134765625, 0.350097656250, -17.937500000000, 29.382812500000, 14.023437500000, 1492762628
0.089843750000, -1.193115234375, 0.478027343750, -52.023437500000, 28.734375000000, 18.781250000000, 1492762628
0.089843750000, -1.193115234375, 0.478027343750, -52.023437500000, 28.734375000000, 18.781250000000, 1492762628
0.089843750000, -1.193115234375, 0.478027343750, -52.023437500000, 28.734375000000, 18.781250000000, 1492762628
-0.067626953125, -1.021484375000, 0.468750000000, -55.546875000000, 51.757812500000, 14.867187500000, 1492762628
-0.067626953125, -1.021484375000, 0.468750000000, -55.546875000000, 51.757812500000, 14.867187500000, 1492762628
-0.067626953125, -1.021484375000, 0.468750000000, -55.546875000000, 51.757812500000, 14.867187500000, 1492762628
0.045654296875, -0.750244140625, 0.132568359375, 64.039062500000, 56.429687500000, 9.664062500000, 1492762628
0.045654296875, -0.750244140625, 0.132568359375, 64.039062500000, 56.429687500000, 9.664062500000, 1492762628
0.045654296875, -0.750244140625, 0.132568359375, 64.039062500000, 56.429687500000, 9.664062500000, 1492762628
0.045654296875, -0.750244140625, 0.132568359375, 64.039062500000, 56.429687500000, 9.664062500000, 1492762628
0.055664062500, -0.662353515625, 0.111816406250, -46.632812500000, 31.921875000000, 24.531250000000, 1492762628
0.055664062500, -0.662353515625, 0.111816406250, -46.632812500000, 31.921875000000, 24.531250000000, 1492762628
0.055664062500, -0.662353515625, 0.111816406250, -46.632812500000, 31.921875000000, 24.531250000000, 1492762628
0.055664062500, -0.662353515625, 0.111816406250, -46.632812500000, 31.921875000000, 24.531250000000, 1492762628
0.055664062500, -0.662353515625, 0.111816406250, -46.632812500000, 31.921875000000, 24.531250000000, 1492762628
0.055664062500, -0.662353515625, 0.111816406250, -46.632812500000, 31.921875000000, 24.531250000000, 1492762628
0.085937500000, -1.042480468750, 0.454589843750, -95.796875000000, 99.562500000000, 20.789062500000, 1492762628
0.085937500000, -1.042480468750, 0.454589843750, -95.796875000000, 99.562500000000, 20.789062500000, 1492762628
0.085937500000, -1.042480468750, 0.454589843750, -95.796875000000, 99.562500000000, 20.789062500000, 1492762628
0.142089843750, -0.919189453125, 0.149658203125, 21.195312500000, 56.132812500000, 33.906250000000, 1492762628
0.142089843750, -0.919189453125, 0.149658203125, 21.195312500000, 56.132812500000, 33.906250000000, 1492762628
0.142089843750, -0.919189453125, 0.149658203125, 21.195312500000, 56.132812500000, 33.906250000000, 1492762628
0.142089843750, -0.919189453125, 0.149658203125, 21.195312500000, 56.132812500000, 33.906250000000, 1492762628
0.024169921875, -0.811035156250, 0.334228515625, 108.093750000000, 1.664062500000, 18.718750000000, 1492762628
0.024169921875, -0.811035156250, 0.334228515625, 108.093750000000, 1.664062500000, 18.718750000000, 1492762628
0.024169921875, -0.811035156250, 0.334228515625, 108.093750000000, 1.664062500000, 18.718750000000, 1492762628
-0.075439453125, -0.781005859375, 0.514892578125, 24.765625000000, 5.445312500000, -9.179687500000, 1492762628
-0.075439453125, -0.781005859375, 0.514892578125, 24.765625000000, 5.445312500000, -9.179687500000, 1492762628
-0.075439453125, -0.781005859375, 0.514892578125, 24.765625000000, 5.445312500000, -9.179687500000, 1492762628
-0.027099609375, -0.828369140625, 0.254150390625, -67.546875000000, 75.585937500000, -10.539062500000, 1492762628
-0.027099609375, -0.828369140625, 0.254150390625, -67.546875000000, 75.585937500000, -10.539062500000, 1492762628
-0.027099609375, -0.828369140625, 0.254150390625, -67.546875000000, 75.585937500000, -10.539062500000, 1492762628
-0.008300781250, -0.806640625000, 0.158691406250, 7.375000000000, -7.335937500000, -5.390625000000, 1492762628
-0.008300781250, -0.806640625000, 0.158691406250, 7.375000000000, -7.335937500000, -5.390625000000, 1492762628
-0.008300781250, -0.806640625000, 0.158691406250, 7.375000000000, -7.335937500000, -5.390625000000, 1492762629
-0.008300781250, -0.806640625000, 0.158691406250, 7.375000000000, -7.335937500000, -5.390625000000, 1492762629
-0.004638671875, -0.857177734375, 0.382568359375, 14.296875000000, -34.421875000000, -7.406250000000, 1492762629
-0.004638671875, -0.857177734375, 0.382568359375, 14.296875000000, -34.421875000000, -7.406250000000, 1492762629
-0.004638671875, -0.857177734375, 0.382568359375, 14.296875000000, -34.421875000000, -7.406250000000, 1492762629
0.009765625000, -0.861572265625, 0.299804687500, -2.085937500000, -42.835937500000, -30.515625000000, 1492762629
0.009765625000, -0.861572265625, 0.299804687500, -2.085937500000, -42.835937500000, -30.515625000000, 1492762629
0.009765625000, -0.861572265625, 0.299804687500, -2.085937500000, -42.835937500000, -30.515625000000, 1492762629
0.078125000000, -0.895263671875, 0.379882812500, -8.226562500000, -57.210937500000, -29.812500000000, 1492762629
0.078125000000, -0.895263671875, 0.379882812500, -8.226562500000, -57.210937500000, -29.812500000000, 1492762629
0.078125000000, -0.895263671875, 0.379882812500, -8.226562500000, -57.210937500000, -29.812500000000, 1492762629
-0.008056640625, -0.931640625000, 0.448242187500, -45.023437500000, -38.992187500000, -34.351562500000, 1492762629
-0.008056640625, -0.931640625000, 0.448242187500, -45.023437500000, -38.992187500000, -34.351562500000, 1492762629
-0.008056640625, -0.931640625000, 0.448242187500, -45.023437500000, -38.992187500000, -34.351562500000, 1492762629
-0.008056640625, -0.931640625000, 0.448242187500, -45.023437500000, -38.992187500000, -34.351562500000, 1492762629
0.047363281250, -0.989257812500, 0.347656250000, -58.023437500000, -69.210937500000, -15.656250000000, 1492762629
0.047363281250, -0.989257812500, 0.347656250000, -58.023437500000, -69.210937500000, -15.656250000000, 1492762629
0.047363281250, -0.989257812500, 0.347656250000, -58.023437500000, -69.210937500000, -15.656250000000, 1492762629
0.154296875000, -0.968994140625, 0.286865234375, 4.703125000000, -48.445312500000, -22.742187500000, 1492762629
0.154296875000, -0.968994140625, 0.286865234375, 4.703125000000, -48.445312500000, -22.742187500000, 1492762629
0.154296875000, -0.968994140625, 0.286865234375, 4.703125000000, -48.445312500000, -22.742187500000, 1492762629
0.065429687500, -0.804443359375, 0.326904296875, 50.781250000000, -27.398437500000, -16.914062500000, 1492762629
0.065429687500, -0.804443359375, 0.326904296875, 50.781250000000, -27.398437500000, -16.914062500000, 1492762629
0.065429687500, -0.804443359375, 0.326904296875, 50.781250000000, -27.398437500000, -16.914062500000, 1492762629
-0.011474609375, -0.648925781250, 0.183349609375, 1.406250000000, -5.242187500000, -7.578125000000, 1492762629
-0.011474609375, -0.648925781250, 0.183349609375, 1.406250000000, -5.242187500000, -7.578125000000, 1492762629
-0.011474609375, -0.648925781250, 0.183349609375, 1.406250000000, -5.242187500000, -7.578125000000, 1492762629
-0.011474609375, -0.648925781250, 0.183349609375, 1.406250000000, -5.242187500000, -7.578125000000, 1492762629
-0.137695312500, -0.679687500000, 0.160156250000, -32.273437500000, 4.335937500000, -12.312500000000, 1492762629
-0.137695312500, -0.679687500000, 0.160156250000, -32.273437500000, 4.335937500000, -12.312500000000, 1492762629
-0.137695312500, -0.679687500000, 0.160156250000, -32.273437500000, 4.335937500000, -12.312500000000, 1492762629
-0.190673828125, -0.920166015625, 0.316162109375, -44.531250000000, -30.851562500000, -13.343750000000, 1492762629
-0.190673828125, -0.920166015625, 0.316162109375, -44.531250000000, -30.851562500000, -13.343750000000, 1492762629
-0.190673828125, -0.920166015625, 0.316162109375, -44.531250000000, -30.851562500000, -13.343750000000, 1492762629
-0.137695312500, -1.009765625000, 0.441406250000, 16.468750000000, -58.851562500000, -13.585937500000, 1492762629
-0.137695312500, -1.009765625000, 0.441406250000, 16.468750000000, -58.851562500000, -13.585937500000, 1492762629
-0.137695312500, -1.009765625000, 0.441406250000, 16.468750000000, -58.851562500000, -13.585937500000, 1492762629
0.069091796875, -0.844482421875, 0.298095703125, 66.445312500000, -54.335937500000, -10.335937500000, 1492762629
0.069091796875, -0.844482421875, 0.298095703125, 66.445312500000, -54.335937500000, -10.335937500000, 1492762629
-0.004882812500, -0.755126953125, 0.383544921875, 26.609375000000, -28.406250000000, -2.390625000000, 1492762629
-0.004882812500, -0.755126953125, 0.383544921875, 26.609375000000, -28.406250000000, -2.390625000000, 1492762629
-0.004882812500, -0.755126953125, 0.383544921875, 26.609375000000, -28.406250000000, -2.390625000000, 1492762629
-0.004882812500, -0.755126953125, 0.383544921875, 26.609375000000, -28.406250000000, -2.390625000000, 1492762629
-0.004882812500, -0.755126953125, 0.383544921875, 26.609375000000, -28.406250000000, -2.390625000000, 1492762629
-0.033935546875, -0.738281250000, 0.341308593750, -28.031250000000, -20.445312500000, -10.125000000000, 1492762629
-0.033935546875, -0.738281250000, 0.341308593750, -28.031250000000, -20.445312500000, -10.125000000000, 1492762629
-0.033935546875, -0.738281250000, 0.341308593750, -28.031250000000, -20.445312500000, -10.125000000000, 1492762629
-0.003417968750, -0.896728515625, 0.313964843750, -12.984375000000, 4.406250000000, -7.343750000000, 1492762629
-0.003417968750, -0.896728515625, 0.313964843750, -12.984375000000, 4.406250000000, -7.343750000000, 1492762629
-0.003417968750, -0.896728515625, 0.313964843750, -12.984375000000, 4.406250000000, -7.343750000000, 1492762629
-0.038818359375, -0.883056640625, 0.382568359375, 7.851562500000, 23.375000000000, -5.109375000000, 1492762629
-0.038818359375, -0.883056640625, 0.382568359375, 7.851562500000, 23.375000000000, -5.109375000000, 1492762629
-0.038818359375, -0.883056640625, 0.382568359375, 7.851562500000, 23.375000000000, -5.109375000000, 1492762629
-0.038818359375, -0.883056640625, 0.382568359375, 7.851562500000, 23.375000000000, -5.109375000000, 1492762629
-0.090332031250, -0.805419921875, 0.302978515625, -5.554687500000, 27.304687500000, 3.156250000000, 1492762629
-0.090332031250, -0.805419921875, 0.302978515625, -5.554687500000, 27.304687500000, 3.156250000000, 1492762629
-0.090332031250, -0.805419921875, 0.302978515625, -5.554687500000, 27.304687500000, 3.156250000000, 1492762629
-0.087890625000, -0.867919921875, 0.287841796875, -17.507812500000, 36.781250000000, 11.773437500000, 1492762629
-0.087890625000, -0.867919921875, 0.287841796875, -17.507812500000, 36.781250000000, 11.773437500000, 1492762629
-0.087890625000, -0.867919921875, 0.287841796875, -17.507812500000, 36.781250000000, 11.773437500000, 1492762629
-0.035644531250, -0.959228515625, 0.388183593750, -20.304687500000, 34.562500000000, 15.093750000000, 1492762629
-0.035644531250, -0.959228515625, 0.388183593750, -20.304687500000, 34.562500000000, 15.093750000000, 1492762629
-0.035644531250, -0.959228515625, 0.388183593750, -20.304687500000, 34.562500000000, 15.093750000000, 1492762629
-0.065673828125, -1.080322265625, 0.470458984375, -46.867187500000, 40.250000000000, 19.273437500000, 1492762629
-0.065673828125, -1.080322265625, 0.470458984375, -46.867187500000, 40.250000000000, 19.273437500000, 1492762629
-0.065673828125, -1.080322265625, 0.470458984375, -46.867187500000, 40.250000000000, 19.273437500000, 1492762629
-0.065673828125, -1.080322265625, 0.470458984375, -46.867187500000, 40.250000000000, 19.273437500000, 1492762629
-0.037109375000, -1.056396484375, 0.577880859375, -89.757812500000, 78.296875000000, 25.492187500000, 1492762630
-0.037109375000, -1.056396484375, 0.577880859375, -89.757812500000, 78.296875000000, 25.492187500000, 1492762630
-0.037109375000, -1.056396484375, 0.577880859375, -89.757812500000, 78.296875000000, 25.492187500000, 1492762630
0.073730468750, -0.739501953125, 0.175781250000, -22.250000000000, 124.187500000000, 9.343750000000, 1492762630
0.073730468750, -0.739501953125, 0.175781250000, -22.250000000000, 124.187500000000, 9.343750000000, 1492762630
0.073730468750, -0.739501953125, 0.175781250000, -22.250000000000, 124.187500000000, 9.343750000000, 1492762630
0.048095703125, -0.573486328125, 0.036132812500, 50.695312500000, 33.890625000000, 21.828125000000, 1492762630
0.048095703125, -0.573486328125, 0.036132812500, 50.695312500000, 33.890625000000, 21.828125000000, 1492762630
0.048095703125, -0.573486328125, 0.036132812500, 50.695312500000, 33.890625000000, 21.828125000000, 1492762630
0.252197265625, -0.667480468750, 0.123535156250, -7.007812500000, 0.265625000000, 28.812500000000, 1492762630
0.252197265625, -0.667480468750, 0.123535156250, -7.007812500000, 0.265625000000, 28.812500000000, 1492762630
0.252197265625, -0.667480468750, 0.123535156250, -7.007812500000, 0.265625000000, 28.812500000000, 1492762630
0.252197265625, -0.667480468750, 0.123535156250, -7.007812500000, 0.265625000000, 28.812500000000, 1492762630
0.199218750000, -1.131103515625, 0.547851562500, -29.289062500000, -14.593750000000, 100.851562500000, 1492762630
0.199218750000, -1.131103515625, 0.547851562500, -29.289062500000, -14.593750000000, 100.851562500000, 1492762630
0.199218750000, -1.131103515625, 0.547851562500, -29.289062500000, -14.593750000000, 100.851562500000, 1492762630
0.280517578125, -1.021972656250, 0.288574218750, -6.625000000000, 78.132812500000, 23.945312500000, 1492762630
0.280517578125, -1.021972656250, 0.288574218750, -6.625000000000, 78.132812500000, 23.945312500000, 1492762630
0.280517578125, -1.021972656250, 0.288574218750, -6.625000000000, 78.132812500000, 23.945312500000, 1492762630
0.128662109375, -0.886718750000, 0.171386718750, 94.359375000000, 15.976562500000, 13.828125000000, 1492762630
0.128662109375, -0.886718750000, 0.171386718750, 94.359375000000, 15.976562500000, 13.828125000000, 1492762630
0.128662109375, -0.886718750000, 0.171386718750, 94.359375000000, 15.976562500000, 13.828125000000, 1492762630
-0.000976562500, -0.819091796875, 0.524658203125, 96.156250000000, -6.148437500000, 4.218750000000, 1492762630
-0.000976562500, -0.819091796875, 0.524658203125, 96.156250000000, -6.148437500000, 4.218750000000, 1492762630
0.078857421875, -0.729248046875, 0.098388671875, -27.734375000000, 76.875000000000, 2.765625000000, 1492762630
0.078857421875, -0.729248046875, 0.098388671875, -27.734375000000, 76.875000000000, 2.765625000000, 1492762630
0.078857421875, -0.729248046875, 0.098388671875, -27.734375000000, 76.875000000000, 2.765625000000, 1492762630
0.078857421875, -0.729248046875, 0.098388671875, -27.734375000000, 76.875000000000, 2.765625000000, 1492762630
0.149169921875, -0.884765625000, 0.334960937500, 5.968750000000, -21.265625000000, 3.070312500000, 1492762630
0.149169921875, -0.884765625000, 0.334960937500, 5.968750000000, -21.265625000000, 3.070312500000, 1492762630
0.149169921875, -0.884765625000, 0.334960937500, 5.968750000000, -21.265625000000, 3.070312500000, 1492762630
0.192871093750, -0.878662109375, 0.361572265625, 4.289062500000, -32.492187500000, 8.914062500000, 1492762630
0.192871093750, -0.878662109375, 0.361572265625, 4.289062500000, -32.492187500000, 8.914062500000, 1492762630
0.092285156250, -0.933105468750, 0.316894531250, -4.546875000000, -32.117187500000, -16.671875000000, 1492762630
0.092285156250, -0.933105468750, 0.316894531250, -4.546875000000, -32.117187500000, -16.671875000000, 1492762630
0.092285156250, -0.933105468750, 0.316894531250, -4.546875000000, -32.117187500000, -16.671875000000, 1492762630
0.092285156250, -0.933105468750, 0.316894531250, -4.546875000000, -32.117187500000, -16.671875000000, 1492762630
0.092285156250, -0.933105468750, 0.316894531250, -4.546875000000, -32.117187500000, -16.671875000000, 1492762630
0.069580078125, -1.105712890625, 0.453369140625, -73.593750000000, -49.265625000000, -48.382812500000, 1492762630
0.069580078125, -1.105712890625, 0.453369140625, -73.593750000000, -49.265625000000, -48.382812500000, 1492762630
0.069580078125, -1.105712890625, 0.453369140625, -73.593750000000, -49.265625000000, -48.382812500000, 1492762630
0.069580078125, -1.105712890625, 0.453369140625, -73.593750000000, -49.265625000000, -48.382812500000, 1492762630
0.122314453125, -1.064697265625, 0.319091796875, -0.578125000000, -22.281250000000, -42.687500000000, 1492762630
0.122314453125, -1.064697265625, 0.319091796875, -0.578125000000, -22.281250000000, -42.687500000000, 1492762630
0.122314453125, -1.064697265625, 0.319091796875, -0.578125000000, -22.281250000000, -42.687500000000, 1492762630
0.122314453125, -1.064697265625, 0.319091796875, -0.578125000000, -22.281250000000, -42.687500000000, 1492762630
0.087158203125, -0.770019531250, 0.198486328125, 101.539062500000, -51.710937500000, -45.476562500000, 1492762630
0.087158203125, -0.770019531250, 0.198486328125, 101.539062500000, -51.710937500000, -45.476562500000, 1492762630
0.087158203125, -0.770019531250, 0.198486328125, 101.539062500000, -51.710937500000, -45.476562500000, 1492762630
0.087158203125, -0.770019531250, 0.198486328125, 101.539062500000, -51.710937500000, -45.476562500000, 1492762630
0.087158203125, -0.770019531250, 0.198486328125, 101.539062500000, -51.710937500000, -45.476562500000, 1492762630
0.071044921875, -0.652343750000, 0.174316406250, 53.953125000000, -45.906250000000, -32.507812500000, 1492762630
-0.018554687500, -0.539794921875, 0.195068359375, 20.218750000000, -43.062500000000, -34.218750000000, 1492762630
-0.018554687500, -0.539794921875, 0.195068359375, 20.218750000000, -43.062500000000, -34.218750000000, 1492762630
-0.018554687500, -0.539794921875, 0.195068359375, 20.218750000000, -43.062500000000, -34.218750000000, 1492762630
0.011718750000, -0.715087890625, 0.062500000000, -67.828125000000, -38.273437500000, -21.375000000000, 1492762630
0.011718750000, -0.715087890625, 0.062500000000, -67.828125000000, -38.273437500000, -21.375000000000, 1492762630
0.011718750000, -0.715087890625, 0.062500000000, -67.828125000000, -38.273437500000, -21.375000000000, 1492762630
0.030517578125, -1.061035156250, 0.502685546875, -24.468750000000, -96.203125000000, -15.593750000000, 1492762630
-0.037353515625, -1.017333984375, 0.278320312500, 36.789062500000, 1.484375000000, -29.273437500000, 1492762630
-0.037353515625, -1.017333984375, 0.278320312500, 36.789062500000, 1.484375000000, -29.273437500000, 1492762630
-0.086425781250, -0.947265625000, 0.268798828125, 81.945312500000, 10.640625000000, -41.046875000000, 1492762630
-0.126220703125, -0.789306640625, 0.320312500000, 80.179687500000, -4.343750000000, -23.437500000000, 1492762630
-0.126220703125, -0.789306640625, 0.320312500000, 80.179687500000, -4.343750000000, -23.437500000000, 1492762630
-0.126220703125, -0.789306640625, 0.320312500000, 80.179687500000, -4.343750000000, -23.437500000000, 1492762630
-0.126220703125, -0.789306640625, 0.320312500000, 80.179687500000, -4.343750000000, -23.437500000000, 1492762631
-0.126220703125, -0.789306640625, 0.320312500000, 80.179687500000, -4.343750000000, -23.437500000000, 1492762631
-0.077148437500, -0.748046875000, 0.290527343750, 63.023437500000, -15.117187500000, -11.429687500000, 1492762631
-0.000244140625, -0.706787109375, 0.239501953125, 5.085937500000, -0.585937500000, -4.804687500000, 1492762631
-0.000244140625, -0.706787109375, 0.239501953125, 5.085937500000, -0.585937500000, -4.804687500000, 1492762631
-0.000244140625, -0.706787109375, 0.239501953125, 5.085937500000, -0.585937500000, -4.804687500000, 1492762631
-0.052246093750, -0.791992187500, 0.224853515625, -30.343750000000, -15.210937500000, 8.085937500000, 1492762631
-0.052246093750, -0.791992187500, 0.224853515625, -30.343750000000, -15.210937500000, 8.085937500000, 1492762631
-0.052246093750, -0.791992187500, 0.224853515625, -30.343750000000, -15.210937500000, 8.085937500000, 1492762631
-0.032226562500, -0.865478515625, 0.303710937500, 10.273437500000, -2.257812500000, 2.757812500000, 1492762631
-0.032226562500, -0.865478515625, 0.303710937500, 10.273437500000, -2.257812500000, 2.757812500000, 1492762631
-0.032226562500, -0.865478515625, 0.303710937500, 10.273437500000, -2.257812500000, 2.757812500000, 1492762631
-0.032226562500, -0.865478515625, 0.303710937500, 10.273437500000, -2.257812500000, 2.757812500000, 1492762631
-0.075195312500, -0.887207031250, 0.309814453125, 12.179687500000, 18.351562500000, -4.718750000000, 1492762631
-0.075195312500, -0.887207031250, 0.309814453125, 12.179687500000, 18.351562500000, -4.718750000000, 1492762631
-0.075195312500, -0.887207031250, 0.309814453125, 12.179687500000, 18.351562500000, -4.718750000000, 1492762631
-0.133544921875, -0.876464843750, 0.336181640625, -6.695312500000, 28.898437500000, 16.476562500000, 1492762631
-0.133544921875, -0.876464843750, 0.336181640625, -6.695312500000, 28.898437500000, 16.476562500000, 1492762631
-0.133544921875, -0.876464843750, 0.336181640625, -6.695312500000, 28.898437500000, 16.476562500000, 1492762631
-0.056640625000, -0.794677734375, 0.326416015625, -17.812500000000, 31.046875000000, 19.718750000000, 1492762631
-0.056640625000, -0.794677734375, 0.326416015625, -17.812500000000, 31.046875000000, 19.718750000000, 1492762631
-0.056640625000, -0.794677734375, 0.326416015625, -17.812500000000, 31.046875000000, 19.718750000000, 1492762631
-0.140625000000, -0.958984375000, 0.289062500000, -20.234375000000, 39.945312500000, 17.773437500000, 1492762631
-0.140625000000, -0.958984375000, 0.289062500000, -20.234375000000, 39.945312500000, 17.773437500000, 1492762631
-0.140625000000, -0.958984375000, 0.289062500000, -20.234375000000, 39.945312500000, 17.773437500000, 1492762631
-0.140625000000, -0.958984375000, 0.289062500000, -20.234375000000, 39.945312500000, 17.773437500000, 1492762631
-0.047363281250, -1.075683593750, 0.298095703125, -29.546875000000, 43.757812500000, 22.437500000000, 1492762631
-0.047363281250, -1.075683593750, 0.298095703125, -29.546875000000, 43.757812500000, 22.437500000000, 1492762631
-0.047363281250, -1.075683593750, 0.298095703125, -29.546875000000, 43.757812500000, 22.437500000000, 1492762631
0.017089843750, -1.108886718750, 0.496093750000, -98.054687500000, 75.625000000000, 37.515625000000, 1492762631
0.017089843750, -1.108886718750, 0.496093750000, -98.054687500000, 75.625000000000, 37.515625000000, 1492762631
0.017089843750, -1.108886718750, 0.496093750000, -98.054687500000, 75.625000000000, 37.515625000000, 1492762631
0.013427734375, -0.858154296875, 0.292236328125, -80.304687500000, 95.523437500000, 20.156250000000, 1492762631
0.013427734375, -0.858154296875, 0.292236328125, -80.304687500000, 95.523437500000, 20.156250000000, 1492762631
0.204101562500, -0.541992187500, -0.009277343750, 69.531250000000, 26.929687500000, 10.093750000000, 1492762631
0.204101562500, -0.541992187500, -0.009277343750, 69.531250000000, 26.929687500000, 10.093750000000, 1492762631
0.204101562500, -0.541992187500, -0.009277343750, 69.531250000000, 26.929687500000, 10.093750000000, 1492762631
0.204101562500, -0.541992187500, -0.009277343750, 69.531250000000, 26.929687500000, 10.093750000000, 1492762631
0.204101562500, -0.541992187500, -0.009277343750, 69.531250000000, 26.929687500000, 10.093750000000, 1492762631
0.170166015625, -0.625732421875, 0.044921875000, 19.406250000000, 16.609375000000, 30.632812500000, 1492762631
0.170166015625, -0.625732421875, 0.044921875000, 19.406250000000, 16.609375000000, 30.632812500000, 1492762631
0.101318359375, -1.077392578125, 0.383789062500, -30.648437500000, 78.945312500000, 31.812500000000, 1492762631
-0.018798828125, -0.830322265625, 0.443115234375, 79.132812500000, -63.875000000000, 7.718750000000, 1492762631
