ACC_X,ACC_Y,ACC_Z,G_X,G_Y,G_Z,Unix Time
-0.118652343750, -0.870361328125, 0.208251953125, -30.828125000000, -54.273437500000, -3.117187500000, 1492751505
-0.118652343750, -0.870361328125, 0.208251953125, -30.828125000000, -54.273437500000, -3.117187500000, 1492751505
-0.118652343750, -0.870361328125, 0.208251953125, -30.828125000000, -54.273437500000, -3.117187500000, 1492751505
-0.118652343750, -0.870361328125, 0.208251953125, -30.828125000000, -54.273437500000, -3.117187500000, 1492751505
-0.381835937500, -0.861083984375, -0.039306640625, -28.171875000000, -75.773437500000, 2.921875000000, 1492751505
-0.381835937500, -0.861083984375, -0.039306640625, -28.171875000000, -75.773437500000, 2.921875000000, 1492751506
-0.381835937500, -0.861083984375, -0.039306640625, -28.171875000000, -75.773437500000, 2.921875000000, 1492751506
-0.173583984375, -0.874267578125, 0.067382812500, 12.835937500000, -132.156250000000, 4.117187500000, 1492751506
-0.173583984375, -0.874267578125, 0.067382812500, 12.835937500000, -132.156250000000, 4.117187500000, 1492751506
-0.173583984375, -0.874267578125, 0.067382812500, 12.835937500000, -132.156250000000, 4.117187500000, 1492751506
-0.157226562500, -1.014404296875, 0.043945312500, 25.156250000000, -104.476562500000, -2.257812500000, 1492751506
-0.157226562500, -1.014404296875, 0.043945312500, 25.156250000000, -104.476562500000, -2.257812500000, 1492751506
-0.157226562500, -1.014404296875, 0.043945312500, 25.156250000000, -104.476562500000, -2.257812500000, 1492751506
-0.173828125000, -1.001953125000, 0.271240234375, 17.195312500000, -67.421875000000, 37.281250000000, 1492751506
-0.173828125000, -1.001953125000, 0.271240234375, 17.195312500000, -67.421875000000, 37.281250000000, 1492751506
-0.173828125000, -1.001953125000, 0.271240234375, 17.195312500000, -67.421875000000, 37.281250000000, 1492751506
-0.111083984375, -0.974853515625, 0.037109375000, -42.039062500000, -69.687500000000, 39.289062500000, 1492751506
-0.111083984375, -0.974853515625, 0.037109375000, -42.039062500000, -69.687500000000, 39.289062500000, 1492751506
-0.111083984375, -0.974853515625, 0.037109375000, -42.039062500000, -69.687500000000, 39.289062500000, 1492751506
-0.111083984375, -0.974853515625, 0.037109375000, -42.039062500000, -69.687500000000, 39.289062500000, 1492751506
-0.308105468750, -0.939697265625, 0.126953125000, -41.296875000000, -97.304687500000, 37.039062500000, 1492751506
-0.308105468750, -0.939697265625, 0.126953125000, -41.296875000000, -97.304687500000, 37.039062500000, 1492751506
-0.308105468750, -0.939697265625, 0.126953125000, -41.296875000000, -97.304687500000, 37.039062500000, 1492751506
-0.325195312500, -0.891845703125, 0.056884765625, -14.406250000000, -133.812500000000, -17.898437500000, 1492751506
-0.325195312500, -0.891845703125, 0.056884765625, -14.406250000000, -133.812500000000, -17.898437500000, 1492751506
-0.325195312500, -0.891845703125, 0.056884765625, -14.406250000000, -133.812500000000, -17.898437500000, 1492751506
-0.325195312500, -0.891845703125, 0.056884765625, -14.406250000000, -133.812500000000, -17.898437500000, 1492751506
-0.325195312500, -0.891845703125, 0.056884765625, -14.406250000000, -133.812500000000, -17.898437500000, 1492751506
-0.199951171875, -1.130371093750, 0.138671875000, 6.171875000000, -116.468750000000, -26.601562500000, 1492751506
-0.199951171875, -1.130371093750, 0.138671875000, 6.171875000000, -116.468750000000, -26.601562500000, 1492751506
-0.199951171875, -1.130371093750, 0.138671875000, 6.171875000000, -116.468750000000, -26.601562500000, 1492751506
-0.199951171875, -1.130371093750, 0.138671875000, 6.171875000000, -116.468750000000, -26.601562500000, 1492751506
-0.199951171875, -1.130371093750, 0.138671875000, 6.171875000000, -116.468750000000, -26.601562500000, 1492751506
-0.078857421875, -0.913330078125, 0.159667968750, 47.015625000000, -183.945312500000, -24.250000000000, 1492751506
-0.078857421875, -0.913330078125, 0.159667968750, 47.015625000000, -183.945312500000, -24.250000000000, 1492751506
-0.078857421875, -0.913330078125, 0.159667968750, 47.015625000000, -183.945312500000, -24.250000000000, 1492751506
0.087646484375, -1.079101562500, 0.207763671875, 13.875000000000, -179.328125000000, -8.515625000000, 1492751506
0.087646484375, -1.079101562500, 0.207763671875, 13.875000000000, -179.328125000000, -8.515625000000, 1492751506
0.087646484375, -1.079101562500, 0.207763671875, 13.875000000000, -179.328125000000, -8.515625000000, 1492751506
0.101318359375, -1.232421875000, 0.151123046875, -21.703125000000, -51.382812500000, -1.328125000000, 1492751506
0.101318359375, -1.232421875000, 0.151123046875, -21.703125000000, -51.382812500000, -1.328125000000, 1492751506
0.101318359375, -1.232421875000, 0.151123046875, -21.703125000000, -51.382812500000, -1.328125000000, 1492751506
0.101318359375, -1.232421875000, 0.151123046875, -21.703125000000, -51.382812500000, -1.328125000000, 1492751506
0.114501953125, -1.134521484375, -0.011474609375, -24.984375000000, -27.382812500000, 23.507812500000, 1492751506
0.114501953125, -1.134521484375, -0.011474609375, -24.984375000000, -27.382812500000, 23.507812500000, 1492751506
0.114501953125, -1.134521484375, -0.011474609375, -24.984375000000, -27.382812500000, 23.507812500000, 1492751506
0.281005859375, -1.160644531250, 0.141845703125, -71.234375000000, 35.296875000000, -17.140625000000, 1492751506
0.281005859375, -1.160644531250, 0.141845703125, -71.234375000000, 35.296875000000, -17.140625000000, 1492751506
0.281005859375, -1.160644531250, 0.141845703125, -71.234375000000, 35.296875000000, -17.140625000000, 1492751506
0.204589843750, -1.057128906250, 0.038818359375, -4.632812500000, 16.984375000000, -36.007812500000, 1492751506
0.204589843750, -1.057128906250, 0.038818359375, -4.632812500000, 16.984375000000, -36.007812500000, 1492751506
0.204589843750, -1.057128906250, 0.038818359375, -4.632812500000, 16.984375000000, -36.007812500000, 1492751506
0.026123046875, -1.017333984375, -0.054931640625, -60.734375000000, -110.289062500000, -18.609375000000, 1492751506
0.026123046875, -1.017333984375, -0.054931640625, -60.734375000000, -110.289062500000, -18.609375000000, 1492751506
0.026123046875, -1.017333984375, -0.054931640625, -60.734375000000, -110.289062500000, -18.609375000000, 1492751506
0.026123046875, -1.017333984375, -0.054931640625, -60.734375000000, -110.289062500000, -18.609375000000, 1492751506
0.026611328125, -0.663330078125, 0.048339843750, 19.453125000000, -110.984375000000, -42.250000000000, 1492751506
0.026611328125, -0.663330078125, 0.048339843750, 19.453125000000, -110.984375000000, -42.250000000000, 1492751506
0.026611328125, -0.663330078125, 0.048339843750, 19.453125000000, -110.984375000000, -42.250000000000, 1492751506
0.066406250000, -0.749511718750, 0.084228515625, 63.843750000000, -47.882812500000, -26.750000000000, 1492751506
0.066406250000, -0.749511718750, 0.084228515625, 63.843750000000, -47.882812500000, -26.750000000000, 1492751506
0.066406250000, -0.749511718750, 0.084228515625, 63.843750000000, -47.882812500000, -26.750000000000, 1492751506
0.126464843750, -0.663574218750, 0.112304687500, 133.445312500000, -57.531250000000, 18.296875000000, 1492751506
0.126464843750, -0.663574218750, 0.112304687500, 133.445312500000, -57.531250000000, 18.296875000000, 1492751506
0.126464843750, -0.663574218750, 0.112304687500, 133.445312500000, -57.531250000000, 18.296875000000, 1492751506
0.034179687500, -0.613281250000, 0.269531250000, 27.828125000000, -145.679687500000, 23.890625000000, 1492751506
0.034179687500, -0.613281250000, 0.269531250000, 27.828125000000, -145.679687500000, 23.890625000000, 1492751506
0.034179687500, -0.613281250000, 0.269531250000, 27.828125000000, -145.679687500000, 23.890625000000, 1492751506
0.034179687500, -0.613281250000, 0.269531250000, 27.828125000000, -145.679687500000, 23.890625000000, 1492751506
0.188964843750, -0.828857421875, 0.155029296875, -9.570312500000, -80.632812500000, 15.132812500000, 1492751506
0.188964843750, -0.828857421875, 0.155029296875, -9.570312500000, -80.632812500000, 15.132812500000, 1492751506
0.188964843750, -0.828857421875, 0.155029296875, -9.570312500000, -80.632812500000, 15.132812500000, 1492751506
0.208007812500, -1.258789062500, 0.103027343750, -12.921875000000, -95.164062500000, 0.914062500000, 1492751507
0.208007812500, -1.258789062500, 0.103027343750, -12.921875000000, -95.164062500000, 0.914062500000, 1492751507
0.208007812500, -1.258789062500, 0.103027343750, -12.921875000000, -95.164062500000, 0.914062500000, 1492751507
0.181152343750, -1.257080078125, 0.086669921875, -13.906250000000, -83.367187500000, -3.703125000000, 1492751507
-0.160400390625, -1.655517578125, 0.057861328125, -91.351562500000, -97.695312500000, -50.421875000000, 1492751507
-0.160400390625, -1.655517578125, 0.057861328125, -91.351562500000, -97.695312500000, -50.421875000000, 1492751507
-0.160400390625, -1.655517578125, 0.057861328125, -91.351562500000, -97.695312500000, -50.421875000000, 1492751507
-0.160400390625, -1.655517578125, 0.057861328125, -91.351562500000, -97.695312500000, -50.421875000000, 1492751507
-0.160400390625, -1.655517578125, 0.057861328125, -91.351562500000, -97.695312500000, -50.421875000000, 1492751507
-0.256103515625, -0.973632812500, 0.017333984375, -78.945312500000, -160.687500000000, -33.218750000000, 1492751507
-0.256103515625, -0.973632812500, 0.017333984375, -78.945312500000, -160.687500000000, -33.218750000000, 1492751507
-0.256103515625, -0.973632812500, 0.017333984375, -78.945312500000, -160.687500000000, -33.218750000000, 1492751507
-0.256103515625, -0.973632812500, 0.017333984375, -78.945312500000, -160.687500000000, -33.218750000000, 1492751507
-0.170410156250, -0.914550781250, 0.023681640625, -78.585937500000, -114.351562500000, -48.375000000000, 1492751507
-0.170410156250, -0.914550781250, 0.023681640625, -78.585937500000, -114.351562500000, -48.375000000000, 1492751507
-0.170410156250, -0.914550781250, 0.023681640625, -78.585937500000, -114.351562500000, -48.375000000000, 1492751507
-0.227783203125, -1.066894531250, -0.006103515625, -86.476562500000, -117.335937500000, -40.937500000000, 1492751507
-0.068359375000, -0.985595703125, 0.125732421875, 4.781250000000, -95.062500000000, -46.718750000000, 1492751507
-0.068359375000, -0.985595703125, 0.125732421875, 4.781250000000, -95.062500000000, -46.718750000000, 1492751507
-0.068359375000, -0.985595703125, 0.125732421875, 4.781250000000, -95.062500000000, -46.718750000000, 1492751507
-0.068359375000, -0.985595703125, 0.125732421875, 4.781250000000, -95.062500000000, -46.718750000000, 1492751507
0.175048828125, -0.723388671875, 0.022705078125, 68.992187500000, 15.656250000000, 6.281250000000, 1492751507
0.175048828125, -0.723388671875, 0.022705078125, 68.992187500000, 15.656250000000, 6.281250000000, 1492751507
0.175048828125, -0.723388671875, 0.022705078125, 68.992187500000, 15.656250000000, 6.281250000000, 1492751507
0.175048828125, -0.723388671875, 0.022705078125, 68.992187500000, 15.656250000000, 6.281250000000, 1492751507
0.175048828125, -0.723388671875, 0.022705078125, 68.992187500000, 15.656250000000, 6.281250000000, 1492751507
0.346679687500, -0.556396484375, 0.099853515625, 104.343750000000, 145.578125000000, 15.132812500000, 1492751507
0.346679687500, -0.556396484375, 0.099853515625, 104.343750000000, 145.578125000000, 15.132812500000, 1492751507
0.346679687500, -0.556396484375, 0.099853515625, 104.343750000000, 145.578125000000, 15.132812500000, 1492751507
0.316650390625, -0.374755859375, 0.154296875000, 135.023437500000, 80.343750000000, 29.531250000000, 1492751507
0.316650390625, -0.374755859375, 0.154296875000, 135.023437500000, 80.343750000000, 29.531250000000, 1492751507
0.316650390625, -0.374755859375, 0.154296875000, 135.023437500000, 80.343750000000, 29.531250000000, 1492751507
-0.234619140625, -0.722656250000, 0.410888671875, -39.867187500000, -222.695312500000, 62.945312500000, 1492751507
-0.234619140625, -0.722656250000, 0.410888671875, -39.867187500000, -222.695312500000, 62.945312500000, 1492751507
-0.234619140625, -0.722656250000, 0.410888671875, -39.867187500000, -222.695312500000, 62.945312500000, 1492751507
-0.234619140625, -0.722656250000, 0.410888671875, -39.867187500000, -222.695312500000, 62.945312500000, 1492751507
-0.014648437500, -0.971923828125, 0.263427734375, -57.843750000000, -45.445312500000, 14.804687500000, 1492751507
-0.014648437500, -0.971923828125, 0.263427734375, -57.843750000000, -45.445312500000, 14.804687500000, 1492751507
-0.027343750000, -1.412597656250, 0.081787109375, -27.281250000000, -26.609375000000, -26.867187500000, 1492751507
-0.213134765625, -1.400878906250, 0.188476562500, -40.109375000000, -18.484375000000, -19.882812500000, 1492751507
-0.213134765625, -1.400878906250, 0.188476562500, -40.109375000000, -18.484375000000, -19.882812500000, 1492751507
-0.213134765625, -1.400878906250, 0.188476562500, -40.109375000000, -18.484375000000, -19.882812500000, 1492751507
-0.180419921875, -1.466796875000, 0.529785156250, 6.203125000000, 4.914062500000, 6.343750000000, 1492751507
-0.180419921875, -1.466796875000, 0.529785156250, 6.203125000000, 4.914062500000, 6.343750000000, 1492751507
-0.180419921875, -1.466796875000, 0.529785156250, 6.203125000000, 4.914062500000, 6.343750000000, 1492751507
0.310546875000, -1.502929687500, 0.153564453125, -24.273437500000, 3.859375000000, 66.835937500000, 1492751507
0.310546875000, -1.502929687500, 0.153564453125, -24.273437500000, 3.859375000000, 66.835937500000, 1492751507
0.310546875000, -1.502929687500, 0.153564453125, -24.273437500000, 3.859375000000, 66.835937500000, 1492751507
0.310546875000, -1.502929687500, 0.153564453125, -24.273437500000, 3.859375000000, 66.835937500000, 1492751507
0.372558593750, -0.870117187500, 0.059326171875, -11.265625000000, 183.531250000000, 37.085937500000, 1492751507
0.372558593750, -0.870117187500, 0.059326171875, -11.265625000000, 183.531250000000, 37.085937500000, 1492751507
0.372558593750, -0.870117187500, 0.059326171875, -11.265625000000, 183.531250000000, 37.085937500000, 1492751507
0.241943359375, -0.930175781250, -0.006591796875, -32.281250000000, 170.757812500000, 31.453125000000, 1492751507
0.241943359375, -0.930175781250, -0.006591796875, -32.281250000000, 170.757812500000, 31.453125000000, 1492751507
0.241943359375, -0.930175781250, -0.006591796875, -32.281250000000, 170.757812500000, 31.453125000000, 1492751507
0.180908203125, -0.856445312500, -0.007324218750, -45.257812500000, 16.968750000000, 6.664062500000, 1492751507
0.180908203125, -0.856445312500, -0.007324218750, -45.257812500000, 16.968750000000, 6.664062500000, 1492751507
0.180908203125, -0.856445312500, -0.007324218750, -45.257812500000, 16.968750000000, 6.664062500000, 1492751507
-0.007080078125, -1.062255859375, 0.065673828125, -58.703125000000, -116.601562500000, -40.898437500000, 1492751507
-0.007080078125, -1.062255859375, 0.065673828125, -58.703125000000, -116.601562500000, -40.898437500000, 1492751507
-0.007080078125, -1.062255859375, 0.065673828125, -58.703125000000, -116.601562500000, -40.898437500000, 1492751507
-0.007080078125, -1.062255859375, 0.065673828125, -58.703125000000, -116.601562500000, -40.898437500000, 1492751507
-0.155517578125, -0.609375000000, 0.150634765625, 38.375000000000, -55.882812500000, -37.937500000000, 1492751507
-0.155517578125, -0.609375000000, 0.150634765625, 38.375000000000, -55.882812500000, -37.937500000000, 1492751507
-0.155517578125, -0.609375000000, 0.150634765625, 38.375000000000, -55.882812500000, -37.937500000000, 1492751507
-0.039306640625, -0.650390625000, -0.010742187500, 44.640625000000, -3.164062500000, -33.578125000000, 1492751507
-0.039306640625, -0.650390625000, -0.010742187500, 44.640625000000, -3.164062500000, -33.578125000000, 1492751507
-0.039306640625, -0.650390625000, -0.010742187500, 44.640625000000, -3.164062500000, -33.578125000000, 1492751508
-0.030761718750, -0.726806640625, 0.075195312500, 33.734375000000, 20.093750000000, -54.867187500000, 1492751508
-0.030761718750, -0.726806640625, 0.075195312500, 33.734375000000, 20.093750000000, -54.867187500000, 1492751508
0.687011718750, -0.881347656250, 0.781250000000, 59.148437500000, -131.687500000000, -43.882812500000, 1492751508
0.687011718750, -0.881347656250, 0.781250000000, 59.148437500000, -131.687500000000, -43.882812500000, 1492751508
0.687011718750, -0.881347656250, 0.781250000000, 59.148437500000, -131.687500000000, -43.882812500000, 1492751508
0.687011718750, -0.881347656250, 0.781250000000, 59.148437500000, -131.687500000000, -43.882812500000, 1492751508
0.687011718750, -0.881347656250, 0.781250000000, 59.148437500000, -131.687500000000, -43.882812500000, 1492751508
0.185302734375, -1.118408203125, 0.057617187500, -83.843750000000, 107.539062500000, 13.640625000000, 1492751508
0.185302734375, -1.118408203125, 0.057617187500, -83.843750000000, 107.539062500000, 13.640625000000, 1492751508
0.185302734375, -1.118408203125, 0.057617187500, -83.843750000000, 107.539062500000, 13.640625000000, 1492751508
0.177490234375, -1.252441406250, 0.038330078125, 2.453125000000, -58.515625000000, -25.609375000000, 1492751508
0.177490234375, -1.252441406250, 0.038330078125, 2.453125000000, -58.515625000000, -25.609375000000, 1492751508
0.177490234375, -1.252441406250, 0.038330078125, 2.453125000000, -58.515625000000, -25.609375000000, 1492751508
0.109619140625, -1.568359375000, 0.392578125000, -41.914062500000, -39.062500000000, -37.406250000000, 1492751508
0.109619140625, -1.568359375000, 0.392578125000, -41.914062500000, -39.062500000000, -37.406250000000, 1492751508
0.109619140625, -1.568359375000, 0.392578125000, -41.914062500000, -39.062500000000, -37.406250000000, 1492751508
-0.025146484375, -0.744384765625, -0.075439453125, -40.609375000000, 82.156250000000, 2.781250000000, 1492751508
-0.025146484375, -0.744384765625, -0.075439453125, -40.609375000000, 82.156250000000, 2.781250000000, 1492751508
-0.025146484375, -0.744384765625, -0.075439453125, -40.609375000000, 82.156250000000, 2.781250000000, 1492751508
-0.025146484375, -0.744384765625, -0.075439453125, -40.609375000000, 82.156250000000, 2.781250000000, 1492751508
-0.083007812500, -0.842529296875, 0.020507812500, -101.046875000000, 86.554687500000, -11.625000000000, 1492751508
-0.083007812500, -0.842529296875, 0.020507812500, -101.046875000000, 86.554687500000, -11.625000000000, 1492751508
-0.083007812500, -0.842529296875, 0.020507812500, -101.046875000000, 86.554687500000, -11.625000000000, 1492751508
-0.094970703125, -0.961914062500, 0.089843750000, -72.820312500000, -34.570312500000, -24.195312500000, 1492751508
-0.094970703125, -0.961914062500, 0.089843750000, -72.820312500000, -34.570312500000, -24.195312500000, 1492751508
-0.094970703125, -0.961914062500, 0.089843750000, -72.820312500000, -34.570312500000, -24.195312500000, 1492751508
0.108154296875, -0.929931640625, 0.107910156250, 25.750000000000, -30.789062500000, -3.390625000000, 1492751508
0.108154296875, -0.929931640625, 0.107910156250, 25.750000000000, -30.789062500000, -3.390625000000, 1492751508
0.108154296875, -0.929931640625, 0.107910156250, 25.750000000000, -30.789062500000, -3.390625000000, 1492751508
0.302734375000, -0.893310546875, 0.079589843750, 56.242187500000, 96.593750000000, 30.320312500000, 1492751508
0.302734375000, -0.893310546875, 0.079589843750, 56.242187500000, 96.593750000000, 30.320312500000, 1492751508
0.302734375000, -0.893310546875, 0.079589843750, 56.242187500000, 96.593750000000, 30.320312500000, 1492751508
0.302734375000, -0.893310546875, 0.079589843750, 56.242187500000, 96.593750000000, 30.320312500000, 1492751508
0.335205078125, -0.890625000000, 0.137207031250, 73.515625000000, 143.250000000000, 30.695312500000, 1492751508
0.335205078125, -0.890625000000, 0.137207031250, 73.515625000000, 143.250000000000, 30.695312500000, 1492751508
0.335205078125, -0.890625000000, 0.137207031250, 73.515625000000, 143.250000000000, 30.695312500000, 1492751508
0.068115234375, -0.915039062500, -0.105712890625, 31.984375000000, -46.289062500000, 42.929687500000, 1492751508
0.068115234375, -0.915039062500, -0.105712890625, 31.984375000000, -46.289062500000, 42.929687500000, 1492751508
0.068115234375, -0.915039062500, -0.105712890625, 31.984375000000, -46.289062500000, 42.929687500000, 1492751508
-0.301513671875, -1.138427734375, 0.551513671875, 59.054687500000, -248.718750000000, -4.085937500000, 1492751508
-0.301513671875, -1.138427734375, 0.551513671875, 59.054687500000, -248.718750000000, -4.085937500000, 1492751508
-0.301513671875, -1.138427734375, 0.551513671875, 59.054687500000, -248.718750000000, -4.085937500000, 1492751508
0.131347656250, -0.967529296875, -0.014160156250, -15.320312500000, 166.242187500000, 28.781250000000, 1492751508
0.131347656250, -0.967529296875, -0.014160156250, -15.320312500000, 166.242187500000, 28.781250000000, 1492751508
0.131347656250, -0.967529296875, -0.014160156250, -15.320312500000, 166.242187500000, 28.781250000000, 1492751508
0.131347656250, -0.967529296875, -0.014160156250, -15.320312500000, 166.242187500000, 28.781250000000, 1492751508
0.165771484375, -0.977050781250, -0.003906250000, -7.132812500000, 57.500000000000, 20.078125000000, 1492751508
0.165771484375, -0.977050781250, -0.003906250000, -7.132812500000, 57.500000000000, 20.078125000000, 1492751508
0.165771484375, -0.977050781250, -0.003906250000, -7.132812500000, 57.500000000000, 20.078125000000, 1492751508
0.045898437500, -1.163330078125, 0.220703125000, -11.968750000000, 3.250000000000, 23.109375000000, 1492751508
0.045898437500, -1.163330078125, 0.220703125000, -11.968750000000, 3.250000000000, 23.109375000000, 1492751508
0.045898437500, -1.163330078125, 0.220703125000, -11.968750000000, 3.250000000000, 23.109375000000, 1492751508
0.425537109375, -1.268798828125, 0.196533203125, -51.953125000000, 117.523437500000, 35.273437500000, 1492751508
0.425537109375, -1.268798828125, 0.196533203125, -51.953125000000, 117.523437500000, 35.273437500000, 1492751508
0.425537109375, -1.268798828125, 0.196533203125, -51.953125000000, 117.523437500000, 35.273437500000, 1492751508
0.563720703125, -1.144531250000, 0.045410156250, 20.507812500000, 253.992187500000, 41.250000000000, 1492751508
0.563720703125, -1.144531250000, 0.045410156250, 20.507812500000, 253.992187500000, 41.250000000000, 1492751508
0.563720703125, -1.144531250000, 0.045410156250, 20.507812500000, 253.992187500000, 41.250000000000, 1492751508
0.563720703125, -1.144531250000, 0.045410156250, 20.507812500000, 253.992187500000, 41.250000000000, 1492751508
0.591308593750, -1.013183593750, 0.049316406250, 33.031250000000, 217.343750000000, -19.000000000000, 1492751508
0.591308593750, -1.013183593750, 0.049316406250, 33.031250000000, 217.343750000000, -19.000000000000, 1492751508
0.591308593750, -1.013183593750, 0.049316406250, 33.031250000000, 217.343750000000, -19.000000000000, 1492751508
0.305419921875, -0.805175781250, 0.003173828125, -61.859375000000, 30.320312500000, 31.046875000000, 1492751508
0.305419921875, -0.805175781250, 0.003173828125, -61.859375000000, 30.320312500000, 31.046875000000, 1492751508
0.305419921875, -0.805175781250, 0.003173828125, -61.859375000000, 30.320312500000, 31.046875000000, 1492751508
0.210937500000, -0.967773437500, -0.023193359375, -62.109375000000, -114.242187500000, 28.929687500000, 1492751509
0.210937500000, -0.967773437500, -0.023193359375, -62.109375000000, -114.242187500000, 28.929687500000, 1492751509
0.210937500000, -0.967773437500, -0.023193359375, -62.109375000000, -114.242187500000, 28.929687500000, 1492751509
0.134765625000, -0.731201171875, 0.079589843750, 47.570312500000, -59.570312500000, -30.929687500000, 1492751509
0.134765625000, -0.731201171875, 0.079589843750, 47.570312500000, -59.570312500000, -30.929687500000, 1492751509
0.134765625000, -0.731201171875, 0.079589843750, 47.570312500000, -59.570312500000, -30.929687500000, 1492751509
0.134765625000, -0.731201171875, 0.079589843750, 47.570312500000, -59.570312500000, -30.929687500000, 1492751509
0.203125000000, -0.824462890625, -0.013183593750, 34.062500000000, 115.859375000000, 11.078125000000, 1492751509
0.203125000000, -0.824462890625, -0.013183593750, 34.062500000000, 115.859375000000, 11.078125000000, 1492751509
0.203125000000, -0.824462890625, -0.013183593750, 34.062500000000, 115.859375000000, 11.078125000000, 1492751509
0.348876953125, -0.781982421875, 0.151611328125, 155.867187500000, 101.281250000000, -25.367187500000, 1492751509
0.348876953125, -0.781982421875, 0.151611328125, 155.867187500000, 101.281250000000, -25.367187500000, 1492751509
0.348876953125, -0.781982421875, 0.151611328125, 155.867187500000, 101.281250000000, -25.367187500000, 1492751509
0.450195312500, -1.054687500000, 0.438232421875, -62.515625000000, -149.179687500000, -34.437500000000, 1492751509
0.450195312500, -1.054687500000, 0.438232421875, -62.515625000000, -149.179687500000, -34.437500000000, 1492751509
0.450195312500, -1.054687500000, 0.438232421875, -62.515625000000, -149.179687500000, -34.437500000000, 1492751509
0.456542968750, -1.434082031250, 0.050048828125, -100.648437500000, 163.679687500000, 20.367187500000, 1492751509
0.456542968750, -1.434082031250, 0.050048828125, -100.648437500000, 163.679687500000, 20.367187500000, 1492751509
0.456542968750, -1.434082031250, 0.050048828125, -100.648437500000, 163.679687500000, 20.367187500000, 1492751509
0.456542968750, -1.434082031250, 0.050048828125, -100.648437500000, 163.679687500000, 20.367187500000, 1492751509
0.090576171875, -1.152099609375, 0.017822265625, -72.851562500000, -6.851562500000, -32.734375000000, 1492751509
0.090576171875, -1.152099609375, 0.017822265625, -72.851562500000, -6.851562500000, -32.734375000000, 1492751509
0.090576171875, -1.152099609375, 0.017822265625, -72.851562500000, -6.851562500000, -32.734375000000, 1492751509
-0.012939453125, -1.032714843750, 0.076171875000, -59.937500000000, 57.859375000000, -90.515625000000, 1492751509
-0.012939453125, -1.032714843750, 0.076171875000, -59.937500000000, 57.859375000000, -90.515625000000, 1492751509
-0.012939453125, -1.032714843750, 0.076171875000, -59.937500000000, 57.859375000000, -90.515625000000, 1492751509
0.411865234375, -1.012695312500, 0.112304687500, 47.859375000000, 253.992187500000, 34.554687500000, 1492751509
0.411865234375, -1.012695312500, 0.112304687500, 47.859375000000, 253.992187500000, 34.554687500000, 1492751509
0.411865234375, -1.012695312500, 0.112304687500, 47.859375000000, 253.992187500000, 34.554687500000, 1492751509
0.411865234375, -1.012695312500, 0.112304687500, 47.859375000000, 253.992187500000, 34.554687500000, 1492751509
0.411865234375, -1.012695312500, 0.112304687500, 47.859375000000, 253.992187500000, 34.554687500000, 1492751509
0.614501953125, -0.958496093750, 0.034667968750, 115.476562500000, 253.992187500000, 2.867187500000, 1492751509
0.614501953125, -0.958496093750, 0.034667968750, 115.476562500000, 253.992187500000, 2.867187500000, 1492751509
0.614501953125, -0.958496093750, 0.034667968750, 115.476562500000, 253.992187500000, 2.867187500000, 1492751509
0.614501953125, -0.958496093750, 0.034667968750, 115.476562500000, 253.992187500000, 2.867187500000, 1492751509
0.363769531250, -0.677734375000, 0.011474609375, 38.171875000000, 253.992187500000, 23.437500000000, 1492751509
0.363769531250, -0.677734375000, 0.011474609375, 38.171875000000, 253.992187500000, 23.437500000000, 1492751509
0.363769531250, -0.677734375000, 0.011474609375, 38.171875000000, 253.992187500000, 23.437500000000, 1492751509
0.363769531250, -0.677734375000, 0.011474609375, 38.171875000000, 253.992187500000, 23.437500000000, 1492751509
0.228515625000, -0.732666015625, -0.067626953125, -75.742187500000, 112.140625000000, 59.023437500000, 1492751509
0.228515625000, -0.732666015625, -0.067626953125, -75.742187500000, 112.140625000000, 59.023437500000, 1492751509
0.228515625000, -0.732666015625, -0.067626953125, -75.742187500000, 112.140625000000, 59.023437500000, 1492751509
0.132568359375, -1.399414062500, 0.032714843750, -160.414062500000, -50.351562500000, 35.265625000000, 1492751509
0.132568359375, -1.399414062500, 0.032714843750, -160.414062500000, -50.351562500000, 35.265625000000, 1492751509
0.132568359375, -1.399414062500, 0.032714843750, -160.414062500000, -50.351562500000, 35.265625000000, 1492751509
0.132568359375, -1.399414062500, 0.032714843750, -160.414062500000, -50.351562500000, 35.265625000000, 1492751509
-0.260009765625, -0.932861328125, 0.216308593750, 54.984375000000, 89.242187500000, -24.210937500000, 1492751509
-0.260009765625, -0.932861328125, 0.216308593750, 54.984375000000, 89.242187500000, -24.210937500000, 1492751509
-0.260009765625, -0.932861328125, 0.216308593750, 54.984375000000, 89.242187500000, -24.210937500000, 1492751509
-0.322509765625, -0.932128906250, -0.012207031250, -85.296875000000, 177.320312500000, 86.203125000000, 1492751509
-0.322509765625, -0.932128906250, -0.012207031250, -85.296875000000, 177.320312500000, 86.203125000000, 1492751509
-0.322509765625, -0.932128906250, -0.012207031250, -85.296875000000, 177.320312500000, 86.203125000000, 1492751509
-0.211669921875, -1.092285156250, 0.060302734375, -82.976562500000, 162.210937500000, 25.296875000000, 1492751509
-0.211669921875, -1.092285156250, 0.060302734375, -82.976562500000, 162.210937500000, 25.296875000000, 1492751509
-0.270019531250, -1.146728515625, 0.061523437500, -26.937500000000, 183.484375000000, 18.718750000000, 1492751509
-0.270019531250, -1.146728515625, 0.061523437500, -26.937500000000, 183.484375000000, 18.718750000000, 1492751509
0.051757812500, -1.298339843750, 0.111083984375, 76.164062500000, 246.500000000000, 59.054687500000, 1492751509
0.051757812500, -1.298339843750, 0.111083984375, 76.164062500000, 246.500000000000, 59.054687500000, 1492751509
0.051757812500, -1.298339843750, 0.111083984375, 76.164062500000, 246.500000000000, 59.054687500000, 1492751509
0.051757812500, -1.298339843750, 0.111083984375, 76.164062500000, 246.500000000000, 59.054687500000, 1492751509
0.051757812500, -1.298339843750, 0.111083984375, 76.164062500000, 246.500000000000, 59.054687500000, 1492751509
0.134277343750, -1.072265625000, 0.313964843750, 232.406250000000, 195.890625000000, 124.039062500000, 1492751509
0.281738281250, -0.958496093750, 0.209472656250, 253.992187500000, 155.203125000000, 137.531250000000, 1492751509
0.281738281250, -0.958496093750, 0.209472656250, 253.992187500000, 155.203125000000, 137.531250000000, 1492751509
0.281738281250, -0.958496093750, 0.209472656250, 253.992187500000, 155.203125000000, 137.531250000000, 1492751509
0.309326171875, -0.665771484375, 0.225585937500, -49.664062500000, -63.585937500000, 36.945312500000, 1492751509
0.309326171875, -0.665771484375, 0.225585937500, -49.664062500000, -63.585937500000, 36.945312500000, 1492751509
0.309326171875, -0.665771484375, 0.225585937500, -49.664062500000, -63.585937500000, 36.945312500000, 1492751510
0.309326171875, -0.665771484375, 0.225585937500, -49.664062500000, -63.585937500000, 36.945312500000, 1492751510
0.229736328125, -1.144287109375, 0.129882812500, -86.539062500000, 244.476562500000, 31.570312500000, 1492751510
0.229736328125, -1.144287109375, 0.129882812500, -86.539062500000, 244.476562500000, 31.570312500000, 1492751510
0.229736328125, -1.144287109375, 0.129882812500, -86.539062500000, 244.476562500000, 31.570312500000, 1492751510
0.229736328125, -1.144287109375, 0.129882812500, -86.539062500000, 244.476562500000, 31.570312500000, 1492751510
0.280273437500, -1.171630859375, -0.012939453125, -47.304687500000, -5.992187500000, -8.281250000000, 1492751510
0.280273437500, -1.171630859375, -0.012939453125, -47.304687500000, -5.992187500000, -8.281250000000, 1492751510
0.280273437500, -1.171630859375, -0.012939453125, -47.304687500000, -5.992187500000, -8.281250000000, 1492751510
0.280273437500, -1.171630859375, -0.012939453125, -47.304687500000, -5.992187500000, -8.281250000000, 1492751510
0.280273437500, -1.171630859375, -0.012939453125, -47.304687500000, -5.992187500000, -8.281250000000, 1492751510
0.347900390625, -1.041748046875, 0.150878906250, -8.812500000000, 46.125000000000, -5.484375000000, 1492751510
0.353759765625, -0.958984375000, 0.134277343750, 33.710937500000, 136.015625000000, -5.015625000000, 1492751510
0.353759765625, -0.958984375000, 0.134277343750, 33.710937500000, 136.015625000000, -5.015625000000, 1492751510
0.353759765625, -0.958984375000, 0.134277343750, 33.710937500000, 136.015625000000, -5.015625000000, 1492751510
0.353759765625, -0.958984375000, 0.134277343750, 33.710937500000, 136.015625000000, -5.015625000000, 1492751510
0.353759765625, -0.958984375000, 0.134277343750, 33.710937500000, 136.015625000000, -5.015625000000, 1492751510
0.228515625000, -0.743896484375, -0.031005859375, 49.601562500000, 152.382812500000, -6.867187500000, 1492751510
0.228515625000, -0.743896484375, -0.031005859375, 49.601562500000, 152.382812500000, -6.867187500000, 1492751510
0.228515625000, -0.743896484375, -0.031005859375, 49.601562500000, 152.382812500000, -6.867187500000, 1492751510
0.228515625000, -0.743896484375, -0.031005859375, 49.601562500000, 152.382812500000, -6.867187500000, 1492751510
0.208496093750, -0.711669921875, 0.037841796875, 75.546875000000, -44.148437500000, 19.632812500000, 1492751510
0.208496093750, -0.711669921875, 0.037841796875, 75.546875000000, -44.148437500000, 19.632812500000, 1492751510
0.208496093750, -0.711669921875, 0.037841796875, 75.546875000000, -44.148437500000, 19.632812500000, 1492751510
0.339843750000, -0.868164062500, 0.054687500000, 91.007812500000, -120.945312500000, -13.406250000000, 1492751510
0.339843750000, -0.868164062500, 0.054687500000, 91.007812500000, -120.945312500000, -13.406250000000, 1492751510
0.339843750000, -0.868164062500, 0.054687500000, 91.007812500000, -120.945312500000, -13.406250000000, 1492751510
0.416503906250, -1.225341796875, 0.342285156250, -126.804687500000, 111.554687500000, -21.953125000000, 1492751510
0.416503906250, -1.225341796875, 0.342285156250, -126.804687500000, 111.554687500000, -21.953125000000, 1492751510
0.416503906250, -1.225341796875, 0.342285156250, -126.804687500000, 111.554687500000, -21.953125000000, 1492751510
0.416503906250, -1.225341796875, 0.342285156250, -126.804687500000, 111.554687500000, -21.953125000000, 1492751510
0.161132812500, -1.422363281250, 0.003906250000, -129.515625000000, 47.671875000000, 16.093750000000, 1492751510
0.161132812500, -1.422363281250, 0.003906250000, -129.515625000000, 47.671875000000, 16.093750000000, 1492751510
0.161132812500, -1.422363281250, 0.003906250000, -129.515625000000, 47.671875000000, 16.093750000000, 1492751510
-0.122802734375, -1.620605468750, 0.147705078125, -172.796875000000, -54.250000000000, -147.242187500000, 1492751510
-0.122802734375, -1.620605468750, 0.147705078125, -172.796875000000, -54.250000000000, -147.242187500000, 1492751510
-0.122802734375, -1.620605468750, 0.147705078125, -172.796875000000, -54.250000000000, -147.242187500000, 1492751510
-0.182373046875, -1.073486328125, 0.031982421875, -62.453125000000, 126.500000000000, 21.421875000000, 1492751510
-0.182373046875, -1.073486328125, 0.031982421875, -62.453125000000, 126.500000000000, 21.421875000000, 1492751510
-0.182373046875, -1.073486328125, 0.031982421875, -62.453125000000, 126.500000000000, 21.421875000000, 1492751510
-0.182373046875, -1.073486328125, 0.031982421875, -62.453125000000, 126.500000000000, 21.421875000000, 1492751510
-0.242919921875, -0.750244140625, 0.004638671875, -25.265625000000, 39.632812500000, -46.375000000000, 1492751510
-0.242919921875, -0.750244140625, 0.004638671875, -25.265625000000, 39.632812500000, -46.375000000000, 1492751510
-0.242919921875, -0.750244140625, 0.004638671875, -25.265625000000, 39.632812500000, -46.375000000000, 1492751510
-0.051269531250, -0.851806640625, 0.078857421875, -21.828125000000, -53.320312500000, -55.468750000000, 1492751510
-0.051269531250, -0.851806640625, 0.078857421875, -21.828125000000, -53.320312500000, -55.468750000000, 1492751510
-0.051269531250, -0.851806640625, 0.078857421875, -21.828125000000, -53.320312500000, -55.468750000000, 1492751510
0.076171875000, -0.935546875000, 0.129150390625, 81.398437500000, 19.773437500000, -61.335937500000, 1492751510
0.076171875000, -0.935546875000, 0.129150390625, 81.398437500000, 19.773437500000, -61.335937500000, 1492751510
0.076171875000, -0.935546875000, 0.129150390625, 81.398437500000, 19.773437500000, -61.335937500000, 1492751510
0.324951171875, -0.951171875000, -0.075195312500, 173.398437500000, 119.992187500000, 63.804687500000, 1492751510
0.324951171875, -0.951171875000, -0.075195312500, 173.398437500000, 119.992187500000, 63.804687500000, 1492751510
0.324951171875, -0.951171875000, -0.075195312500, 173.398437500000, 119.992187500000, 63.804687500000, 1492751510
0.324951171875, -0.951171875000, -0.075195312500, 173.398437500000, 119.992187500000, 63.804687500000, 1492751510
-0.284179687500, -1.090576171875, 0.755126953125, 48.382812500000, -43.218750000000, -0.398437500000, 1492751510
-0.284179687500, -1.090576171875, 0.755126953125, 48.382812500000, -43.218750000000, -0.398437500000, 1492751510
-0.284179687500, -1.090576171875, 0.755126953125, 48.382812500000, -43.218750000000, -0.398437500000, 1492751510
0.016113281250, -0.927734375000, 0.068115234375, -156.148437500000, 73.281250000000, 3.765625000000, 1492751510
0.016113281250, -0.927734375000, 0.068115234375, -156.148437500000, 73.281250000000, 3.765625000000, 1492751510
0.016113281250, -0.927734375000, 0.068115234375, -156.148437500000, 73.281250000000, 3.765625000000, 1492751510
-0.229736328125, -0.954345703125, 0.054931640625, -108.273437500000, 96.929687500000, -18.718750000000, 1492751510
-0.229736328125, -0.954345703125, 0.054931640625, -108.273437500000, 96.929687500000, -18.718750000000, 1492751510
-0.229736328125, -0.954345703125, 0.054931640625, -108.273437500000, 96.929687500000, -18.718750000000, 1492751510
-0.277587890625, -0.783203125000, -0.064208984375, 5.984375000000, 53.250000000000, 14.750000000000, 1492751510
-0.277587890625, -0.783203125000, -0.064208984375, 5.984375000000, 53.250000000000, 14.750000000000, 1492751510
-0.277587890625, -0.783203125000, -0.064208984375, 5.984375000000, 53.250000000000, 14.750000000000, 1492751510
-0.277587890625, -0.783203125000, -0.064208984375, 5.984375000000, 53.250000000000, 14.750000000000, 1492751510
-0.307617187500, -1.243896484375, 0.533691406250, 20.757812500000, -9.648437500000, -0.812500000000, 1492751511
-0.307617187500, -1.243896484375, 0.533691406250, 20.757812500000, -9.648437500000, -0.812500000000, 1492751511
-0.307617187500, -1.243896484375, 0.533691406250, 20.757812500000, -9.648437500000, -0.812500000000, 1492751511
-0.193115234375, -1.040283203125, 0.338134765625, -62.718750000000, -25.835937500000, -25.421875000000, 1492751511
-0.193115234375, -1.040283203125, 0.338134765625, -62.718750000000, -25.835937500000, -25.421875000000, 1492751511
-0.193115234375, -1.040283203125, 0.338134765625, -62.718750000000, -25.835937500000, -25.421875000000, 1492751511
-0.048339843750, -1.492675781250, 0.404541015625, -27.859375000000, 13.460937500000, -13.492187500000, 1492751511
-0.048339843750, -1.492675781250, 0.404541015625, -27.859375000000, 13.460937500000, -13.492187500000, 1492751511
-0.048339843750, -1.492675781250, 0.404541015625, -27.859375000000, 13.460937500000, -13.492187500000, 1492751511
-0.033447265625, -1.021240234375, 0.343750000000, -48.429687500000, 7.632812500000, 26.265625000000, 1492751511
-0.033447265625, -1.021240234375, 0.343750000000, -48.429687500000, 7.632812500000, 26.265625000000, 1492751511
-0.033447265625, -1.021240234375, 0.343750000000, -48.429687500000, 7.632812500000, 26.265625000000, 1492751511
-0.033447265625, -1.021240234375, 0.343750000000, -48.429687500000, 7.632812500000, 26.265625000000, 1492751511
-0.033691406250, -0.808349609375, 0.044921875000, -62.265625000000, 84.367187500000, -2.406250000000, 1492751511
-0.033691406250, -0.808349609375, 0.044921875000, -62.265625000000, 84.367187500000, -2.406250000000, 1492751511
-0.033691406250, -0.808349609375, 0.044921875000, -62.265625000000, 84.367187500000, -2.406250000000, 1492751511
0.058105468750, -0.898925781250, 0.127197265625, 37.820312500000, 57.210937500000, -18.718750000000, 1492751511
0.058105468750, -0.898925781250, 0.127197265625, 37.820312500000, 57.210937500000, -18.718750000000, 1492751511
0.058105468750, -0.898925781250, 0.127197265625, 37.820312500000, 57.210937500000, -18.718750000000, 1492751511
0.195800781250, -0.875000000000, 0.135009765625, 30.523437500000, 56.820312500000, 11.695312500000, 1492751511
0.195800781250, -0.875000000000, 0.135009765625, 30.523437500000, 56.820312500000, 11.695312500000, 1492751511
0.195800781250, -0.875000000000, 0.135009765625, 30.523437500000, 56.820312500000, 11.695312500000, 1492751511
-0.202392578125, -0.956787109375, 0.220703125000, -30.179687500000, 89.945312500000, 12.968750000000, 1492751511
-0.202392578125, -0.956787109375, 0.220703125000, -30.179687500000, 89.945312500000, 12.968750000000, 1492751511
-0.202392578125, -0.956787109375, 0.220703125000, -30.179687500000, 89.945312500000, 12.968750000000, 1492751511
-0.202392578125, -0.956787109375, 0.220703125000, -30.179687500000, 89.945312500000, 12.968750000000, 1492751511
-0.315185546875, -0.728759765625, 0.166992187500, -31.203125000000, 65.531250000000, -4.765625000000, 1492751511
-0.315185546875, -0.728759765625, 0.166992187500, -31.203125000000, 65.531250000000, -4.765625000000, 1492751511
-0.315185546875, -0.728759765625, 0.166992187500, -31.203125000000, 65.531250000000, -4.765625000000, 1492751511
-0.073486328125, -0.733398437500, 0.056152343750, 21.695312500000, -26.890625000000, -29.789062500000, 1492751511
-0.073486328125, -0.733398437500, 0.056152343750, 21.695312500000, -26.890625000000, -29.789062500000, 1492751511
-0.073486328125, -0.733398437500, 0.056152343750, 21.695312500000, -26.890625000000, -29.789062500000, 1492751511
0.113037109375, -0.952148437500, 0.226074218750, 96.234375000000, -128.734375000000, -28.289062500000, 1492751511
0.113037109375, -0.952148437500, 0.226074218750, 96.234375000000, -128.734375000000, -28.289062500000, 1492751511
0.113037109375, -0.952148437500, 0.226074218750, 96.234375000000, -128.734375000000, -28.289062500000, 1492751511
0.040283203125, -0.843994140625, 0.265869140625, -1.664062500000, 11.937500000000, -1.015625000000, 1492751511
0.040283203125, -0.843994140625, 0.265869140625, -1.664062500000, 11.937500000000, -1.015625000000, 1492751511
0.040283203125, -0.843994140625, 0.265869140625, -1.664062500000, 11.937500000000, -1.015625000000, 1492751511
0.040283203125, -0.843994140625, 0.265869140625, -1.664062500000, 11.937500000000, -1.015625000000, 1492751511
-0.093261718750, -1.077880859375, 0.337158203125, -15.648437500000, 70.570312500000, 31.898437500000, 1492751511
-0.093261718750, -1.077880859375, 0.337158203125, -15.648437500000, 70.570312500000, 31.898437500000, 1492751511
-0.093261718750, -1.077880859375, 0.337158203125, -15.648437500000, 70.570312500000, 31.898437500000, 1492751511
-0.109130859375, -1.214843750000, 0.307373046875, -32.945312500000, 21.984375000000, -2.960937500000, 1492751511
-0.109130859375, -1.214843750000, 0.307373046875, -32.945312500000, 21.984375000000, -2.960937500000, 1492751511
-0.109130859375, -1.214843750000, 0.307373046875, -32.945312500000, 21.984375000000, -2.960937500000, 1492751511
-0.147216796875, -1.522705078125, 0.227783203125, -53.179687500000, 4.242187500000, 3.867187500000, 1492751511
-0.147216796875, -1.522705078125, 0.227783203125, -53.179687500000, 4.242187500000, 3.867187500000, 1492751511
-0.147216796875, -1.522705078125, 0.227783203125, -53.179687500000, 4.242187500000, 3.867187500000, 1492751511
-0.347656250000, -1.341796875000, 0.268798828125, -75.742187500000, 133.109375000000, -36.843750000000, 1492751511
-0.347656250000, -1.341796875000, 0.268798828125, -75.742187500000, 133.109375000000, -36.843750000000, 1492751511
-0.347656250000, -1.341796875000, 0.268798828125, -75.742187500000, 133.109375000000, -36.843750000000, 1492751511
-0.347656250000, -1.341796875000, 0.268798828125, -75.742187500000, 133.109375000000, -36.843750000000, 1492751511
-0.258789062500, -0.833984375000, -0.034179687500, -41.992187500000, 16.695312500000, -12.875000000000, 1492751511
-0.258789062500, -0.833984375000, -0.034179687500, -41.992187500000, 16.695312500000, -12.875000000000, 1492751511
-0.258789062500, -0.833984375000, -0.034179687500, -41.992187500000, 16.695312500000, -12.875000000000, 1492751511
-0.163818359375, -0.754882812500, -0.005859375000, 11.062500000000, -40.960937500000, -18.562500000000, 1492751511
-0.163818359375, -0.754882812500, -0.005859375000, 11.062500000000, -40.960937500000, -18.562500000000, 1492751511
-0.106201171875, -0.866455078125, 0.366210937500, 47.039062500000, -21.234375000000, -7.898437500000, 1492751511
-0.106201171875, -0.866455078125, 0.366210937500, 47.039062500000, -21.234375000000, -7.898437500000, 1492751511
-0.106201171875, -0.866455078125, 0.366210937500, 47.039062500000, -21.234375000000, -7.898437500000, 1492751511
-0.106201171875, -0.866455078125, 0.366210937500, 47.039062500000, -21.234375000000, -7.898437500000, 1492751511
-0.145507812500, -0.987548828125, 0.215087890625, -9.398437500000, 9.203125000000, 22.632812500000, 1492751511
-0.145507812500, -0.987548828125, 0.215087890625, -9.398437500000, 9.203125000000, 22.632812500000, 1492751511
-0.145507812500, -0.987548828125, 0.215087890625, -9.398437500000, 9.203125000000, 22.632812500000, 1492751511
-0.145507812500, -0.987548828125, 0.215087890625, -9.398437500000, 9.203125000000, 22.632812500000, 1492751511
-0.182861328125, -0.846679687500, 0.201171875000, 3.953125000000, 25.078125000000, 23.445312500000, 1492751511
-0.182861328125, -0.846679687500, 0.201171875000, 3.953125000000, 25.078125000000, 23.445312500000, 1492751511
-0.182861328125, -0.846679687500, 0.201171875000, 3.953125000000, 25.078125000000, 23.445312500000, 1492751511
-0.218505859375, -0.826660156250, 0.323730468750, 1.937500000000, -33.281250000000, 26.875000000000, 1492751512
-0.218505859375, -0.826660156250, 0.323730468750, 1.937500000000, -33.281250000000, 26.875000000000, 1492751512
-0.218505859375, -0.826660156250, 0.323730468750, 1.937500000000, -33.281250000000, 26.875000000000, 1492751512
-0.197998046875, -0.806640625000, 0.205322265625, -9.890625000000, 29.437500000000, 22.617187500000, 1492751512
-0.197998046875, -0.806640625000, 0.205322265625, -9.890625000000, 29.437500000000, 22.617187500000, 1492751512
-0.197998046875, -0.806640625000, 0.205322265625, -9.890625000000, 29.437500000000, 22.617187500000, 1492751512
-0.270019531250, -0.837890625000, 0.234619140625, -3.265625000000, -13.148437500000, 8.968750000000, 1492751512
-0.270019531250, -0.837890625000, 0.234619140625, -3.265625000000, -13.148437500000, 8.968750000000, 1492751512
-0.270019531250, -0.837890625000, 0.234619140625, -3.265625000000, -13.148437500000, 8.968750000000, 1492751512
-0.270019531250, -0.837890625000, 0.234619140625, -3.265625000000, -13.148437500000, 8.968750000000, 1492751512
-0.261962890625, -0.792968750000, 0.222412109375, -12.531250000000, 20.289062500000, 8.843750000000, 1492751512
-0.261962890625, -0.792968750000, 0.222412109375, -12.531250000000, 20.289062500000, 8.843750000000, 1492751512
-0.261962890625, -0.792968750000, 0.222412109375, -12.531250000000, 20.289062500000, 8.843750000000, 1492751512
-0.225585937500, -0.931152343750, 0.342041015625, -10.523437500000, -4.992187500000, 8.953125000000, 1492751512
-0.225585937500, -0.931152343750, 0.342041015625, -10.523437500000, -4.992187500000, 8.953125000000, 1492751512
-0.225585937500, -0.931152343750, 0.342041015625, -10.523437500000, -4.992187500000, 8.953125000000, 1492751512
-0.228271484375, -1.129394531250, 0.451660156250, -17.562500000000, -8.156250000000, 6.898437500000, 1492751512
-0.228271484375, -1.129394531250, 0.451660156250, -17.562500000000, -8.156250000000, 6.898437500000, 1492751512
-0.228271484375, -1.129394531250, 0.451660156250, -17.562500000000, -8.156250000000, 6.898437500000, 1492751512
-0.089599609375, -1.413330078125, 0.352294921875, -30.054687500000, -95.296875000000, 5.828125000000, 1492751512
-0.089599609375, -1.413330078125, 0.352294921875, -30.054687500000, -95.296875000000, 5.828125000000, 1492751512
-0.089599609375, -1.413330078125, 0.352294921875, -30.054687500000, -95.296875000000, 5.828125000000, 1492751512
-0.089599609375, -1.413330078125, 0.352294921875, -30.054687500000, -95.296875000000, 5.828125000000, 1492751512
-0.065673828125, -1.086425781250, 0.296630859375, -5.953125000000, 1.343750000000, 3.625000000000, 1492751512
-0.065673828125, -1.086425781250, 0.296630859375, -5.953125000000, 1.343750000000, 3.625000000000, 1492751512
-0.065673828125, -1.086425781250, 0.296630859375, -5.953125000000, 1.343750000000, 3.625000000000, 1492751512
0.051757812500, -0.847412109375, 0.205566406250, -19.289062500000, 14.476562500000, 16.718750000000, 1492751512
0.051757812500, -0.847412109375, 0.205566406250, -19.289062500000, 14.476562500000, 16.718750000000, 1492751512
0.051757812500, -0.847412109375, 0.205566406250, -19.289062500000, 14.476562500000, 16.718750000000, 1492751512
0.146240234375, -0.834960937500, 0.134765625000, -6.726562500000, 10.375000000000, 20.367187500000, 1492751512
0.030273437500, -1.023681640625, 0.250488281250, 14.453125000000, 33.804687500000, 34.765625000000, 1492751512
0.030273437500, -1.023681640625, 0.250488281250, 14.453125000000, 33.804687500000, 34.765625000000, 1492751512
0.030273437500, -1.023681640625, 0.250488281250, 14.453125000000, 33.804687500000, 34.765625000000, 1492751512
0.030273437500, -1.023681640625, 0.250488281250, 14.453125000000, 33.804687500000, 34.765625000000, 1492751512
-0.196533203125, -0.927734375000, 0.036621093750, -24.179687500000, 13.414062500000, 15.210937500000, 1492751512
-0.196533203125, -0.927734375000, 0.036621093750, -24.179687500000, 13.414062500000, 15.210937500000, 1492751512
-0.196533203125, -0.927734375000, 0.036621093750, -24.179687500000, 13.414062500000, 15.210937500000, 1492751512
-0.196533203125, -0.927734375000, 0.036621093750, -24.179687500000, 13.414062500000, 15.210937500000, 1492751512
-0.147216796875, -0.976074218750, 0.076171875000, 30.484375000000, -45.453125000000, -1.414062500000, 1492751512
-0.147216796875, -0.976074218750, 0.076171875000, 30.484375000000, -45.453125000000, -1.414062500000, 1492751512
-0.147216796875, -0.976074218750, 0.076171875000, 30.484375000000, -45.453125000000, -1.414062500000, 1492751512
-0.147216796875, -0.976074218750, 0.076171875000, 30.484375000000, -45.453125000000, -1.414062500000, 1492751512
0.067626953125, -0.808837890625, 0.280029296875, 69.789062500000, -109.429687500000, -32.492187500000, 1492751512
0.067626953125, -0.808837890625, 0.280029296875, 69.789062500000, -109.429687500000, -32.492187500000, 1492751512
0.067626953125, -0.808837890625, 0.280029296875, 69.789062500000, -109.429687500000, -32.492187500000, 1492751512
0.138916015625, -0.861328125000, 0.204589843750, 2.515625000000, -9.843750000000, -15.453125000000, 1492751512
0.138916015625, -0.861328125000, 0.204589843750, 2.515625000000, -9.843750000000, -15.453125000000, 1492751512
0.138916015625, -0.861328125000, 0.204589843750, 2.515625000000, -9.843750000000, -15.453125000000, 1492751512
0.138916015625, -0.861328125000, 0.204589843750, 2.515625000000, -9.843750000000, -15.453125000000, 1492751512
0.158447265625, -0.824462890625, 0.163085937500, 22.460937500000, -38.078125000000, -18.453125000000, 1492751512
0.158447265625, -0.824462890625, 0.163085937500, 22.460937500000, -38.078125000000, -18.453125000000, 1492751512
0.158447265625, -0.824462890625, 0.163085937500, 22.460937500000, -38.078125000000, -18.453125000000, 1492751512
0.102050781250, -0.935058593750, 0.056640625000, -11.281250000000, -33.031250000000, -16.750000000000, 1492751512
0.102050781250, -0.935058593750, 0.056640625000, -11.281250000000, -33.031250000000, -16.750000000000, 1492751512
0.102050781250, -0.935058593750, 0.056640625000, -11.281250000000, -33.031250000000, -16.750000000000, 1492751512
0.056884765625, -1.052490234375, 0.300781250000, -7.914062500000, -49.789062500000, -22.968750000000, 1492751512
0.056884765625, -1.052490234375, 0.300781250000, -7.914062500000, -49.789062500000, -22.968750000000, 1492751512
0.056884765625, -1.052490234375, 0.300781250000, -7.914062500000, -49.789062500000, -22.968750000000, 1492751512
0.159423828125, -1.469482421875, 0.153808593750, -50.054687500000, -66.250000000000, -19.632812500000, 1492751512
0.159423828125, -1.469482421875, 0.153808593750, -50.054687500000, -66.250000000000, -19.632812500000, 1492751512
0.159423828125, -1.469482421875, 0.153808593750, -50.054687500000, -66.250000000000, -19.632812500000, 1492751512
0.159423828125, -1.469482421875, 0.153808593750, -50.054687500000, -66.250000000000, -19.632812500000, 1492751512
-0.263916015625, -1.315673828125, 0.371826171875, 1.601562500000, 8.992187500000, -47.015625000000, 1492751512
-0.263916015625, -1.315673828125, 0.371826171875, 1.601562500000, 8.992187500000, -47.015625000000, 1492751512
-0.263916015625, -1.315673828125, 0.371826171875, 1.601562500000, 8.992187500000, -47.015625000000, 1492751512
-0.218750000000, -1.011230468750, -0.020751953125, -75.835937500000, 67.203125000000, -14.609375000000, 1492751513
-0.218750000000, -1.011230468750, -0.020751953125, -75.835937500000, 67.203125000000, -14.609375000000, 1492751513
-0.218750000000, -1.011230468750, -0.020751953125, -75.835937500000, 67.203125000000, -14.609375000000, 1492751513
-0.240234375000, -0.901611328125, 0.073974609375, 21.031250000000, -95.890625000000, -40.125000000000, 1492751513
-0.240234375000, -0.901611328125, 0.073974609375, 21.031250000000, -95.890625000000, -40.125000000000, 1492751513
-0.240234375000, -0.901611328125, 0.073974609375, 21.031250000000, -95.890625000000, -40.125000000000, 1492751513
-0.091796875000, -0.666748046875, 0.041748046875, 38.914062500000, 1.093750000000, -31.156250000000, 1492751513
-0.091796875000, -0.666748046875, 0.041748046875, 38.914062500000, 1.093750000000, -31.156250000000, 1492751513
-0.091796875000, -0.666748046875, 0.041748046875, 38.914062500000, 1.093750000000, -31.156250000000, 1492751513
-0.091796875000, -0.666748046875, 0.041748046875, 38.914062500000, 1.093750000000, -31.156250000000, 1492751513
-0.249267578125, -1.026611328125, 0.119384765625, -0.398437500000, -22.890625000000, -0.070312500000, 1492751513
-0.249267578125, -1.026611328125, 0.119384765625, -0.398437500000, -22.890625000000, -0.070312500000, 1492751513
-0.249267578125, -1.026611328125, 0.119384765625, -0.398437500000, -22.890625000000, -0.070312500000, 1492751513
-0.151367187500, -1.000000000000, 0.045898437500, 9.281250000000, -78.718750000000, -10.984375000000, 1492751513
-0.151367187500, -1.000000000000, 0.045898437500, 9.281250000000, -78.718750000000, -10.984375000000, 1492751513
-0.151367187500, -1.000000000000, 0.045898437500, 9.281250000000, -78.718750000000, -10.984375000000, 1492751513
-0.057128906250, -0.923583984375, 0.233642578125, 46.531250000000, -16.179687500000, -11.945312500000, 1492751513
-0.057128906250, -0.923583984375, 0.233642578125, 46.531250000000, -16.179687500000, -11.945312500000, 1492751513
-0.057128906250, -0.923583984375, 0.233642578125, 46.531250000000, -16.179687500000, -11.945312500000, 1492751513
-0.123779296875, -0.940917968750, 0.132568359375, -3.664062500000, 26.835937500000, 12.257812500000, 1492751513
-0.123779296875, -0.940917968750, 0.132568359375, -3.664062500000, 26.835937500000, 12.257812500000, 1492751513
-0.123779296875, -0.940917968750, 0.132568359375, -3.664062500000, 26.835937500000, 12.257812500000, 1492751513
-0.123779296875, -0.940917968750, 0.132568359375, -3.664062500000, 26.835937500000, 12.257812500000, 1492751513
-0.232666015625, -0.997558593750, -0.019531250000, -9.835937500000, -15.195312500000, -1.812500000000, 1492751513
-0.232666015625, -0.997558593750, -0.019531250000, -9.835937500000, -15.195312500000, -1.812500000000, 1492751513
-0.232666015625, -0.997558593750, -0.019531250000, -9.835937500000, -15.195312500000, -1.812500000000, 1492751513
-0.053222656250, -0.995117187500, 0.238037109375, 3.515625000000, -12.625000000000, -18.492187500000, 1492751513
-0.053222656250, -0.995117187500, 0.238037109375, 3.515625000000, -12.625000000000, -18.492187500000, 1492751513
-0.053222656250, -0.995117187500, 0.238037109375, 3.515625000000, -12.625000000000, -18.492187500000, 1492751513
-0.108886718750, -0.863281250000, 0.038818359375, -27.875000000000, 32.937500000000, -5.234375000000, 1492751513
-0.108886718750, -0.863281250000, 0.038818359375, -27.875000000000, 32.937500000000, -5.234375000000, 1492751513
-0.108886718750, -0.863281250000, 0.038818359375, -27.875000000000, 32.937500000000, -5.234375000000, 1492751513
-0.231689453125, -0.914306640625, 0.205810546875, 4.062500000000, 5.171875000000, -0.093750000000, 1492751513
-0.231689453125, -0.914306640625, 0.205810546875, 4.062500000000, 5.171875000000, -0.093750000000, 1492751513
-0.231689453125, -0.914306640625, 0.205810546875, 4.062500000000, 5.171875000000, -0.093750000000, 1492751513
-0.231689453125, -0.914306640625, 0.205810546875, 4.062500000000, 5.171875000000, -0.093750000000, 1492751513
-0.042724609375, -1.012939453125, 0.183837890625, -10.687500000000, -0.906250000000, 3.757812500000, 1492751513
-0.042724609375, -1.012939453125, 0.183837890625, -10.687500000000, -0.906250000000, 3.757812500000, 1492751513
-0.042724609375, -1.012939453125, 0.183837890625, -10.687500000000, -0.906250000000, 3.757812500000, 1492751513
-0.148437500000, -1.014160156250, 0.262695312500, -15.570312500000, 12.406250000000, 16.890625000000, 1492751513
-0.148437500000, -1.014160156250, 0.262695312500, -15.570312500000, 12.406250000000, 16.890625000000, 1492751513
-0.148437500000, -1.014160156250, 0.262695312500, -15.570312500000, 12.406250000000, 16.890625000000, 1492751513
-0.253662109375, -0.930419921875, 0.264892578125, -15.453125000000, 0.687500000000, 9.554687500000, 1492751513
-0.253662109375, -0.930419921875, 0.264892578125, -15.453125000000, 0.687500000000, 9.554687500000, 1492751513
-0.253662109375, -0.930419921875, 0.264892578125, -15.453125000000, 0.687500000000, 9.554687500000, 1492751513
-0.163085937500, -1.010986328125, 0.192626953125, -0.992187500000, -20.359375000000, -0.828125000000, 1492751513
-0.163085937500, -1.010986328125, 0.192626953125, -0.992187500000, -20.359375000000, -0.828125000000, 1492751513
-0.163085937500, -1.010986328125, 0.192626953125, -0.992187500000, -20.359375000000, -0.828125000000, 1492751513
-0.163085937500, -1.010986328125, 0.192626953125, -0.992187500000, -20.359375000000, -0.828125000000, 1492751513
-0.047851562500, -1.011962890625, 0.197509765625, 5.945312500000, -25.289062500000, -0.453125000000, 1492751513
-0.047851562500, -1.011962890625, 0.197509765625, 5.945312500000, -25.289062500000, -0.453125000000, 1492751513
-0.047851562500, -1.011962890625, 0.197509765625, 5.945312500000, -25.289062500000, -0.453125000000, 1492751513
-0.072998046875, -0.982910156250, 0.141601562500, -8.031250000000, 4.085937500000, 4.343750000000, 1492751513
-0.072998046875, -0.982910156250, 0.141601562500, -8.031250000000, 4.085937500000, 4.343750000000, 1492751513
-0.072998046875, -0.982910156250, 0.141601562500, -8.031250000000, 4.085937500000, 4.343750000000, 1492751513
-0.078857421875, -0.966064453125, 0.208984375000, 1.179687500000, 2.062500000000, -2.421875000000, 1492751513
-0.078857421875, -0.966064453125, 0.208984375000, 1.179687500000, 2.062500000000, -2.421875000000, 1492751513
-0.078857421875, -0.966064453125, 0.208984375000, 1.179687500000, 2.062500000000, -2.421875000000, 1492751513
-0.020751953125, -1.000488281250, 0.208496093750, 5.335937500000, 9.757812500000, -0.585937500000, 1492751513
-0.020751953125, -1.000488281250, 0.208496093750, 5.335937500000, 9.757812500000, -0.585937500000, 1492751513
-0.020751953125, -1.000488281250, 0.208496093750, 5.335937500000, 9.757812500000, -0.585937500000, 1492751513
-0.020751953125, -1.000488281250, 0.208496093750, 5.335937500000, 9.757812500000, -0.585937500000, 1492751513
-0.135742187500, -0.921142578125, 0.185058593750, 3.695312500000, 27.046875000000, 3.945312500000, 1492751513
-0.135742187500, -0.921142578125, 0.185058593750, 3.695312500000, 27.046875000000, 3.945312500000, 1492751513
-0.135742187500, -0.921142578125, 0.185058593750, 3.695312500000, 27.046875000000, 3.945312500000, 1492751513
-0.079345703125, -0.926269531250, 0.194580078125, -6.210937500000, 18.242187500000, 9.109375000000, 1492751513
-0.079345703125, -0.926269531250, 0.194580078125, -6.210937500000, 18.242187500000, 9.109375000000, 1492751513
-0.079345703125, -0.926269531250, 0.194580078125, -6.210937500000, 18.242187500000, 9.109375000000, 1492751513
0.003417968750, -0.947998046875, 0.095703125000, -3.789062500000, 3.312500000000, 3.289062500000, 1492751514
0.003417968750, -0.947998046875, 0.095703125000, -3.789062500000, 3.312500000000, 3.289062500000, 1492751514
0.003417968750, -0.947998046875, 0.095703125000, -3.789062500000, 3.312500000000, 3.289062500000, 1492751514
-0.027587890625, -1.005615234375, 0.257324218750, 6.250000000000, -19.710937500000, 4.375000000000, 1492751514
-0.027587890625, -1.005615234375, 0.257324218750, 6.250000000000, -19.710937500000, 4.375000000000, 1492751514
-0.027587890625, -1.005615234375, 0.257324218750, 6.250000000000, -19.710937500000, 4.375000000000, 1492751514
-0.027587890625, -1.005615234375, 0.257324218750, 6.250000000000, -19.710937500000, 4.375000000000, 1492751514
0.018798828125, -0.988281250000, 0.218750000000, -1.359375000000, -3.609375000000, 1.289062500000, 1492751514
0.018798828125, -0.988281250000, 0.218750000000, -1.359375000000, -3.609375000000, 1.289062500000, 1492751514
0.018798828125, -0.988281250000, 0.218750000000, -1.359375000000, -3.609375000000, 1.289062500000, 1492751514
0.082519531250, -0.935058593750, 0.124511718750, 0.000000000000, -3.179687500000, 2.882812500000, 1492751514
0.082519531250, -0.935058593750, 0.124511718750, 0.000000000000, -3.179687500000, 2.882812500000, 1492751514
0.082519531250, -0.935058593750, 0.124511718750, 0.000000000000, -3.179687500000, 2.882812500000, 1492751514
0.046630859375, -0.941894531250, 0.117431640625, -1.000000000000, -4.914062500000, -0.367187500000, 1492751514
0.046630859375, -0.941894531250, 0.117431640625, -1.000000000000, -4.914062500000, -0.367187500000, 1492751514
0.046630859375, -0.941894531250, 0.117431640625, -1.000000000000, -4.914062500000, -0.367187500000, 1492751514
0.006103515625, -0.993896484375, 0.212890625000, 1.437500000000, 1.359375000000, 2.195312500000, 1492751514
0.006103515625, -0.993896484375, 0.212890625000, 1.437500000000, 1.359375000000, 2.195312500000, 1492751514
0.006103515625, -0.993896484375, 0.212890625000, 1.437500000000, 1.359375000000, 2.195312500000, 1492751514
0.006103515625, -0.993896484375, 0.212890625000, 1.437500000000, 1.359375000000, 2.195312500000, 1492751514
0.056152343750, -1.033447265625, 0.210205078125, -6.968750000000, 6.101562500000, -0.710937500000, 1492751514
0.056152343750, -1.033447265625, 0.210205078125, -6.968750000000, 6.101562500000, -0.710937500000, 1492751514
0.056152343750, -1.033447265625, 0.210205078125, -6.968750000000, 6.101562500000, -0.710937500000, 1492751514
0.056152343750, -1.033447265625, 0.210205078125, -6.968750000000, 6.101562500000, -0.710937500000, 1492751514
0.031982421875, -1.134033203125, 0.113525390625, -5.343750000000, 4.656250000000, 0.304687500000, 1492751514
0.031982421875, -1.134033203125, 0.113525390625, -5.343750000000, 4.656250000000, 0.304687500000, 1492751514
0.031982421875, -1.134033203125, 0.113525390625, -5.343750000000, 4.656250000000, 0.304687500000, 1492751514
0.031982421875, -1.134033203125, 0.113525390625, -5.343750000000, 4.656250000000, 0.304687500000, 1492751514
0.031982421875, -1.134033203125, 0.113525390625, -5.343750000000, 4.656250000000, 0.304687500000, 1492751514
-0.070068359375, -0.993164062500, 0.192138671875, -8.695312500000, -0.945312500000, -1.203125000000, 1492751514
-0.070068359375, -0.993164062500, 0.192138671875, -8.695312500000, -0.945312500000, -1.203125000000, 1492751514
-0.070068359375, -0.993164062500, 0.192138671875, -8.695312500000, -0.945312500000, -1.203125000000, 1492751514
-0.070068359375, -0.993164062500, 0.192138671875, -8.695312500000, -0.945312500000, -1.203125000000, 1492751514
0.026123046875, -0.920898437500, 0.162841796875, -8.531250000000, -3.054687500000, -1.484375000000, 1492751514
0.026123046875, -0.920898437500, 0.162841796875, -8.531250000000, -3.054687500000, -1.484375000000, 1492751514
0.026123046875, -0.920898437500, 0.162841796875, -8.531250000000, -3.054687500000, -1.484375000000, 1492751514
0.023681640625, -1.012939453125, 0.194091796875, -7.492187500000, -3.359375000000, -2.000000000000, 1492751514
0.023681640625, -1.012939453125, 0.194091796875, -7.492187500000, -3.359375000000, -2.000000000000, 1492751514
0.023681640625, -1.012939453125, 0.194091796875, -7.492187500000, -3.359375000000, -2.000000000000, 1492751514
0.081542968750, -1.020263671875, 0.173339843750, -3.140625000000, -4.812500000000, -5.273437500000, 1492751514
0.005371093750, -1.066650390625, 0.211669921875, -3.140625000000, -4.812500000000, -5.273437500000, 1492751514
0.005371093750, -1.066650390625, 0.211669921875, -3.140625000000, -4.812500000000, -5.273437500000, 1492751514
-0.031005859375, -1.011718750000, 0.123046875000, -3.414062500000, -2.515625000000, -3.984375000000, 1492751514
-0.031005859375, -1.011718750000, 0.123046875000, -3.414062500000, -2.515625000000, -3.984375000000, 1492751514
-0.031005859375, -1.011718750000, 0.123046875000, -3.414062500000, -2.515625000000, -3.984375000000, 1492751514
-0.031005859375, -1.011718750000, 0.123046875000, -3.414062500000, -2.515625000000, -3.984375000000, 1492751514
-0.031005859375, -1.011718750000, 0.123046875000, -3.414062500000, -2.515625000000, -3.984375000000, 1492751514
-0.031005859375, -1.011718750000, 0.123046875000, -3.414062500000, -2.515625000000, -3.984375000000, 1492751514
-0.092041015625, -1.019042968750, 0.257080078125, -2.531250000000, -12.789062500000, -8.609375000000, 1492751514
-0.092041015625, -1.019042968750, 0.257080078125, -2.531250000000, -12.789062500000, -8.609375000000, 1492751514
-0.092041015625, -1.019042968750, 0.257080078125, -2.531250000000, -12.789062500000, -8.609375000000, 1492751514
-0.092041015625, -1.019042968750, 0.257080078125, -2.531250000000, -12.789062500000, -8.609375000000, 1492751514
-0.029296875000, -0.962890625000, 0.191162109375, -7.945312500000, 3.250000000000, 0.117187500000, 1492751514
-0.029296875000, -0.962890625000, 0.191162109375, -7.945312500000, 3.250000000000, 0.117187500000, 1492751514
-0.029296875000, -0.962890625000, 0.191162109375, -7.945312500000, 3.250000000000, 0.117187500000, 1492751514
0.064208984375, -0.908691406250, 0.181396484375, -5.304687500000, -0.859375000000, -1.289062500000, 1492751514
0.064208984375, -0.908691406250, 0.181396484375, -5.304687500000, -0.859375000000, -1.289062500000, 1492751514
0.064208984375, -0.908691406250, 0.181396484375, -5.304687500000, -0.859375000000, -1.289062500000, 1492751514
0.064208984375, -0.908691406250, 0.181396484375, -5.304687500000, -0.859375000000, -1.289062500000, 1492751514
-0.011962890625, -0.906494140625, 0.203369140625, -5.109375000000, 1.015625000000, -4.679687500000, 1492751514
-0.011962890625, -0.906494140625, 0.203369140625, -5.109375000000, 1.015625000000, -4.679687500000, 1492751514
-0.011962890625, -0.906494140625, 0.203369140625, -5.109375000000, 1.015625000000, -4.679687500000, 1492751514
0.020751953125, -1.004882812500, 0.185791015625, -6.820312500000, -0.984375000000, -4.265625000000, 1492751514
0.020751953125, -1.004882812500, 0.185791015625, -6.820312500000, -0.984375000000, -4.265625000000, 1492751514
0.020751953125, -1.004882812500, 0.185791015625, -6.820312500000, -0.984375000000, -4.265625000000, 1492751514
0.094482421875, -1.029296875000, 0.180175781250, -8.093750000000, 1.031250000000, -2.257812500000, 1492751515
0.094482421875, -1.029296875000, 0.180175781250, -8.093750000000, 1.031250000000, -2.257812500000, 1492751515
0.094482421875, -1.029296875000, 0.180175781250, -8.093750000000, 1.031250000000, -2.257812500000, 1492751515
-0.031005859375, -0.900390625000, 0.116455078125, -8.093750000000, 2.062500000000, -2.929687500000, 1492751515
-0.031005859375, -0.900390625000, 0.116455078125, -8.093750000000, 2.062500000000, -2.929687500000, 1492751515
-0.031005859375, -0.900390625000, 0.116455078125, -8.093750000000, 2.062500000000, -2.929687500000, 1492751515
-0.031005859375, -0.900390625000, 0.116455078125, -8.093750000000, 2.062500000000, -2.929687500000, 1492751515
-0.010009765625, -0.971679687500, 0.211181640625, -6.250000000000, -2.046875000000, -2.960937500000, 1492751515
-0.010009765625, -0.971679687500, 0.211181640625, -6.250000000000, -2.046875000000, -2.960937500000, 1492751515
-0.010009765625, -0.971679687500, 0.211181640625, -6.250000000000, -2.046875000000, -2.960937500000, 1492751515
0.062744140625, -0.971679687500, 0.261962890625, -8.898437500000, -0.828125000000, -4.453125000000, 1492751515
0.062744140625, -0.971679687500, 0.261962890625, -8.898437500000, -0.828125000000, -4.453125000000, 1492751515
0.062744140625, -0.971679687500, 0.261962890625, -8.898437500000, -0.828125000000, -4.453125000000, 1492751515
0.052246093750, -0.930664062500, 0.117431640625, -8.312500000000, 2.000000000000, 0.757812500000, 1492751515
0.052246093750, -0.930664062500, 0.117431640625, -8.312500000000, 2.000000000000, 0.757812500000, 1492751515
0.052246093750, -0.930664062500, 0.117431640625, -8.312500000000, 2.000000000000, 0.757812500000, 1492751515
0.015869140625, -0.928955078125, 0.214843750000, -3.945312500000, -2.523437500000, -0.960937500000, 1492751515
0.015869140625, -0.928955078125, 0.214843750000, -3.945312500000, -2.523437500000, -0.960937500000, 1492751515
0.015869140625, -0.928955078125, 0.214843750000, -3.945312500000, -2.523437500000, -0.960937500000, 1492751515
0.015869140625, -0.928955078125, 0.214843750000, -3.945312500000, -2.523437500000, -0.960937500000, 1492751515
0.041503906250, -0.971191406250, 0.212402343750, -0.296875000000, -1.335937500000, 4.210937500000, 1492751515
0.041503906250, -0.971191406250, 0.212402343750, -0.296875000000, -1.335937500000, 4.210937500000, 1492751515
0.041503906250, -0.971191406250, 0.212402343750, -0.296875000000, -1.335937500000, 4.210937500000, 1492751515
-0.008789062500, -0.925781250000, 0.212158203125, -10.953125000000, 3.000000000000, -1.382812500000, 1492751515
-0.008789062500, -0.925781250000, 0.212158203125, -10.953125000000, 3.000000000000, -1.382812500000, 1492751515
-0.008789062500, -0.925781250000, 0.212158203125, -10.953125000000, 3.000000000000, -1.382812500000, 1492751515
-0.071533203125, -1.024169921875, 0.231201171875, 1.179687500000, -9.781250000000, -2.765625000000, 1492751515
-0.071533203125, -1.024169921875, 0.231201171875, 1.179687500000, -9.781250000000, -2.765625000000, 1492751515
-0.071533203125, -1.024169921875, 0.231201171875, 1.179687500000, -9.781250000000, -2.765625000000, 1492751515
0.031250000000, -0.934326171875, 0.269775390625, -5.687500000000, 0.289062500000, -2.109375000000, 1492751515
0.031250000000, -0.934326171875, 0.269775390625, -5.687500000000, 0.289062500000, -2.109375000000, 1492751515
0.031250000000, -0.934326171875, 0.269775390625, -5.687500000000, 0.289062500000, -2.109375000000, 1492751515
0.031250000000, -0.934326171875, 0.269775390625, -5.687500000000, 0.289062500000, -2.109375000000, 1492751515
-0.091552734375, -1.032226562500, 0.259521484375, -10.078125000000, -2.468750000000, -2.882812500000, 1492751515
0.071044921875, -0.974121093750, 0.174560546875, -9.265625000000, 0.179687500000, -4.875000000000, 1492751515
0.071044921875, -0.974121093750, 0.174560546875, -9.265625000000, 0.179687500000, -4.875000000000, 1492751515
0.071044921875, -0.974121093750, 0.174560546875, -9.265625000000, 0.179687500000, -4.875000000000, 1492751515
0.071044921875, -0.974121093750, 0.174560546875, -9.265625000000, 0.179687500000, -4.875000000000, 1492751515
0.071044921875, -0.974121093750, 0.174560546875, -9.265625000000, 0.179687500000, -4.875000000000, 1492751515
0.030273437500, -1.066894531250, 0.273437500000, -11.382812500000, -4.656250000000, -6.273437500000, 1492751515
0.030273437500, -1.066894531250, 0.273437500000, -11.382812500000, -4.656250000000, -6.273437500000, 1492751515
0.030273437500, -1.066894531250, 0.273437500000, -11.382812500000, -4.656250000000, -6.273437500000, 1492751515
0.030273437500, -1.066894531250, 0.273437500000, -11.382812500000, -4.656250000000, -6.273437500000, 1492751515
0.006103515625, -1.020019531250, 0.268554687500, -13.164062500000, -3.070312500000, -4.078125000000, 1492751515
0.066406250000, -1.031982421875, 0.274169921875, -16.226562500000, -3.820312500000, -4.335937500000, 1492751515
0.066406250000, -1.031982421875, 0.274169921875, -16.226562500000, -3.820312500000, -4.335937500000, 1492751515
0.066406250000, -1.031982421875, 0.274169921875, -16.226562500000, -3.820312500000, -4.335937500000, 1492751515
0.066406250000, -1.031982421875, 0.274169921875, -16.226562500000, -3.820312500000, -4.335937500000, 1492751515
0.066406250000, -1.031982421875, 0.274169921875, -16.226562500000, -3.820312500000, -4.335937500000, 1492751515
0.073974609375, -1.009765625000, 0.290771484375, -30.765625000000, 2.453125000000, -4.867187500000, 1492751515
0.073974609375, -1.009765625000, 0.290771484375, -30.765625000000, 2.453125000000, -4.867187500000, 1492751515
0.073974609375, -1.009765625000, 0.290771484375, -30.765625000000, 2.453125000000, -4.867187500000, 1492751515
0.037109375000, -0.848144531250, 0.252197265625, -32.773437500000, 15.804687500000, -4.085937500000, 1492751515
0.037109375000, -0.848144531250, 0.252197265625, -32.773437500000, 15.804687500000, -4.085937500000, 1492751515
0.037109375000, -0.848144531250, 0.252197265625, -32.773437500000, 15.804687500000, -4.085937500000, 1492751515
0.006591796875, -0.922119140625, 0.179931640625, -10.414062500000, -6.648437500000, -1.070312500000, 1492751515
0.006591796875, -0.922119140625, 0.179931640625, -10.414062500000, -6.648437500000, -1.070312500000, 1492751515
0.006591796875, -0.922119140625, 0.179931640625, -10.414062500000, -6.648437500000, -1.070312500000, 1492751515
0.006591796875, -0.922119140625, 0.179931640625, -10.414062500000, -6.648437500000, -1.070312500000, 1492751515
0.066162109375, -0.923095703125, 0.245605468750, -16.804687500000, -1.953125000000, -7.351562500000, 1492751515
0.066162109375, -0.923095703125, 0.245605468750, -16.804687500000, -1.953125000000, -7.351562500000, 1492751515
0.066162109375, -0.923095703125, 0.245605468750, -16.804687500000, -1.953125000000, -7.351562500000, 1492751515
0.056884765625, -1.000976562500, 0.315429687500, -4.156250000000, -1.453125000000, -6.304687500000, 1492751515
0.056884765625, -1.000976562500, 0.315429687500, -4.156250000000, -1.453125000000, -6.304687500000, 1492751515
0.056884765625, -1.000976562500, 0.315429687500, -4.156250000000, -1.453125000000, -6.304687500000, 1492751515
0.127929687500, -0.867187500000, 0.219482421875, -16.328125000000, 5.921875000000, -8.593750000000, 1492751515
0.127929687500, -0.867187500000, 0.219482421875, -16.328125000000, 5.921875000000, -8.593750000000, 1492751515
0.127929687500, -0.867187500000, 0.219482421875, -16.328125000000, 5.921875000000, -8.593750000000, 1492751515
0.020507812500, -0.995605468750, 0.334960937500, -4.234375000000, -10.898437500000, -8.562500000000, 1492751516
0.020507812500, -0.995605468750, 0.334960937500, -4.234375000000, -10.898437500000, -8.562500000000, 1492751516
0.020507812500, -0.995605468750, 0.334960937500, -4.234375000000, -10.898437500000, -8.562500000000, 1492751516
0.020507812500, -0.995605468750, 0.334960937500, -4.234375000000, -10.898437500000, -8.562500000000, 1492751516
0.093261718750, -1.001464843750, 0.326171875000, -3.960937500000, -0.046875000000, -6.968750000000, 1492751516
0.093261718750, -1.001464843750, 0.326171875000, -3.960937500000, -0.046875000000, -6.968750000000, 1492751516
0.093261718750, -1.001464843750, 0.326171875000, -3.960937500000, -0.046875000000, -6.968750000000, 1492751516
-0.031005859375, -0.957763671875, 0.183837890625, -4.210937500000, -1.750000000000, -6.757812500000, 1492751516
-0.031005859375, -0.957763671875, 0.183837890625, -4.210937500000, -1.750000000000, -6.757812500000, 1492751516
-0.031005859375, -0.957763671875, 0.183837890625, -4.210937500000, -1.750000000000, -6.757812500000, 1492751516
0.013427734375, -0.959228515625, 0.340576171875, -6.257812500000, 1.460937500000, -4.523437500000, 1492751516
0.013427734375, -0.959228515625, 0.340576171875, -6.257812500000, 1.460937500000, -4.523437500000, 1492751516
0.013427734375, -0.959228515625, 0.340576171875, -6.257812500000, 1.460937500000, -4.523437500000, 1492751516
0.007080078125, -0.856689453125, 0.284179687500, -4.164062500000, -4.414062500000, -5.406250000000, 1492751516
0.007080078125, -0.856689453125, 0.284179687500, -4.164062500000, -4.414062500000, -5.406250000000, 1492751516
0.007080078125, -0.856689453125, 0.284179687500, -4.164062500000, -4.414062500000, -5.406250000000, 1492751516
0.007080078125, -0.856689453125, 0.284179687500, -4.164062500000, -4.414062500000, -5.406250000000, 1492751516
0.018066406250, -1.020263671875, 0.283691406250, 1.289062500000, -2.781250000000, -1.921875000000, 1492751516
0.018066406250, -1.020263671875, 0.283691406250, 1.289062500000, -2.781250000000, -1.921875000000, 1492751516
0.018066406250, -1.020263671875, 0.283691406250, 1.289062500000, -2.781250000000, -1.921875000000, 1492751516
0.028076171875, -0.936035156250, 0.236083984375, -6.375000000000, -1.843750000000, -5.437500000000, 1492751516
0.028076171875, -0.936035156250, 0.236083984375, -6.375000000000, -1.843750000000, -5.437500000000, 1492751516
0.028076171875, -0.936035156250, 0.236083984375, -6.375000000000, -1.843750000000, -5.437500000000, 1492751516
0.003173828125, -0.912353515625, 0.288330078125, -4.203125000000, 6.851562500000, -6.117187500000, 1492751516
0.003173828125, -0.912353515625, 0.288330078125, -4.203125000000, 6.851562500000, -6.117187500000, 1492751516
0.003173828125, -0.912353515625, 0.288330078125, -4.203125000000, 6.851562500000, -6.117187500000, 1492751516
0.084472656250, -1.002441406250, 0.247558593750, -6.007812500000, 3.578125000000, -6.445312500000, 1492751516
0.084472656250, -1.002441406250, 0.247558593750, -6.007812500000, 3.578125000000, -6.445312500000, 1492751516
0.084472656250, -1.002441406250, 0.247558593750, -6.007812500000, 3.578125000000, -6.445312500000, 1492751516
0.084472656250, -1.002441406250, 0.247558593750, -6.007812500000, 3.578125000000, -6.445312500000, 1492751516
-0.067382812500, -0.922851562500, 0.264404296875, -0.156250000000, 4.625000000000, -2.695312500000, 1492751516
-0.067382812500, -0.922851562500, 0.264404296875, -0.156250000000, 4.625000000000, -2.695312500000, 1492751516
-0.067382812500, -0.922851562500, 0.264404296875, -0.156250000000, 4.625000000000, -2.695312500000, 1492751516
0.016113281250, -0.858642578125, 0.242431640625, 1.382812500000, 1.242187500000, -4.554687500000, 1492751516
0.016113281250, -0.858642578125, 0.242431640625, 1.382812500000, 1.242187500000, -4.554687500000, 1492751516
0.016113281250, -0.858642578125, 0.242431640625, 1.382812500000, 1.242187500000, -4.554687500000, 1492751516
-0.021728515625, -0.934570312500, 0.271484375000, 7.062500000000, 4.523437500000, -2.296875000000, 1492751516
-0.021728515625, -0.934570312500, 0.271484375000, 7.062500000000, 4.523437500000, -2.296875000000, 1492751516
-0.021728515625, -0.934570312500, 0.271484375000, 7.062500000000, 4.523437500000, -2.296875000000, 1492751516
-0.034667968750, -0.858642578125, 0.257080078125, -10.515625000000, 3.203125000000, 0.609375000000, 1492751516
-0.034667968750, -0.858642578125, 0.257080078125, -10.515625000000, 3.203125000000, 0.609375000000, 1492751516
-0.034667968750, -0.858642578125, 0.257080078125, -10.515625000000, 3.203125000000, 0.609375000000, 1492751516
-0.034667968750, -0.858642578125, 0.257080078125, -10.515625000000, 3.203125000000, 0.609375000000, 1492751516
0.016601562500, -0.928955078125, 0.247314453125, -1.835937500000, -8.570312500000, -6.296875000000, 1492751516
0.016601562500, -0.928955078125, 0.247314453125, -1.835937500000, -8.570312500000, -6.296875000000, 1492751516
0.016601562500, -0.928955078125, 0.247314453125, -1.835937500000, -8.570312500000, -6.296875000000, 1492751516
0.006103515625, -1.008789062500, 0.333740234375, -7.375000000000, -8.476562500000, -5.640625000000, 1492751516
0.006103515625, -1.008789062500, 0.333740234375, -7.375000000000, -8.476562500000, -5.640625000000, 1492751516
0.006103515625, -1.008789062500, 0.333740234375, -7.375000000000, -8.476562500000, -5.640625000000, 1492751516
-0.072753906250, -0.909423828125, 0.218994140625, -11.140625000000, 6.210937500000, -6.625000000000, 1492751516
-0.072753906250, -0.909423828125, 0.218994140625, -11.140625000000, 6.210937500000, -6.625000000000, 1492751516
-0.072753906250, -0.909423828125, 0.218994140625, -11.140625000000, 6.210937500000, -6.625000000000, 1492751516
-0.008544921875, -1.143066406250, 0.326660156250, -9.382812500000, -18.468750000000, -7.625000000000, 1492751516
-0.008544921875, -1.143066406250, 0.326660156250, -9.382812500000, -18.468750000000, -7.625000000000, 1492751516
-0.008544921875, -1.143066406250, 0.326660156250, -9.382812500000, -18.468750000000, -7.625000000000, 1492751516
-0.008544921875, -1.143066406250, 0.326660156250, -9.382812500000, -18.468750000000, -7.625000000000, 1492751516
-0.076904296875, -0.962158203125, 0.281250000000, -1.164062500000, -21.820312500000, -5.312500000000, 1492751516
-0.076904296875, -0.962158203125, 0.281250000000, -1.164062500000, -21.820312500000, -5.312500000000, 1492751516
-0.076904296875, -0.962158203125, 0.281250000000, -1.164062500000, -21.820312500000, -5.312500000000, 1492751516
0.072998046875, -0.794433593750, 0.297607421875, 5.968750000000, 2.976562500000, 1.914062500000, 1492751516
0.072998046875, -0.794433593750, 0.297607421875, 5.968750000000, 2.976562500000, 1.914062500000, 1492751516
0.072998046875, -0.794433593750, 0.297607421875, 5.968750000000, 2.976562500000, 1.914062500000, 1492751516
-0.063720703125, -1.054443359375, 0.365478515625, -3.164062500000, -17.617187500000, 18.398437500000, 1492751516
-0.063720703125, -1.054443359375, 0.365478515625, -3.164062500000, -17.617187500000, 18.398437500000, 1492751516
-0.063720703125, -1.054443359375, 0.365478515625, -3.164062500000, -17.617187500000, 18.398437500000, 1492751516
0.087402343750, -1.020507812500, 0.250000000000, -5.750000000000, -2.570312500000, -3.929687500000, 1492751517
0.087402343750, -1.020507812500, 0.250000000000, -5.750000000000, -2.570312500000, -3.929687500000, 1492751517
0.087402343750, -1.020507812500, 0.250000000000, -5.750000000000, -2.570312500000, -3.929687500000, 1492751517
0.041259765625, -0.968261718750, 0.243652343750, -4.187500000000, -18.882812500000, -10.617187500000, 1492751517
0.125732421875, -0.890625000000, 0.327392578125, -3.039062500000, -11.812500000000, -7.015625000000, 1492751517
0.125732421875, -0.890625000000, 0.327392578125, -3.039062500000, -11.812500000000, -7.015625000000, 1492751517
0.125732421875, -0.890625000000, 0.327392578125, -3.039062500000, -11.812500000000, -7.015625000000, 1492751517
