ACC_X,ACC_Y,ACC_Z,G_X,G_Y,G_Z,Unix Time
-0.004394531250, -0.960937500000, 0.242919921875, -3.226562500000, 14.171875000000, 1.492187500000, 1492750950
-0.004394531250, -0.960937500000, 0.242919921875, -3.226562500000, 14.171875000000, 1.492187500000, 1492750950
-0.004394531250, -0.960937500000, 0.242919921875, -3.226562500000, 14.171875000000, 1.492187500000, 1492750950
-0.020996093750, -1.004638671875, 0.289794921875, -2.242187500000, 13.531250000000, 3.421875000000, 1492750950
-0.020996093750, -1.004638671875, 0.289794921875, -2.242187500000, 13.531250000000, 3.421875000000, 1492750950
-0.020996093750, -1.004638671875, 0.289794921875, -2.242187500000, 13.531250000000, 3.421875000000, 1492750950
0.025390625000, -0.982421875000, 0.247070312500, -0.062500000000, 17.218750000000, 5.375000000000, 1492750950
0.025390625000, -0.982421875000, 0.247070312500, -0.062500000000, 17.218750000000, 5.375000000000, 1492750950
0.025390625000, -0.982421875000, 0.247070312500, -0.062500000000, 17.218750000000, 5.375000000000, 1492750950
0.017578125000, -0.931396484375, 0.227050781250, -0.593750000000, 20.398437500000, 7.062500000000, 1492750950
0.017578125000, -0.931396484375, 0.227050781250, -0.593750000000, 20.398437500000, 7.062500000000, 1492750950
0.017578125000, -0.931396484375, 0.227050781250, -0.593750000000, 20.398437500000, 7.062500000000, 1492750950
0.017578125000, -0.931396484375, 0.227050781250, -0.593750000000, 20.398437500000, 7.062500000000, 1492750950
-0.020019531250, -1.004150390625, 0.308593750000, 2.789062500000, 12.695312500000, 5.757812500000, 1492750950
-0.020019531250, -1.004150390625, 0.308593750000, 2.789062500000, 12.695312500000, 5.757812500000, 1492750950
-0.020019531250, -1.004150390625, 0.308593750000, 2.789062500000, 12.695312500000, 5.757812500000, 1492750950
-0.007812500000, -1.023193359375, 0.294677734375, -1.695312500000, 13.203125000000, 2.742187500000, 1492750950
-0.007812500000, -1.023193359375, 0.294677734375, -1.695312500000, 13.203125000000, 2.742187500000, 1492750950
-0.007812500000, -1.023193359375, 0.294677734375, -1.695312500000, 13.203125000000, 2.742187500000, 1492750950
0.083740234375, -0.932128906250, 0.300781250000, 3.156250000000, 20.070312500000, 1.664062500000, 1492750950
0.083740234375, -0.932128906250, 0.300781250000, 3.156250000000, 20.070312500000, 1.664062500000, 1492750950
0.083740234375, -0.932128906250, 0.300781250000, 3.156250000000, 20.070312500000, 1.664062500000, 1492750950
0.064453125000, -0.797607421875, 0.326660156250, 21.421875000000, 30.750000000000, 5.632812500000, 1492750950
0.064453125000, -0.797607421875, 0.326660156250, 21.421875000000, 30.750000000000, 5.632812500000, 1492750950
0.064453125000, -0.797607421875, 0.326660156250, 21.421875000000, 30.750000000000, 5.632812500000, 1492750950
0.064453125000, -0.797607421875, 0.326660156250, 21.421875000000, 30.750000000000, 5.632812500000, 1492750950
0.031494140625, -0.656250000000, 0.110595703125, 47.101562500000, 61.601562500000, 9.195312500000, 1492750951
0.031494140625, -0.656250000000, 0.110595703125, 47.101562500000, 61.601562500000, 9.195312500000, 1492750951
0.031494140625, -0.656250000000, 0.110595703125, 47.101562500000, 61.601562500000, 9.195312500000, 1492750951
-0.008056640625, -0.220947265625, 0.151123046875, 73.046875000000, 86.867187500000, 6.562500000000, 1492750951
-0.008056640625, -0.220947265625, 0.151123046875, 73.046875000000, 86.867187500000, 6.562500000000, 1492750951
-0.008056640625, -0.220947265625, 0.151123046875, 73.046875000000, 86.867187500000, 6.562500000000, 1492750951
0.010009765625, -0.126464843750, 0.046630859375, 86.976562500000, 92.765625000000, 3.125000000000, 1492750951
0.010009765625, -0.126464843750, 0.046630859375, 86.976562500000, 92.765625000000, 3.125000000000, 1492750951
-0.002197265625, -0.418212890625, 0.068603515625, -49.960937500000, 18.914062500000, 40.390625000000, 1492750951
-0.002197265625, -0.418212890625, 0.068603515625, -49.960937500000, 18.914062500000, 40.390625000000, 1492750951
-0.002197265625, -0.418212890625, 0.068603515625, -49.960937500000, 18.914062500000, 40.390625000000, 1492750951
0.555908203125, -2.708251953125, 0.707519531250, -256.000000000000, -151.984375000000, 17.742187500000, 1492750951
0.555908203125, -2.708251953125, 0.707519531250, -256.000000000000, -151.984375000000, 17.742187500000, 1492750951
0.555908203125, -2.708251953125, 0.707519531250, -256.000000000000, -151.984375000000, 17.742187500000, 1492750951
0.555908203125, -2.708251953125, 0.707519531250, -256.000000000000, -151.984375000000, 17.742187500000, 1492750951
0.555908203125, -2.708251953125, 0.707519531250, -256.000000000000, -151.984375000000, 17.742187500000, 1492750951
0.613281250000, -2.614501953125, 0.590576171875, 170.507812500000, -28.953125000000, -29.375000000000, 1492750951
0.613281250000, -2.614501953125, 0.590576171875, 170.507812500000, -28.953125000000, -29.375000000000, 1492750951
0.613281250000, -2.614501953125, 0.590576171875, 170.507812500000, -28.953125000000, -29.375000000000, 1492750951
0.090576171875, -2.389160156250, 0.366699218750, -256.000000000000, 154.367187500000, -27.085937500000, 1492750951
0.090576171875, -2.389160156250, 0.366699218750, -256.000000000000, 154.367187500000, -27.085937500000, 1492750951
0.090576171875, -2.389160156250, 0.366699218750, -256.000000000000, 154.367187500000, -27.085937500000, 1492750951
-0.214599609375, -2.457763671875, 0.574218750000, 130.171875000000, 9.390625000000, 4.906250000000, 1492750951
-0.214599609375, -2.457763671875, 0.574218750000, 130.171875000000, 9.390625000000, 4.906250000000, 1492750951
-0.214599609375, -2.457763671875, 0.574218750000, 130.171875000000, 9.390625000000, 4.906250000000, 1492750951
-0.214599609375, -2.457763671875, 0.574218750000, 130.171875000000, 9.390625000000, 4.906250000000, 1492750951
0.180664062500, -2.361083984375, 1.613769531250, 253.992187500000, -256.000000000000, -84.382812500000, 1492750951
0.180664062500, -2.361083984375, 1.613769531250, 253.992187500000, -256.000000000000, -84.382812500000, 1492750951
0.180664062500, -2.361083984375, 1.613769531250, 253.992187500000, -256.000000000000, -84.382812500000, 1492750951
-0.016845703125, -0.790527343750, 0.369140625000, -228.796875000000, 181.429687500000, 33.328125000000, 1492750951
-0.016845703125, -0.790527343750, 0.369140625000, -228.796875000000, 181.429687500000, 33.328125000000, 1492750951
-0.016845703125, -0.790527343750, 0.369140625000, -228.796875000000, 181.429687500000, 33.328125000000, 1492750951
0.033935546875, 0.075439453125, 0.092529296875, -58.570312500000, 253.992187500000, 47.421875000000, 1492750951
0.033935546875, 0.075439453125, 0.092529296875, -58.570312500000, 253.992187500000, 47.421875000000, 1492750951
0.033935546875, 0.075439453125, 0.092529296875, -58.570312500000, 253.992187500000, 47.421875000000, 1492750951
0.028076171875, 0.096435546875, 0.062744140625, 158.421875000000, 130.906250000000, -16.234375000000, 1492750951
0.028076171875, 0.096435546875, 0.062744140625, 158.421875000000, 130.906250000000, -16.234375000000, 1492750951
0.028076171875, 0.096435546875, 0.062744140625, 158.421875000000, 130.906250000000, -16.234375000000, 1492750951
0.079833984375, 0.153808593750, -0.021728515625, 170.078125000000, 43.304687500000, -66.531250000000, 1492750951
0.000488281250, 0.057861328125, 0.145751953125, -144.398437500000, -169.312500000000, -94.765625000000, 1492750951
-0.018798828125, 0.149658203125, 0.058105468750, -144.398437500000, -169.312500000000, -94.765625000000, 1492750951
-0.018798828125, 0.149658203125, 0.058105468750, -144.398437500000, -169.312500000000, -94.765625000000, 1492750951
-0.018798828125, 0.149658203125, 0.058105468750, -144.398437500000, -169.312500000000, -94.765625000000, 1492750951
-0.018798828125, 0.149658203125, 0.058105468750, -144.398437500000, -169.312500000000, -94.765625000000, 1492750951
-0.018798828125, 0.149658203125, 0.058105468750, -144.398437500000, -169.312500000000, -94.765625000000, 1492750951
-0.064697265625, 0.028564453125, 0.078125000000, -105.835937500000, 0.898437500000, -66.796875000000, 1492750951
-0.064697265625, 0.028564453125, 0.078125000000, -105.835937500000, 0.898437500000, -66.796875000000, 1492750951
-0.064697265625, 0.028564453125, 0.078125000000, -105.835937500000, 0.898437500000, -66.796875000000, 1492750951
-0.007812500000, 0.148437500000, 0.058349609375, -256.000000000000, 110.953125000000, -29.929687500000, 1492750951
-0.007812500000, 0.148437500000, 0.058349609375, -256.000000000000, 110.953125000000, -29.929687500000, 1492750951
-0.007812500000, 0.148437500000, 0.058349609375, -256.000000000000, 110.953125000000, -29.929687500000, 1492750951
-0.007812500000, 0.148437500000, 0.058349609375, -256.000000000000, 110.953125000000, -29.929687500000, 1492750951
-0.013183593750, 0.064941406250, 0.064208984375, -256.000000000000, 52.953125000000, -20.882812500000, 1492750951
-0.013183593750, 0.064941406250, 0.064208984375, -256.000000000000, 52.953125000000, -20.882812500000, 1492750951
-0.013183593750, 0.064941406250, 0.064208984375, -256.000000000000, 52.953125000000, -20.882812500000, 1492750951
0.011962890625, -0.072265625000, 0.066650390625, -256.000000000000, 56.398437500000, 9.031250000000, 1492750951
0.011962890625, -0.072265625000, 0.066650390625, -256.000000000000, 56.398437500000, 9.031250000000, 1492750951
0.011962890625, -0.072265625000, 0.066650390625, -256.000000000000, 56.398437500000, 9.031250000000, 1492750951
0.145019531250, -0.443359375000, 0.051269531250, -197.273437500000, 1.445312500000, 19.937500000000, 1492750951
0.145019531250, -0.443359375000, 0.051269531250, -197.273437500000, 1.445312500000, 19.937500000000, 1492750951
0.145019531250, -0.443359375000, 0.051269531250, -197.273437500000, 1.445312500000, 19.937500000000, 1492750951
0.262207031250, -2.485839843750, 0.899414062500, 253.992187500000, -256.000000000000, -101.015625000000, 1492750951
0.262207031250, -2.485839843750, 0.899414062500, 253.992187500000, -256.000000000000, -101.015625000000, 1492750951
0.262207031250, -2.485839843750, 0.899414062500, 253.992187500000, -256.000000000000, -101.015625000000, 1492750951
0.262207031250, -2.485839843750, 0.899414062500, 253.992187500000, -256.000000000000, -101.015625000000, 1492750951
0.395751953125, -5.490966796875, 0.361083984375, 253.992187500000, -256.000000000000, -12.351562500000, 1492750951
0.395751953125, -5.490966796875, 0.361083984375, 253.992187500000, -256.000000000000, -12.351562500000, 1492750952
0.395751953125, -5.490966796875, 0.361083984375, 253.992187500000, -256.000000000000, -12.351562500000, 1492750952
0.840087890625, -2.234619140625, 0.182128906250, -256.000000000000, 196.492187500000, 4.656250000000, 1492750952
0.840087890625, -2.234619140625, 0.182128906250, -256.000000000000, 196.492187500000, 4.656250000000, 1492750952
0.840087890625, -2.234619140625, 0.182128906250, -256.000000000000, 196.492187500000, 4.656250000000, 1492750952
-0.003173828125, 0.000244140625, 0.153564453125, -144.234375000000, 253.992187500000, 166.570312500000, 1492750952
-0.003173828125, 0.000244140625, 0.153564453125, -144.234375000000, 253.992187500000, 166.570312500000, 1492750952
-0.003173828125, 0.000244140625, 0.153564453125, -144.234375000000, 253.992187500000, 166.570312500000, 1492750952
0.000976562500, -0.093505859375, -0.026611328125, 45.632812500000, 228.945312500000, -22.164062500000, 1492750952
0.000976562500, -0.093505859375, -0.026611328125, 45.632812500000, 228.945312500000, -22.164062500000, 1492750952
0.002197265625, 0.029052734375, -0.020751953125, 27.234375000000, 111.187500000000, -66.835937500000, 1492750952
0.092773437500, 0.028320312500, 0.068115234375, 22.687500000000, 84.312500000000, -94.515625000000, 1492750952
0.092773437500, 0.028320312500, 0.068115234375, 22.687500000000, 84.312500000000, -94.515625000000, 1492750952
0.092773437500, 0.028320312500, 0.068115234375, 22.687500000000, 84.312500000000, -94.515625000000, 1492750952
0.092773437500, 0.028320312500, 0.068115234375, 22.687500000000, 84.312500000000, -94.515625000000, 1492750952
0.135742187500, -0.395019531250, 0.040527343750, -233.843750000000, -14.703125000000, -198.867187500000, 1492750952
0.135742187500, -0.395019531250, 0.040527343750, -233.843750000000, -14.703125000000, -198.867187500000, 1492750952
0.135742187500, -0.395019531250, 0.040527343750, -233.843750000000, -14.703125000000, -198.867187500000, 1492750952
0.344970703125, -2.738037109375, 0.612548828125, -256.000000000000, -256.000000000000, 182.781250000000, 1492750952
0.344970703125, -2.738037109375, 0.612548828125, -256.000000000000, -256.000000000000, 182.781250000000, 1492750952
0.344970703125, -2.738037109375, 0.612548828125, -256.000000000000, -256.000000000000, 182.781250000000, 1492750952
0.195312500000, -1.154785156250, 0.442382812500, 253.992187500000, -223.085937500000, -169.343750000000, 1492750952
0.195312500000, -1.154785156250, 0.442382812500, 253.992187500000, -223.085937500000, -169.343750000000, 1492750952
0.195312500000, -1.154785156250, 0.442382812500, 253.992187500000, -223.085937500000, -169.343750000000, 1492750952
0.195312500000, -1.154785156250, 0.442382812500, 253.992187500000, -223.085937500000, -169.343750000000, 1492750952
-0.114990234375, -0.603759765625, 0.218505859375, 217.195312500000, -93.757812500000, -12.117187500000, 1492750952
-0.114990234375, -0.603759765625, 0.218505859375, 217.195312500000, -93.757812500000, -12.117187500000, 1492750952
-0.114990234375, -0.603759765625, 0.218505859375, 217.195312500000, -93.757812500000, -12.117187500000, 1492750952
0.249755859375, -0.974365234375, 0.147705078125, 107.585937500000, 133.171875000000, 183.250000000000, 1492750952
0.249755859375, -0.974365234375, 0.147705078125, 107.585937500000, 133.171875000000, 183.250000000000, 1492750952
0.249755859375, -0.974365234375, 0.147705078125, 107.585937500000, 133.171875000000, 183.250000000000, 1492750952
-1.239501953125, -0.388427734375, 4.121337890625, 253.992187500000, -256.000000000000, -98.929687500000, 1492750952
-1.239501953125, -0.388427734375, 4.121337890625, 253.992187500000, -256.000000000000, -98.929687500000, 1492750952
-1.239501953125, -0.388427734375, 4.121337890625, 253.992187500000, -256.000000000000, -98.929687500000, 1492750952
0.209960937500, -0.668945312500, 0.409423828125, -135.867187500000, 253.992187500000, 104.070312500000, 1492750952
0.209960937500, -0.668945312500, 0.409423828125, -135.867187500000, 253.992187500000, 104.070312500000, 1492750952
0.209960937500, -0.668945312500, 0.409423828125, -135.867187500000, 253.992187500000, 104.070312500000, 1492750952
0.209960937500, -0.668945312500, 0.409423828125, -135.867187500000, 253.992187500000, 104.070312500000, 1492750952
0.285644531250, -1.194580078125, 0.174560546875, 36.328125000000, 253.992187500000, 91.843750000000, 1492750952
0.285644531250, -1.194580078125, 0.174560546875, 36.328125000000, 253.992187500000, 91.843750000000, 1492750952
0.285644531250, -1.194580078125, 0.174560546875, 36.328125000000, 253.992187500000, 91.843750000000, 1492750952
0.167480468750, -0.814208984375, -0.016845703125, -17.445312500000, -1.843750000000, -34.171875000000, 1492750952
0.167480468750, -0.814208984375, -0.016845703125, -17.445312500000, -1.843750000000, -34.171875000000, 1492750952
0.167480468750, -0.814208984375, -0.016845703125, -17.445312500000, -1.843750000000, -34.171875000000, 1492750952
0.171386718750, -0.935302734375, 0.216308593750, -64.164062500000, -243.062500000000, -27.304687500000, 1492750952
0.171386718750, -0.935302734375, 0.216308593750, -64.164062500000, -243.062500000000, -27.304687500000, 1492750952
0.171386718750, -0.935302734375, 0.216308593750, -64.164062500000, -243.062500000000, -27.304687500000, 1492750952
-0.000488281250, -1.015136718750, 0.359130859375, 71.500000000000, -132.179687500000, -17.281250000000, 1492750952
-0.000488281250, -1.015136718750, 0.359130859375, 71.500000000000, -132.179687500000, -17.281250000000, 1492750952
0.218505859375, -0.913330078125, 0.489257812500, 2.101562500000, -159.531250000000, -47.515625000000, 1492750952
0.218505859375, -0.913330078125, 0.489257812500, 2.101562500000, -159.531250000000, -47.515625000000, 1492750952
0.218505859375, -0.913330078125, 0.489257812500, 2.101562500000, -159.531250000000, -47.515625000000, 1492750952
0.218505859375, -0.913330078125, 0.489257812500, 2.101562500000, -159.531250000000, -47.515625000000, 1492750952
0.218505859375, -0.913330078125, 0.489257812500, 2.101562500000, -159.531250000000, -47.515625000000, 1492750952
0.281250000000, -0.799560546875, 0.361816406250, -41.453125000000, 61.867187500000, 12.632812500000, 1492750952
0.281250000000, -0.799560546875, 0.361816406250, -41.453125000000, 61.867187500000, 12.632812500000, 1492750952
0.138916015625, -0.872314453125, 0.316894531250, -28.539062500000, 92.273437500000, 19.210937500000, 1492750952
0.138916015625, -0.872314453125, 0.316894531250, -28.539062500000, 92.273437500000, 19.210937500000, 1492750952
0.138916015625, -0.872314453125, 0.316894531250, -28.539062500000, 92.273437500000, 19.210937500000, 1492750952
0.138916015625, -0.872314453125, 0.316894531250, -28.539062500000, 92.273437500000, 19.210937500000, 1492750952
0.164306640625, -0.932617187500, 0.250000000000, -35.703125000000, -24.460937500000, -16.156250000000, 1492750952
0.094482421875, -0.967041015625, 0.324218750000, -6.093750000000, -44.054687500000, -27.039062500000, 1492750952
0.196533203125, -1.009277343750, 0.311035156250, 25.132812500000, -65.351562500000, -38.859375000000, 1492750952
0.196533203125, -1.009277343750, 0.311035156250, 25.132812500000, -65.351562500000, -38.859375000000, 1492750952
0.196533203125, -1.009277343750, 0.311035156250, 25.132812500000, -65.351562500000, -38.859375000000, 1492750952
0.196533203125, -1.009277343750, 0.311035156250, 25.132812500000, -65.351562500000, -38.859375000000, 1492750952
0.196533203125, -1.009277343750, 0.311035156250, 25.132812500000, -65.351562500000, -38.859375000000, 1492750952
0.200439453125, -0.802490234375, 0.356201171875, 3.250000000000, -92.734375000000, -35.718750000000, 1492750953
0.094238281250, -0.860839843750, 0.393310546875, 0.023437500000, -78.906250000000, -38.539062500000, 1492750953
0.102783203125, -0.892333984375, 0.312011718750, -15.289062500000, -33.312500000000, -31.414062500000, 1492750953
0.102783203125, -0.892333984375, 0.312011718750, -15.289062500000, -33.312500000000, -31.414062500000, 1492750953
0.102783203125, -0.892333984375, 0.312011718750, -15.289062500000, -33.312500000000, -31.414062500000, 1492750953
0.102783203125, -0.892333984375, 0.312011718750, -15.289062500000, -33.312500000000, -31.414062500000, 1492750953
0.191650390625, -0.975097656250, 0.279541015625, -8.351562500000, 12.132812500000, -12.960937500000, 1492750953
0.191650390625, -0.975097656250, 0.279541015625, -8.351562500000, 12.132812500000, -12.960937500000, 1492750953
0.191650390625, -0.975097656250, 0.279541015625, -8.351562500000, 12.132812500000, -12.960937500000, 1492750953
0.191650390625, -0.975097656250, 0.279541015625, -8.351562500000, 12.132812500000, -12.960937500000, 1492750953
0.191650390625, -0.975097656250, 0.279541015625, -8.351562500000, 12.132812500000, -12.960937500000, 1492750953
0.191650390625, -0.975097656250, 0.279541015625, -8.351562500000, 12.132812500000, -12.960937500000, 1492750953
0.191650390625, -0.975097656250, 0.279541015625, -8.351562500000, 12.132812500000, -12.960937500000, 1492750953
0.146728515625, -0.925048828125, 0.245605468750, -4.835937500000, -11.875000000000, -10.671875000000, 1492750953
0.146728515625, -0.925048828125, 0.245605468750, -4.835937500000, -11.875000000000, -10.671875000000, 1492750953
0.146728515625, -0.925048828125, 0.245605468750, -4.835937500000, -11.875000000000, -10.671875000000, 1492750953
0.053710937500, -0.948486328125, 0.233642578125, -0.664062500000, -27.664062500000, -20.585937500000, 1492750953
0.053710937500, -0.948486328125, 0.233642578125, -0.664062500000, -27.664062500000, -20.585937500000, 1492750953
0.053710937500, -0.948486328125, 0.233642578125, -0.664062500000, -27.664062500000, -20.585937500000, 1492750953
0.059570312500, -0.946777343750, 0.344238281250, 2.765625000000, -36.460937500000, -21.000000000000, 1492750953
0.059570312500, -0.946777343750, 0.344238281250, 2.765625000000, -36.460937500000, -21.000000000000, 1492750953
0.059570312500, -0.946777343750, 0.344238281250, 2.765625000000, -36.460937500000, -21.000000000000, 1492750953
0.134521484375, -0.926513671875, 0.390625000000, -0.812500000000, -31.937500000000, -22.320312500000, 1492750953
0.103027343750, -1.029296875000, 0.282226562500, -4.195312500000, -23.953125000000, -23.265625000000, 1492750953
0.103027343750, -1.029296875000, 0.282226562500, -4.195312500000, -23.953125000000, -23.265625000000, 1492750953
0.103027343750, -1.029296875000, 0.282226562500, -4.195312500000, -23.953125000000, -23.265625000000, 1492750953
0.151367187500, -0.931396484375, 0.320068359375, -7.929687500000, -1.054687500000, -18.695312500000, 1492750953
0.151367187500, -0.931396484375, 0.320068359375, -7.929687500000, -1.054687500000, -18.695312500000, 1492750953
0.151367187500, -0.931396484375, 0.320068359375, -7.929687500000, -1.054687500000, -18.695312500000, 1492750953
0.138183593750, -0.850585937500, 0.232666015625, -1.765625000000, -14.593750000000, -20.632812500000, 1492750953
0.138183593750, -0.850585937500, 0.232666015625, -1.765625000000, -14.593750000000, -20.632812500000, 1492750953
0.138183593750, -0.850585937500, 0.232666015625, -1.765625000000, -14.593750000000, -20.632812500000, 1492750953
0.066650390625, -0.962646484375, 0.297851562500, 1.125000000000, -22.671875000000, -28.562500000000, 1492750953
0.066650390625, -0.962646484375, 0.297851562500, 1.125000000000, -22.671875000000, -28.562500000000, 1492750953
0.066650390625, -0.962646484375, 0.297851562500, 1.125000000000, -22.671875000000, -28.562500000000, 1492750953
0.066650390625, -0.962646484375, 0.297851562500, 1.125000000000, -22.671875000000, -28.562500000000, 1492750953
0.059082031250, -0.935791015625, 0.284912109375, 4.140625000000, -29.132812500000, -25.390625000000, 1492750953
0.059082031250, -0.935791015625, 0.284912109375, 4.140625000000, -29.132812500000, -25.390625000000, 1492750953
0.059082031250, -0.935791015625, 0.284912109375, 4.140625000000, -29.132812500000, -25.390625000000, 1492750953
0.049804687500, -1.008056640625, 0.326416015625, -3.187500000000, -35.671875000000, -32.765625000000, 1492750953
0.049804687500, -1.008056640625, 0.326416015625, -3.187500000000, -35.671875000000, -32.765625000000, 1492750953
0.049804687500, -1.008056640625, 0.326416015625, -3.187500000000, -35.671875000000, -32.765625000000, 1492750953
0.153076171875, -0.984375000000, 0.239257812500, -2.828125000000, -30.132812500000, -19.031250000000, 1492750953
0.153076171875, -0.984375000000, 0.239257812500, -2.828125000000, -30.132812500000, -19.031250000000, 1492750953
0.153076171875, -0.984375000000, 0.239257812500, -2.828125000000, -30.132812500000, -19.031250000000, 1492750953
0.089843750000, -0.932128906250, 0.346679687500, -4.085937500000, -18.156250000000, -15.148437500000, 1492750953
0.089843750000, -0.932128906250, 0.346679687500, -4.085937500000, -18.156250000000, -15.148437500000, 1492750953
0.089843750000, -0.932128906250, 0.346679687500, -4.085937500000, -18.156250000000, -15.148437500000, 1492750953
0.089843750000, -0.932128906250, 0.346679687500, -4.085937500000, -18.156250000000, -15.148437500000, 1492750953
0.078857421875, -0.866699218750, 0.298583984375, -5.632812500000, -1.367187500000, -8.632812500000, 1492750953
0.078857421875, -0.866699218750, 0.298583984375, -5.632812500000, -1.367187500000, -8.632812500000, 1492750953
0.078857421875, -0.866699218750, 0.298583984375, -5.632812500000, -1.367187500000, -8.632812500000, 1492750953
0.093750000000, -0.930664062500, 0.405761718750, -6.890625000000, -2.437500000000, -12.023437500000, 1492750953
0.093750000000, -0.930664062500, 0.405761718750, -6.890625000000, -2.437500000000, -12.023437500000, 1492750953
0.093750000000, -0.930664062500, 0.405761718750, -6.890625000000, -2.437500000000, -12.023437500000, 1492750953
0.083007812500, -0.852539062500, 0.375732421875, -3.406250000000, 13.523437500000, -5.359375000000, 1492750953
0.083007812500, -0.852539062500, 0.375732421875, -3.406250000000, 13.523437500000, -5.359375000000, 1492750953
0.083007812500, -0.852539062500, 0.375732421875, -3.406250000000, 13.523437500000, -5.359375000000, 1492750953
-0.146484375000, -0.769287109375, 0.222656250000, 2.296875000000, 42.828125000000, 12.296875000000, 1492750953
-0.146484375000, -0.769287109375, 0.222656250000, 2.296875000000, 42.828125000000, 12.296875000000, 1492750953
-0.146484375000, -0.769287109375, 0.222656250000, 2.296875000000, 42.828125000000, 12.296875000000, 1492750953
-0.146484375000, -0.769287109375, 0.222656250000, 2.296875000000, 42.828125000000, 12.296875000000, 1492750953
-0.163085937500, -1.017822265625, 0.334716796875, 10.726562500000, -15.937500000000, 4.867187500000, 1492750953
-0.163085937500, -1.017822265625, 0.334716796875, 10.726562500000, -15.937500000000, 4.867187500000, 1492750953
-0.163085937500, -1.017822265625, 0.334716796875, 10.726562500000, -15.937500000000, 4.867187500000, 1492750953
-0.003417968750, -0.993408203125, 0.283203125000, 35.867187500000, -59.007812500000, -22.234375000000, 1492750954
-0.003417968750, -0.993408203125, 0.283203125000, 35.867187500000, -59.007812500000, -22.234375000000, 1492750954
-0.003417968750, -0.993408203125, 0.283203125000, 35.867187500000, -59.007812500000, -22.234375000000, 1492750954
0.100341796875, -0.855224609375, 0.373779296875, -15.671875000000, 55.015625000000, 25.781250000000, 1492750954
0.100341796875, -0.855224609375, 0.373779296875, -15.671875000000, 55.015625000000, 25.781250000000, 1492750954
0.100341796875, -0.855224609375, 0.373779296875, -15.671875000000, 55.015625000000, 25.781250000000, 1492750954
0.001953125000, -0.861572265625, 0.334960937500, -8.476562500000, 76.023437500000, 48.960937500000, 1492750954
0.001953125000, -0.861572265625, 0.334960937500, -8.476562500000, 76.023437500000, 48.960937500000, 1492750954
-0.069580078125, -0.939208984375, 0.443359375000, -11.046875000000, 89.695312500000, 60.367187500000, 1492750954
-0.069580078125, -0.939208984375, 0.443359375000, -11.046875000000, 89.695312500000, 60.367187500000, 1492750954
-0.069580078125, -0.939208984375, 0.443359375000, -11.046875000000, 89.695312500000, 60.367187500000, 1492750954
-0.069580078125, -0.939208984375, 0.443359375000, -11.046875000000, 89.695312500000, 60.367187500000, 1492750954
-0.085449218750, -0.805664062500, 0.300537109375, -18.687500000000, 132.117187500000, 94.335937500000, 1492750954
-0.085449218750, -0.805664062500, 0.300537109375, -18.687500000000, 132.117187500000, 94.335937500000, 1492750954
-0.085449218750, -0.805664062500, 0.300537109375, -18.687500000000, 132.117187500000, 94.335937500000, 1492750954
-0.085449218750, -0.805664062500, 0.300537109375, -18.687500000000, 132.117187500000, 94.335937500000, 1492750954
0.052490234375, -0.914306640625, 0.309082031250, -30.578125000000, 93.234375000000, 69.132812500000, 1492750954
0.052490234375, -0.914306640625, 0.309082031250, -30.578125000000, 93.234375000000, 69.132812500000, 1492750954
0.007324218750, -1.091796875000, 0.184082031250, -31.335937500000, -64.429687500000, 22.343750000000, 1492750954
0.007324218750, -1.091796875000, 0.184082031250, -31.335937500000, -64.429687500000, 22.343750000000, 1492750954
0.007324218750, -1.091796875000, 0.184082031250, -31.335937500000, -64.429687500000, 22.343750000000, 1492750954
0.007324218750, -1.091796875000, 0.184082031250, -31.335937500000, -64.429687500000, 22.343750000000, 1492750954
0.007324218750, -1.091796875000, 0.184082031250, -31.335937500000, -64.429687500000, 22.343750000000, 1492750954
-0.097167968750, -1.004394531250, 0.466796875000, 14.906250000000, -103.023437500000, -16.226562500000, 1492750954
-0.097167968750, -1.004394531250, 0.466796875000, 14.906250000000, -103.023437500000, -16.226562500000, 1492750954
-0.097167968750, -1.004394531250, 0.466796875000, 14.906250000000, -103.023437500000, -16.226562500000, 1492750954
0.121093750000, -0.844238281250, 0.320312500000, 7.734375000000, -33.976562500000, -14.085937500000, 1492750954
0.121093750000, -0.844238281250, 0.320312500000, 7.734375000000, -33.976562500000, -14.085937500000, 1492750954
0.121093750000, -0.844238281250, 0.320312500000, 7.734375000000, -33.976562500000, -14.085937500000, 1492750954
0.423339843750, -1.094238281250, 0.409667968750, -2.296875000000, 37.992187500000, 5.976562500000, 1492750954
0.423339843750, -1.094238281250, 0.409667968750, -6.500000000000, 34.609375000000, 11.359375000000, 1492750954
0.365478515625, -0.759765625000, 0.328125000000, -20.531250000000, 129.421875000000, 33.789062500000, 1492750954
0.365478515625, -0.759765625000, 0.328125000000, -20.531250000000, 129.421875000000, 33.789062500000, 1492750954
0.365478515625, -0.759765625000, 0.328125000000, -20.531250000000, 129.421875000000, 33.789062500000, 1492750954
0.365478515625, -0.759765625000, 0.328125000000, -20.531250000000, 129.421875000000, 33.789062500000, 1492750954
0.365478515625, -0.759765625000, 0.328125000000, -20.531250000000, 129.421875000000, 33.789062500000, 1492750954
0.565429687500, -0.921875000000, 0.292968750000, 57.070312500000, 238.960937500000, 73.171875000000, 1492750954
0.514160156250, -0.951416015625, 0.371337890625, 96.687500000000, 121.570312500000, 46.171875000000, 1492750954
0.253173828125, -0.774169921875, 0.220458984375, 66.210937500000, -28.156250000000, -8.593750000000, 1492750954
0.253173828125, -0.774169921875, 0.220458984375, 66.210937500000, -28.156250000000, -8.593750000000, 1492750954
0.253173828125, -0.774169921875, 0.220458984375, 66.210937500000, -28.156250000000, -8.593750000000, 1492750954
0.253173828125, -0.774169921875, 0.220458984375, 66.210937500000, -28.156250000000, -8.593750000000, 1492750954
0.227050781250, -0.856689453125, 0.203857421875, -29.406250000000, -37.945312500000, 17.460937500000, 1492750954
0.227050781250, -0.856689453125, 0.203857421875, -29.406250000000, -37.945312500000, 17.460937500000, 1492750954
0.227050781250, -0.856689453125, 0.203857421875, -29.406250000000, -37.945312500000, 17.460937500000, 1492750954
0.375244140625, -1.010009765625, 0.345458984375, 56.445312500000, -90.492187500000, -41.406250000000, 1492750954
0.375244140625, -1.010009765625, 0.345458984375, 56.445312500000, -90.492187500000, -41.406250000000, 1492750954
0.375244140625, -1.010009765625, 0.345458984375, 56.445312500000, -90.492187500000, -41.406250000000, 1492750954
0.375244140625, -1.010009765625, 0.345458984375, 56.445312500000, -90.492187500000, -41.406250000000, 1492750954
0.372070312500, -0.801757812500, 0.285644531250, 19.554687500000, 44.773437500000, -1.765625000000, 1492750954
0.372070312500, -0.801757812500, 0.285644531250, 19.554687500000, 44.773437500000, -1.765625000000, 1492750954
0.372070312500, -0.801757812500, 0.285644531250, 19.554687500000, 44.773437500000, -1.765625000000, 1492750954
0.610351562500, -0.896240234375, 0.287841796875, 22.031250000000, -18.664062500000, -8.835937500000, 1492750954
0.610351562500, -0.896240234375, 0.287841796875, 22.031250000000, -18.664062500000, -8.835937500000, 1492750954
0.610351562500, -0.896240234375, 0.287841796875, 22.031250000000, -18.664062500000, -8.835937500000, 1492750954
0.309082031250, -0.834472656250, 0.308837890625, -41.875000000000, 68.640625000000, 59.562500000000, 1492750954
0.309082031250, -0.834472656250, 0.308837890625, -41.875000000000, 68.640625000000, 59.562500000000, 1492750954
0.309082031250, -0.834472656250, 0.308837890625, -41.875000000000, 68.640625000000, 59.562500000000, 1492750954
0.456787109375, -0.957031250000, 0.271972656250, -18.421875000000, 55.953125000000, 19.875000000000, 1492750954
0.456787109375, -0.957031250000, 0.271972656250, -18.421875000000, 55.953125000000, 19.875000000000, 1492750954
0.456787109375, -0.957031250000, 0.271972656250, -18.421875000000, 55.953125000000, 19.875000000000, 1492750954
0.456787109375, -0.957031250000, 0.271972656250, -18.421875000000, 55.953125000000, 19.875000000000, 1492750954
0.461181640625, -0.961914062500, 0.165771484375, 5.281250000000, 13.789062500000, 16.304687500000, 1492750954
0.461181640625, -0.961914062500, 0.165771484375, 5.281250000000, 13.789062500000, 16.304687500000, 1492750954
0.461181640625, -0.961914062500, 0.165771484375, 5.281250000000, 13.789062500000, 16.304687500000, 1492750954
