ACC_X,ACC_Y,ACC_Z,G_X,G_Y,G_Z,Unix Time
-0.336181640625, -2.152343750000, 0.529052734375, -48.765625000000, -105.148437500000, -36.242187500000, 1492750811
-0.336181640625, -2.152343750000, 0.529052734375, -48.765625000000, -105.148437500000, -36.242187500000, 1492750811
-0.336181640625, -2.152343750000, 0.529052734375, -48.765625000000, -105.148437500000, -36.242187500000, 1492750811
-0.336181640625, -2.152343750000, 0.529052734375, -48.765625000000, -105.148437500000, -36.242187500000, 1492750811
-0.095947265625, -1.495361328125, 0.388671875000, 41.242187500000, -84.664062500000, -31.179687500000, 1492750811
-0.095947265625, -1.495361328125, 0.388671875000, 41.242187500000, -84.664062500000, -31.179687500000, 1492750811
-0.095947265625, -1.495361328125, 0.388671875000, 41.242187500000, -84.664062500000, -31.179687500000, 1492750811
-0.095947265625, -1.495361328125, 0.388671875000, 41.242187500000, -84.664062500000, -31.179687500000, 1492750811
-0.095947265625, -1.495361328125, 0.388671875000, 41.242187500000, -84.664062500000, -31.179687500000, 1492750811
-0.095947265625, -1.495361328125, 0.388671875000, 41.242187500000, -84.664062500000, -31.179687500000, 1492750811
-0.150390625000, -1.072265625000, 0.299072265625, 22.812500000000, -58.093750000000, 0.484375000000, 1492750811
-0.150390625000, -1.072265625000, 0.299072265625, 22.812500000000, -58.093750000000, 0.484375000000, 1492750811
-0.150390625000, -1.072265625000, 0.299072265625, 22.812500000000, -58.093750000000, 0.484375000000, 1492750811
0.147949218750, -0.523193359375, 0.209716796875, 56.195312500000, -0.906250000000, 6.156250000000, 1492750811
0.147949218750, -0.523193359375, 0.209716796875, 56.195312500000, -0.906250000000, 6.156250000000, 1492750811
0.147949218750, -0.523193359375, 0.209716796875, 56.195312500000, -0.906250000000, 6.156250000000, 1492750811
-0.010986328125, 0.034179687500, 0.087158203125, 50.554687500000, 87.226562500000, 23.296875000000, 1492750811
-0.010986328125, 0.034179687500, 0.087158203125, 50.554687500000, 87.226562500000, 23.296875000000, 1492750811
-0.010986328125, 0.034179687500, 0.087158203125, 50.554687500000, 87.226562500000, 23.296875000000, 1492750811
-0.010986328125, 0.034179687500, 0.087158203125, 50.554687500000, 87.226562500000, 23.296875000000, 1492750811
-0.066406250000, 0.052734375000, -0.000488281250, 25.117187500000, 58.820312500000, 38.500000000000, 1492750811
-0.066406250000, 0.052734375000, -0.000488281250, 25.117187500000, 58.820312500000, 38.500000000000, 1492750811
-0.066406250000, 0.052734375000, -0.000488281250, 25.117187500000, 58.820312500000, 38.500000000000, 1492750811
0.026123046875, 0.048583984375, -0.001220703125, 6.460937500000, 18.171875000000, -7.625000000000, 1492750811
0.026123046875, 0.048583984375, -0.001220703125, 6.460937500000, 18.171875000000, -7.625000000000, 1492750811
0.026123046875, 0.048583984375, -0.001220703125, 6.460937500000, 18.171875000000, -7.625000000000, 1492750811
-0.037353515625, -0.270263671875, 0.086425781250, -93.914062500000, -33.375000000000, 40.867187500000, 1492750811
-0.037353515625, -0.270263671875, 0.086425781250, -93.914062500000, -33.375000000000, 40.867187500000, 1492750811
-0.037353515625, -0.270263671875, 0.086425781250, -93.914062500000, -33.375000000000, 40.867187500000, 1492750811
0.414550781250, -1.927978515625, 1.100830078125, 73.609375000000, -256.000000000000, -47.992187500000, 1492750812
0.414550781250, -1.927978515625, 1.100830078125, 73.609375000000, -256.000000000000, -47.992187500000, 1492750812
0.414550781250, -1.927978515625, 1.100830078125, 73.609375000000, -256.000000000000, -47.992187500000, 1492750812
0.414550781250, -1.927978515625, 1.100830078125, 73.609375000000, -256.000000000000, -47.992187500000, 1492750812
0.169433593750, -2.005859375000, 0.321289062500, 253.992187500000, 227.492187500000, -52.398437500000, 1492750812
0.169433593750, -2.005859375000, 0.321289062500, 253.992187500000, 227.492187500000, -52.398437500000, 1492750812
0.169433593750, -2.005859375000, 0.321289062500, 253.992187500000, 227.492187500000, -52.398437500000, 1492750812
-0.480468750000, -1.526123046875, 0.506835937500, 41.109375000000, 147.945312500000, 41.664062500000, 1492750812
-0.480468750000, -1.526123046875, 0.506835937500, 41.109375000000, 147.945312500000, 41.664062500000, 1492750812
-0.480468750000, -1.526123046875, 0.506835937500, 41.109375000000, 147.945312500000, 41.664062500000, 1492750812
-0.035644531250, -0.454345703125, 0.184570312500, -126.023437500000, -188.046875000000, -77.929687500000, 1492750812
-0.035644531250, -0.454345703125, 0.184570312500, -126.023437500000, -188.046875000000, -77.929687500000, 1492750812
-0.035644531250, -0.454345703125, 0.184570312500, -126.023437500000, -188.046875000000, -77.929687500000, 1492750812
0.018066406250, 0.070068359375, -0.018554687500, 73.937500000000, -23.046875000000, -23.367187500000, 1492750812
0.018066406250, 0.070068359375, -0.018554687500, 73.937500000000, -23.046875000000, -23.367187500000, 1492750812
0.018066406250, 0.070068359375, -0.018554687500, 73.937500000000, -23.046875000000, -23.367187500000, 1492750812
0.018066406250, 0.070068359375, -0.018554687500, 73.937500000000, -23.046875000000, -23.367187500000, 1492750812
-0.043212890625, 0.106445312500, 0.084228515625, 46.320312500000, -63.187500000000, -22.226562500000, 1492750812
-0.043212890625, 0.106445312500, 0.084228515625, 46.320312500000, -63.187500000000, -22.226562500000, 1492750812
-0.043212890625, 0.106445312500, 0.084228515625, 46.320312500000, -63.187500000000, -22.226562500000, 1492750812
-0.103515625000, -0.173339843750, -0.222656250000, -256.000000000000, -120.312500000000, -13.039062500000, 1492750812
-0.103515625000, -0.173339843750, -0.222656250000, -256.000000000000, -120.312500000000, -13.039062500000, 1492750812
-0.103515625000, -0.173339843750, -0.222656250000, -256.000000000000, -120.312500000000, -13.039062500000, 1492750812
-1.223876953125, -4.328369140625, 1.221923828125, -256.000000000000, -253.375000000000, -200.609375000000, 1492750812
-1.223876953125, -4.328369140625, 1.221923828125, -256.000000000000, -253.375000000000, -200.609375000000, 1492750812
-1.223876953125, -4.328369140625, 1.221923828125, -256.000000000000, -253.375000000000, -200.609375000000, 1492750812
-0.054931640625, -1.917724609375, 0.458251953125, 146.828125000000, -99.687500000000, 64.570312500000, 1492750812
0.380615234375, -2.002685546875, 0.791503906250, 253.992187500000, -248.023437500000, 29.468750000000, 1492750812
0.380615234375, -2.002685546875, 0.791503906250, 253.992187500000, -248.023437500000, 29.468750000000, 1492750812
0.380615234375, -2.002685546875, 0.791503906250, 253.992187500000, -248.023437500000, 29.468750000000, 1492750812
0.380615234375, -2.002685546875, 0.791503906250, 253.992187500000, -248.023437500000, 29.468750000000, 1492750812
0.380615234375, -2.002685546875, 0.791503906250, 253.992187500000, -248.023437500000, 29.468750000000, 1492750812
0.380615234375, -2.002685546875, 0.791503906250, 253.992187500000, -248.023437500000, 29.468750000000, 1492750812
0.948730468750, -0.389892578125, 2.313720703125, -225.640625000000, -256.000000000000, 33.656250000000, 1492750812
0.948730468750, -0.389892578125, 2.313720703125, -225.640625000000, -256.000000000000, 33.656250000000, 1492750812
0.948730468750, -0.389892578125, 2.313720703125, -225.640625000000, -256.000000000000, 33.656250000000, 1492750812
0.117187500000, -0.117431640625, 0.115478515625, 10.937500000000, 253.992187500000, 103.796875000000, 1492750812
0.117187500000, -0.117431640625, 0.115478515625, 10.937500000000, 253.992187500000, 103.796875000000, 1492750812
0.117187500000, -0.117431640625, 0.115478515625, 10.937500000000, 253.992187500000, 103.796875000000, 1492750812
0.035156250000, 0.034912109375, 0.022460937500, -9.789062500000, 92.835937500000, -79.351562500000, 1492750812
0.035156250000, 0.034912109375, 0.022460937500, -9.789062500000, 92.835937500000, -79.351562500000, 1492750812
0.035156250000, 0.034912109375, 0.022460937500, -9.789062500000, 92.835937500000, -79.351562500000, 1492750812
0.035156250000, 0.034912109375, 0.022460937500, -9.789062500000, 92.835937500000, -79.351562500000, 1492750812
-0.088867187500, 0.059082031250, 0.142822265625, -119.578125000000, 100.609375000000, -41.867187500000, 1492750812
-0.088867187500, 0.059082031250, 0.142822265625, -119.578125000000, 100.609375000000, -41.867187500000, 1492750812
-0.088867187500, 0.059082031250, 0.142822265625, -119.578125000000, 100.609375000000, -41.867187500000, 1492750812
0.089843750000, 0.042480468750, -0.157470703125, -256.000000000000, 22.859375000000, 32.265625000000, 1492750812
1.103271484375, -2.070068359375, 0.973876953125, -213.867187500000, -256.000000000000, -207.640625000000, 1492750812
1.103271484375, -2.070068359375, 0.973876953125, -213.867187500000, -256.000000000000, -207.640625000000, 1492750812
1.103271484375, -2.070068359375, 0.973876953125, -213.867187500000, -256.000000000000, -207.640625000000, 1492750812
1.103271484375, -2.070068359375, 0.973876953125, -213.867187500000, -256.000000000000, -207.640625000000, 1492750812
1.103271484375, -2.070068359375, 0.973876953125, -213.867187500000, -256.000000000000, -207.640625000000, 1492750812
1.103271484375, -2.070068359375, 0.973876953125, -213.867187500000, -256.000000000000, -207.640625000000, 1492750812
1.068603515625, -2.757324218750, 0.892089843750, 253.992187500000, -256.000000000000, -256.000000000000, 1492750812
1.068603515625, -2.757324218750, 0.892089843750, 253.992187500000, -256.000000000000, -256.000000000000, 1492750812
1.068603515625, -2.757324218750, 0.892089843750, 253.992187500000, -256.000000000000, -256.000000000000, 1492750812
0.023193359375, -1.184326171875, 0.375732421875, 253.992187500000, 239.929687500000, -54.765625000000, 1492750812
0.023193359375, -1.184326171875, 0.375732421875, 253.992187500000, 239.929687500000, -54.765625000000, 1492750812
0.032714843750, -0.434814453125, 0.071289062500, -254.671875000000, 129.351562500000, -128.734375000000, 1492750812
0.032714843750, -0.434814453125, 0.071289062500, -254.671875000000, 129.351562500000, -128.734375000000, 1492750812
0.032714843750, -0.434814453125, 0.071289062500, -254.671875000000, 129.351562500000, -128.734375000000, 1492750812
-0.098144531250, 0.094726562500, -0.002197265625, -115.312500000000, 31.007812500000, -81.328125000000, 1492750812
0.021240234375, 0.037353515625, 0.035644531250, -115.312500000000, 31.007812500000, -81.328125000000, 1492750812
0.021240234375, 0.037353515625, 0.035644531250, -115.312500000000, 31.007812500000, -81.328125000000, 1492750812
0.021240234375, 0.037353515625, 0.035644531250, -115.312500000000, 31.007812500000, -81.328125000000, 1492750812
-0.076416015625, -0.079345703125, -0.065185546875, -45.609375000000, -55.070312500000, -49.375000000000, 1492750813
-0.076416015625, -0.079345703125, -0.065185546875, -45.609375000000, -55.070312500000, -49.375000000000, 1492750813
-0.076416015625, -0.079345703125, -0.065185546875, -45.609375000000, -55.070312500000, -49.375000000000, 1492750813
-0.076416015625, -0.079345703125, -0.065185546875, -45.609375000000, -55.070312500000, -49.375000000000, 1492750813
-0.028320312500, -0.233154296875, -0.053710937500, -256.000000000000, -256.000000000000, -40.226562500000, 1492750813
-0.028320312500, -0.233154296875, -0.053710937500, -256.000000000000, -256.000000000000, -40.226562500000, 1492750813
-0.028320312500, -0.233154296875, -0.053710937500, -256.000000000000, -256.000000000000, -40.226562500000, 1492750813
-0.965332031250, -2.541992187500, 1.009521484375, -256.000000000000, -158.531250000000, -157.257812500000, 1492750813
-0.965332031250, -2.541992187500, 1.009521484375, -256.000000000000, -158.531250000000, -157.257812500000, 1492750813
-0.965332031250, -2.541992187500, 1.009521484375, -256.000000000000, -158.531250000000, -157.257812500000, 1492750813
-0.408691406250, -2.430664062500, 0.488525390625, 253.992187500000, 253.992187500000, 104.867187500000, 1492750813
-0.408691406250, -2.430664062500, 0.488525390625, 253.992187500000, 253.992187500000, 104.867187500000, 1492750813
-0.408691406250, -2.430664062500, 0.488525390625, 253.992187500000, 253.992187500000, 104.867187500000, 1492750813
0.763671875000, -2.146728515625, 0.554687500000, 253.992187500000, -256.000000000000, 170.375000000000, 1492750813
0.763671875000, -2.146728515625, 0.554687500000, 253.992187500000, -256.000000000000, 170.375000000000, 1492750813
0.763671875000, -2.146728515625, 0.554687500000, 253.992187500000, -256.000000000000, 170.375000000000, 1492750813
0.763671875000, -2.146728515625, 0.554687500000, 253.992187500000, -256.000000000000, 170.375000000000, 1492750813
-0.095458984375, -1.291259765625, 4.950195312500, 253.992187500000, -256.000000000000, -224.351562500000, 1492750813
-0.095458984375, -1.291259765625, 4.950195312500, 253.992187500000, -256.000000000000, -224.351562500000, 1492750813
-0.095458984375, -1.291259765625, 4.950195312500, 253.992187500000, -256.000000000000, -224.351562500000, 1492750813
0.113037109375, -0.208740234375, 0.270996093750, -195.265625000000, 219.773437500000, 198.304687500000, 1492750813
0.113037109375, -0.208740234375, 0.270996093750, -195.265625000000, 219.773437500000, 198.304687500000, 1492750813
0.113037109375, -0.208740234375, 0.270996093750, -195.265625000000, 219.773437500000, 198.304687500000, 1492750813
0.010742187500, -0.062988281250, 0.059570312500, 119.375000000000, 253.992187500000, 21.914062500000, 1492750813
0.010742187500, -0.062988281250, 0.059570312500, 119.375000000000, 253.992187500000, 21.914062500000, 1492750813
0.010742187500, -0.062988281250, 0.059570312500, 119.375000000000, 253.992187500000, 21.914062500000, 1492750813
0.068847656250, 0.128906250000, -0.068359375000, 6.867187500000, 209.648437500000, -120.789062500000, 1492750813
0.068847656250, 0.128906250000, -0.068359375000, 6.867187500000, 209.648437500000, -120.789062500000, 1492750813
0.068847656250, 0.128906250000, -0.068359375000, 6.867187500000, 209.648437500000, -120.789062500000, 1492750813
0.090576171875, 0.065917968750, -0.064941406250, -160.046875000000, 236.875000000000, -249.031250000000, 1492750813
0.090576171875, 0.065917968750, -0.064941406250, -160.046875000000, 236.875000000000, -249.031250000000, 1492750813
0.090576171875, 0.065917968750, -0.064941406250, -160.140625000000, 253.992187500000, -240.703125000000, 1492750813
0.548095703125, -1.323730468750, -0.150146484375, -256.000000000000, 253.992187500000, -28.609375000000, 1492750813
0.548095703125, -1.323730468750, -0.150146484375, -256.000000000000, 253.992187500000, -28.609375000000, 1492750813
0.548095703125, -1.323730468750, -0.150146484375, -256.000000000000, 253.992187500000, -28.609375000000, 1492750813
0.548095703125, -1.323730468750, -0.150146484375, -256.000000000000, 253.992187500000, -28.609375000000, 1492750813
1.052978515625, -2.034179687500, 0.545654296875, -220.046875000000, -256.000000000000, 1.460937500000, 1492750813
1.052978515625, -2.034179687500, 0.545654296875, -220.046875000000, -256.000000000000, 1.460937500000, 1492750813
1.052978515625, -2.034179687500, 0.545654296875, -220.046875000000, -256.000000000000, 1.460937500000, 1492750813
1.245361328125, -2.595703125000, 1.413330078125, -40.445312500000, -256.000000000000, -255.992187500000, 1492750813
1.245361328125, -2.595703125000, 1.413330078125, -40.445312500000, -256.000000000000, -255.992187500000, 1492750813
1.245361328125, -2.595703125000, 1.413330078125, -40.445312500000, -256.000000000000, -255.992187500000, 1492750813
1.245361328125, -2.595703125000, 1.413330078125, -40.445312500000, -256.000000000000, -255.992187500000, 1492750813
0.442871093750, -2.162109375000, 7.933837890625, 253.992187500000, 253.992187500000, 137.531250000000, 1492750813
0.442871093750, -2.162109375000, 7.933837890625, 253.992187500000, 253.992187500000, 137.531250000000, 1492750813
0.442871093750, -2.162109375000, 7.933837890625, 253.992187500000, 253.992187500000, 137.531250000000, 1492750813
-0.003173828125, -0.538085937500, 0.126708984375, -256.000000000000, 253.992187500000, -55.570312500000, 1492750813
-0.003173828125, -0.538085937500, 0.126708984375, -256.000000000000, 253.992187500000, -55.570312500000, 1492750813
-0.003173828125, -0.538085937500, 0.126708984375, -256.000000000000, 253.992187500000, -55.570312500000, 1492750813
0.210205078125, -0.443847656250, 0.230957031250, -76.945312500000, 100.062500000000, 96.375000000000, 1492750813
0.210205078125, -0.443847656250, 0.230957031250, -76.945312500000, 100.062500000000, 96.375000000000, 1492750813
0.210205078125, -0.443847656250, 0.230957031250, -76.945312500000, 100.062500000000, 96.375000000000, 1492750813
-0.004882812500, 0.066406250000, 0.042968750000, -84.257812500000, -19.789062500000, -98.343750000000, 1492750813
-0.004882812500, 0.066406250000, 0.042968750000, -84.257812500000, -19.789062500000, -98.343750000000, 1492750813
-0.004882812500, 0.066406250000, 0.042968750000, -84.257812500000, -19.789062500000, -98.343750000000, 1492750813
-0.004882812500, 0.066406250000, 0.042968750000, -84.257812500000, -19.789062500000, -98.343750000000, 1492750813
-0.083251953125, 0.145751953125, 0.023681640625, -107.726562500000, -47.351562500000, -85.257812500000, 1492750813
-0.083251953125, 0.145751953125, 0.023681640625, -107.726562500000, -47.351562500000, -85.257812500000, 1492750813
-0.083251953125, 0.145751953125, 0.023681640625, -107.726562500000, -47.351562500000, -85.257812500000, 1492750813
0.125732421875, -1.180419921875, 0.110839843750, -173.718750000000, -172.085937500000, -107.453125000000, 1492750813
0.125732421875, -1.180419921875, 0.110839843750, -173.718750000000, -172.085937500000, -107.453125000000, 1492750813
0.125732421875, -1.180419921875, 0.110839843750, -173.718750000000, -172.085937500000, -107.453125000000, 1492750813
0.061279296875, -2.173095703125, 0.203125000000, 253.992187500000, 253.992187500000, 13.828125000000, 1492750813
0.061279296875, -2.173095703125, 0.203125000000, 253.992187500000, 253.992187500000, 13.828125000000, 1492750813
0.061279296875, -2.173095703125, 0.203125000000, 253.992187500000, 253.992187500000, 13.828125000000, 1492750814
0.061279296875, -2.173095703125, 0.203125000000, 253.992187500000, 253.992187500000, 13.828125000000, 1492750814
-1.161376953125, -0.148193359375, 8.020751953125, 253.992187500000, -256.000000000000, 47.664062500000, 1492750814
-1.161376953125, -0.148193359375, 8.020751953125, 253.992187500000, -256.000000000000, 47.664062500000, 1492750814
-1.161376953125, -0.148193359375, 8.020751953125, 253.992187500000, -256.000000000000, 47.664062500000, 1492750814
0.562500000000, -1.490234375000, 2.297363281250, -256.000000000000, 177.867187500000, 74.679687500000, 1492750814
0.040283203125, -0.290771484375, 0.303955078125, -256.000000000000, 253.992187500000, 57.617187500000, 1492750814
0.040283203125, -0.290771484375, 0.303955078125, -256.000000000000, 253.992187500000, 57.617187500000, 1492750814
0.040283203125, -0.290771484375, 0.303955078125, -256.000000000000, 253.992187500000, 57.617187500000, 1492750814
0.077392578125, -0.105957031250, 0.162353515625, -116.039062500000, 253.992187500000, 81.960937500000, 1492750814
-0.016845703125, -0.089599609375, 0.115722656250, 50.531250000000, 253.992187500000, 93.632812500000, 1492750814
-0.016845703125, -0.089599609375, 0.115722656250, 50.531250000000, 253.992187500000, 93.632812500000, 1492750814
-0.016845703125, -0.089599609375, 0.115722656250, 50.531250000000, 253.992187500000, 93.632812500000, 1492750814
-0.016845703125, -0.089599609375, 0.115722656250, 50.531250000000, 253.992187500000, 93.632812500000, 1492750814
0.054931640625, 0.015625000000, -0.001708984375, 14.367187500000, 253.992187500000, -16.054687500000, 1492750814
0.054931640625, 0.015625000000, -0.001708984375, 14.367187500000, 253.992187500000, -16.054687500000, 1492750814
0.054931640625, 0.015625000000, -0.001708984375, 14.367187500000, 253.992187500000, -16.054687500000, 1492750814
0.054931640625, 0.015625000000, -0.001708984375, 14.367187500000, 253.992187500000, -16.054687500000, 1492750814
0.352050781250, -0.363525390625, 0.053466796875, -201.703125000000, 253.992187500000, -251.203125000000, 1492750814
0.352050781250, -0.363525390625, 0.053466796875, -201.703125000000, 253.992187500000, -251.203125000000, 1492750814
0.352050781250, -0.363525390625, 0.053466796875, -201.703125000000, 253.992187500000, -251.203125000000, 1492750814
0.259033203125, -0.354736328125, 0.164062500000, -256.000000000000, 253.992187500000, 6.531250000000, 1492750814
0.259033203125, -0.354736328125, 0.164062500000, -256.000000000000, 253.992187500000, 6.531250000000, 1492750814
0.259033203125, -0.354736328125, 0.164062500000, -256.000000000000, 253.992187500000, 6.531250000000, 1492750814
1.152343750000, -1.739257812500, 0.565917968750, 107.710937500000, -81.976562500000, 253.992187500000, 1492750814
1.152343750000, -1.739257812500, 0.565917968750, 107.710937500000, -81.976562500000, 253.992187500000, 1492750814
1.152343750000, -1.739257812500, 0.565917968750, 107.710937500000, -81.976562500000, 253.992187500000, 1492750814
1.195800781250, -2.040039062500, 0.557617187500, -198.000000000000, 6.835937500000, 216.968750000000, 1492750814
1.195800781250, -2.040039062500, 0.557617187500, -198.000000000000, 6.835937500000, 216.968750000000, 1492750814
1.195800781250, -2.040039062500, 0.557617187500, -198.000000000000, 6.835937500000, 216.968750000000, 1492750814
1.195800781250, -2.040039062500, 0.557617187500, -198.000000000000, 6.835937500000, 216.968750000000, 1492750814
1.134765625000, -3.641357421875, 0.654541015625, -67.250000000000, -256.000000000000, 89.914062500000, 1492750814
1.134765625000, -3.641357421875, 0.654541015625, -67.250000000000, -256.000000000000, 89.914062500000, 1492750814
1.134765625000, -3.641357421875, 0.654541015625, -67.250000000000, -256.000000000000, 89.914062500000, 1492750814
-2.314208984375, -1.541015625000, 3.413574218750, 253.992187500000, 122.023437500000, 209.851562500000, 1492750814
-2.314208984375, -1.541015625000, 3.413574218750, 253.992187500000, 122.023437500000, 209.851562500000, 1492750814
-2.314208984375, -1.541015625000, 3.413574218750, 253.992187500000, 122.023437500000, 209.851562500000, 1492750814
-0.116699218750, -0.576416015625, -0.039794921875, -256.000000000000, 253.992187500000, -99.578125000000, 1492750814
-0.116699218750, -0.576416015625, -0.039794921875, -256.000000000000, 253.992187500000, -99.578125000000, 1492750814
-0.116699218750, -0.576416015625, -0.039794921875, -256.000000000000, 253.992187500000, -99.578125000000, 1492750814
0.034179687500, -0.135986328125, 0.131347656250, -56.351562500000, 253.992187500000, 124.351562500000, 1492750814
0.034179687500, -0.135986328125, 0.131347656250, -56.351562500000, 253.992187500000, 124.351562500000, 1492750814
0.034179687500, -0.135986328125, 0.131347656250, -56.351562500000, 253.992187500000, 124.351562500000, 1492750814
0.034179687500, -0.135986328125, 0.131347656250, -56.351562500000, 253.992187500000, 124.351562500000, 1492750814
0.063476562500, -0.114257812500, 0.139160156250, 11.007812500000, 253.992187500000, 137.804687500000, 1492750814
0.042236328125, -0.030273437500, 0.131591796875, 42.695312500000, 216.742187500000, -78.773437500000, 1492750814
0.042236328125, -0.030273437500, 0.131591796875, 42.695312500000, 216.742187500000, -78.773437500000, 1492750814
0.042236328125, -0.030273437500, 0.131591796875, 42.695312500000, 216.742187500000, -78.773437500000, 1492750814
0.042236328125, -0.030273437500, 0.131591796875, 42.695312500000, 216.742187500000, -78.773437500000, 1492750814
0.042236328125, -0.030273437500, 0.131591796875, 42.695312500000, 216.742187500000, -78.773437500000, 1492750814
-0.003662109375, -0.107421875000, 0.056396484375, 22.242187500000, 186.210937500000, -102.007812500000, 1492750814
-0.003662109375, -0.107421875000, 0.056396484375, 22.242187500000, 186.210937500000, -102.007812500000, 1492750814
-0.003662109375, -0.107421875000, 0.056396484375, 22.242187500000, 186.210937500000, -102.007812500000, 1492750814
0.600830078125, -1.925781250000, 0.057373046875, -145.132812500000, 87.937500000000, -143.500000000000, 1492750814
0.600830078125, -1.925781250000, 0.057373046875, -145.132812500000, 87.937500000000, -143.500000000000, 1492750814
0.600830078125, -1.925781250000, 0.057373046875, -145.132812500000, 87.937500000000, -143.500000000000, 1492750814
0.600830078125, -1.925781250000, 0.057373046875, -145.132812500000, 87.937500000000, -143.500000000000, 1492750814
-0.090087890625, -1.374267578125, 0.645751953125, -241.351562500000, -33.101562500000, -134.523437500000, 1492750814
-0.090087890625, -1.374267578125, 0.645751953125, -241.351562500000, -33.101562500000, -134.523437500000, 1492750814
-0.090087890625, -1.374267578125, 0.645751953125, -241.351562500000, -33.101562500000, -134.523437500000, 1492750814
-0.265625000000, -2.271240234375, 0.859619140625, 253.992187500000, -229.226562500000, 86.867187500000, 1492750814
-0.265625000000, -2.271240234375, 0.859619140625, 253.992187500000, -229.226562500000, 86.867187500000, 1492750814
-0.265625000000, -2.271240234375, 0.859619140625, 253.992187500000, -229.226562500000, 86.867187500000, 1492750814
-0.181640625000, -1.734375000000, 0.336425781250, 253.992187500000, -256.000000000000, 102.804687500000, 1492750814
-0.181640625000, -1.734375000000, 0.336425781250, 253.992187500000, -256.000000000000, 102.804687500000, 1492750814
-0.181640625000, -1.734375000000, 0.336425781250, 253.992187500000, -256.000000000000, 102.804687500000, 1492750814
0.050781250000, -0.108154296875, 0.323730468750, -216.648437500000, 141.273437500000, 22.390625000000, 1492750814
0.050781250000, -0.108154296875, 0.323730468750, -216.648437500000, 141.273437500000, 22.390625000000, 1492750814
0.050781250000, -0.108154296875, 0.323730468750, -216.648437500000, 141.273437500000, 22.390625000000, 1492750814
0.050781250000, -0.108154296875, 0.323730468750, -216.648437500000, 141.273437500000, 22.390625000000, 1492750814
-0.167480468750, -0.794433593750, -0.014892578125, -163.617187500000, 159.976562500000, -30.632812500000, 1492750815
-0.167480468750, -0.794433593750, -0.014892578125, -163.617187500000, 159.976562500000, -30.632812500000, 1492750815
-0.167480468750, -0.794433593750, -0.014892578125, -163.617187500000, 159.976562500000, -30.632812500000, 1492750815
-0.549316406250, -1.581054687500, 0.343261718750, -232.203125000000, -102.437500000000, -31.578125000000, 1492750815
-0.549316406250, -1.581054687500, 0.343261718750, -232.203125000000, -102.437500000000, -31.578125000000, 1492750815
-0.549316406250, -1.581054687500, 0.343261718750, -232.203125000000, -102.437500000000, -31.578125000000, 1492750815
-0.423583984375, -1.316894531250, 0.244140625000, 44.687500000000, 0.945312500000, 69.585937500000, 1492750815
-0.423583984375, -1.316894531250, 0.244140625000, 44.687500000000, 0.945312500000, 69.585937500000, 1492750815
-0.423583984375, -1.316894531250, 0.244140625000, 44.687500000000, 0.945312500000, 69.585937500000, 1492750815
-0.389892578125, -1.063476562500, 0.304443359375, -24.625000000000, -134.289062500000, 66.242187500000, 1492750815
-0.389892578125, -1.063476562500, 0.304443359375, -24.625000000000, -134.289062500000, 66.242187500000, 1492750815
-0.389892578125, -1.063476562500, 0.304443359375, -24.625000000000, -134.289062500000, 66.242187500000, 1492750815
-0.389892578125, -1.063476562500, 0.304443359375, -24.625000000000, -134.289062500000, 66.242187500000, 1492750815
-0.311279296875, -1.061767578125, 0.208740234375, 204.914062500000, -35.421875000000, 91.585937500000, 1492750815
-0.311279296875, -1.061767578125, 0.208740234375, 204.914062500000, -35.421875000000, 91.585937500000, 1492750815
-0.311279296875, -1.061767578125, 0.208740234375, 204.914062500000, -35.421875000000, 91.585937500000, 1492750815
-1.199218750000, 0.098144531250, 2.083496093750, 230.164062500000, -174.656250000000, 78.375000000000, 1492750815
-1.199218750000, 0.098144531250, 2.083496093750, 230.164062500000, -174.656250000000, 78.375000000000, 1492750815
-1.199218750000, 0.098144531250, 2.083496093750, 230.164062500000, -174.656250000000, 78.375000000000, 1492750815
-0.022460937500, -0.123046875000, 0.217529296875, -101.218750000000, -168.757812500000, -100.570312500000, 1492750815
-0.022460937500, -0.123046875000, 0.217529296875, -101.218750000000, -168.757812500000, -100.570312500000, 1492750815
-0.022460937500, -0.123046875000, 0.217529296875, -101.218750000000, -168.757812500000, -100.570312500000, 1492750815
-0.067626953125, -0.006103515625, 0.076660156250, -112.281250000000, 107.843750000000, 53.476562500000, 1492750815
-0.067626953125, -0.006103515625, 0.076660156250, -112.281250000000, 107.843750000000, 53.476562500000, 1492750815
-0.067626953125, -0.006103515625, 0.076660156250, -112.281250000000, 107.843750000000, 53.476562500000, 1492750815
-0.067626953125, -0.006103515625, 0.076660156250, -112.281250000000, 107.843750000000, 53.476562500000, 1492750815
-0.037841796875, -0.170166015625, -0.037109375000, -207.539062500000, 61.546875000000, 54.156250000000, 1492750815
-0.037841796875, -0.170166015625, -0.037109375000, -207.539062500000, 61.546875000000, 54.156250000000, 1492750815
-0.037841796875, -0.170166015625, -0.037109375000, -207.539062500000, 61.546875000000, 54.156250000000, 1492750815
-0.412597656250, -3.893066406250, 0.892089843750, -256.000000000000, -204.742187500000, -213.125000000000, 1492750815
-0.412597656250, -3.893066406250, 0.892089843750, -256.000000000000, -204.742187500000, -213.125000000000, 1492750815
-0.412597656250, -3.893066406250, 0.892089843750, -256.000000000000, -204.742187500000, -213.125000000000, 1492750815
0.409423828125, -2.023925781250, 0.898193359375, 253.992187500000, 253.992187500000, 210.906250000000, 1492750815
0.409423828125, -2.023925781250, 0.898193359375, 253.992187500000, 253.992187500000, 210.906250000000, 1492750815
0.409423828125, -2.023925781250, 0.898193359375, 253.992187500000, 253.992187500000, 210.906250000000, 1492750815
0.196777343750, -0.269287109375, 3.519287109375, 253.992187500000, -256.000000000000, -162.710937500000, 1492750815
0.196777343750, -0.269287109375, 3.519287109375, 253.992187500000, -256.000000000000, -162.710937500000, 1492750815
0.196777343750, -0.269287109375, 3.519287109375, 253.992187500000, -256.000000000000, -162.710937500000, 1492750815
0.196777343750, -0.269287109375, 3.519287109375, 253.992187500000, -256.000000000000, -162.710937500000, 1492750815
0.123535156250, -0.708496093750, 0.199462890625, -175.164062500000, 136.835937500000, -11.500000000000, 1492750815
0.123535156250, -0.708496093750, 0.199462890625, -175.164062500000, 136.835937500000, -11.500000000000, 1492750815
0.123535156250, -0.708496093750, 0.199462890625, -175.164062500000, 136.835937500000, -11.500000000000, 1492750815
0.155517578125, -0.536132812500, 0.119873046875, -182.960937500000, 253.992187500000, 65.679687500000, 1492750815
0.155517578125, -0.536132812500, 0.119873046875, -182.960937500000, 253.992187500000, 65.679687500000, 1492750815
0.155517578125, -0.536132812500, 0.119873046875, -182.960937500000, 253.992187500000, 65.679687500000, 1492750815
-0.140380859375, -0.311523437500, 0.017333984375, -47.492187500000, 78.125000000000, -37.375000000000, 1492750815
-0.140380859375, -0.311523437500, 0.017333984375, -47.492187500000, 78.125000000000, -37.375000000000, 1492750815
-0.140380859375, -0.311523437500, 0.017333984375, -47.492187500000, 78.125000000000, -37.375000000000, 1492750815
-0.140380859375, -0.311523437500, 0.017333984375, -47.492187500000, 78.125000000000, -37.375000000000, 1492750815
-0.092041015625, -0.352050781250, 0.065429687500, -67.445312500000, -137.531250000000, -53.867187500000, 1492750815
-0.092041015625, -0.352050781250, 0.065429687500, -67.445312500000, -137.531250000000, -53.867187500000, 1492750815
-0.092041015625, -0.352050781250, 0.065429687500, -67.445312500000, -137.531250000000, -53.867187500000, 1492750815
-0.262451171875, -1.201171875000, 0.214599609375, -154.328125000000, -256.000000000000, -50.031250000000, 1492750815
-0.262451171875, -1.201171875000, 0.214599609375, -154.328125000000, -256.000000000000, -50.031250000000, 1492750815
-0.262451171875, -1.201171875000, 0.214599609375, -154.328125000000, -256.000000000000, -50.031250000000, 1492750815
-0.771240234375, -1.804931640625, 0.704833984375, 96.359375000000, -44.351562500000, -96.515625000000, 1492750815
-0.771240234375, -1.804931640625, 0.704833984375, 96.359375000000, -44.351562500000, -96.515625000000, 1492750815
-0.771240234375, -1.804931640625, 0.704833984375, 96.359375000000, -44.351562500000, -96.515625000000, 1492750815
-0.269042968750, -1.071777343750, 0.266845703125, 28.695312500000, 60.523437500000, 23.695312500000, 1492750815
-0.269042968750, -1.071777343750, 0.266845703125, 28.695312500000, 60.523437500000, 23.695312500000, 1492750815
-0.269042968750, -1.071777343750, 0.266845703125, 28.695312500000, 60.523437500000, 23.695312500000, 1492750815
-0.269042968750, -1.071777343750, 0.266845703125, 28.695312500000, 60.523437500000, 23.695312500000, 1492750815
-0.446777343750, -1.007324218750, 1.006347656250, 253.992187500000, -256.000000000000, 117.039062500000, 1492750815
-0.446777343750, -1.007324218750, 1.006347656250, 253.992187500000, -256.000000000000, 117.039062500000, 1492750815
-0.446777343750, -1.007324218750, 1.006347656250, 253.992187500000, -256.000000000000, 117.039062500000, 1492750815
0.254882812500, -0.722167968750, 0.260009765625, -233.828125000000, 180.281250000000, 86.140625000000, 1492750815
0.254882812500, -0.722167968750, 0.260009765625, -233.828125000000, 180.281250000000, 86.140625000000, 1492750816
0.254882812500, -0.722167968750, 0.260009765625, -233.828125000000, 180.281250000000, 86.140625000000, 1492750816
0.594970703125, -0.885253906250, 0.266357421875, 3.109375000000, 253.992187500000, 130.953125000000, 1492750816
0.594970703125, -0.885253906250, 0.266357421875, 3.109375000000, 253.992187500000, 130.953125000000, 1492750816
0.594970703125, -0.885253906250, 0.266357421875, 3.109375000000, 253.992187500000, 130.953125000000, 1492750816
0.406494140625, -0.657470703125, 0.102294921875, 116.703125000000, 93.414062500000, -32.007812500000, 1492750816
0.406494140625, -0.657470703125, 0.102294921875, 116.703125000000, 93.414062500000, -32.007812500000, 1492750816
0.406494140625, -0.657470703125, 0.102294921875, 116.703125000000, 93.414062500000, -32.007812500000, 1492750816
