ACC_X,ACC_Y,ACC_Z,G_X,G_Y,G_Z,Unix Time
0.362060546875, -0.869873046875, 0.128906250000, -51.335937500000, 1.390625000000, -4.875000000000, 1492751198
0.362060546875, -0.869873046875, 0.128906250000, -51.335937500000, 1.390625000000, -4.875000000000, 1492751198
0.362060546875, -0.869873046875, 0.128906250000, -51.335937500000, 1.390625000000, -4.875000000000, 1492751198
0.447753906250, -0.864501953125, 0.190429687500, -41.398437500000, 13.843750000000, -2.335937500000, 1492751198
0.447753906250, -0.864501953125, 0.190429687500, -41.398437500000, 13.843750000000, -2.335937500000, 1492751198
0.447753906250, -0.864501953125, 0.190429687500, -41.398437500000, 13.843750000000, -2.335937500000, 1492751198
0.359863281250, -0.926269531250, 0.150390625000, -19.414062500000, 19.234375000000, -1.109375000000, 1492751198
0.359863281250, -0.926269531250, 0.150390625000, -19.414062500000, 19.234375000000, -1.109375000000, 1492751198
0.359863281250, -0.926269531250, 0.150390625000, -19.414062500000, 19.234375000000, -1.109375000000, 1492751198
0.359863281250, -0.926269531250, 0.150390625000, -19.414062500000, 19.234375000000, -1.109375000000, 1492751198
0.353271484375, -0.953613281250, 0.126220703125, -3.296875000000, 14.960937500000, -2.710937500000, 1492751198
0.353271484375, -0.953613281250, 0.126220703125, -3.296875000000, 14.960937500000, -2.710937500000, 1492751198
0.353271484375, -0.953613281250, 0.126220703125, -3.296875000000, 14.960937500000, -2.710937500000, 1492751198
0.309570312500, -0.855468750000, 0.188476562500, 3.093750000000, 1.460937500000, 0.093750000000, 1492751198
0.309570312500, -0.855468750000, 0.188476562500, 3.093750000000, 1.460937500000, 0.093750000000, 1492751198
0.309570312500, -0.855468750000, 0.188476562500, 3.093750000000, 1.460937500000, 0.093750000000, 1492751198
0.286376953125, -0.917968750000, 0.135498046875, 16.070312500000, -16.539062500000, -3.039062500000, 1492751198
0.286376953125, -0.917968750000, 0.135498046875, 16.070312500000, -16.539062500000, -3.039062500000, 1492751198
0.286376953125, -0.917968750000, 0.135498046875, 16.070312500000, -16.539062500000, -3.039062500000, 1492751198
0.378662109375, -0.950683593750, 0.190673828125, 26.335937500000, -30.007812500000, -3.898437500000, 1492751198
0.378662109375, -0.950683593750, 0.190673828125, 26.335937500000, -30.007812500000, -3.898437500000, 1492751198
0.378662109375, -0.950683593750, 0.190673828125, 26.335937500000, -30.007812500000, -3.898437500000, 1492751198
0.378662109375, -0.950683593750, 0.190673828125, 26.335937500000, -30.007812500000, -3.898437500000, 1492751198
0.354248046875, -0.948242187500, 0.118164062500, 38.742187500000, -3.156250000000, -0.921875000000, 1492751198
0.354248046875, -0.948242187500, 0.118164062500, 38.742187500000, -3.156250000000, -0.921875000000, 1492751198
0.354248046875, -0.948242187500, 0.118164062500, 38.742187500000, -3.156250000000, -0.921875000000, 1492751198
0.354248046875, -0.948242187500, 0.118164062500, 38.742187500000, -3.156250000000, -0.921875000000, 1492751198
0.354248046875, -0.948242187500, 0.118164062500, 38.742187500000, -3.156250000000, -0.921875000000, 1492751198
0.341796875000, -0.963378906250, 0.124755859375, 32.898437500000, 1.289062500000, -3.757812500000, 1492751198
0.341796875000, -0.963378906250, 0.124755859375, 32.898437500000, 1.289062500000, -3.757812500000, 1492751198
0.341796875000, -0.963378906250, 0.124755859375, 32.898437500000, 1.289062500000, -3.757812500000, 1492751198
0.341796875000, -0.963378906250, 0.124755859375, 32.898437500000, 1.289062500000, -3.757812500000, 1492751198
0.300537109375, -0.859619140625, 0.198974609375, 17.632812500000, 11.570312500000, 2.648437500000, 1492751198
0.300537109375, -0.859619140625, 0.198974609375, 17.632812500000, 11.570312500000, 2.648437500000, 1492751198
0.300537109375, -0.859619140625, 0.198974609375, 17.632812500000, 11.570312500000, 2.648437500000, 1492751198
0.300537109375, -0.859619140625, 0.198974609375, 17.632812500000, 11.570312500000, 2.648437500000, 1492751198
0.392578125000, -0.963134765625, 0.142089843750, 3.406250000000, 8.562500000000, -3.460937500000, 1492751199
0.392578125000, -0.963134765625, 0.142089843750, 3.406250000000, 8.562500000000, -3.460937500000, 1492751199
0.403076171875, -0.870361328125, 0.160644531250, -18.875000000000, 10.914062500000, 0.593750000000, 1492751199
0.403076171875, -0.870361328125, 0.160644531250, -18.875000000000, 10.914062500000, 0.593750000000, 1492751199
0.403076171875, -0.870361328125, 0.160644531250, -18.875000000000, 10.914062500000, 0.593750000000, 1492751199
0.403076171875, -0.870361328125, 0.160644531250, -18.875000000000, 10.914062500000, 0.593750000000, 1492751199
0.405761718750, -0.906738281250, 0.107666015625, -29.765625000000, 31.343750000000, 4.304687500000, 1492751199
0.405761718750, -0.906738281250, 0.107666015625, -29.765625000000, 31.343750000000, 4.304687500000, 1492751199
0.405761718750, -0.906738281250, 0.107666015625, -29.765625000000, 31.343750000000, 4.304687500000, 1492751199
0.339111328125, -0.873291015625, 0.122558593750, -42.164062500000, -6.117187500000, -2.289062500000, 1492751199
0.339111328125, -0.873291015625, 0.122558593750, -42.164062500000, -6.117187500000, -2.289062500000, 1492751199
0.339111328125, -0.873291015625, 0.122558593750, -42.164062500000, -6.117187500000, -2.289062500000, 1492751199
0.339111328125, -0.873291015625, 0.122558593750, -42.164062500000, -6.117187500000, -2.289062500000, 1492751199
0.354248046875, -0.975830078125, 0.146484375000, -40.648437500000, -12.492187500000, 1.039062500000, 1492751199
0.354248046875, -0.975830078125, 0.146484375000, -40.648437500000, -12.492187500000, 1.039062500000, 1492751199
0.354248046875, -0.975830078125, 0.146484375000, -40.648437500000, -12.492187500000, 1.039062500000, 1492751199
0.466796875000, -0.955078125000, 0.250488281250, -33.109375000000, 5.710937500000, -0.734375000000, 1492751199
0.466796875000, -0.955078125000, 0.250488281250, -33.109375000000, 5.710937500000, -0.734375000000, 1492751199
0.466796875000, -0.955078125000, 0.250488281250, -33.109375000000, 5.710937500000, -0.734375000000, 1492751199
0.362548828125, -1.025146484375, 0.101806640625, -23.406250000000, 9.179687500000, 2.664062500000, 1492751199
0.362548828125, -1.025146484375, 0.101806640625, -23.406250000000, 9.179687500000, 2.664062500000, 1492751199
0.362548828125, -1.025146484375, 0.101806640625, -23.406250000000, 9.179687500000, 2.664062500000, 1492751199
0.459960937500, -0.986328125000, 0.061767578125, -1.460937500000, 8.460937500000, -10.062500000000, 1492751199
0.459960937500, -0.986328125000, 0.061767578125, -1.460937500000, 8.460937500000, -10.062500000000, 1492751199
0.459960937500, -0.986328125000, 0.061767578125, -1.460937500000, 8.460937500000, -10.062500000000, 1492751199
0.459960937500, -0.986328125000, 0.061767578125, -1.460937500000, 8.460937500000, -10.062500000000, 1492751199
0.368896484375, -0.800292968750, 0.223876953125, 3.570312500000, 10.664062500000, -2.132812500000, 1492751199
0.368896484375, -0.800292968750, 0.223876953125, 3.570312500000, 10.664062500000, -2.132812500000, 1492751199
0.368896484375, -0.800292968750, 0.223876953125, 3.570312500000, 10.664062500000, -2.132812500000, 1492751199
0.443115234375, -0.789306640625, 0.112548828125, 15.812500000000, 8.000000000000, 3.367187500000, 1492751199
0.443115234375, -0.789306640625, 0.112548828125, 15.812500000000, 8.000000000000, 3.367187500000, 1492751199
0.443115234375, -0.789306640625, 0.112548828125, 15.812500000000, 8.000000000000, 3.367187500000, 1492751199
0.311523437500, -0.900146484375, 0.120849609375, 14.906250000000, 9.710937500000, 1.062500000000, 1492751199
0.311523437500, -0.900146484375, 0.120849609375, 14.906250000000, 9.710937500000, 1.062500000000, 1492751199
0.311523437500, -0.900146484375, 0.120849609375, 14.906250000000, 9.710937500000, 1.062500000000, 1492751199
0.341064453125, -0.983398437500, 0.119873046875, 13.968750000000, -33.250000000000, -4.765625000000, 1492751199
0.341064453125, -0.983398437500, 0.119873046875, 13.968750000000, -33.250000000000, -4.765625000000, 1492751199
0.341064453125, -0.983398437500, 0.119873046875, 13.968750000000, -33.250000000000, -4.765625000000, 1492751199
0.341064453125, -0.983398437500, 0.119873046875, 13.968750000000, -33.250000000000, -4.765625000000, 1492751199
0.452148437500, -0.925537109375, 0.254150390625, 7.531250000000, -35.312500000000, -3.523437500000, 1492751199
0.452148437500, -0.925537109375, 0.254150390625, 7.531250000000, -35.312500000000, -3.523437500000, 1492751199
0.452148437500, -0.925537109375, 0.254150390625, 7.531250000000, -35.312500000000, -3.523437500000, 1492751199
0.381103515625, -0.942871093750, 0.190673828125, 4.570312500000, -30.414062500000, -7.781250000000, 1492751199
0.381103515625, -0.942871093750, 0.190673828125, 4.570312500000, -30.414062500000, -7.781250000000, 1492751199
0.381103515625, -0.942871093750, 0.190673828125, 4.570312500000, -30.414062500000, -7.781250000000, 1492751199
0.455810546875, -0.851074218750, 0.191162109375, -13.703125000000, 10.562500000000, 2.148437500000, 1492751199
0.455810546875, -0.851074218750, 0.191162109375, -13.703125000000, 10.562500000000, 2.148437500000, 1492751199
0.455810546875, -0.851074218750, 0.191162109375, -13.703125000000, 10.562500000000, 2.148437500000, 1492751199
0.282714843750, -0.896972656250, 0.217529296875, -3.484375000000, 34.554687500000, -1.492187500000, 1492751199
0.282714843750, -0.896972656250, 0.217529296875, -3.484375000000, 34.554687500000, -1.492187500000, 1492751199
0.282714843750, -0.896972656250, 0.217529296875, -3.484375000000, 34.554687500000, -1.492187500000, 1492751199
0.282714843750, -0.896972656250, 0.217529296875, -4.101562500000, 35.437500000000, -4.101562500000, 1492751199
0.387939453125, -1.007080078125, 0.117187500000, -14.703125000000, 38.203125000000, -2.671875000000, 1492751199
0.387939453125, -1.007080078125, 0.117187500000, -14.703125000000, 38.203125000000, -2.671875000000, 1492751199
0.387939453125, -1.007080078125, 0.117187500000, -14.703125000000, 38.203125000000, -2.671875000000, 1492751199
0.463623046875, -0.924560546875, 0.110839843750, -19.773437500000, 11.617187500000, -9.226562500000, 1492751199
0.463623046875, -0.924560546875, 0.110839843750, -19.773437500000, 11.617187500000, -9.226562500000, 1492751199
0.463623046875, -0.924560546875, 0.110839843750, -19.773437500000, 11.617187500000, -9.226562500000, 1492751199
0.380615234375, -1.013916015625, 0.038085937500, -20.070312500000, 0.656250000000, -11.484375000000, 1492751199
0.362548828125, -0.936767578125, 0.041259765625, -5.875000000000, 8.421875000000, -5.125000000000, 1492751199
0.362548828125, -0.936767578125, 0.041259765625, -5.875000000000, 8.421875000000, -5.125000000000, 1492751199
0.362548828125, -0.936767578125, 0.041259765625, -5.875000000000, 8.421875000000, -5.125000000000, 1492751199
0.362548828125, -0.936767578125, 0.041259765625, -5.875000000000, 8.421875000000, -5.125000000000, 1492751199
0.428466796875, -0.971435546875, 0.120849609375, 13.335937500000, 16.960937500000, 6.093750000000, 1492751199
0.428466796875, -0.971435546875, 0.120849609375, 13.335937500000, 16.960937500000, 6.093750000000, 1492751199
0.428466796875, -0.971435546875, 0.120849609375, 13.335937500000, 16.960937500000, 6.093750000000, 1492751200
0.428466796875, -0.971435546875, 0.120849609375, 13.335937500000, 16.960937500000, 6.093750000000, 1492751200
0.428466796875, -0.971435546875, 0.120849609375, 13.335937500000, 16.960937500000, 6.093750000000, 1492751200
0.297119140625, -0.930908203125, 0.105224609375, 14.804687500000, 16.468750000000, 4.484375000000, 1492751200
0.297119140625, -0.930908203125, 0.105224609375, 14.804687500000, 16.468750000000, 4.484375000000, 1492751200
0.302734375000, -0.856933593750, 0.161376953125, 3.632812500000, 2.140625000000, 3.968750000000, 1492751200
0.239501953125, -0.914062500000, 0.204589843750, 1.531250000000, -29.523437500000, -2.835937500000, 1492751200
0.239501953125, -0.914062500000, 0.204589843750, 1.531250000000, -29.523437500000, -2.835937500000, 1492751200
0.239501953125, -0.914062500000, 0.204589843750, 1.531250000000, -29.523437500000, -2.835937500000, 1492751200
0.379394531250, -0.894287109375, 0.218017578125, 5.914062500000, -19.726562500000, -4.429687500000, 1492751200
0.379394531250, -0.894287109375, 0.218017578125, 5.914062500000, -19.726562500000, -4.429687500000, 1492751200
0.379394531250, -0.894287109375, 0.218017578125, 5.914062500000, -19.726562500000, -4.429687500000, 1492751200
0.346435546875, -0.891601562500, 0.214843750000, -6.820312500000, -9.257812500000, 0.781250000000, 1492751200
0.304931640625, -0.931884765625, 0.110595703125, -6.820312500000, -9.257812500000, 0.781250000000, 1492751200
0.304931640625, -0.931884765625, 0.110595703125, -6.820312500000, -9.257812500000, 0.781250000000, 1492751200
0.304931640625, -0.931884765625, 0.110595703125, -6.820312500000, -9.257812500000, 0.781250000000, 1492751200
0.309082031250, -0.952636718750, 0.112304687500, -3.601562500000, 13.421875000000, 2.726562500000, 1492751200
0.309082031250, -0.952636718750, 0.112304687500, -3.601562500000, 13.421875000000, 2.726562500000, 1492751200
0.309082031250, -0.952636718750, 0.112304687500, -3.601562500000, 13.421875000000, 2.726562500000, 1492751200
0.396728515625, -0.932861328125, 0.201904296875, -4.187500000000, 31.476562500000, 5.390625000000, 1492751200
0.396728515625, -0.932861328125, 0.201904296875, -4.187500000000, 31.476562500000, 5.390625000000, 1492751200
0.396728515625, -0.932861328125, 0.201904296875, -4.187500000000, 31.476562500000, 5.390625000000, 1492751200
0.391845703125, -0.788330078125, 0.196777343750, -8.515625000000, 26.804687500000, 3.632812500000, 1492751200
0.391845703125, -0.788330078125, 0.196777343750, -8.515625000000, 26.804687500000, 3.632812500000, 1492751200
0.391845703125, -0.788330078125, 0.196777343750, -8.515625000000, 26.804687500000, 3.632812500000, 1492751200
0.391845703125, -0.788330078125, 0.196777343750, -8.515625000000, 26.804687500000, 3.632812500000, 1492751200
0.347167968750, -0.872802734375, 0.190185546875, -8.546875000000, 22.210937500000, 1.460937500000, 1492751200
0.347167968750, -0.872802734375, 0.190185546875, -8.546875000000, 22.210937500000, 1.460937500000, 1492751200
0.347167968750, -0.872802734375, 0.190185546875, -8.546875000000, 22.210937500000, 1.460937500000, 1492751200
0.347167968750, -0.956298828125, 0.098632812500, -15.367187500000, 18.203125000000, 8.070312500000, 1492751200
0.347167968750, -0.956298828125, 0.098632812500, -15.367187500000, 18.203125000000, 8.070312500000, 1492751200
0.347167968750, -0.956298828125, 0.098632812500, -15.367187500000, 18.203125000000, 8.070312500000, 1492751200
0.310302734375, -0.922607421875, 0.187988281250, -9.445312500000, 1.937500000000, 5.789062500000, 1492751200
0.310302734375, -0.922607421875, 0.187988281250, -9.445312500000, 1.937500000000, 5.789062500000, 1492751200
0.310302734375, -0.922607421875, 0.187988281250, -9.445312500000, 1.937500000000, 5.789062500000, 1492751200
0.321777343750, -0.959960937500, 0.112060546875, -10.921875000000, -15.531250000000, 1.804687500000, 1492751200
0.321777343750, -0.959960937500, 0.112060546875, -10.921875000000, -15.531250000000, 1.804687500000, 1492751200
0.321777343750, -0.959960937500, 0.112060546875, -10.921875000000, -15.531250000000, 1.804687500000, 1492751200
0.321777343750, -0.959960937500, 0.112060546875, -10.921875000000, -15.531250000000, 1.804687500000, 1492751200
0.445068359375, -0.928955078125, 0.217529296875, -2.937500000000, -28.945312500000, -3.132812500000, 1492751200
0.445068359375, -0.928955078125, 0.217529296875, -2.937500000000, -28.945312500000, -3.132812500000, 1492751200
0.386962890625, -0.910644531250, 0.266113281250, 0.585937500000, -28.148437500000, -3.273437500000, 1492751200
0.309570312500, -0.924560546875, 0.169433593750, 1.156250000000, -24.570312500000, -12.703125000000, 1492751200
0.309570312500, -0.924560546875, 0.169433593750, 1.156250000000, -24.570312500000, -12.703125000000, 1492751200
0.309570312500, -0.924560546875, 0.169433593750, 1.156250000000, -24.570312500000, -12.703125000000, 1492751200
0.405517578125, -0.868408203125, 0.104980468750, -9.078125000000, -32.320312500000, -11.179687500000, 1492751200
0.405517578125, -0.868408203125, 0.104980468750, -9.078125000000, -32.320312500000, -11.179687500000, 1492751200
0.405517578125, -0.868408203125, 0.104980468750, -9.078125000000, -32.320312500000, -11.179687500000, 1492751200
0.405517578125, -0.868408203125, 0.104980468750, -9.078125000000, -32.320312500000, -11.179687500000, 1492751200
0.453857421875, -0.910888671875, 0.159179687500, -9.460937500000, -8.640625000000, -3.500000000000, 1492751200
0.453857421875, -0.910888671875, 0.159179687500, -9.460937500000, -8.640625000000, -3.500000000000, 1492751200
0.453857421875, -0.910888671875, 0.159179687500, -9.460937500000, -8.640625000000, -3.500000000000, 1492751200
0.364257812500, -0.868164062500, 0.216308593750, -0.734375000000, 0.000000000000, -5.812500000000, 1492751200
0.364257812500, -0.868164062500, 0.216308593750, -0.734375000000, 0.000000000000, -5.812500000000, 1492751200
0.364257812500, -0.868164062500, 0.216308593750, -0.734375000000, 0.000000000000, -5.812500000000, 1492751200
0.387207031250, -0.904541015625, 0.218261718750, -7.453125000000, 5.265625000000, -4.250000000000, 1492751200
0.387207031250, -0.904541015625, 0.218261718750, -7.453125000000, 5.265625000000, -4.250000000000, 1492751200
0.387207031250, -0.904541015625, 0.218261718750, -7.453125000000, 5.265625000000, -4.250000000000, 1492751200
0.391845703125, -0.944580078125, 0.100341796875, -0.531250000000, 7.007812500000, -1.531250000000, 1492751200
0.391845703125, -0.944580078125, 0.100341796875, -0.531250000000, 7.007812500000, -1.531250000000, 1492751200
0.391845703125, -0.944580078125, 0.100341796875, -0.531250000000, 7.007812500000, -1.531250000000, 1492751200
0.391845703125, -0.944580078125, 0.100341796875, -0.531250000000, 7.007812500000, -1.531250000000, 1492751200
0.365966796875, -0.927246093750, 0.103271484375, -2.437500000000, 6.062500000000, -6.648437500000, 1492751200
0.452636718750, -0.957763671875, 0.106201171875, 2.125000000000, 0.375000000000, -1.039062500000, 1492751200
0.452636718750, -0.957763671875, 0.106201171875, 2.125000000000, 0.375000000000, -1.039062500000, 1492751200
0.452636718750, -0.957763671875, 0.106201171875, 2.125000000000, 0.375000000000, -1.039062500000, 1492751200
0.452636718750, -0.957763671875, 0.106201171875, 2.125000000000, 0.375000000000, -1.039062500000, 1492751200
0.452636718750, -0.957763671875, 0.106201171875, 2.125000000000, 0.375000000000, -1.039062500000, 1492751200
0.293212890625, -0.862792968750, 0.097167968750, -1.546875000000, -9.218750000000, -7.015625000000, 1492751201
0.293212890625, -0.862792968750, 0.097167968750, -1.546875000000, -9.218750000000, -7.015625000000, 1492751201
0.293212890625, -0.862792968750, 0.097167968750, -1.546875000000, -9.218750000000, -7.015625000000, 1492751201
0.410156250000, -0.902587890625, 0.178222656250, -5.046875000000, -15.632812500000, -3.968750000000, 1492751201
0.410156250000, -0.902587890625, 0.178222656250, -5.046875000000, -15.632812500000, -3.968750000000, 1492751201
0.410156250000, -0.902587890625, 0.178222656250, -5.046875000000, -15.632812500000, -3.968750000000, 1492751201
0.373535156250, -0.968017578125, 0.124023437500, -6.164062500000, 2.539062500000, -6.523437500000, 1492751201
0.373535156250, -0.968017578125, 0.124023437500, -6.164062500000, 2.539062500000, -6.523437500000, 1492751201
0.373535156250, -0.968017578125, 0.124023437500, -6.164062500000, 2.539062500000, -6.523437500000, 1492751201
0.373535156250, -0.968017578125, 0.124023437500, -6.164062500000, 2.539062500000, -6.523437500000, 1492751201
0.455566406250, -0.805419921875, 0.194824218750, -2.812500000000, 12.742187500000, 1.015625000000, 1492751201
0.455566406250, -0.805419921875, 0.194824218750, -2.812500000000, 12.742187500000, 1.015625000000, 1492751201
0.455566406250, -0.805419921875, 0.194824218750, -2.812500000000, 12.742187500000, 1.015625000000, 1492751201
0.341796875000, -0.914306640625, 0.104736328125, -2.304687500000, 15.101562500000, -0.570312500000, 1492751201
0.341796875000, -0.914306640625, 0.104736328125, -2.304687500000, 15.101562500000, -0.570312500000, 1492751201
0.341796875000, -0.914306640625, 0.104736328125, -2.304687500000, 15.101562500000, -0.570312500000, 1492751201
0.399169921875, -0.961425781250, 0.100097656250, -5.093750000000, 0.757812500000, -4.187500000000, 1492751201
0.399169921875, -0.961425781250, 0.100097656250, -5.093750000000, 0.757812500000, -4.187500000000, 1492751201
0.399169921875, -0.961425781250, 0.100097656250, -5.093750000000, 0.757812500000, -4.187500000000, 1492751201
0.396484375000, -0.844726562500, 0.159912109375, -4.843750000000, -8.312500000000, -6.421875000000, 1492751201
0.396484375000, -0.844726562500, 0.159912109375, -4.843750000000, -8.312500000000, -6.421875000000, 1492751201
0.396484375000, -0.844726562500, 0.159912109375, -4.843750000000, -8.312500000000, -6.421875000000, 1492751201
0.396484375000, -0.844726562500, 0.159912109375, -4.843750000000, -8.312500000000, -6.421875000000, 1492751201
0.451904296875, -0.952392578125, 0.199462890625, -4.054687500000, 2.085937500000, -4.570312500000, 1492751201
0.348144531250, -0.950195312500, 0.180175781250, -4.054687500000, 2.085937500000, -4.570312500000, 1492751201
0.348144531250, -0.950195312500, 0.180175781250, -4.054687500000, 2.085937500000, -4.570312500000, 1492751201
0.348144531250, -0.950195312500, 0.180175781250, -4.054687500000, 2.085937500000, -4.570312500000, 1492751201
0.348144531250, -0.950195312500, 0.180175781250, -4.054687500000, 2.085937500000, -4.570312500000, 1492751201
0.361083984375, -0.944335937500, 0.182373046875, -3.546875000000, 2.343750000000, -6.046875000000, 1492751201
0.393798828125, -0.934326171875, 0.125000000000, -8.445312500000, 0.804687500000, -6.515625000000, 1492751201
0.393798828125, -0.934326171875, 0.125000000000, -8.445312500000, 0.804687500000, -6.515625000000, 1492751201
0.393798828125, -0.934326171875, 0.125000000000, -8.445312500000, 0.804687500000, -6.515625000000, 1492751201
0.392822265625, -0.906005859375, 0.112548828125, -3.359375000000, 1.890625000000, -8.343750000000, 1492751201
0.392822265625, -0.906005859375, 0.112548828125, -3.359375000000, 1.890625000000, -8.343750000000, 1492751201
0.392822265625, -0.906005859375, 0.112548828125, -3.359375000000, 1.890625000000, -8.343750000000, 1492751201
0.392822265625, -0.906005859375, 0.112548828125, -3.359375000000, 1.890625000000, -8.343750000000, 1492751201
0.241699218750, -0.953369140625, 0.175537109375, -4.734375000000, -1.156250000000, -8.195312500000, 1492751201
0.241699218750, -0.953369140625, 0.175537109375, -4.734375000000, -1.156250000000, -8.195312500000, 1492751201
0.241699218750, -0.953369140625, 0.175537109375, -4.734375000000, -1.156250000000, -8.195312500000, 1492751201
0.241699218750, -0.953369140625, 0.175537109375, -4.734375000000, -1.156250000000, -8.195312500000, 1492751201
0.241699218750, -0.953369140625, 0.175537109375, -4.734375000000, -1.156250000000, -8.195312500000, 1492751201
0.241699218750, -0.953369140625, 0.175537109375, -4.734375000000, -1.156250000000, -8.195312500000, 1492751201
0.353027343750, -0.903076171875, 0.191894531250, -1.617187500000, -1.812500000000, -3.546875000000, 1492751201
0.353027343750, -0.903076171875, 0.191894531250, -1.617187500000, -1.812500000000, -3.546875000000, 1492751201
0.353027343750, -0.903076171875, 0.191894531250, -1.617187500000, -1.812500000000, -3.546875000000, 1492751201
0.377197265625, -0.875976562500, 0.174560546875, -1.062500000000, 2.921875000000, -6.203125000000, 1492751201
0.377197265625, -0.875976562500, 0.174560546875, -1.062500000000, 2.921875000000, -6.203125000000, 1492751201
0.377197265625, -0.875976562500, 0.174560546875, -1.062500000000, 2.921875000000, -6.203125000000, 1492751201
0.377197265625, -0.875976562500, 0.174560546875, -1.062500000000, 2.921875000000, -6.203125000000, 1492751201
0.342529296875, -0.929199218750, 0.190917968750, -4.273437500000, 5.820312500000, -3.117187500000, 1492751201
0.342529296875, -0.929199218750, 0.190917968750, -4.273437500000, 5.820312500000, -3.117187500000, 1492751201
0.342529296875, -0.929199218750, 0.190917968750, -4.273437500000, 5.820312500000, -3.117187500000, 1492751201
0.399902343750, -0.964355468750, 0.193847656250, -1.625000000000, 4.484375000000, -1.851562500000, 1492751201
0.399902343750, -0.964355468750, 0.193847656250, -1.625000000000, 4.484375000000, -1.851562500000, 1492751201
0.399902343750, -0.964355468750, 0.193847656250, -1.625000000000, 4.484375000000, -1.851562500000, 1492751201
0.309814453125, -0.904296875000, 0.104736328125, -6.703125000000, 1.789062500000, -3.984375000000, 1492751201
0.309814453125, -0.904296875000, 0.104736328125, -6.703125000000, 1.789062500000, -3.984375000000, 1492751201
0.309814453125, -0.904296875000, 0.104736328125, -6.703125000000, 1.789062500000, -3.984375000000, 1492751201
0.376953125000, -0.865966796875, 0.216796875000, -1.812500000000, 6.039062500000, -6.429687500000, 1492751201
0.376953125000, -0.865966796875, 0.216796875000, -1.812500000000, 6.039062500000, -6.429687500000, 1492751201
0.376953125000, -0.865966796875, 0.216796875000, -1.812500000000, 6.039062500000, -6.429687500000, 1492751201
0.376953125000, -0.865966796875, 0.216796875000, -1.812500000000, 6.039062500000, -6.429687500000, 1492751201
0.311767578125, -0.934570312500, 0.211914062500, -1.312500000000, 6.281250000000, -1.726562500000, 1492751201
0.311767578125, -0.934570312500, 0.211914062500, -1.312500000000, 6.281250000000, -1.726562500000, 1492751201
0.311767578125, -0.934570312500, 0.211914062500, -1.312500000000, 6.281250000000, -1.726562500000, 1492751201
0.388916015625, -0.922119140625, 0.113769531250, -3.585937500000, 4.390625000000, -10.851562500000, 1492751201
0.388916015625, -0.922119140625, 0.113769531250, -3.585937500000, 4.390625000000, -10.851562500000, 1492751201
0.388916015625, -0.922119140625, 0.113769531250, -3.585937500000, 4.390625000000, -10.851562500000, 1492751202
0.352539062500, -0.855224609375, 0.101318359375, -6.593750000000, 5.710937500000, -6.781250000000, 1492751202
0.352539062500, -0.855224609375, 0.101318359375, -6.593750000000, 5.710937500000, -6.781250000000, 1492751202
0.352539062500, -0.855224609375, 0.101318359375, -6.593750000000, 5.710937500000, -6.781250000000, 1492751202
0.360351562500, -1.127441406250, 0.109863281250, -16.570312500000, 16.851562500000, -12.101562500000, 1492751202
0.360351562500, -1.127441406250, 0.109863281250, -16.570312500000, 16.851562500000, -12.101562500000, 1492751202
0.360351562500, -1.127441406250, 0.109863281250, -16.570312500000, 16.851562500000, -12.101562500000, 1492751202
0.360351562500, -1.127441406250, 0.109863281250, -16.570312500000, 16.851562500000, -12.101562500000, 1492751202
0.353515625000, -1.004394531250, 0.190917968750, -20.375000000000, 13.359375000000, -13.101562500000, 1492751202
0.353515625000, -1.004394531250, 0.190917968750, -20.375000000000, 13.359375000000, -13.101562500000, 1492751202
0.353515625000, -1.004394531250, 0.190917968750, -20.375000000000, 13.359375000000, -13.101562500000, 1492751202
0.451904296875, -0.861328125000, 0.120849609375, -22.843750000000, 6.734375000000, -21.101562500000, 1492751202
0.451904296875, -0.861328125000, 0.120849609375, -22.843750000000, 6.734375000000, -21.101562500000, 1492751202
0.451904296875, -0.861328125000, 0.120849609375, -22.843750000000, 6.734375000000, -21.101562500000, 1492751202
0.391601562500, -1.011718750000, 0.159912109375, -23.859375000000, -8.617187500000, -24.500000000000, 1492751202
0.391601562500, -1.011718750000, 0.159912109375, -23.859375000000, -8.617187500000, -24.500000000000, 1492751202
0.391601562500, -1.011718750000, 0.159912109375, -23.859375000000, -8.617187500000, -24.500000000000, 1492751202
0.284179687500, -0.907714843750, 0.214843750000, -31.921875000000, -6.789062500000, -24.812500000000, 1492751202
0.284179687500, -0.907714843750, 0.214843750000, -31.921875000000, -6.789062500000, -24.812500000000, 1492751202
0.284179687500, -0.907714843750, 0.214843750000, -31.921875000000, -6.789062500000, -24.812500000000, 1492751202
0.284179687500, -0.907714843750, 0.214843750000, -31.921875000000, -6.789062500000, -24.812500000000, 1492751202
0.339599609375, -1.044677734375, 0.261230468750, -31.531250000000, -9.265625000000, -26.460937500000, 1492751202
0.339599609375, -1.044677734375, 0.261230468750, -31.531250000000, -9.265625000000, -26.460937500000, 1492751202
0.339599609375, -1.044677734375, 0.261230468750, -31.531250000000, -9.265625000000, -26.460937500000, 1492751202
0.269287109375, -0.917968750000, 0.182373046875, -35.500000000000, -18.695312500000, -26.632812500000, 1492751202
0.269287109375, -0.917968750000, 0.182373046875, -35.500000000000, -18.695312500000, -26.632812500000, 1492751202
0.269287109375, -0.917968750000, 0.182373046875, -35.500000000000, -18.695312500000, -26.632812500000, 1492751202
0.317871093750, -0.938232421875, 0.112304687500, -30.242187500000, -35.570312500000, -35.867187500000, 1492751202
0.317871093750, -0.938232421875, 0.112304687500, -30.242187500000, -35.570312500000, -35.867187500000, 1492751202
0.317871093750, -0.938232421875, 0.112304687500, -30.242187500000, -35.570312500000, -35.867187500000, 1492751202
0.341552734375, -0.834960937500, 0.325683593750, -27.710937500000, -39.281250000000, -49.882812500000, 1492751202
0.341552734375, -0.834960937500, 0.325683593750, -27.710937500000, -39.281250000000, -49.882812500000, 1492751202
0.341552734375, -0.834960937500, 0.325683593750, -27.710937500000, -39.281250000000, -49.882812500000, 1492751202
0.341552734375, -0.834960937500, 0.325683593750, -27.710937500000, -39.281250000000, -49.882812500000, 1492751202
0.163085937500, -0.742187500000, 0.279052734375, -39.218750000000, -20.226562500000, -44.125000000000, 1492751202
0.163085937500, -0.742187500000, 0.279052734375, -39.218750000000, -20.226562500000, -44.125000000000, 1492751202
0.163085937500, -0.742187500000, 0.279052734375, -39.218750000000, -20.226562500000, -44.125000000000, 1492751202
0.163085937500, -0.742187500000, 0.279052734375, -39.218750000000, -20.226562500000, -44.125000000000, 1492751202
0.163085937500, -0.742187500000, 0.279052734375, -39.218750000000, -20.226562500000, -44.125000000000, 1492751202
0.322509765625, -0.852050781250, 0.321533203125, -35.195312500000, -59.960937500000, -47.710937500000, 1492751202
0.322509765625, -0.852050781250, 0.321533203125, -35.195312500000, -59.960937500000, -47.710937500000, 1492751202
0.322509765625, -0.852050781250, 0.321533203125, -35.195312500000, -59.960937500000, -47.710937500000, 1492751202
0.322509765625, -0.852050781250, 0.321533203125, -35.195312500000, -59.960937500000, -47.710937500000, 1492751202
0.322509765625, -0.852050781250, 0.321533203125, -35.195312500000, -59.960937500000, -47.710937500000, 1492751202
0.162597656250, -0.615234375000, 0.321533203125, -18.406250000000, 2.617187500000, -32.281250000000, 1492751202
0.162597656250, -0.615234375000, 0.321533203125, -18.406250000000, 2.617187500000, -32.281250000000, 1492751202
0.162597656250, -0.615234375000, 0.321533203125, -18.406250000000, 2.617187500000, -32.281250000000, 1492751202
0.271972656250, -1.093017578125, 0.379394531250, -10.351562500000, 36.351562500000, -23.156250000000, 1492751202
0.271972656250, -1.093017578125, 0.379394531250, -10.351562500000, 36.351562500000, -23.156250000000, 1492751202
0.271972656250, -1.093017578125, 0.379394531250, -10.351562500000, 36.351562500000, -23.156250000000, 1492751202
-0.001220703125, -0.791015625000, 0.401123046875, 9.757812500000, 35.609375000000, 13.375000000000, 1492751202
-0.001220703125, -0.791015625000, 0.401123046875, 9.757812500000, 35.609375000000, 13.375000000000, 1492751202
-0.001220703125, -0.791015625000, 0.401123046875, 9.757812500000, 35.609375000000, 13.375000000000, 1492751202
-0.148193359375, -0.954345703125, 1.106201171875, -76.093750000000, 47.265625000000, -38.882812500000, 1492751202
-0.148193359375, -0.954345703125, 1.106201171875, -76.093750000000, 47.265625000000, -38.882812500000, 1492751202
-0.148193359375, -0.954345703125, 1.106201171875, -76.093750000000, 47.265625000000, -38.882812500000, 1492751202
-0.148193359375, -0.954345703125, 1.106201171875, -76.093750000000, 47.265625000000, -38.882812500000, 1492751202
-0.029541015625, -0.921386718750, 0.325195312500, -137.914062500000, 30.414062500000, -79.734375000000, 1492751202
-0.029541015625, -0.921386718750, 0.325195312500, -137.914062500000, 30.414062500000, -79.734375000000, 1492751202
-0.029541015625, -0.921386718750, 0.325195312500, -137.914062500000, 30.414062500000, -79.734375000000, 1492751202
-0.004882812500, -0.846679687500, 0.290771484375, -93.367187500000, 41.578125000000, -70.750000000000, 1492751202
-0.004882812500, -0.846679687500, 0.290771484375, -93.367187500000, 41.578125000000, -70.750000000000, 1492751202
-0.004882812500, -0.846679687500, 0.290771484375, -93.367187500000, 41.578125000000, -70.750000000000, 1492751202
-0.092529296875, -0.764648437500, 0.627929687500, -89.179687500000, 139.039062500000, -42.773437500000, 1492751202
-0.092529296875, -0.764648437500, 0.627929687500, -89.179687500000, 139.039062500000, -42.773437500000, 1492751202
-0.092529296875, -0.764648437500, 0.627929687500, -89.179687500000, 139.039062500000, -42.773437500000, 1492751202
-0.445312500000, -0.697509765625, 0.474609375000, -117.898437500000, 68.351562500000, -72.570312500000, 1492751203
-0.445312500000, -0.697509765625, 0.474609375000, -117.898437500000, 68.351562500000, -72.570312500000, 1492751203
-0.445312500000, -0.697509765625, 0.474609375000, -117.898437500000, 68.351562500000, -72.570312500000, 1492751203
-0.445312500000, -0.697509765625, 0.474609375000, -117.898437500000, 68.351562500000, -72.570312500000, 1492751203
-0.484619140625, -0.751953125000, 0.556884765625, -130.140625000000, 43.835937500000, -73.726562500000, 1492751203
-0.177490234375, -0.580566406250, 0.752197265625, -176.226562500000, -13.179687500000, -71.148437500000, 1492751203
-0.177490234375, -0.580566406250, 0.752197265625, -176.226562500000, -13.179687500000, -71.148437500000, 1492751203
-0.177490234375, -0.580566406250, 0.752197265625, -176.226562500000, -13.179687500000, -71.148437500000, 1492751203
-0.177490234375, -0.580566406250, 0.752197265625, -176.226562500000, -13.179687500000, -71.148437500000, 1492751203
-0.177490234375, -0.580566406250, 0.752197265625, -176.226562500000, -13.179687500000, -71.148437500000, 1492751203
-0.522949218750, -0.554199218750, 0.848388671875, -122.875000000000, 26.828125000000, -68.117187500000, 1492751203
-0.522949218750, -0.554199218750, 0.848388671875, -122.875000000000, 26.828125000000, -68.117187500000, 1492751203
-0.522949218750, -0.554199218750, 0.848388671875, -122.875000000000, 26.828125000000, -68.117187500000, 1492751203
-0.769287109375, -0.495361328125, 1.277832031250, -202.093750000000, -210.734375000000, -95.007812500000, 1492751203
-0.769287109375, -0.495361328125, 1.277832031250, -202.093750000000, -210.734375000000, -95.007812500000, 1492751203
-0.769287109375, -0.495361328125, 1.277832031250, -202.093750000000, -210.734375000000, -95.007812500000, 1492751203
-0.769287109375, -0.495361328125, 1.277832031250, -202.093750000000, -210.734375000000, -95.007812500000, 1492751203
-0.333984375000, -0.187011718750, 1.056884765625, -200.375000000000, -152.960937500000, -165.617187500000, 1492751203
-0.333984375000, -0.187011718750, 1.056884765625, -200.375000000000, -152.960937500000, -165.617187500000, 1492751203
-0.333984375000, -0.187011718750, 1.056884765625, -200.375000000000, -152.960937500000, -165.617187500000, 1492751203
0.106689453125, 0.408203125000, 1.023925781250, -16.554687500000, -88.859375000000, -158.867187500000, 1492751203
0.106689453125, 0.408203125000, 1.023925781250, -16.554687500000, -88.859375000000, -158.867187500000, 1492751203
0.106689453125, 0.408203125000, 1.023925781250, -16.554687500000, -88.859375000000, -158.867187500000, 1492751203
0.477783203125, 0.897216796875, 0.608154296875, -197.820312500000, -87.968750000000, -75.093750000000, 1492751203
0.477783203125, 0.897216796875, 0.608154296875, -197.820312500000, -87.968750000000, -75.093750000000, 1492751203
0.477783203125, 0.897216796875, 0.608154296875, -197.820312500000, -87.968750000000, -75.093750000000, 1492751203
0.265625000000, 0.540771484375, 0.254638671875, 41.242187500000, 48.632812500000, -79.914062500000, 1492751203
0.265625000000, 0.540771484375, 0.254638671875, 41.242187500000, 48.632812500000, -79.914062500000, 1492751203
0.265625000000, 0.540771484375, 0.254638671875, 41.242187500000, 48.632812500000, -79.914062500000, 1492751203
0.265625000000, 0.540771484375, 0.254638671875, 41.242187500000, 48.632812500000, -79.914062500000, 1492751203
0.097167968750, 0.877685546875, 0.916259765625, -32.343750000000, 122.851562500000, -73.421875000000, 1492751203
0.097167968750, 0.877685546875, 0.916259765625, -32.343750000000, 122.851562500000, -73.421875000000, 1492751203
0.097167968750, 0.877685546875, 0.916259765625, -32.343750000000, 122.851562500000, -73.421875000000, 1492751203
-0.219970703125, 0.672851562500, 0.936523437500, 89.906250000000, 16.242187500000, 59.992187500000, 1492751203
-0.219970703125, 0.672851562500, 0.936523437500, 89.906250000000, 16.242187500000, 59.992187500000, 1492751203
-0.219970703125, 0.672851562500, 0.936523437500, 89.906250000000, 16.242187500000, 59.992187500000, 1492751203
0.029785156250, 0.077636718750, 0.740966796875, 106.882812500000, -58.796875000000, -0.820312500000, 1492751203
0.029785156250, 0.077636718750, 0.740966796875, 106.882812500000, -58.796875000000, -0.820312500000, 1492751203
0.029785156250, 0.077636718750, 0.740966796875, 106.882812500000, -58.796875000000, -0.820312500000, 1492751203
0.278076171875, -0.321289062500, 0.934570312500, -36.687500000000, 28.789062500000, 39.953125000000, 1492751203
0.278076171875, -0.321289062500, 0.934570312500, -36.687500000000, 28.789062500000, 39.953125000000, 1492751203
0.278076171875, -0.321289062500, 0.934570312500, -36.687500000000, 28.789062500000, 39.953125000000, 1492751203
0.278076171875, -0.321289062500, 0.934570312500, -36.687500000000, 28.789062500000, 39.953125000000, 1492751203
-0.056396484375, -0.061279296875, 1.021728515625, -77.210937500000, 5.328125000000, 1.054687500000, 1492751203
-0.056396484375, -0.061279296875, 1.021728515625, -77.210937500000, 5.328125000000, 1.054687500000, 1492751203
-0.056396484375, -0.061279296875, 1.021728515625, -77.210937500000, 5.328125000000, 1.054687500000, 1492751203
-0.145751953125, 0.119873046875, 0.991943359375, -116.828125000000, 0.468750000000, 10.195312500000, 1492751203
-0.145751953125, 0.119873046875, 0.991943359375, -116.828125000000, 0.468750000000, 10.195312500000, 1492751203
-0.145751953125, 0.119873046875, 0.991943359375, -116.828125000000, 0.468750000000, 10.195312500000, 1492751203
-0.055908203125, 0.535888671875, 1.154785156250, 14.726562500000, -9.750000000000, -17.539062500000, 1492751203
-0.055908203125, 0.535888671875, 1.154785156250, 14.726562500000, -9.750000000000, -17.539062500000, 1492751203
-0.055908203125, 0.535888671875, 1.154785156250, 14.726562500000, -9.750000000000, -17.539062500000, 1492751203
-0.074951171875, 0.342285156250, 0.991210937500, 54.570312500000, -11.554687500000, 2.546875000000, 1492751203
-0.074951171875, 0.342285156250, 0.991210937500, 54.570312500000, -11.554687500000, 2.546875000000, 1492751203
-0.074951171875, 0.342285156250, 0.991210937500, 54.570312500000, -11.554687500000, 2.546875000000, 1492751203
-0.074951171875, 0.342285156250, 0.991210937500, 54.570312500000, -11.554687500000, 2.546875000000, 1492751203
0.004638671875, -0.082275390625, 0.912109375000, 53.929687500000, -5.179687500000, -4.398437500000, 1492751203
0.004638671875, -0.082275390625, 0.912109375000, 53.929687500000, -5.179687500000, -4.398437500000, 1492751203
0.004638671875, -0.082275390625, 0.912109375000, 53.929687500000, -5.179687500000, -4.398437500000, 1492751203
-0.020019531250, -0.146240234375, 0.966064453125, -15.492187500000, -2.773437500000, 4.781250000000, 1492751203
-0.020019531250, -0.146240234375, 0.966064453125, -15.492187500000, -2.773437500000, 4.781250000000, 1492751203
-0.020019531250, -0.146240234375, 0.966064453125, -15.492187500000, -2.773437500000, 4.781250000000, 1492751203
-0.008789062500, 0.092529296875, 1.007812500000, -47.820312500000, 1.781250000000, 2.132812500000, 1492751203
-0.008789062500, 0.092529296875, 1.007812500000, -47.820312500000, 1.781250000000, 2.132812500000, 1492751203
-0.008789062500, 0.092529296875, 1.007812500000, -47.820312500000, 1.781250000000, 2.132812500000, 1492751203
-0.052978515625, 0.339599609375, 1.069580078125, -40.101562500000, 6.687500000000, -4.750000000000, 1492751203
-0.052978515625, 0.339599609375, 1.069580078125, -40.101562500000, 6.687500000000, -4.750000000000, 1492751203
0.056884765625, 0.226562500000, 0.915771484375, 16.554687500000, -2.710937500000, -0.617187500000, 1492751204
0.056884765625, 0.226562500000, 0.915771484375, 16.554687500000, -2.710937500000, -0.617187500000, 1492751204
0.056884765625, 0.226562500000, 0.915771484375, 16.554687500000, -2.710937500000, -0.617187500000, 1492751204
0.056884765625, 0.226562500000, 0.915771484375, 16.554687500000, -2.710937500000, -0.617187500000, 1492751204
-0.000976562500, 0.184814453125, 0.967773437500, 12.179687500000, 9.562500000000, 2.148437500000, 1492751204
-0.020263671875, 0.205078125000, 0.858154296875, 2.781250000000, 14.718750000000, -2.132812500000, 1492751204
-0.020263671875, 0.205078125000, 0.858154296875, 2.781250000000, 14.718750000000, -2.132812500000, 1492751204
-0.020263671875, 0.205078125000, 0.858154296875, 2.781250000000, 14.718750000000, -2.132812500000, 1492751204
-0.020263671875, 0.205078125000, 0.858154296875, 2.781250000000, 14.718750000000, -2.132812500000, 1492751204
-0.020263671875, 0.205078125000, 0.858154296875, 2.781250000000, 14.718750000000, -2.132812500000, 1492751204
-0.020263671875, 0.205078125000, 0.858154296875, 2.781250000000, 14.718750000000, -2.132812500000, 1492751204
0.066162109375, 0.082031250000, 1.023437500000, -3.125000000000, -2.742187500000, 0.312500000000, 1492751204
0.066162109375, 0.082031250000, 1.023437500000, -3.125000000000, -2.742187500000, 0.312500000000, 1492751204
0.066162109375, 0.082031250000, 1.023437500000, -3.125000000000, -2.742187500000, 0.312500000000, 1492751204
0.066162109375, 0.082031250000, 1.023437500000, -3.125000000000, -2.742187500000, 0.312500000000, 1492751204
0.026123046875, 0.260498046875, 1.069335937500, -7.406250000000, 9.281250000000, -2.968750000000, 1492751204
0.020996093750, 0.260009765625, 1.093750000000, -3.335937500000, -0.304687500000, -2.687500000000, 1492751204
0.020996093750, 0.260009765625, 1.093750000000, -3.335937500000, -0.304687500000, -2.687500000000, 1492751204
0.020996093750, 0.260009765625, 1.093750000000, -3.335937500000, -0.304687500000, -2.687500000000, 1492751204
0.020996093750, 0.260009765625, 1.093750000000, -3.335937500000, -0.304687500000, -2.687500000000, 1492751204
0.020996093750, 0.260009765625, 1.093750000000, -3.335937500000, -0.304687500000, -2.687500000000, 1492751204
0.005371093750, 0.250976562500, 1.018310546875, -3.742187500000, 0.218750000000, -3.742187500000, 1492751204
0.005371093750, 0.250976562500, 1.018310546875, -3.742187500000, 0.218750000000, -3.742187500000, 1492751204
0.005371093750, 0.250976562500, 1.018310546875, -3.742187500000, 0.218750000000, -3.742187500000, 1492751204
-0.026611328125, 0.125488281250, 0.963378906250, -3.328125000000, -2.414062500000, -6.406250000000, 1492751204
-0.026611328125, 0.125488281250, 0.963378906250, -3.328125000000, -2.414062500000, -6.406250000000, 1492751204
-0.026611328125, 0.125488281250, 0.963378906250, -3.328125000000, -2.414062500000, -6.406250000000, 1492751204
-0.026611328125, 0.125488281250, 0.963378906250, -3.328125000000, -2.414062500000, -6.406250000000, 1492751204
-0.029785156250, 0.254882812500, 0.972900390625, -1.726562500000, -0.703125000000, -1.492187500000, 1492751204
-0.029785156250, 0.254882812500, 0.972900390625, -1.726562500000, -0.703125000000, -1.492187500000, 1492751204
-0.029785156250, 0.254882812500, 0.972900390625, -1.726562500000, -0.703125000000, -1.492187500000, 1492751204
-0.003417968750, 0.200927734375, 0.973144531250, -3.320312500000, -4.632812500000, -3.195312500000, 1492751204
-0.003417968750, 0.200927734375, 0.973144531250, -3.320312500000, -4.632812500000, -3.195312500000, 1492751204
-0.003417968750, 0.200927734375, 0.973144531250, -3.320312500000, -4.632812500000, -3.195312500000, 1492751204
-0.082763671875, 0.320068359375, 1.084960937500, -3.226562500000, -2.437500000000, -3.046875000000, 1492751204
-0.082763671875, 0.320068359375, 1.084960937500, -3.226562500000, -2.437500000000, -3.046875000000, 1492751204
-0.082763671875, 0.320068359375, 1.084960937500, -3.226562500000, -2.437500000000, -3.046875000000, 1492751204
0.021972656250, 0.271240234375, 0.976806640625, -2.664062500000, -2.046875000000, -3.203125000000, 1492751204
0.021972656250, 0.271240234375, 0.976806640625, -2.664062500000, -2.046875000000, -3.203125000000, 1492751204
0.021972656250, 0.271240234375, 0.976806640625, -2.664062500000, -2.046875000000, -3.203125000000, 1492751204
0.021972656250, 0.271240234375, 0.976806640625, -2.664062500000, -2.046875000000, -3.203125000000, 1492751204
-0.020263671875, 0.172119140625, 1.022460937500, -1.546875000000, -2.625000000000, -4.468750000000, 1492751204
-0.020263671875, 0.172119140625, 1.022460937500, -1.546875000000, -2.625000000000, -4.468750000000, 1492751204
-0.020263671875, 0.172119140625, 1.022460937500, -1.546875000000, -2.625000000000, -4.468750000000, 1492751204
-0.063232421875, 0.212158203125, 1.018554687500, -4.460937500000, -1.843750000000, -1.687500000000, 1492751204
-0.063232421875, 0.212158203125, 1.018554687500, -4.460937500000, -1.843750000000, -1.687500000000, 1492751204
-0.063232421875, 0.212158203125, 1.018554687500, -4.460937500000, -1.843750000000, -1.687500000000, 1492751204
-0.077392578125, 0.277343750000, 0.975585937500, -3.234375000000, -2.085937500000, -6.187500000000, 1492751204
-0.077392578125, 0.277343750000, 0.975585937500, -3.234375000000, -2.085937500000, -6.187500000000, 1492751204
-0.077392578125, 0.277343750000, 0.975585937500, -3.234375000000, -2.085937500000, -6.187500000000, 1492751204
0.000732421875, 0.097656250000, 0.969726562500, -5.343750000000, -1.281250000000, -0.531250000000, 1492751204
0.000732421875, 0.097656250000, 0.969726562500, -5.343750000000, -1.281250000000, -0.531250000000, 1492751204
0.000732421875, 0.097656250000, 0.969726562500, -5.343750000000, -1.281250000000, -0.531250000000, 1492751204
0.000732421875, 0.097656250000, 0.969726562500, -5.343750000000, -1.281250000000, -0.531250000000, 1492751204
-0.016845703125, 0.269531250000, 1.016845703125, -6.492187500000, 5.828125000000, -0.968750000000, 1492751204
-0.016845703125, 0.269531250000, 1.016845703125, -6.492187500000, 5.828125000000, -0.968750000000, 1492751204
-0.016845703125, 0.269531250000, 1.016845703125, -6.492187500000, 5.828125000000, -0.968750000000, 1492751204
-0.016845703125, 0.269531250000, 1.016845703125, -6.492187500000, 5.828125000000, -0.968750000000, 1492751204
0.069580078125, 0.216552734375, 0.994873046875, -1.718750000000, 4.570312500000, -3.210937500000, 1492751204
0.069580078125, 0.216552734375, 0.994873046875, -1.718750000000, 4.570312500000, -3.210937500000, 1492751204
0.069580078125, 0.216552734375, 0.994873046875, -1.718750000000, 4.570312500000, -3.210937500000, 1492751204
0.069580078125, 0.216552734375, 0.994873046875, -1.718750000000, 4.570312500000, -3.210937500000, 1492751204
0.069580078125, 0.216552734375, 0.994873046875, -1.718750000000, 4.570312500000, -3.210937500000, 1492751204
-0.002685546875, 0.195800781250, 0.979736328125, -4.843750000000, 0.359375000000, -6.625000000000, 1492751205
-0.002685546875, 0.195800781250, 0.979736328125, -4.843750000000, 0.359375000000, -6.625000000000, 1492751205
-0.002685546875, 0.195800781250, 0.979736328125, -4.843750000000, 0.359375000000, -6.625000000000, 1492751205
-0.002685546875, 0.195800781250, 0.979736328125, -4.843750000000, 0.359375000000, -6.625000000000, 1492751205
-0.002685546875, 0.195800781250, 0.979736328125, -4.843750000000, 0.359375000000, -6.625000000000, 1492751205
-0.002685546875, 0.195800781250, 0.979736328125, -4.843750000000, 0.359375000000, -6.625000000000, 1492751205
-0.002685546875, 0.195800781250, 0.979736328125, -4.843750000000, 0.359375000000, -6.625000000000, 1492751205
0.010009765625, 0.175048828125, 1.004882812500, -4.523437500000, -0.382812500000, -0.773437500000, 1492751205
0.010009765625, 0.175048828125, 1.004882812500, -4.523437500000, -0.382812500000, -0.773437500000, 1492751205
0.010009765625, 0.175048828125, 1.004882812500, -4.523437500000, -0.382812500000, -0.773437500000, 1492751205
0.012695312500, 0.178222656250, 1.010498046875, -4.835937500000, -0.906250000000, 0.773437500000, 1492751205
0.012695312500, 0.178222656250, 1.010498046875, -4.835937500000, -0.906250000000, 0.773437500000, 1492751205
0.012695312500, 0.178222656250, 1.010498046875, -4.835937500000, -0.906250000000, 0.773437500000, 1492751205
-0.019287109375, 0.170654296875, 1.029785156250, -4.039062500000, -3.968750000000, -1.039062500000, 1492751205
-0.019287109375, 0.170654296875, 1.029785156250, -4.039062500000, -3.968750000000, -1.039062500000, 1492751205
-0.019287109375, 0.170654296875, 1.029785156250, -4.039062500000, -3.968750000000, -1.039062500000, 1492751205
-0.064208984375, 0.177734375000, 0.980224609375, -4.171875000000, -0.726562500000, -6.539062500000, 1492751205
-0.064208984375, 0.177734375000, 0.980224609375, -4.171875000000, -0.726562500000, -6.539062500000, 1492751205
-0.064208984375, 0.177734375000, 0.980224609375, -4.171875000000, -0.726562500000, -6.539062500000, 1492751205
-0.064208984375, 0.177734375000, 0.980224609375, -4.171875000000, -0.726562500000, -6.539062500000, 1492751205
0.081787109375, 0.270751953125, 1.030517578125, -4.289062500000, 1.484375000000, 0.070312500000, 1492751205
0.081787109375, 0.270751953125, 1.030517578125, -4.289062500000, 1.484375000000, 0.070312500000, 1492751205
0.081787109375, 0.270751953125, 1.030517578125, -4.289062500000, 1.484375000000, 0.070312500000, 1492751205
0.068847656250, 0.098388671875, 1.013183593750, -3.375000000000, -2.460937500000, -4.140625000000, 1492751205
0.068847656250, 0.098388671875, 1.013183593750, -3.375000000000, -2.460937500000, -4.140625000000, 1492751205
0.068847656250, 0.098388671875, 1.013183593750, -3.375000000000, -2.460937500000, -4.140625000000, 1492751205
-0.000488281250, 0.194824218750, 1.002929687500, -3.429687500000, 0.710937500000, -3.570312500000, 1492751205
-0.000488281250, 0.194824218750, 1.002929687500, -3.429687500000, 0.710937500000, -3.570312500000, 1492751205
-0.000488281250, 0.194824218750, 1.002929687500, -3.429687500000, 0.710937500000, -3.570312500000, 1492751205
-0.000488281250, 0.194824218750, 1.002929687500, -3.429687500000, 0.710937500000, -3.570312500000, 1492751205
-0.015869140625, 0.253662109375, 0.977783203125, -3.132812500000, 0.429687500000, -3.250000000000, 1492751205
-0.015869140625, 0.253662109375, 0.977783203125, -3.132812500000, 0.429687500000, -3.250000000000, 1492751205
-0.015869140625, 0.253662109375, 0.977783203125, -3.132812500000, 0.429687500000, -3.250000000000, 1492751205
-0.088134765625, 0.173583984375, 1.073242187500, -4.757812500000, -0.765625000000, -0.718750000000, 1492751205
-0.088134765625, 0.173583984375, 1.073242187500, -4.757812500000, -0.765625000000, -0.718750000000, 1492751205
-0.088134765625, 0.173583984375, 1.073242187500, -4.757812500000, -0.765625000000, -0.718750000000, 1492751205
-0.078369140625, 0.279296875000, 1.018310546875, -2.296875000000, -1.070312500000, 2.906250000000, 1492751205
-0.078369140625, 0.279296875000, 1.018310546875, -2.296875000000, -1.070312500000, 2.906250000000, 1492751205
-0.078369140625, 0.279296875000, 1.018310546875, -2.296875000000, -1.070312500000, 2.906250000000, 1492751205
0.036132812500, 0.149902343750, 0.979248046875, -4.023437500000, 3.210937500000, -1.406250000000, 1492751205
0.036132812500, 0.149902343750, 0.979248046875, -4.023437500000, 3.210937500000, -1.406250000000, 1492751205
0.036132812500, 0.149902343750, 0.979248046875, -4.023437500000, 3.210937500000, -1.406250000000, 1492751205
0.036132812500, 0.149902343750, 0.979248046875, -4.023437500000, 3.210937500000, -1.406250000000, 1492751205
0.132568359375, 0.251220703125, 0.988769531250, -4.765625000000, -0.484375000000, -4.476562500000, 1492751205
0.132568359375, 0.251220703125, 0.988769531250, -4.765625000000, -0.484375000000, -4.476562500000, 1492751205
0.132568359375, 0.251220703125, 0.988769531250, -4.765625000000, -0.484375000000, -4.476562500000, 1492751205
0.084228515625, 0.156982421875, 1.030761718750, -3.382812500000, 0.656250000000, -2.781250000000, 1492751205
0.084228515625, 0.156982421875, 1.030761718750, -3.382812500000, 0.656250000000, -2.781250000000, 1492751205
0.084228515625, 0.156982421875, 1.030761718750, -3.382812500000, 0.656250000000, -2.781250000000, 1492751205
-0.024169921875, 0.214843750000, 0.973388671875, -3.078125000000, -2.171875000000, -0.757812500000, 1492751205
-0.024169921875, 0.214843750000, 0.973388671875, -3.078125000000, -2.171875000000, -0.757812500000, 1492751205
-0.024169921875, 0.214843750000, 0.973388671875, -3.078125000000, -2.171875000000, -0.757812500000, 1492751205
0.040283203125, 0.260498046875, 0.921630859375, -1.906250000000, 2.445312500000, -4.195312500000, 1492751205
0.040283203125, 0.260498046875, 0.921630859375, -1.906250000000, 2.445312500000, -4.195312500000, 1492751205
0.040283203125, 0.260498046875, 0.921630859375, -1.906250000000, 2.445312500000, -4.195312500000, 1492751205
0.040283203125, 0.260498046875, 0.921630859375, -1.906250000000, 2.445312500000, -4.195312500000, 1492751205
0.009765625000, 0.191406250000, 1.009765625000, -4.882812500000, 0.171875000000, -6.304687500000, 1492751205
0.009765625000, 0.191406250000, 1.009765625000, -4.882812500000, 0.171875000000, -6.304687500000, 1492751205
0.009765625000, 0.191406250000, 1.009765625000, -4.882812500000, 0.171875000000, -6.304687500000, 1492751205
-0.028076171875, 0.205322265625, 0.969238281250, -1.937500000000, -8.039062500000, -1.023437500000, 1492751205
-0.028076171875, 0.205322265625, 0.969238281250, -1.937500000000, -8.039062500000, -1.023437500000, 1492751205
-0.028076171875, 0.205322265625, 0.969238281250, -1.937500000000, -8.039062500000, -1.023437500000, 1492751205
0.035644531250, 0.279052734375, 0.982421875000, -2.328125000000, 2.226562500000, -1.273437500000, 1492751205
0.035644531250, 0.279052734375, 0.982421875000, -2.328125000000, 2.226562500000, -1.273437500000, 1492751205
0.035644531250, 0.279052734375, 0.982421875000, -2.328125000000, 2.226562500000, -1.273437500000, 1492751205
-0.009277343750, 0.179443359375, 1.078369140625, -4.210937500000, -0.203125000000, -3.953125000000, 1492751205
-0.009277343750, 0.179443359375, 1.078369140625, -4.210937500000, -0.203125000000, -3.953125000000, 1492751205
-0.009277343750, 0.179443359375, 1.078369140625, -4.210937500000, -0.203125000000, -3.953125000000, 1492751205
-0.009277343750, 0.179443359375, 1.078369140625, -4.210937500000, -0.203125000000, -3.953125000000, 1492751205
-0.000732421875, 0.179199218750, 0.945800781250, -3.593750000000, -3.656250000000, -3.781250000000, 1492751205
-0.000732421875, 0.179199218750, 0.945800781250, -3.593750000000, -3.656250000000, -3.781250000000, 1492751206
-0.000732421875, 0.179199218750, 0.945800781250, -3.593750000000, -3.656250000000, -3.781250000000, 1492751206
0.130371093750, 0.267822265625, 1.014160156250, -1.453125000000, -5.921875000000, -0.070312500000, 1492751206
0.130371093750, 0.267822265625, 1.014160156250, -1.453125000000, -5.921875000000, -0.070312500000, 1492751206
0.130371093750, 0.267822265625, 1.014160156250, -1.453125000000, -5.921875000000, -0.070312500000, 1492751206
0.022705078125, 0.165527343750, 1.083984375000, -3.218750000000, -11.789062500000, -2.171875000000, 1492751206
0.022705078125, 0.165527343750, 1.083984375000, -3.218750000000, -11.789062500000, -2.171875000000, 1492751206
0.022705078125, 0.165527343750, 1.083984375000, -3.218750000000, -11.789062500000, -2.171875000000, 1492751206
-0.076660156250, 0.065185546875, 0.978759765625, -5.382812500000, -30.492187500000, -12.031250000000, 1492751206
-0.076660156250, 0.065185546875, 0.978759765625, -5.382812500000, -30.492187500000, -12.031250000000, 1492751206
-0.076660156250, 0.065185546875, 0.978759765625, -5.382812500000, -30.492187500000, -12.031250000000, 1492751206
-0.076660156250, 0.065185546875, 0.978759765625, -5.382812500000, -30.492187500000, -12.031250000000, 1492751206
0.133056640625, 0.209228515625, 0.921386718750, -7.882812500000, -24.835937500000, -9.007812500000, 1492751206
0.133056640625, 0.209228515625, 0.921386718750, -7.882812500000, -24.835937500000, -9.007812500000, 1492751206
0.133056640625, 0.209228515625, 0.921386718750, -7.882812500000, -24.835937500000, -9.007812500000, 1492751206
0.044433593750, 0.191406250000, 0.994384765625, -1.789062500000, -6.304687500000, 0.234375000000, 1492751206
0.044433593750, 0.191406250000, 0.994384765625, -1.789062500000, -6.304687500000, 0.234375000000, 1492751206
0.044433593750, 0.191406250000, 0.994384765625, -1.789062500000, -6.304687500000, 0.234375000000, 1492751206
0.133544921875, 0.161865234375, 0.916259765625, -2.968750000000, 5.546875000000, -1.945312500000, 1492751206
0.133544921875, 0.161865234375, 0.916259765625, -2.968750000000, 5.546875000000, -1.945312500000, 1492751206
0.133544921875, 0.161865234375, 0.916259765625, -2.968750000000, 5.546875000000, -1.945312500000, 1492751206
-0.002197265625, 0.211181640625, 1.010742187500, -1.859375000000, -0.585937500000, -3.742187500000, 1492751206
-0.002197265625, 0.211181640625, 1.010742187500, -1.859375000000, -0.585937500000, -3.742187500000, 1492751206
-0.002197265625, 0.211181640625, 1.010742187500, -1.859375000000, -0.585937500000, -3.742187500000, 1492751206
-0.002197265625, 0.211181640625, 1.010742187500, -1.859375000000, -0.585937500000, -3.742187500000, 1492751206
0.050048828125, 0.119628906250, 1.081542968750, -1.468750000000, -3.906250000000, -4.273437500000, 1492751206
0.050048828125, 0.119628906250, 1.081542968750, -1.468750000000, -3.906250000000, -4.273437500000, 1492751206
0.050048828125, 0.119628906250, 1.081542968750, -1.468750000000, -3.906250000000, -4.273437500000, 1492751206
0.085449218750, 0.233886718750, 1.089111328125, -4.679687500000, -0.968750000000, -4.453125000000, 1492751206
0.085449218750, 0.233886718750, 1.089111328125, -4.679687500000, -0.968750000000, -4.453125000000, 1492751206
0.085449218750, 0.233886718750, 1.089111328125, -4.679687500000, -0.968750000000, -4.453125000000, 1492751206
0.047363281250, 0.219970703125, 1.073730468750, -0.078125000000, 2.085937500000, 0.187500000000, 1492751206
0.047363281250, 0.219970703125, 1.073730468750, -0.078125000000, 2.085937500000, 0.187500000000, 1492751206
0.047363281250, 0.219970703125, 1.073730468750, -0.078125000000, 2.085937500000, 0.187500000000, 1492751206
0.090576171875, 0.157958984375, 0.911865234375, -2.046875000000, 2.992187500000, 0.132812500000, 1492751206
0.090576171875, 0.157958984375, 0.911865234375, -2.046875000000, 2.992187500000, 0.132812500000, 1492751206
0.090576171875, 0.157958984375, 0.911865234375, -2.046875000000, 2.992187500000, 0.132812500000, 1492751206
0.090576171875, 0.157958984375, 0.911865234375, -2.046875000000, 2.992187500000, 0.132812500000, 1492751206
0.131103515625, 0.143554687500, 1.021972656250, -6.023437500000, -1.742187500000, -2.765625000000, 1492751206
0.131103515625, 0.143554687500, 1.021972656250, -6.023437500000, -1.742187500000, -2.765625000000, 1492751206
0.131103515625, 0.143554687500, 1.021972656250, -6.023437500000, -1.742187500000, -2.765625000000, 1492751206
0.096191406250, 0.133544921875, 0.992187500000, -1.523437500000, 5.242187500000, -2.750000000000, 1492751206
0.096191406250, 0.133544921875, 0.992187500000, -1.523437500000, 5.242187500000, -2.750000000000, 1492751206
0.096191406250, 0.133544921875, 0.992187500000, -1.523437500000, 5.242187500000, -2.750000000000, 1492751206
0.102783203125, 0.208740234375, 0.979736328125, -6.218750000000, 3.960937500000, -1.632812500000, 1492751206
0.102783203125, 0.208740234375, 0.979736328125, -6.218750000000, 3.960937500000, -1.632812500000, 1492751206
0.102783203125, 0.208740234375, 0.979736328125, -6.218750000000, 3.960937500000, -1.632812500000, 1492751206
-0.014160156250, 0.215576171875, 1.084716796875, -6.406250000000, 5.226562500000, -2.648437500000, 1492751206
-0.014160156250, 0.215576171875, 1.084716796875, -6.406250000000, 5.226562500000, -2.648437500000, 1492751206
-0.014160156250, 0.215576171875, 1.084716796875, -6.406250000000, 5.226562500000, -2.648437500000, 1492751206
-0.014160156250, 0.215576171875, 1.084716796875, -6.406250000000, 5.226562500000, -2.648437500000, 1492751206
0.199951171875, 0.329833984375, 0.984375000000, -4.929687500000, 7.460937500000, -1.781250000000, 1492751206
0.199951171875, 0.329833984375, 0.984375000000, -4.929687500000, 7.460937500000, -1.781250000000, 1492751206
-0.013916015625, 0.176025390625, 0.976074218750, -4.671875000000, 8.226562500000, -1.382812500000, 1492751206
-0.013916015625, 0.176025390625, 0.976074218750, -4.671875000000, 8.226562500000, -1.382812500000, 1492751206
-0.013916015625, 0.176025390625, 0.976074218750, -4.671875000000, 8.226562500000, -1.382812500000, 1492751206
-0.013916015625, 0.176025390625, 0.976074218750, -4.671875000000, 8.226562500000, -1.382812500000, 1492751206
0.037109375000, 0.173339843750, 1.027587890625, -3.921875000000, 4.539062500000, -1.078125000000, 1492751206
0.037109375000, 0.173339843750, 1.027587890625, -3.921875000000, 4.539062500000, -1.078125000000, 1492751206
0.037109375000, 0.173339843750, 1.027587890625, -3.921875000000, 4.539062500000, -1.078125000000, 1492751206
0.037841796875, 0.186279296875, 1.080078125000, -5.320312500000, 5.578125000000, 0.976562500000, 1492751206
0.037841796875, 0.186279296875, 1.080078125000, -5.320312500000, 5.578125000000, 0.976562500000, 1492751206
0.037841796875, 0.186279296875, 1.080078125000, -5.320312500000, 5.578125000000, 0.976562500000, 1492751206
0.037841796875, 0.186279296875, 1.080078125000, -5.320312500000, 5.578125000000, 0.976562500000, 1492751206
-0.017333984375, 0.202392578125, 0.932373046875, -5.687500000000, 12.046875000000, 0.851562500000, 1492751206
-0.017333984375, 0.202392578125, 0.932373046875, -5.687500000000, 12.046875000000, 0.851562500000, 1492751206
-0.017333984375, 0.202392578125, 0.932373046875, -5.687500000000, 12.046875000000, 0.851562500000, 1492751206
0.087402343750, 0.150390625000, 1.065429687500, -2.492187500000, 3.250000000000, 1.296875000000, 1492751207
0.087402343750, 0.150390625000, 1.065429687500, -2.492187500000, 3.250000000000, 1.296875000000, 1492751207
0.087402343750, 0.150390625000, 1.065429687500, -2.492187500000, 3.250000000000, 1.296875000000, 1492751207
0.051025390625, 0.181640625000, 0.991210937500, -4.296875000000, -2.703125000000, -4.890625000000, 1492751207
0.051025390625, 0.181640625000, 0.991210937500, -4.296875000000, -2.703125000000, -4.890625000000, 1492751207
0.051025390625, 0.181640625000, 0.991210937500, -4.296875000000, -2.703125000000, -4.890625000000, 1492751207
0.083740234375, 0.197509765625, 1.071289062500, -3.992187500000, 3.343750000000, -1.039062500000, 1492751207
0.083740234375, 0.197509765625, 1.071289062500, -3.992187500000, 3.343750000000, -1.039062500000, 1492751207
0.083740234375, 0.197509765625, 1.071289062500, -3.992187500000, 3.343750000000, -1.039062500000, 1492751207
0.083740234375, 0.197509765625, 1.071289062500, -3.992187500000, 3.343750000000, -1.039062500000, 1492751207
0.059326171875, 0.267333984375, 0.920410156250, -5.039062500000, -0.171875000000, -6.062500000000, 1492751207
0.059326171875, 0.267333984375, 0.920410156250, -5.039062500000, -0.171875000000, -6.062500000000, 1492751207
0.059326171875, 0.267333984375, 0.920410156250, -5.039062500000, -0.171875000000, -6.062500000000, 1492751207
0.071777343750, 0.213867187500, 1.023193359375, -4.828125000000, 8.554687500000, -3.773437500000, 1492751207
0.071777343750, 0.213867187500, 1.023193359375, -4.828125000000, 8.554687500000, -3.773437500000, 1492751207
0.071777343750, 0.213867187500, 1.023193359375, -4.828125000000, 8.554687500000, -3.773437500000, 1492751207
0.045166015625, 0.249023437500, 1.086425781250, -3.960937500000, -4.648437500000, 0.187500000000, 1492751207
0.045166015625, 0.249023437500, 1.086425781250, -3.960937500000, -4.648437500000, 0.187500000000, 1492751207
0.045166015625, 0.249023437500, 1.086425781250, -3.960937500000, -4.648437500000, 0.187500000000, 1492751207
-0.004150390625, 0.110351562500, 0.984130859375, -1.765625000000, 1.890625000000, -0.421875000000, 1492751207
-0.004150390625, 0.110351562500, 0.984130859375, -1.765625000000, 1.890625000000, -0.421875000000, 1492751207
-0.004150390625, 0.110351562500, 0.984130859375, -1.765625000000, 1.890625000000, -0.421875000000, 1492751207
-0.004150390625, 0.110351562500, 0.984130859375, -1.765625000000, 1.890625000000, -0.421875000000, 1492751207
-0.014648437500, 0.275390625000, 1.027099609375, -1.968750000000, -0.640625000000, 0.812500000000, 1492751207
-0.014648437500, 0.275390625000, 1.027099609375, -1.968750000000, -0.640625000000, 0.812500000000, 1492751207
-0.026367187500, 0.191162109375, 1.032470703125, -4.492187500000, 4.382812500000, -4.195312500000, 1492751207
-0.026367187500, 0.191162109375, 1.032470703125, -4.492187500000, 4.382812500000, -4.195312500000, 1492751207
-0.026367187500, 0.191162109375, 1.032470703125, -4.492187500000, 4.382812500000, -4.195312500000, 1492751207
-0.026367187500, 0.191162109375, 1.032470703125, -4.492187500000, 4.382812500000, -4.195312500000, 1492751207
-0.012695312500, 0.277099609375, 0.968505859375, 1.437500000000, 1.109375000000, -0.156250000000, 1492751207
-0.018554687500, 0.214843750000, 1.005859375000, 1.937500000000, -4.117187500000, 4.039062500000, 1492751207
-0.018554687500, 0.214843750000, 1.005859375000, 1.937500000000, -4.117187500000, 4.039062500000, 1492751207
-0.018554687500, 0.214843750000, 1.005859375000, 1.937500000000, -4.117187500000, 4.039062500000, 1492751207
0.063476562500, 0.216064453125, 1.082519531250, 2.140625000000, -3.335937500000, -4.570312500000, 1492751207
0.063476562500, 0.216064453125, 1.082519531250, 2.140625000000, -3.335937500000, -4.570312500000, 1492751207
0.063476562500, 0.216064453125, 1.082519531250, 2.140625000000, -3.335937500000, -4.570312500000, 1492751207
0.063476562500, 0.216064453125, 1.082519531250, 2.140625000000, -3.335937500000, -4.570312500000, 1492751207
0.031005859375, 0.162109375000, 0.999755859375, -2.593750000000, -6.109375000000, -5.156250000000, 1492751207
0.069335937500, 0.108398437500, 1.064941406250, -6.156250000000, -4.921875000000, -4.296875000000, 1492751207
0.069335937500, 0.108398437500, 1.064941406250, -6.156250000000, -4.921875000000, -4.296875000000, 1492751207
0.069335937500, 0.108398437500, 1.064941406250, -6.156250000000, -4.921875000000, -4.296875000000, 1492751207
0.069335937500, 0.108398437500, 1.064941406250, -6.156250000000, -4.921875000000, -4.296875000000, 1492751207
-0.063476562500, 0.201660156250, 1.022216796875, -1.851562500000, 1.578125000000, -2.843750000000, 1492751207
-0.063476562500, 0.201660156250, 1.022216796875, -1.851562500000, 1.578125000000, -2.843750000000, 1492751207
-0.063476562500, 0.201660156250, 1.022216796875, -1.851562500000, 1.578125000000, -2.843750000000, 1492751207
0.092285156250, 0.191650390625, 1.019287109375, -2.937500000000, 2.257812500000, -2.554687500000, 1492751207
0.092285156250, 0.191650390625, 1.019287109375, -2.937500000000, 2.257812500000, -2.554687500000, 1492751207
0.092285156250, 0.191650390625, 1.019287109375, -2.937500000000, 2.257812500000, -2.554687500000, 1492751207
0.092285156250, 0.191650390625, 1.019287109375, -2.937500000000, 2.257812500000, -2.554687500000, 1492751207
0.077392578125, 0.117187500000, 1.084228515625, -1.093750000000, 6.085937500000, 0.585937500000, 1492751207
0.077392578125, 0.117187500000, 1.084228515625, -1.093750000000, 6.085937500000, 0.585937500000, 1492751207
0.077392578125, 0.117187500000, 1.084228515625, -1.093750000000, 6.085937500000, 0.585937500000, 1492751207
-0.018798828125, 0.211425781250, 1.063720703125, -2.804687500000, 2.773437500000, -0.507812500000, 1492751207
-0.018798828125, 0.211425781250, 1.063720703125, -2.804687500000, 2.773437500000, -0.507812500000, 1492751207
-0.018798828125, 0.211425781250, 1.063720703125, -2.804687500000, 2.773437500000, -0.507812500000, 1492751207
0.063964843750, 0.176269531250, 1.078613281250, -6.335937500000, 6.664062500000, 0.578125000000, 1492751207
-0.073730468750, 0.216552734375, 1.076416015625, -3.460937500000, 8.781250000000, -1.078125000000, 1492751207
-0.073730468750, 0.216552734375, 1.076416015625, -3.460937500000, 8.781250000000, -1.078125000000, 1492751207
-0.073730468750, 0.216552734375, 1.076416015625, -3.460937500000, 8.781250000000, -1.078125000000, 1492751207
-0.073730468750, 0.216552734375, 1.076416015625, -3.460937500000, 8.781250000000, -1.078125000000, 1492751207
0.030029296875, 0.255371093750, 1.067138671875, -9.250000000000, -2.140625000000, -1.320312500000, 1492751207
0.030029296875, 0.255371093750, 1.067138671875, -9.250000000000, -2.140625000000, -1.320312500000, 1492751207
0.030029296875, 0.255371093750, 1.067138671875, -9.250000000000, -2.140625000000, -1.320312500000, 1492751207
0.030029296875, 0.255371093750, 1.067138671875, -9.250000000000, -2.140625000000, -1.320312500000, 1492751207
0.030029296875, 0.255371093750, 1.067138671875, -9.250000000000, -2.140625000000, -1.320312500000, 1492751207
-0.015625000000, 0.316650390625, 1.074218750000, -16.804687500000, -8.023437500000, -3.351562500000, 1492751207
-0.015625000000, 0.316650390625, 1.074218750000, -16.804687500000, -8.023437500000, -3.351562500000, 1492751207
0.024414062500, 0.340576171875, 0.965576171875, -6.851562500000, -14.335937500000, 0.085937500000, 1492751208
0.024414062500, 0.340576171875, 0.965576171875, -6.851562500000, -14.335937500000, 0.085937500000, 1492751208
0.024414062500, 0.340576171875, 0.965576171875, -6.851562500000, -14.335937500000, 0.085937500000, 1492751208
0.014892578125, 0.095214843750, 1.030517578125, 2.390625000000, -4.828125000000, -1.921875000000, 1492751208
0.014892578125, 0.095214843750, 1.030517578125, 2.390625000000, -4.828125000000, -1.921875000000, 1492751208
0.014892578125, 0.095214843750, 1.030517578125, 2.390625000000, -4.828125000000, -1.921875000000, 1492751208
0.014892578125, 0.095214843750, 1.030517578125, 2.390625000000, -4.828125000000, -1.921875000000, 1492751208
0.014892578125, 0.095214843750, 1.030517578125, 2.390625000000, -4.828125000000, -1.921875000000, 1492751208
0.145996093750, 0.121093750000, 0.972412109375, 0.382812500000, -1.687500000000, -4.406250000000, 1492751208
0.145996093750, 0.121093750000, 0.972412109375, 0.382812500000, -1.687500000000, -4.406250000000, 1492751208
0.145996093750, 0.121093750000, 0.972412109375, 0.382812500000, -1.687500000000, -4.406250000000, 1492751208
0.036132812500, 0.194824218750, 1.012695312500, -3.218750000000, -2.703125000000, -6.468750000000, 1492751208
0.036132812500, 0.194824218750, 1.012695312500, -3.218750000000, -2.703125000000, -6.468750000000, 1492751208
0.036132812500, 0.194824218750, 1.012695312500, -3.218750000000, -2.703125000000, -6.468750000000, 1492751208
0.013427734375, 0.200683593750, 1.017578125000, 2.062500000000, 3.367187500000, -4.390625000000, 1492751208
0.013427734375, 0.200683593750, 1.017578125000, 2.062500000000, 3.367187500000, -4.390625000000, 1492751208
0.013427734375, 0.200683593750, 1.017578125000, 2.062500000000, 3.367187500000, -4.390625000000, 1492751208
-0.017822265625, 0.125488281250, 1.030517578125, 4.671875000000, 0.390625000000, 0.617187500000, 1492751208
-0.017822265625, 0.125488281250, 1.030517578125, 4.671875000000, 0.390625000000, 0.617187500000, 1492751208
-0.017822265625, 0.125488281250, 1.030517578125, 4.671875000000, 0.390625000000, 0.617187500000, 1492751208
-0.017822265625, 0.125488281250, 1.030517578125, 4.671875000000, 0.390625000000, 0.617187500000, 1492751208
-0.007812500000, 0.188232421875, 1.021484375000, 1.109375000000, -2.671875000000, -0.437500000000, 1492751208
-0.007812500000, 0.188232421875, 1.021484375000, 1.109375000000, -2.671875000000, -0.437500000000, 1492751208
-0.007812500000, 0.188232421875, 1.021484375000, 1.109375000000, -2.671875000000, -0.437500000000, 1492751208
-0.005615234375, 0.196777343750, 0.982177734375, -4.718750000000, -10.757812500000, -4.234375000000, 1492751208
-0.005615234375, 0.196777343750, 0.982177734375, -4.718750000000, -10.757812500000, -4.234375000000, 1492751208
-0.005615234375, 0.196777343750, 0.982177734375, -4.718750000000, -10.757812500000, -4.234375000000, 1492751208
-0.005615234375, 0.196777343750, 0.982177734375, -4.718750000000, -10.757812500000, -4.234375000000, 1492751208
-0.118408203125, 0.189208984375, 1.073486328125, -6.789062500000, -16.757812500000, -5.539062500000, 1492751208
0.034423828125, 0.203857421875, 1.001953125000, -5.414062500000, -6.843750000000, -5.375000000000, 1492751208
0.034423828125, 0.203857421875, 1.001953125000, -5.414062500000, -6.843750000000, -5.375000000000, 1492751208
0.034423828125, 0.203857421875, 1.001953125000, -5.414062500000, -6.843750000000, -5.375000000000, 1492751208
0.034423828125, 0.203857421875, 1.001953125000, -5.414062500000, -6.843750000000, -5.375000000000, 1492751208
0.034423828125, 0.203857421875, 1.001953125000, -5.414062500000, -6.843750000000, -5.375000000000, 1492751208
0.033203125000, 0.187744140625, 0.975585937500, -10.312500000000, 2.640625000000, -9.007812500000, 1492751208
0.033203125000, 0.187744140625, 0.975585937500, -10.312500000000, 2.640625000000, -9.007812500000, 1492751208
0.033203125000, 0.187744140625, 0.975585937500, -10.312500000000, 2.640625000000, -9.007812500000, 1492751208
0.090332031250, 0.255371093750, 0.998046875000, -8.179687500000, 2.765625000000, -6.859375000000, 1492751208
0.090332031250, 0.255371093750, 0.998046875000, -8.179687500000, 2.765625000000, -6.859375000000, 1492751208
0.090332031250, 0.255371093750, 0.998046875000, -8.179687500000, 2.765625000000, -6.859375000000, 1492751208
-0.012207031250, 0.176025390625, 0.913818359375, -6.125000000000, 1.539062500000, -8.718750000000, 1492751208
-0.012207031250, 0.176025390625, 0.913818359375, -6.125000000000, 1.539062500000, -8.718750000000, 1492751208
-0.012207031250, 0.176025390625, 0.913818359375, -6.125000000000, 1.539062500000, -8.718750000000, 1492751208
0.062988281250, 0.105712890625, 0.987060546875, -1.085937500000, -3.195312500000, -2.812500000000, 1492751208
0.062988281250, 0.105712890625, 0.987060546875, -1.085937500000, -3.195312500000, -2.812500000000, 1492751208
0.062988281250, 0.105712890625, 0.987060546875, -1.085937500000, -3.195312500000, -2.812500000000, 1492751208
0.062988281250, 0.105712890625, 0.987060546875, -1.085937500000, -3.195312500000, -2.812500000000, 1492751208
