ACC_X,ACC_Y,ACC_Z,G_X,G_Y,G_Z,Unix Time
-0.086425781250, 0.333984375000, 1.006103515625, -4.929687500000, 1.210937500000, -4.882812500000, 1492751141
-0.086425781250, 0.333984375000, 1.006103515625, -4.929687500000, 1.210937500000, -4.882812500000, 1492751142
-0.086425781250, 0.333984375000, 1.006103515625, -4.929687500000, 1.210937500000, -4.882812500000, 1492751142
-0.060058593750, 0.230224609375, 1.005615234375, -1.406250000000, -0.710937500000, -0.468750000000, 1492751142
-0.060058593750, 0.230224609375, 1.005615234375, -1.406250000000, -0.710937500000, -0.468750000000, 1492751142
-0.060058593750, 0.230224609375, 1.005615234375, -1.406250000000, -0.710937500000, -0.468750000000, 1492751142
-0.047607421875, 0.107910156250, 0.932128906250, -3.242187500000, -4.835937500000, -4.046875000000, 1492751142
-0.047607421875, 0.107910156250, 0.932128906250, -3.242187500000, -4.835937500000, -4.046875000000, 1492751142
-0.189208984375, 0.278808593750, 0.922119140625, -3.531250000000, 0.906250000000, -1.390625000000, 1492751142
-0.189208984375, 0.278808593750, 0.922119140625, -3.531250000000, 0.906250000000, -1.390625000000, 1492751142
-0.189208984375, 0.278808593750, 0.922119140625, -3.531250000000, 0.906250000000, -1.390625000000, 1492751142
-0.189208984375, 0.278808593750, 0.922119140625, -3.531250000000, 0.906250000000, -1.390625000000, 1492751142
-0.084716796875, 0.178222656250, 1.062988281250, -3.500000000000, 2.617187500000, -3.679687500000, 1492751142
-0.104980468750, 0.230224609375, 1.017333984375, -4.085937500000, -4.406250000000, -1.828125000000, 1492751142
-0.104980468750, 0.230224609375, 1.017333984375, -4.085937500000, -4.406250000000, -1.828125000000, 1492751142
-0.104980468750, 0.230224609375, 1.017333984375, -4.085937500000, -4.406250000000, -1.828125000000, 1492751142
-0.098876953125, 0.272705078125, 1.064941406250, -1.632812500000, 2.187500000000, -2.070312500000, 1492751142
-0.098876953125, 0.272705078125, 1.064941406250, -1.632812500000, 2.187500000000, -2.070312500000, 1492751142
-0.098876953125, 0.272705078125, 1.064941406250, -1.632812500000, 2.187500000000, -2.070312500000, 1492751142
-0.098876953125, 0.272705078125, 1.064941406250, -1.632812500000, 2.187500000000, -2.070312500000, 1492751142
-0.098876953125, 0.272705078125, 1.064941406250, -1.632812500000, 2.187500000000, -2.070312500000, 1492751142
-0.098876953125, 0.272705078125, 1.064941406250, -1.632812500000, 2.187500000000, -2.070312500000, 1492751142
-0.098876953125, 0.272705078125, 1.064941406250, -1.632812500000, 2.187500000000, -2.070312500000, 1492751142
-0.074218750000, 0.115478515625, 0.927001953125, -4.734375000000, 0.718750000000, 0.773437500000, 1492751142
-0.074218750000, 0.115478515625, 0.927001953125, -4.734375000000, 0.718750000000, 0.773437500000, 1492751142
-0.074218750000, 0.115478515625, 0.927001953125, -4.734375000000, 0.718750000000, 0.773437500000, 1492751142
-0.092773437500, 0.263183593750, 0.943603515625, -4.937500000000, -0.046875000000, -2.218750000000, 1492751142
-0.092773437500, 0.263183593750, 0.943603515625, -4.937500000000, -0.046875000000, -2.218750000000, 1492751142
-0.092773437500, 0.263183593750, 0.943603515625, -4.937500000000, -0.046875000000, -2.218750000000, 1492751142
-0.125488281250, 0.058593750000, 1.000732421875, -4.625000000000, -0.804687500000, -4.398437500000, 1492751142
-0.125488281250, 0.058593750000, 1.000732421875, -4.625000000000, -0.804687500000, -4.398437500000, 1492751142
-0.125488281250, 0.058593750000, 1.000732421875, -4.625000000000, -0.804687500000, -4.398437500000, 1492751142
-0.125488281250, 0.058593750000, 1.000732421875, -4.625000000000, -0.804687500000, -4.398437500000, 1492751142
-0.078857421875, 0.180419921875, 0.907470703125, -3.000000000000, -2.085937500000, -1.562500000000, 1492751142
-0.078857421875, 0.180419921875, 0.907470703125, -3.000000000000, -2.085937500000, -1.562500000000, 1492751142
-0.078857421875, 0.180419921875, 0.907470703125, -3.000000000000, -2.085937500000, -1.562500000000, 1492751142
0.028808593750, 0.222656250000, 1.069091796875, -1.789062500000, -2.343750000000, -1.171875000000, 1492751142
0.028808593750, 0.222656250000, 1.069091796875, -1.789062500000, -2.343750000000, -1.171875000000, 1492751142
0.028808593750, 0.222656250000, 1.069091796875, -1.789062500000, -2.343750000000, -1.171875000000, 1492751142
-0.054687500000, 0.241455078125, 0.923095703125, -3.343750000000, 1.476562500000, -3.453125000000, 1492751142
-0.054687500000, 0.241455078125, 0.923095703125, -3.343750000000, 1.476562500000, -3.453125000000, 1492751142
-0.054687500000, 0.241455078125, 0.923095703125, -3.343750000000, 1.476562500000, -3.453125000000, 1492751142
-0.145996093750, 0.253173828125, 1.007568359375, -6.109375000000, 4.468750000000, 0.015625000000, 1492751142
-0.145996093750, 0.253173828125, 1.007568359375, -6.109375000000, 4.468750000000, 0.015625000000, 1492751142
-0.145996093750, 0.253173828125, 1.007568359375, -6.109375000000, 4.468750000000, 0.015625000000, 1492751142
-0.145996093750, 0.253173828125, 1.007568359375, -6.109375000000, 4.468750000000, 0.015625000000, 1492751142
-0.142333984375, 0.197509765625, 0.980468750000, -6.125000000000, 1.828125000000, -1.546875000000, 1492751142
-0.142333984375, 0.197509765625, 0.980468750000, -6.125000000000, 1.828125000000, -1.546875000000, 1492751142
-0.142333984375, 0.197509765625, 0.980468750000, -6.125000000000, 1.828125000000, -1.546875000000, 1492751142
-0.057861328125, 0.192382812500, 0.998535156250, 0.187500000000, -2.007812500000, -2.531250000000, 1492751142
-0.057861328125, 0.192382812500, 0.998535156250, 0.187500000000, -2.007812500000, -2.531250000000, 1492751142
-0.057861328125, 0.192382812500, 0.998535156250, 0.187500000000, -2.007812500000, -2.531250000000, 1492751142
-0.057861328125, 0.192382812500, 0.998535156250, 0.187500000000, -2.007812500000, -2.531250000000, 1492751142
-0.057861328125, 0.192382812500, 0.998535156250, 0.187500000000, -2.007812500000, -2.531250000000, 1492751142
-0.137207031250, 0.198730468750, 1.001220703125, -4.570312500000, 2.546875000000, -4.804687500000, 1492751142
-0.137207031250, 0.198730468750, 1.001220703125, -4.570312500000, 2.546875000000, -4.804687500000, 1492751142
-0.137207031250, 0.198730468750, 1.001220703125, -4.570312500000, 2.546875000000, -4.804687500000, 1492751142
-0.137207031250, 0.198730468750, 1.001220703125, -4.570312500000, 2.546875000000, -4.804687500000, 1492751142
-0.096679687500, 0.209472656250, 1.026855468750, -1.601562500000, -1.046875000000, -3.539062500000, 1492751142
-0.096679687500, 0.209472656250, 1.026855468750, -1.601562500000, -1.046875000000, -3.539062500000, 1492751142
-0.096679687500, 0.209472656250, 1.026855468750, -1.601562500000, -1.046875000000, -3.539062500000, 1492751142
-0.041748046875, 0.204101562500, 1.024902343750, -1.632812500000, -2.484375000000, -3.085937500000, 1492751142
-0.041748046875, 0.204101562500, 1.024902343750, -1.632812500000, -2.484375000000, -3.085937500000, 1492751142
-0.041748046875, 0.204101562500, 1.024902343750, -1.632812500000, -2.484375000000, -3.085937500000, 1492751142
-0.041748046875, 0.204101562500, 1.024902343750, -1.632812500000, -2.484375000000, -3.085937500000, 1492751142
-0.092041015625, 0.276855468750, 1.012939453125, -3.007812500000, -1.875000000000, -4.593750000000, 1492751142
-0.092041015625, 0.276855468750, 1.012939453125, -3.007812500000, -1.875000000000, -4.593750000000, 1492751142
-0.092041015625, 0.276855468750, 1.012939453125, -3.007812500000, -1.875000000000, -4.593750000000, 1492751142
-0.119384765625, 0.201660156250, 1.008056640625, -1.796875000000, 0.375000000000, -4.429687500000, 1492751142
-0.119384765625, 0.201660156250, 1.008056640625, -1.796875000000, 0.375000000000, -4.429687500000, 1492751143
-0.119384765625, 0.201660156250, 1.008056640625, -1.796875000000, 0.375000000000, -4.429687500000, 1492751143
-0.119384765625, 0.201660156250, 1.008056640625, -1.796875000000, 0.375000000000, -4.429687500000, 1492751143
-0.051757812500, 0.182861328125, 0.977539062500, -3.554687500000, 2.757812500000, -3.546875000000, 1492751143
-0.051757812500, 0.182861328125, 0.977539062500, -3.554687500000, 2.757812500000, -3.546875000000, 1492751143
-0.051757812500, 0.182861328125, 0.977539062500, -3.554687500000, 2.757812500000, -3.546875000000, 1492751143
-0.093017578125, 0.259033203125, 0.978759765625, -3.164062500000, 0.195312500000, -3.156250000000, 1492751143
-0.093017578125, 0.259033203125, 0.978759765625, -3.164062500000, 0.195312500000, -3.156250000000, 1492751143
-0.093017578125, 0.259033203125, 0.978759765625, -3.164062500000, 0.195312500000, -3.156250000000, 1492751143
-0.092285156250, 0.212402343750, 1.005615234375, -3.031250000000, -2.484375000000, -1.976562500000, 1492751143
-0.092285156250, 0.212402343750, 1.005615234375, -3.031250000000, -2.484375000000, -1.976562500000, 1492751143
-0.092285156250, 0.212402343750, 1.005615234375, -3.031250000000, -2.484375000000, -1.976562500000, 1492751143
-0.042968750000, 0.124267578125, 1.023193359375, -4.046875000000, -0.304687500000, -2.406250000000, 1492751143
-0.042968750000, 0.124267578125, 1.023193359375, -4.046875000000, -0.304687500000, -2.406250000000, 1492751143
-0.042968750000, 0.124267578125, 1.023193359375, -4.046875000000, -0.304687500000, -2.406250000000, 1492751143
-0.042968750000, 0.124267578125, 1.023193359375, -4.046875000000, -0.304687500000, -2.406250000000, 1492751143
-0.146972656250, 0.169677734375, 0.983398437500, -4.070312500000, 0.679687500000, -2.742187500000, 1492751143
-0.146972656250, 0.169677734375, 0.983398437500, -4.070312500000, 0.679687500000, -2.742187500000, 1492751143
-0.146972656250, 0.169677734375, 0.983398437500, -4.070312500000, 0.679687500000, -2.742187500000, 1492751143
-0.146972656250, 0.169677734375, 0.983398437500, -4.070312500000, 0.679687500000, -2.742187500000, 1492751143
-0.146972656250, 0.169677734375, 0.983398437500, -4.070312500000, 0.679687500000, -2.742187500000, 1492751143
-0.025390625000, 0.256835937500, 1.012939453125, -3.351562500000, 2.828125000000, -2.046875000000, 1492751143
-0.025390625000, 0.256835937500, 1.012939453125, -3.351562500000, 2.828125000000, -2.046875000000, 1492751143
-0.025390625000, 0.256835937500, 1.012939453125, -3.351562500000, 2.828125000000, -2.046875000000, 1492751143
-0.025390625000, 0.256835937500, 1.012939453125, -3.437500000000, 1.585937500000, -1.617187500000, 1492751143
-0.117919921875, 0.213867187500, 0.995849609375, -4.750000000000, 2.906250000000, 0.273437500000, 1492751143
-0.117919921875, 0.213867187500, 0.995849609375, -4.750000000000, 2.906250000000, 0.273437500000, 1492751143
-0.117919921875, 0.213867187500, 0.995849609375, -4.750000000000, 2.906250000000, 0.273437500000, 1492751143
-0.117919921875, 0.213867187500, 0.995849609375, -4.750000000000, 2.906250000000, 0.273437500000, 1492751143
-0.104492187500, 0.196044921875, 0.969970703125, -3.437500000000, 0.781250000000, -4.281250000000, 1492751143
-0.104492187500, 0.196044921875, 0.969970703125, -3.437500000000, 0.781250000000, -4.281250000000, 1492751143
-0.104492187500, 0.196044921875, 0.969970703125, -3.437500000000, 0.781250000000, -4.281250000000, 1492751143
-0.087646484375, 0.256103515625, 1.000488281250, -1.289062500000, -3.484375000000, -4.695312500000, 1492751143
-0.087646484375, 0.256103515625, 1.000488281250, -1.289062500000, -3.484375000000, -4.695312500000, 1492751143
-0.087646484375, 0.256103515625, 1.000488281250, -1.289062500000, -3.484375000000, -4.695312500000, 1492751143
-0.140869140625, 0.164550781250, 1.029296875000, -2.367187500000, 0.476562500000, -2.757812500000, 1492751143
-0.140869140625, 0.164550781250, 1.029296875000, -2.367187500000, 0.476562500000, -2.757812500000, 1492751143
-0.140869140625, 0.164550781250, 1.029296875000, -2.367187500000, 0.476562500000, -2.757812500000, 1492751143
-0.047851562500, 0.191406250000, 1.005371093750, -1.656250000000, 2.273437500000, -2.070312500000, 1492751143
-0.047851562500, 0.191406250000, 1.005371093750, -1.656250000000, 2.273437500000, -2.070312500000, 1492751143
-0.047851562500, 0.191406250000, 1.005371093750, -1.656250000000, 2.273437500000, -2.070312500000, 1492751143
-0.047851562500, 0.191406250000, 1.005371093750, -1.656250000000, 2.273437500000, -2.070312500000, 1492751143
-0.049560546875, 0.105224609375, 0.980468750000, 0.195312500000, -4.640625000000, 0.289062500000, 1492751143
-0.049560546875, 0.105224609375, 0.980468750000, 0.195312500000, -4.640625000000, 0.289062500000, 1492751143
-0.049560546875, 0.105224609375, 0.980468750000, 0.195312500000, -4.640625000000, 0.289062500000, 1492751143
-0.052490234375, 0.236816406250, 1.080810546875, -2.906250000000, 0.843750000000, 2.179687500000, 1492751143
-0.052490234375, 0.236816406250, 1.080810546875, -2.906250000000, 0.843750000000, 2.179687500000, 1492751143
-0.052490234375, 0.236816406250, 1.080810546875, -2.906250000000, 0.843750000000, 2.179687500000, 1492751143
-0.083007812500, 0.217285156250, 0.924560546875, -1.421875000000, -1.804687500000, -2.601562500000, 1492751143
-0.083007812500, 0.217285156250, 0.924560546875, -1.421875000000, -1.804687500000, -2.601562500000, 1492751143
-0.083007812500, 0.217285156250, 0.924560546875, -1.421875000000, -1.804687500000, -2.601562500000, 1492751143
0.004150390625, 0.143554687500, 0.989990234375, -4.335937500000, 2.296875000000, -2.226562500000, 1492751143
0.004150390625, 0.143554687500, 0.989990234375, -4.335937500000, 2.296875000000, -2.226562500000, 1492751143
0.004150390625, 0.143554687500, 0.989990234375, -4.335937500000, 2.296875000000, -2.226562500000, 1492751143
0.004150390625, 0.143554687500, 0.989990234375, -4.335937500000, 2.296875000000, -2.226562500000, 1492751143
-0.053222656250, 0.173583984375, 0.919677734375, -4.101562500000, 0.468750000000, 0.562500000000, 1492751143
-0.053222656250, 0.173583984375, 0.919677734375, -4.101562500000, 0.468750000000, 0.562500000000, 1492751143
-0.053222656250, 0.173583984375, 0.919677734375, -4.101562500000, 0.468750000000, 0.562500000000, 1492751143
0.009277343750, 0.203857421875, 1.015625000000, -1.593750000000, 4.101562500000, -3.125000000000, 1492751143
0.009277343750, 0.203857421875, 1.015625000000, -1.593750000000, 4.101562500000, -3.125000000000, 1492751143
0.009277343750, 0.203857421875, 1.015625000000, -1.593750000000, 4.101562500000, -3.125000000000, 1492751143
-0.080810546875, 0.192382812500, 1.008789062500, -2.578125000000, -2.640625000000, -2.351562500000, 1492751143
-0.080810546875, 0.192382812500, 1.008789062500, -2.578125000000, -2.640625000000, -2.351562500000, 1492751143
-0.080810546875, 0.192382812500, 1.008789062500, -2.578125000000, -2.640625000000, -2.351562500000, 1492751143
-0.037353515625, 0.183349609375, 0.928222656250, -4.140625000000, -2.343750000000, -1.929687500000, 1492751143
-0.037353515625, 0.183349609375, 0.928222656250, -4.140625000000, -2.343750000000, -1.929687500000, 1492751143
-0.037353515625, 0.183349609375, 0.928222656250, -4.140625000000, -2.343750000000, -1.929687500000, 1492751143
-0.037353515625, 0.183349609375, 0.928222656250, -4.140625000000, -2.343750000000, -1.929687500000, 1492751143
-0.052246093750, 0.277587890625, 1.063476562500, -4.273437500000, 1.398437500000, -1.617187500000, 1492751144
-0.052246093750, 0.277587890625, 1.063476562500, -4.273437500000, 1.398437500000, -1.617187500000, 1492751144
-0.052246093750, 0.277587890625, 1.063476562500, -4.273437500000, 1.398437500000, -1.617187500000, 1492751144
-0.104980468750, 0.187500000000, 0.975585937500, -3.265625000000, 2.585937500000, -2.304687500000, 1492751144
-0.104980468750, 0.187500000000, 0.975585937500, -3.265625000000, 2.585937500000, -2.304687500000, 1492751144
-0.104980468750, 0.187500000000, 0.975585937500, -3.265625000000, 2.585937500000, -2.304687500000, 1492751144
-0.091308593750, 0.239746093750, 1.064697265625, -1.125000000000, 0.664062500000, -1.273437500000, 1492751144
-0.091308593750, 0.239746093750, 1.064697265625, -1.125000000000, 0.664062500000, -1.273437500000, 1492751144
-0.091308593750, 0.239746093750, 1.064697265625, -1.125000000000, 0.664062500000, -1.273437500000, 1492751144
-0.100585937500, 0.270751953125, 0.975830078125, -1.250000000000, 1.203125000000, 0.265625000000, 1492751144
-0.100585937500, 0.270751953125, 0.975830078125, -1.250000000000, 1.203125000000, 0.265625000000, 1492751144
-0.100585937500, 0.270751953125, 0.975830078125, -1.250000000000, 1.203125000000, 0.265625000000, 1492751144
-0.100585937500, 0.270751953125, 0.975830078125, -1.250000000000, 1.203125000000, 0.265625000000, 1492751144
0.006591796875, 0.278320312500, 0.924072265625, -5.218750000000, 8.445312500000, -0.460937500000, 1492751144
0.006591796875, 0.278320312500, 0.924072265625, -5.218750000000, 8.445312500000, -0.460937500000, 1492751144
0.006591796875, 0.278320312500, 0.924072265625, -5.218750000000, 8.445312500000, -0.460937500000, 1492751144
-0.079833984375, 0.115234375000, 0.997558593750, 0.351562500000, 1.750000000000, -2.867187500000, 1492751144
-0.079833984375, 0.115234375000, 0.997558593750, 0.351562500000, 1.750000000000, -2.867187500000, 1492751144
-0.079833984375, 0.115234375000, 0.997558593750, 0.351562500000, 1.750000000000, -2.867187500000, 1492751144
-0.179199218750, 0.124511718750, 1.070312500000, -2.570312500000, 4.390625000000, -1.234375000000, 1492751144
-0.088623046875, 0.163330078125, 0.979736328125, -3.507812500000, 2.468750000000, -2.890625000000, 1492751144
-0.088623046875, 0.163330078125, 0.979736328125, -3.507812500000, 2.468750000000, -2.890625000000, 1492751144
-0.088623046875, 0.163330078125, 0.979736328125, -3.507812500000, 2.468750000000, -2.890625000000, 1492751144
-0.088623046875, 0.163330078125, 0.979736328125, -3.507812500000, 2.468750000000, -2.890625000000, 1492751144
-0.088623046875, 0.163330078125, 0.979736328125, -3.507812500000, 2.468750000000, -2.890625000000, 1492751144
-0.038818359375, 0.055175781250, 1.093505859375, -10.632812500000, 5.054687500000, -1.781250000000, 1492751144
-0.038818359375, 0.055175781250, 1.093505859375, -10.632812500000, 5.054687500000, -1.781250000000, 1492751144
-0.038818359375, 0.055175781250, 1.093505859375, -10.632812500000, 5.054687500000, -1.781250000000, 1492751144
-0.038818359375, 0.055175781250, 1.093505859375, -10.632812500000, 5.054687500000, -1.781250000000, 1492751144
-0.148925781250, 0.115966796875, 1.019531250000, -9.484375000000, 3.804687500000, 2.617187500000, 1492751144
-0.148925781250, 0.115966796875, 1.019531250000, -9.484375000000, 3.804687500000, 2.617187500000, 1492751144
-0.148925781250, 0.115966796875, 1.019531250000, -9.484375000000, 3.804687500000, 2.617187500000, 1492751144
-0.115966796875, 0.233398437500, 0.934082031250, -14.695312500000, 7.773437500000, 4.546875000000, 1492751144
0.020263671875, 0.163574218750, 1.079589843750, -5.750000000000, 1.109375000000, -2.554687500000, 1492751144
-0.081542968750, 0.271728515625, 0.975830078125, -5.750000000000, 1.109375000000, -2.554687500000, 1492751144
-0.081542968750, 0.271728515625, 0.975830078125, -5.750000000000, 1.109375000000, -2.554687500000, 1492751144
-0.081542968750, 0.271728515625, 0.975830078125, -5.750000000000, 1.109375000000, -2.554687500000, 1492751144
-0.036865234375, 0.219482421875, 0.967041015625, -3.664062500000, 4.265625000000, -3.656250000000, 1492751144
-0.051513671875, 0.187255859375, 0.935058593750, -5.757812500000, 6.445312500000, -4.257812500000, 1492751144
-0.051513671875, 0.187255859375, 0.935058593750, -5.757812500000, 6.445312500000, -4.257812500000, 1492751144
-0.051513671875, 0.187255859375, 0.935058593750, -5.757812500000, 6.445312500000, -4.257812500000, 1492751144
-0.051513671875, 0.187255859375, 0.935058593750, -5.757812500000, 6.445312500000, -4.257812500000, 1492751144
-0.130371093750, 0.234375000000, 0.997558593750, -4.367187500000, 2.546875000000, -1.398437500000, 1492751144
-0.130371093750, 0.234375000000, 0.997558593750, -4.367187500000, 2.546875000000, -1.398437500000, 1492751144
-0.130371093750, 0.234375000000, 0.997558593750, -4.367187500000, 2.546875000000, -1.398437500000, 1492751144
-0.155517578125, 0.256835937500, 0.984863281250, -1.640625000000, -0.968750000000, -1.414062500000, 1492751144
-0.155517578125, 0.256835937500, 0.984863281250, -1.640625000000, -0.968750000000, -1.414062500000, 1492751144
-0.155517578125, 0.256835937500, 0.984863281250, -1.640625000000, -0.968750000000, -1.414062500000, 1492751144
-0.189941406250, 0.261230468750, 0.983642578125, -1.812500000000, 1.679687500000, -2.523437500000, 1492751144
-0.189941406250, 0.261230468750, 0.983642578125, -1.812500000000, 1.679687500000, -2.523437500000, 1492751144
-0.189941406250, 0.261230468750, 0.983642578125, -1.812500000000, 1.679687500000, -2.523437500000, 1492751144
-0.189941406250, 0.261230468750, 0.983642578125, -1.812500000000, 1.679687500000, -2.523437500000, 1492751144
-0.052490234375, 0.203613281250, 1.028564453125, -3.796875000000, 4.226562500000, -1.156250000000, 1492751144
-0.052490234375, 0.203613281250, 1.028564453125, -3.796875000000, 4.226562500000, -1.156250000000, 1492751144
-0.052490234375, 0.203613281250, 1.028564453125, -3.796875000000, 4.226562500000, -1.156250000000, 1492751144
-0.147949218750, 0.240234375000, 1.013671875000, -6.460937500000, 2.429687500000, -1.398437500000, 1492751144
-0.147949218750, 0.240234375000, 1.013671875000, -6.460937500000, 2.429687500000, -1.398437500000, 1492751144
-0.147949218750, 0.240234375000, 1.013671875000, -6.460937500000, 2.429687500000, -1.398437500000, 1492751144
-0.080566406250, 0.235351562500, 0.996337890625, -5.773437500000, 7.953125000000, -2.843750000000, 1492751144
-0.080566406250, 0.235351562500, 0.996337890625, -5.773437500000, 7.953125000000, -2.843750000000, 1492751144
-0.080566406250, 0.235351562500, 0.996337890625, -5.773437500000, 7.953125000000, -2.843750000000, 1492751144
-0.090820312500, 0.325195312500, 1.015869140625, -8.359375000000, 9.984375000000, -2.953125000000, 1492751144
-0.090820312500, 0.325195312500, 1.015869140625, -8.359375000000, 9.984375000000, -2.953125000000, 1492751144
-0.090820312500, 0.325195312500, 1.015869140625, -8.359375000000, 9.984375000000, -2.953125000000, 1492751144
-0.090820312500, 0.325195312500, 1.015869140625, -8.359375000000, 9.984375000000, -2.953125000000, 1492751144
-0.057128906250, 0.271728515625, 1.004638671875, -7.085937500000, 6.804687500000, 0.953125000000, 1492751144
-0.057128906250, 0.271728515625, 1.004638671875, -7.085937500000, 6.804687500000, 0.953125000000, 1492751145
-0.057128906250, 0.271728515625, 1.004638671875, -7.085937500000, 6.804687500000, 0.953125000000, 1492751145
-0.147216796875, 0.264160156250, 1.011962890625, -10.156250000000, 4.695312500000, -1.828125000000, 1492751145
-0.147216796875, 0.264160156250, 1.011962890625, -10.156250000000, 4.695312500000, -1.828125000000, 1492751145
-0.147216796875, 0.264160156250, 1.011962890625, -10.156250000000, 4.695312500000, -1.828125000000, 1492751145
-0.038330078125, 0.314208984375, 0.910644531250, -5.078125000000, 1.890625000000, -2.421875000000, 1492751145
-0.038330078125, 0.314208984375, 0.910644531250, -5.078125000000, 1.890625000000, -2.421875000000, 1492751145
-0.159667968750, 0.114501953125, 0.991210937500, -3.203125000000, -0.375000000000, -4.804687500000, 1492751145
-0.159667968750, 0.114501953125, 0.991210937500, -3.203125000000, -0.375000000000, -4.804687500000, 1492751145
-0.159667968750, 0.114501953125, 0.991210937500, -3.203125000000, -0.375000000000, -4.804687500000, 1492751145
-0.159667968750, 0.114501953125, 0.991210937500, -3.203125000000, -0.375000000000, -4.804687500000, 1492751145
-0.159667968750, 0.114501953125, 0.991210937500, -3.203125000000, -0.375000000000, -4.804687500000, 1492751145
-0.123291015625, 0.257568359375, 1.030517578125, -3.242187500000, 0.812500000000, -3.179687500000, 1492751145
-0.123291015625, 0.257568359375, 1.030517578125, -3.242187500000, 0.812500000000, -3.179687500000, 1492751145
-0.123291015625, 0.257568359375, 1.030517578125, -3.242187500000, 0.812500000000, -3.179687500000, 1492751145
-0.143798828125, 0.183105468750, 0.917480468750, -3.007812500000, 2.281250000000, -4.421875000000, 1492751145
-0.143798828125, 0.183105468750, 0.917480468750, -3.007812500000, 2.281250000000, -4.421875000000, 1492751145
-0.143798828125, 0.183105468750, 0.917480468750, -3.007812500000, 2.281250000000, -4.421875000000, 1492751145
-0.152832031250, 0.248779296875, 0.917968750000, -3.250000000000, -0.039062500000, -2.492187500000, 1492751145
-0.152832031250, 0.248779296875, 0.917968750000, -3.250000000000, -0.039062500000, -2.492187500000, 1492751145
-0.152832031250, 0.248779296875, 0.917968750000, -3.250000000000, -0.039062500000, -2.492187500000, 1492751145
-0.172363281250, 0.184814453125, 0.962890625000, -4.507812500000, -2.234375000000, -1.906250000000, 1492751145
-0.172363281250, 0.184814453125, 0.962890625000, -4.507812500000, -2.234375000000, -1.906250000000, 1492751145
-0.172363281250, 0.184814453125, 0.962890625000, -4.507812500000, -2.234375000000, -1.906250000000, 1492751145
-0.172363281250, 0.184814453125, 0.962890625000, -4.507812500000, -2.234375000000, -1.906250000000, 1492751145
-0.187744140625, 0.253662109375, 1.029296875000, -1.875000000000, 2.843750000000, -1.382812500000, 1492751145
-0.187744140625, 0.253662109375, 1.029296875000, -1.875000000000, 2.843750000000, -1.382812500000, 1492751145
-0.187744140625, 0.253662109375, 1.029296875000, -1.875000000000, 2.843750000000, -1.382812500000, 1492751145
-0.149414062500, 0.112060546875, 1.009033203125, -2.843750000000, -0.757812500000, -0.632812500000, 1492751145
-0.149414062500, 0.112060546875, 1.009033203125, -2.843750000000, -0.757812500000, -0.632812500000, 1492751145
-0.149414062500, 0.112060546875, 1.009033203125, -2.843750000000, -0.757812500000, -0.632812500000, 1492751145
-0.164062500000, 0.190917968750, 1.078125000000, -4.234375000000, 3.156250000000, -0.046875000000, 1492751145
-0.164062500000, 0.190917968750, 1.078125000000, -4.234375000000, 3.156250000000, -0.046875000000, 1492751145
-0.106933593750, -0.008544921875, 1.042236328125, -21.437500000000, 18.921875000000, 2.898437500000, 1492751145
-0.106933593750, -0.008544921875, 1.042236328125, -21.437500000000, 18.921875000000, 2.898437500000, 1492751145
-0.039794921875, 0.454589843750, 0.927978515625, -53.500000000000, 19.437500000000, -7.109375000000, 1492751145
-0.039794921875, 0.454589843750, 0.927978515625, -53.500000000000, 19.437500000000, -7.109375000000, 1492751145
-0.039794921875, 0.454589843750, 0.927978515625, -53.500000000000, 19.437500000000, -7.109375000000, 1492751145
-0.039794921875, 0.454589843750, 0.927978515625, -53.500000000000, 19.437500000000, -7.109375000000, 1492751145
-0.044189453125, 0.513671875000, 0.919189453125, -11.007812500000, 6.679687500000, -0.234375000000, 1492751145
-0.044189453125, 0.513671875000, 0.919189453125, -11.007812500000, 6.679687500000, -0.234375000000, 1492751145
-0.044189453125, 0.513671875000, 0.919189453125, -11.007812500000, 6.679687500000, -0.234375000000, 1492751145
-0.044189453125, 0.513671875000, 0.919189453125, -11.007812500000, 6.679687500000, -0.234375000000, 1492751145
-0.044189453125, 0.513671875000, 0.919189453125, -11.007812500000, 6.679687500000, -0.234375000000, 1492751145
-0.095703125000, 0.383300781250, 0.928466796875, -7.507812500000, 15.046875000000, -3.695312500000, 1492751145
-0.095703125000, 0.383300781250, 0.928466796875, -7.507812500000, 15.046875000000, -3.695312500000, 1492751145
-0.095703125000, 0.383300781250, 0.928466796875, -7.507812500000, 15.046875000000, -3.695312500000, 1492751145
-0.158935546875, 0.245605468750, 0.861328125000, 3.421875000000, 12.937500000000, -2.687500000000, 1492751145
-0.158935546875, 0.245605468750, 0.861328125000, 3.421875000000, 12.937500000000, -2.687500000000, 1492751145
-0.158935546875, 0.245605468750, 0.861328125000, 3.421875000000, 12.937500000000, -2.687500000000, 1492751145
-0.158935546875, 0.245605468750, 0.861328125000, 3.421875000000, 12.937500000000, -2.687500000000, 1492751145
-0.199707031250, 0.293457031250, 0.951904296875, 5.617187500000, 13.085937500000, -2.335937500000, 1492751145
-0.199707031250, 0.293457031250, 0.951904296875, 5.617187500000, 13.085937500000, -2.335937500000, 1492751145
-0.199707031250, 0.293457031250, 0.951904296875, 5.617187500000, 13.085937500000, -2.335937500000, 1492751145
-0.270507812500, 0.354003906250, 0.955810546875, 25.460937500000, 7.359375000000, -2.296875000000, 1492751145
-0.270507812500, 0.354003906250, 0.955810546875, 25.460937500000, 7.359375000000, -2.296875000000, 1492751145
-0.270507812500, 0.354003906250, 0.955810546875, 25.460937500000, 7.359375000000, -2.296875000000, 1492751145
-0.215576171875, 0.369140625000, 0.864257812500, 37.593750000000, 6.828125000000, 2.351562500000, 1492751145
-0.215576171875, 0.369140625000, 0.864257812500, 37.593750000000, 6.828125000000, 2.351562500000, 1492751145
-0.215576171875, 0.369140625000, 0.864257812500, 37.593750000000, 6.828125000000, 2.351562500000, 1492751145
-0.184814453125, 0.301513671875, 0.986328125000, 51.500000000000, 14.296875000000, 5.328125000000, 1492751145
-0.184814453125, 0.301513671875, 0.986328125000, 51.500000000000, 14.296875000000, 5.328125000000, 1492751145
-0.184814453125, 0.301513671875, 0.986328125000, 51.500000000000, 14.296875000000, 5.328125000000, 1492751145
-0.184814453125, 0.301513671875, 0.986328125000, 51.500000000000, 14.296875000000, 5.328125000000, 1492751145
-0.239013671875, 0.243164062500, 1.095947265625, 62.585937500000, -7.484375000000, 14.085937500000, 1492751145
-0.239013671875, 0.243164062500, 1.095947265625, 62.585937500000, -7.484375000000, 14.085937500000, 1492751145
-0.239013671875, 0.243164062500, 1.095947265625, 62.585937500000, -7.484375000000, 14.085937500000, 1492751145
0.009521484375, 0.197265625000, 1.079101562500, 71.023437500000, -21.250000000000, 11.445312500000, 1492751146
0.009521484375, 0.197265625000, 1.079101562500, 71.023437500000, -21.250000000000, 11.445312500000, 1492751146
0.009521484375, 0.197265625000, 1.079101562500, 71.023437500000, -21.250000000000, 11.445312500000, 1492751146
-0.206298828125, -0.027099609375, 1.136474609375, 81.140625000000, 22.843750000000, 18.757812500000, 1492751146
-0.206298828125, -0.027099609375, 1.136474609375, 81.140625000000, 22.843750000000, 18.757812500000, 1492751146
-0.206298828125, -0.027099609375, 1.136474609375, 81.140625000000, 22.843750000000, 18.757812500000, 1492751146
-0.318115234375, -0.039550781250, 0.934326171875, 60.343750000000, -5.101562500000, 26.703125000000, 1492751146
-0.318115234375, -0.039550781250, 0.934326171875, 60.343750000000, -5.101562500000, 26.703125000000, 1492751146
-0.318115234375, -0.039550781250, 0.934326171875, 60.343750000000, -5.101562500000, 26.703125000000, 1492751146
-0.166259765625, -0.259033203125, 0.932861328125, 39.656250000000, 15.000000000000, 20.304687500000, 1492751146
-0.262939453125, -0.317382812500, 0.911376953125, 39.656250000000, 15.000000000000, 20.304687500000, 1492751146
-0.262939453125, -0.317382812500, 0.911376953125, 39.656250000000, 15.000000000000, 20.304687500000, 1492751146
-0.379150390625, -0.257080078125, 0.896240234375, 35.507812500000, 31.242187500000, 11.953125000000, 1492751146
-0.379150390625, -0.257080078125, 0.896240234375, 35.507812500000, 31.242187500000, 11.953125000000, 1492751146
-0.379150390625, -0.257080078125, 0.896240234375, 35.507812500000, 31.242187500000, 11.953125000000, 1492751146
-0.379150390625, -0.257080078125, 0.896240234375, 35.507812500000, 31.242187500000, 11.953125000000, 1492751146
-0.176025390625, -0.188964843750, 0.888427734375, 35.445312500000, -28.453125000000, -4.734375000000, 1492751146
-0.176025390625, -0.188964843750, 0.888427734375, 35.445312500000, -28.453125000000, -4.734375000000, 1492751146
-0.176025390625, -0.188964843750, 0.888427734375, 35.445312500000, -28.453125000000, -4.734375000000, 1492751146
-0.109375000000, -0.285400390625, 1.015869140625, -1.890625000000, 13.445312500000, 2.867187500000, 1492751146
-0.109375000000, -0.285400390625, 1.015869140625, -1.890625000000, 13.445312500000, 2.867187500000, 1492751146
-0.109375000000, -0.285400390625, 1.015869140625, -1.890625000000, 13.445312500000, 2.867187500000, 1492751146
-0.109375000000, -0.285400390625, 1.015869140625, -1.890625000000, 13.445312500000, 2.867187500000, 1492751146
-0.173828125000, -0.329833984375, 0.917724609375, -2.476562500000, 18.312500000000, -8.617187500000, 1492751146
-0.287353515625, -0.241943359375, 1.091796875000, 1.703125000000, 26.195312500000, -10.296875000000, 1492751146
-0.287353515625, -0.241943359375, 1.091796875000, 1.703125000000, 26.195312500000, -10.296875000000, 1492751146
-0.287353515625, -0.241943359375, 1.091796875000, 1.703125000000, 26.195312500000, -10.296875000000, 1492751146
-0.287353515625, -0.241943359375, 1.091796875000, 1.703125000000, 26.195312500000, -10.296875000000, 1492751146
-0.111572265625, -0.123779296875, 0.919433593750, 16.539062500000, 8.976562500000, -10.078125000000, 1492751146
-0.125976562500, -0.074707031250, 0.968505859375, 21.078125000000, 7.328125000000, -5.929687500000, 1492751146
-0.125976562500, -0.074707031250, 0.968505859375, 21.078125000000, 7.328125000000, -5.929687500000, 1492751146
-0.125976562500, -0.074707031250, 0.968505859375, 21.078125000000, 7.328125000000, -5.929687500000, 1492751146
-0.257568359375, -0.159912109375, 0.923095703125, 52.914062500000, 22.757812500000, -4.132812500000, 1492751146
-0.165039062500, -0.183837890625, 0.980712890625, 45.742187500000, 31.632812500000, -10.765625000000, 1492751146
-0.165039062500, -0.183837890625, 0.980712890625, 45.742187500000, 31.632812500000, -10.765625000000, 1492751146
-0.165039062500, -0.183837890625, 0.980712890625, 45.742187500000, 31.632812500000, -10.765625000000, 1492751146
-0.284423828125, -0.201416015625, 0.949462890625, 57.375000000000, 29.468750000000, -4.742187500000, 1492751146
-0.284423828125, -0.201416015625, 0.949462890625, 57.375000000000, 29.468750000000, -4.742187500000, 1492751146
-0.284423828125, -0.201416015625, 0.949462890625, 57.375000000000, 29.468750000000, -4.742187500000, 1492751146
-0.284423828125, -0.201416015625, 0.949462890625, 57.375000000000, 29.468750000000, -4.742187500000, 1492751146
-0.284423828125, -0.201416015625, 0.949462890625, 57.375000000000, 29.468750000000, -4.742187500000, 1492751146
-0.284423828125, -0.201416015625, 0.949462890625, 57.375000000000, 29.468750000000, -4.742187500000, 1492751146
-0.427978515625, -0.306640625000, 1.038330078125, 47.500000000000, 1.750000000000, 0.101562500000, 1492751146
-0.427978515625, -0.306640625000, 1.038330078125, 47.500000000000, 1.750000000000, 0.101562500000, 1492751146
-0.427978515625, -0.306640625000, 1.038330078125, 47.500000000000, 1.750000000000, 0.101562500000, 1492751146
-0.249267578125, -0.442382812500, 0.870605468750, 62.351562500000, 28.546875000000, -1.593750000000, 1492751146
-0.249267578125, -0.442382812500, 0.870605468750, 62.351562500000, 28.546875000000, -1.593750000000, 1492751146
-0.249267578125, -0.442382812500, 0.870605468750, 62.351562500000, 28.546875000000, -1.593750000000, 1492751146
-0.249267578125, -0.442382812500, 0.870605468750, 62.351562500000, 28.546875000000, -1.593750000000, 1492751146
-0.249267578125, -0.442382812500, 0.870605468750, 62.351562500000, 28.546875000000, -1.593750000000, 1492751146
-0.376953125000, -0.353027343750, 0.903808593750, 34.000000000000, 37.265625000000, -6.398437500000, 1492751146
-0.376953125000, -0.353027343750, 0.903808593750, 34.000000000000, 37.265625000000, -6.398437500000, 1492751146
-0.376953125000, -0.353027343750, 0.903808593750, 34.000000000000, 37.265625000000, -6.398437500000, 1492751146
-0.376953125000, -0.353027343750, 0.903808593750, 34.000000000000, 37.265625000000, -6.398437500000, 1492751146
-0.376953125000, -0.353027343750, 0.903808593750, 34.000000000000, 37.265625000000, -6.398437500000, 1492751146
-0.286132812500, -0.565185546875, 0.816406250000, 63.726562500000, 57.742187500000, -5.296875000000, 1492751146
-0.286132812500, -0.565185546875, 0.816406250000, 63.726562500000, 57.742187500000, -5.296875000000, 1492751146
-0.288330078125, -0.434082031250, 0.714843750000, 80.351562500000, 25.632812500000, -6.242187500000, 1492751146
-0.288330078125, -0.434082031250, 0.714843750000, 80.351562500000, 25.632812500000, -6.242187500000, 1492751146
-0.288330078125, -0.434082031250, 0.714843750000, 80.351562500000, 25.632812500000, -6.242187500000, 1492751146
-0.288330078125, -0.434082031250, 0.714843750000, 80.351562500000, 25.632812500000, -6.242187500000, 1492751146
-0.288330078125, -0.434082031250, 0.714843750000, 80.351562500000, 25.632812500000, -6.242187500000, 1492751146
-0.361816406250, -0.760986328125, 0.723144531250, 39.625000000000, 64.562500000000, -4.429687500000, 1492751146
-0.361816406250, -0.760986328125, 0.723144531250, 39.625000000000, 64.562500000000, -4.429687500000, 1492751146
-0.361816406250, -0.760986328125, 0.723144531250, 39.625000000000, 64.562500000000, -4.429687500000, 1492751146
-0.338134765625, -0.705078125000, 0.486083984375, 83.992187500000, 39.742187500000, 14.929687500000, 1492751146
-0.338134765625, -0.705078125000, 0.486083984375, 83.992187500000, 39.742187500000, 14.929687500000, 1492751147
-0.338134765625, -0.705078125000, 0.486083984375, 83.992187500000, 39.742187500000, 14.929687500000, 1492751147
-0.757568359375, -0.614013671875, 0.747802734375, 14.117187500000, 91.664062500000, -22.156250000000, 1492751147
-0.757568359375, -0.614013671875, 0.747802734375, 14.117187500000, 91.664062500000, -22.156250000000, 1492751147
-0.633300781250, -0.620361328125, 0.354003906250, 33.992187500000, 41.953125000000, 1.046875000000, 1492751147
-0.633300781250, -0.620361328125, 0.354003906250, 33.992187500000, 41.953125000000, 1.046875000000, 1492751147
-0.633300781250, -0.620361328125, 0.354003906250, 33.992187500000, 41.953125000000, 1.046875000000, 1492751147
-0.633300781250, -0.620361328125, 0.354003906250, 33.992187500000, 41.953125000000, 1.046875000000, 1492751147
-0.633300781250, -0.620361328125, 0.354003906250, 33.992187500000, 41.953125000000, 1.046875000000, 1492751147
-0.348876953125, -0.638671875000, 0.524414062500, 87.140625000000, 30.234375000000, 20.125000000000, 1492751147
-0.348876953125, -0.638671875000, 0.524414062500, 87.140625000000, 30.234375000000, 20.125000000000, 1492751147
-0.348876953125, -0.638671875000, 0.524414062500, 87.140625000000, 30.234375000000, 20.125000000000, 1492751147
-0.514648437500, -0.664306640625, 0.424072265625, 53.570312500000, 54.882812500000, 9.304687500000, 1492751147
-0.514648437500, -0.664306640625, 0.424072265625, 53.570312500000, 54.882812500000, 9.304687500000, 1492751147
-0.514648437500, -0.664306640625, 0.424072265625, 53.570312500000, 54.882812500000, 9.304687500000, 1492751147
-0.509277343750, -0.704589843750, 0.289062500000, 53.140625000000, 90.468750000000, 13.101562500000, 1492751147
-0.509277343750, -0.704589843750, 0.289062500000, 53.140625000000, 90.468750000000, 13.101562500000, 1492751147
-0.509277343750, -0.704589843750, 0.289062500000, 53.140625000000, 90.468750000000, 13.101562500000, 1492751147
-0.705322265625, -0.754394531250, 0.264404296875, -15.960937500000, 149.320312500000, 45.351562500000, 1492751147
-0.705322265625, -0.754394531250, 0.264404296875, -15.960937500000, 149.320312500000, 45.351562500000, 1492751147
-0.705322265625, -0.754394531250, 0.264404296875, -15.960937500000, 149.320312500000, 45.351562500000, 1492751147
-0.705322265625, -0.754394531250, 0.264404296875, -15.960937500000, 149.320312500000, 45.351562500000, 1492751147
-0.496093750000, -0.738281250000, 0.200439453125, 26.578125000000, 100.742187500000, 101.726562500000, 1492751147
-0.496093750000, -0.738281250000, 0.200439453125, 26.578125000000, 100.742187500000, 101.726562500000, 1492751147
-0.496093750000, -0.738281250000, 0.200439453125, 26.578125000000, 100.742187500000, 101.726562500000, 1492751147
-0.487060546875, -0.824951171875, 0.139160156250, -14.335937500000, -10.585937500000, 74.273437500000, 1492751147
-0.487060546875, -0.824951171875, 0.139160156250, -14.335937500000, -10.585937500000, 74.273437500000, 1492751147
-0.487060546875, -0.824951171875, 0.139160156250, -14.335937500000, -10.585937500000, 74.273437500000, 1492751147
-0.457519531250, -0.826171875000, 0.042968750000, 36.976562500000, -65.023437500000, 33.226562500000, 1492751147
-0.457519531250, -0.826171875000, 0.042968750000, 36.976562500000, -65.023437500000, 33.226562500000, 1492751147
-0.457519531250, -0.826171875000, 0.042968750000, 36.976562500000, -65.023437500000, 33.226562500000, 1492751147
-0.428222656250, -0.821289062500, 0.138916015625, 20.453125000000, -69.718750000000, 57.640625000000, 1492751147
-0.428222656250, -0.821289062500, 0.138916015625, 20.453125000000, -69.718750000000, 57.640625000000, 1492751147
-0.428222656250, -0.821289062500, 0.138916015625, 20.453125000000, -69.718750000000, 57.640625000000, 1492751147
-0.428222656250, -0.821289062500, 0.138916015625, 20.453125000000, -69.718750000000, 57.640625000000, 1492751147
-0.365234375000, -0.809570312500, 0.116210937500, 49.976562500000, -12.820312500000, 53.226562500000, 1492751147
-0.365234375000, -0.809570312500, 0.116210937500, 49.976562500000, -12.820312500000, 53.226562500000, 1492751147
-0.365234375000, -0.809570312500, 0.116210937500, 49.976562500000, -12.820312500000, 53.226562500000, 1492751147
-0.302246093750, -0.881347656250, 0.093017578125, 9.132812500000, -28.078125000000, 78.375000000000, 1492751147
-0.302246093750, -0.881347656250, 0.093017578125, 9.132812500000, -28.078125000000, 78.375000000000, 1492751147
-0.302246093750, -0.881347656250, 0.093017578125, 9.132812500000, -28.078125000000, 78.375000000000, 1492751147
-0.185791015625, -0.659667968750, 0.193115234375, 11.507812500000, -71.085937500000, 35.890625000000, 1492751147
-0.185791015625, -0.659667968750, 0.193115234375, 11.507812500000, -71.085937500000, 35.890625000000, 1492751147
-0.185791015625, -0.659667968750, 0.193115234375, 11.507812500000, -71.085937500000, 35.890625000000, 1492751147
-0.383544921875, -1.023437500000, 0.277832031250, -76.062500000000, 42.296875000000, 24.953125000000, 1492751147
-0.383544921875, -1.023437500000, 0.277832031250, -76.062500000000, 42.296875000000, 24.953125000000, 1492751147
-0.383544921875, -1.023437500000, 0.277832031250, -76.062500000000, 42.296875000000, 24.953125000000, 1492751147
-0.383544921875, -1.023437500000, 0.277832031250, -76.062500000000, 42.296875000000, 24.953125000000, 1492751147
-0.461914062500, -1.189941406250, 0.252929687500, -51.929687500000, 109.843750000000, 9.437500000000, 1492751147
-0.461914062500, -1.189941406250, 0.252929687500, -51.929687500000, 109.843750000000, 9.437500000000, 1492751147
-0.378662109375, -0.930175781250, 0.111328125000, -72.015625000000, 86.984375000000, -6.882812500000, 1492751147
-0.378662109375, -0.930175781250, 0.111328125000, -72.015625000000, 86.984375000000, -6.882812500000, 1492751147
-0.378662109375, -0.930175781250, 0.111328125000, -72.015625000000, 86.984375000000, -6.882812500000, 1492751147
-0.378662109375, -0.930175781250, 0.111328125000, -72.015625000000, 86.984375000000, -6.882812500000, 1492751147
-0.329589843750, -1.072998046875, 0.232910156250, -130.945312500000, 86.179687500000, 0.132812500000, 1492751147
-0.329589843750, -1.072998046875, 0.232910156250, -130.945312500000, 86.179687500000, 0.132812500000, 1492751147
-0.329589843750, -1.072998046875, 0.232910156250, -130.945312500000, 86.179687500000, 0.132812500000, 1492751147
-0.215087890625, -1.137695312500, 0.232910156250, -132.539062500000, 130.609375000000, 6.257812500000, 1492751147
-0.215087890625, -1.137695312500, 0.232910156250, -132.539062500000, 130.609375000000, 6.257812500000, 1492751147
-0.215087890625, -1.137695312500, 0.232910156250, -132.539062500000, 130.609375000000, 6.257812500000, 1492751147
-0.215087890625, -1.137695312500, 0.232910156250, -132.539062500000, 130.609375000000, 6.257812500000, 1492751147
0.230224609375, -0.640136718750, 0.004882812500, -16.593750000000, -90.257812500000, 220.867187500000, 1492751147
0.230224609375, -0.640136718750, 0.004882812500, -16.593750000000, -90.257812500000, 220.867187500000, 1492751147
0.230224609375, -0.640136718750, 0.004882812500, -16.593750000000, -90.257812500000, 220.867187500000, 1492751147
0.230224609375, -0.640136718750, 0.004882812500, -16.593750000000, -90.257812500000, 220.867187500000, 1492751147
0.230224609375, -0.640136718750, 0.004882812500, -16.593750000000, -90.257812500000, 220.867187500000, 1492751148
0.230224609375, -0.640136718750, 0.004882812500, -16.593750000000, -90.257812500000, 220.867187500000, 1492751148
0.433105468750, -0.905273437500, 0.099121093750, -121.765625000000, -62.500000000000, 60.523437500000, 1492751148
0.433105468750, -0.905273437500, 0.099121093750, -121.765625000000, -62.500000000000, 60.523437500000, 1492751148
0.433105468750, -0.905273437500, 0.099121093750, -121.765625000000, -62.500000000000, 60.523437500000, 1492751148
0.127685546875, -0.446777343750, 0.138183593750, -117.101562500000, -4.320312500000, -90.914062500000, 1492751148
0.127685546875, -0.446777343750, 0.138183593750, -117.101562500000, -4.320312500000, -90.914062500000, 1492751148
0.127685546875, -0.446777343750, 0.138183593750, -117.101562500000, -4.320312500000, -90.914062500000, 1492751148
0.127685546875, -0.446777343750, 0.138183593750, -117.101562500000, -4.320312500000, -90.914062500000, 1492751148
0.196777343750, -1.817626953125, 0.451416015625, 40.210937500000, -71.851562500000, -256.000000000000, 1492751148
0.196777343750, -1.817626953125, 0.451416015625, 40.210937500000, -71.851562500000, -256.000000000000, 1492751148
0.196777343750, -1.817626953125, 0.451416015625, 40.210937500000, -71.851562500000, -256.000000000000, 1492751148
-0.221191406250, -0.963867187500, 0.172119140625, 211.242187500000, -117.359375000000, 77.281250000000, 1492751148
-0.221191406250, -0.963867187500, 0.172119140625, 211.242187500000, -117.359375000000, 77.281250000000, 1492751148
-0.221191406250, -0.963867187500, 0.172119140625, 211.242187500000, -117.359375000000, 77.281250000000, 1492751148
-0.107421875000, -1.307861328125, 0.281005859375, 93.789062500000, -114.945312500000, 14.187500000000, 1492751148
-0.107421875000, -1.307861328125, 0.281005859375, 93.789062500000, -114.945312500000, 14.187500000000, 1492751148
-0.107421875000, -1.307861328125, 0.281005859375, 93.789062500000, -114.945312500000, 14.187500000000, 1492751148
-0.254150390625, -1.343750000000, 0.520019531250, 172.078125000000, -28.273437500000, -24.078125000000, 1492751148
-0.254150390625, -1.343750000000, 0.520019531250, 172.078125000000, -28.273437500000, -24.078125000000, 1492751148
-0.254150390625, -1.343750000000, 0.520019531250, 172.078125000000, -28.273437500000, -24.078125000000, 1492751148
-0.254150390625, -1.343750000000, 0.520019531250, 172.078125000000, -28.273437500000, -24.078125000000, 1492751148
-0.020507812500, -1.112548828125, 0.336669921875, 253.992187500000, 166.617187500000, 66.484375000000, 1492751148
-0.020507812500, -1.112548828125, 0.336669921875, 253.992187500000, 166.617187500000, 66.484375000000, 1492751148
-0.020507812500, -1.112548828125, 0.336669921875, 253.992187500000, 166.617187500000, 66.484375000000, 1492751148
0.063476562500, -1.114746093750, 0.083984375000, 159.203125000000, 190.281250000000, 7.976562500000, 1492751148
0.063476562500, -1.114746093750, 0.083984375000, 159.203125000000, 190.281250000000, 7.976562500000, 1492751148
0.063476562500, -1.114746093750, 0.083984375000, 159.203125000000, 190.281250000000, 7.976562500000, 1492751148
0.014404296875, -0.783691406250, 0.359619140625, 73.335937500000, 33.640625000000, -27.562500000000, 1492751148
0.014404296875, -0.783691406250, 0.359619140625, 73.335937500000, 33.640625000000, -27.562500000000, 1492751148
0.014404296875, -0.783691406250, 0.359619140625, 73.335937500000, 33.640625000000, -27.562500000000, 1492751148
-0.081054687500, -1.018066406250, 0.440673828125, 156.250000000000, -216.523437500000, 14.859375000000, 1492751148
-0.081054687500, -1.018066406250, 0.440673828125, 156.250000000000, -216.523437500000, 14.859375000000, 1492751148
-0.081054687500, -1.018066406250, 0.440673828125, 156.250000000000, -216.523437500000, 14.859375000000, 1492751148
-0.107666015625, -0.784667968750, 0.284912109375, -19.101562500000, -61.171875000000, 30.148437500000, 1492751148
-0.107666015625, -0.784667968750, 0.284912109375, -19.101562500000, -61.171875000000, 30.148437500000, 1492751148
-0.107666015625, -0.784667968750, 0.284912109375, -19.101562500000, -61.171875000000, 30.148437500000, 1492751148
-0.107666015625, -0.784667968750, 0.284912109375, -19.101562500000, -61.171875000000, 30.148437500000, 1492751148
-0.003173828125, -1.122070312500, 0.212158203125, -135.640625000000, 200.601562500000, 81.687500000000, 1492751148
-0.003173828125, -1.122070312500, 0.212158203125, -135.640625000000, 200.601562500000, 81.687500000000, 1492751148
-0.003173828125, -1.122070312500, 0.212158203125, -135.640625000000, 200.601562500000, 81.687500000000, 1492751148
0.090332031250, -1.088867187500, 0.189453125000, -148.703125000000, 209.906250000000, -23.226562500000, 1492751148
0.090332031250, -1.088867187500, 0.189453125000, -148.703125000000, 209.906250000000, -23.226562500000, 1492751148
0.090332031250, -1.088867187500, 0.189453125000, -148.703125000000, 209.906250000000, -23.226562500000, 1492751148
-0.025390625000, -1.041015625000, 0.196289062500, -153.898437500000, 167.757812500000, -43.570312500000, 1492751148
0.140625000000, -1.142822265625, 0.221679687500, -211.140625000000, -99.242187500000, -63.687500000000, 1492751148
0.140625000000, -1.142822265625, 0.221679687500, -211.140625000000, -99.242187500000, -63.687500000000, 1492751148
0.140625000000, -1.142822265625, 0.221679687500, -211.140625000000, -99.242187500000, -63.687500000000, 1492751148
0.140625000000, -1.142822265625, 0.221679687500, -211.140625000000, -99.242187500000, -63.687500000000, 1492751148
0.140625000000, -1.142822265625, 0.221679687500, -211.140625000000, -99.242187500000, -63.687500000000, 1492751148
0.140625000000, -1.142822265625, 0.221679687500, -211.140625000000, -99.242187500000, -63.687500000000, 1492751148
-0.058837890625, -0.996093750000, 0.340332031250, -123.812500000000, -30.187500000000, -27.570312500000, 1492751148
-0.058837890625, -0.996093750000, 0.340332031250, -123.812500000000, -30.187500000000, -27.570312500000, 1492751148
-0.058837890625, -0.996093750000, 0.340332031250, -123.812500000000, -30.187500000000, -27.570312500000, 1492751148
-0.167724609375, -1.065917968750, 0.262207031250, -104.156250000000, 70.148437500000, -24.820312500000, 1492751148
-0.167724609375, -1.065917968750, 0.262207031250, -104.156250000000, 70.148437500000, -24.820312500000, 1492751148
-0.167724609375, -1.065917968750, 0.262207031250, -104.156250000000, 70.148437500000, -24.820312500000, 1492751148
-0.163085937500, -0.897460937500, 0.187500000000, -93.640625000000, 136.085937500000, 5.546875000000, 1492751148
-0.163085937500, -0.897460937500, 0.187500000000, -93.640625000000, 136.085937500000, 5.546875000000, 1492751148
-0.163085937500, -0.897460937500, 0.187500000000, -93.640625000000, 136.085937500000, 5.546875000000, 1492751148
-0.163085937500, -0.897460937500, 0.187500000000, -93.640625000000, 136.085937500000, 5.546875000000, 1492751148
-0.197998046875, -0.786621093750, 0.277343750000, -30.093750000000, 125.664062500000, 42.062500000000, 1492751148
-0.197998046875, -0.786621093750, 0.277343750000, -30.093750000000, 125.664062500000, 42.062500000000, 1492751148
-0.197998046875, -0.786621093750, 0.277343750000, -30.093750000000, 125.664062500000, 42.062500000000, 1492751148
-0.142578125000, -0.906738281250, 0.250488281250, 86.976562500000, 9.843750000000, 25.570312500000, 1492751148
-0.142578125000, -0.906738281250, 0.250488281250, 86.976562500000, 9.843750000000, 25.570312500000, 1492751148
-0.142578125000, -0.906738281250, 0.250488281250, 86.976562500000, 9.843750000000, 25.570312500000, 1492751148
0.017333984375, -0.918945312500, 0.248046875000, 135.921875000000, -166.820312500000, 6.156250000000, 1492751148
0.017333984375, -0.918945312500, 0.248046875000, 135.921875000000, -166.820312500000, 6.156250000000, 1492751148
0.017333984375, -0.918945312500, 0.248046875000, 135.921875000000, -166.820312500000, 6.156250000000, 1492751149
-0.018554687500, -1.135742187500, 0.310058593750, 207.398437500000, -256.000000000000, -70.195312500000, 1492751149
-0.018554687500, -1.135742187500, 0.310058593750, 207.398437500000, -256.000000000000, -70.195312500000, 1492751149
-0.018554687500, -1.135742187500, 0.310058593750, 207.398437500000, -256.000000000000, -70.195312500000, 1492751149
-0.018554687500, -1.135742187500, 0.310058593750, 207.398437500000, -256.000000000000, -70.195312500000, 1492751149
-0.144775390625, -1.115478515625, 0.252685546875, 251.554687500000, -114.078125000000, -43.945312500000, 1492751149
-0.144775390625, -1.115478515625, 0.252685546875, 251.554687500000, -114.078125000000, -43.945312500000, 1492751149
-0.144775390625, -1.115478515625, 0.252685546875, 251.554687500000, -114.078125000000, -43.945312500000, 1492751149
-0.032958984375, -1.059326171875, 0.238281250000, 188.109375000000, 17.187500000000, 2.531250000000, 1492751149
-0.032958984375, -1.059326171875, 0.238281250000, 188.109375000000, 17.187500000000, 2.531250000000, 1492751149
-0.204101562500, -1.031005859375, 0.381103515625, 98.414062500000, 98.218750000000, 39.390625000000, 1492751149
-0.204101562500, -1.031005859375, 0.381103515625, 98.414062500000, 98.218750000000, 39.390625000000, 1492751149
-0.204101562500, -1.031005859375, 0.381103515625, 98.414062500000, 98.218750000000, 39.390625000000, 1492751149
-0.204101562500, -1.031005859375, 0.381103515625, 98.414062500000, 98.218750000000, 39.390625000000, 1492751149
-0.117919921875, -0.936767578125, 0.258544921875, 64.718750000000, -71.531250000000, -32.500000000000, 1492751149
-0.117919921875, -0.936767578125, 0.258544921875, 64.718750000000, -71.531250000000, -32.500000000000, 1492751149
-0.117919921875, -0.936767578125, 0.258544921875, 64.718750000000, -71.531250000000, -32.500000000000, 1492751149
-0.117919921875, -0.936767578125, 0.258544921875, 64.718750000000, -71.531250000000, -32.500000000000, 1492751149
-0.094482421875, -0.904785156250, 0.170166015625, -56.882812500000, 26.140625000000, 16.718750000000, 1492751149
-0.094482421875, -0.904785156250, 0.170166015625, -56.882812500000, 26.140625000000, 16.718750000000, 1492751149
-0.094482421875, -0.904785156250, 0.170166015625, -56.882812500000, 26.140625000000, 16.718750000000, 1492751149
-0.055419921875, -1.003417968750, 0.187744140625, -129.812500000000, 57.875000000000, 5.664062500000, 1492751149
-0.055419921875, -1.003417968750, 0.187744140625, -129.812500000000, 57.875000000000, 5.664062500000, 1492751149
-0.055419921875, -1.003417968750, 0.187744140625, -129.812500000000, 57.875000000000, 5.664062500000, 1492751149
-0.133789062500, -1.030761718750, 0.160888671875, -154.335937500000, 35.281250000000, -15.000000000000, 1492751149
-0.133789062500, -1.030761718750, 0.160888671875, -154.335937500000, 35.281250000000, -15.000000000000, 1492751149
-0.133789062500, -1.030761718750, 0.160888671875, -154.335937500000, 35.281250000000, -15.000000000000, 1492751149
-0.151611328125, -1.050537109375, 0.240966796875, -159.195312500000, -20.507812500000, -46.664062500000, 1492751149
-0.151611328125, -1.050537109375, 0.240966796875, -159.195312500000, -20.507812500000, -46.664062500000, 1492751149
-0.151611328125, -1.050537109375, 0.240966796875, -159.195312500000, -20.507812500000, -46.664062500000, 1492751149
-0.151611328125, -1.050537109375, 0.240966796875, -159.195312500000, -20.507812500000, -46.664062500000, 1492751149
-0.101806640625, -1.046386718750, 0.271728515625, -124.070312500000, -8.539062500000, -41.242187500000, 1492751149
-0.101806640625, -1.046386718750, 0.271728515625, -124.070312500000, -8.539062500000, -41.242187500000, 1492751149
-0.101806640625, -1.046386718750, 0.271728515625, -124.070312500000, -8.539062500000, -41.242187500000, 1492751149
-0.063720703125, -1.136718750000, 0.250244140625, -112.546875000000, -0.359375000000, -34.367187500000, 1492751149
-0.052978515625, -0.952636718750, 0.263916015625, -94.523437500000, 17.429687500000, -8.703125000000, 1492751149
-0.052978515625, -0.952636718750, 0.263916015625, -94.523437500000, 17.429687500000, -8.703125000000, 1492751149
-0.052978515625, -0.952636718750, 0.263916015625, -94.523437500000, 17.429687500000, -8.703125000000, 1492751149
-0.052978515625, -0.952636718750, 0.263916015625, -94.523437500000, 17.429687500000, -8.703125000000, 1492751149
-0.052978515625, -0.952636718750, 0.263916015625, -94.523437500000, 17.429687500000, -8.703125000000, 1492751149
0.022460937500, -1.031250000000, 0.171875000000, -36.890625000000, -0.562500000000, -2.390625000000, 1492751149
0.022460937500, -1.031250000000, 0.171875000000, -36.890625000000, -0.562500000000, -2.390625000000, 1492751149
0.022460937500, -1.031250000000, 0.171875000000, -36.890625000000, -0.562500000000, -2.390625000000, 1492751149
0.022460937500, -1.031250000000, 0.171875000000, -36.890625000000, -0.562500000000, -2.390625000000, 1492751149
-0.048583984375, -0.862060546875, 0.116699218750, 10.523437500000, -22.351562500000, -7.203125000000, 1492751149
-0.048583984375, -0.862060546875, 0.116699218750, 10.523437500000, -22.351562500000, -7.203125000000, 1492751149
-0.048583984375, -0.862060546875, 0.116699218750, 10.523437500000, -22.351562500000, -7.203125000000, 1492751149
-0.129394531250, -1.010009765625, 0.260009765625, 46.718750000000, -29.476562500000, -0.664062500000, 1492751149
-0.129394531250, -1.010009765625, 0.260009765625, 46.718750000000, -29.476562500000, -0.664062500000, 1492751149
-0.129394531250, -1.010009765625, 0.260009765625, 46.718750000000, -29.476562500000, -0.664062500000, 1492751149
-0.106689453125, -1.004394531250, 0.238525390625, 85.218750000000, -7.648437500000, -2.343750000000, 1492751149
-0.106689453125, -1.004394531250, 0.238525390625, 85.218750000000, -7.648437500000, -2.343750000000, 1492751149
-0.106689453125, -1.004394531250, 0.238525390625, 85.218750000000, -7.648437500000, -2.343750000000, 1492751149
0.004638671875, -0.984130859375, 0.192382812500, 119.289062500000, 25.164062500000, 18.875000000000, 1492751149
-0.054443359375, -1.041015625000, 0.263671875000, 124.906250000000, 12.710937500000, 16.125000000000, 1492751149
-0.054443359375, -1.041015625000, 0.263671875000, 124.906250000000, 12.710937500000, 16.125000000000, 1492751149
-0.054443359375, -1.041015625000, 0.263671875000, 124.906250000000, 12.710937500000, 16.125000000000, 1492751149
-0.056884765625, -1.125244140625, 0.179931640625, 117.281250000000, -24.843750000000, 16.585937500000, 1492751149
-0.056884765625, -1.125244140625, 0.179931640625, 117.281250000000, -24.843750000000, 16.585937500000, 1492751149
-0.056884765625, -1.125244140625, 0.179931640625, 117.281250000000, -24.843750000000, 16.585937500000, 1492751149
-0.056884765625, -1.125244140625, 0.179931640625, 117.281250000000, -24.843750000000, 16.585937500000, 1492751149
-0.056884765625, -1.125244140625, 0.179931640625, 117.281250000000, -24.843750000000, 16.585937500000, 1492751149
-0.056884765625, -1.125244140625, 0.179931640625, 117.281250000000, -24.843750000000, 16.585937500000, 1492751149
-0.087646484375, -0.987304687500, 0.181396484375, 110.039062500000, -39.187500000000, 11.406250000000, 1492751149
-0.087646484375, -0.987304687500, 0.181396484375, 110.039062500000, -39.187500000000, 11.406250000000, 1492751149
-0.134277343750, -0.968750000000, 0.170898437500, 61.968750000000, -19.195312500000, 4.460937500000, 1492751150
-0.134277343750, -0.968750000000, 0.170898437500, 61.968750000000, -19.195312500000, 4.460937500000, 1492751150
-0.134277343750, -0.968750000000, 0.170898437500, 61.968750000000, -19.195312500000, 4.460937500000, 1492751150
-0.134277343750, -0.968750000000, 0.170898437500, 61.968750000000, -19.195312500000, 4.460937500000, 1492751150
-0.134277343750, -0.968750000000, 0.170898437500, 61.968750000000, -19.195312500000, 4.460937500000, 1492751150
-0.153564453125, -0.938232421875, 0.175048828125, -24.976562500000, 13.421875000000, -0.882812500000, 1492751150
-0.153564453125, -0.938232421875, 0.175048828125, -24.976562500000, 13.421875000000, -0.882812500000, 1492751150
-0.153564453125, -0.938232421875, 0.175048828125, -24.976562500000, 13.421875000000, -0.882812500000, 1492751150
-0.153564453125, -0.938232421875, 0.175048828125, -38.554687500000, 15.632812500000, 0.023437500000, 1492751150
-0.055419921875, -0.944335937500, 0.173339843750, -83.257812500000, 14.640625000000, -5.773437500000, 1492751150
-0.055419921875, -0.944335937500, 0.173339843750, -83.257812500000, 14.640625000000, -5.773437500000, 1492751150
-0.055419921875, -0.944335937500, 0.173339843750, -83.257812500000, 14.640625000000, -5.773437500000, 1492751150
-0.120849609375, -1.024414062500, 0.163085937500, -116.492187500000, 11.812500000000, -12.406250000000, 1492751150
-0.120849609375, -1.024414062500, 0.163085937500, -116.492187500000, 11.812500000000, -12.406250000000, 1492751150
-0.120849609375, -1.024414062500, 0.163085937500, -116.492187500000, 11.812500000000, -12.406250000000, 1492751150
-0.120849609375, -1.024414062500, 0.163085937500, -116.492187500000, 11.812500000000, -12.406250000000, 1492751150
-0.120849609375, -1.024414062500, 0.163085937500, -116.492187500000, 11.812500000000, -12.406250000000, 1492751150
-0.120849609375, -1.024414062500, 0.163085937500, -116.492187500000, 11.812500000000, -12.406250000000, 1492751150
-0.152099609375, -0.928466796875, 0.267822265625, -120.945312500000, 13.093750000000, -18.437500000000, 1492751150
-0.152099609375, -0.928466796875, 0.267822265625, -120.945312500000, 13.093750000000, -18.437500000000, 1492751150
-0.152099609375, -0.928466796875, 0.267822265625, -120.945312500000, 13.093750000000, -18.437500000000, 1492751150
-0.089111328125, -0.975830078125, 0.240966796875, -116.562500000000, 13.265625000000, -11.132812500000, 1492751150
-0.089111328125, -0.975830078125, 0.240966796875, -116.562500000000, 13.265625000000, -11.132812500000, 1492751150
-0.089111328125, -0.975830078125, 0.240966796875, -116.562500000000, 13.265625000000, -11.132812500000, 1492751150
-0.153320312500, -1.064453125000, 0.239013671875, -89.218750000000, 11.343750000000, -12.343750000000, 1492751150
-0.153320312500, -1.064453125000, 0.239013671875, -89.218750000000, 11.343750000000, -12.343750000000, 1492751150
-0.153320312500, -1.064453125000, 0.239013671875, -89.218750000000, 11.343750000000, -12.343750000000, 1492751150
0.016113281250, -1.001220703125, 0.166015625000, -61.460937500000, 2.304687500000, -12.453125000000, 1492751150
0.016113281250, -1.001220703125, 0.166015625000, -61.460937500000, 2.304687500000, -12.453125000000, 1492751150
0.016113281250, -1.001220703125, 0.166015625000, -61.460937500000, 2.304687500000, -12.453125000000, 1492751150
0.016113281250, -1.001220703125, 0.166015625000, -61.460937500000, 2.304687500000, -12.453125000000, 1492751150
-0.147460937500, -0.936523437500, 0.218505859375, -25.062500000000, -4.484375000000, -5.445312500000, 1492751150
-0.147460937500, -0.936523437500, 0.218505859375, -25.062500000000, -4.484375000000, -5.445312500000, 1492751150
-0.147460937500, -0.936523437500, 0.218505859375, -25.062500000000, -4.484375000000, -5.445312500000, 1492751150
-0.032226562500, -0.989990234375, 0.166503906250, 15.312500000000, -15.312500000000, -6.796875000000, 1492751150
-0.032226562500, -0.989990234375, 0.166503906250, 15.312500000000, -15.312500000000, -6.796875000000, 1492751150
-0.032226562500, -0.989990234375, 0.166503906250, 15.312500000000, -15.312500000000, -6.796875000000, 1492751150
0.008789062500, -0.965332031250, 0.187255859375, 40.312500000000, -18.820312500000, 0.929687500000, 1492751150
0.008789062500, -0.965332031250, 0.187255859375, 40.312500000000, -18.820312500000, 0.929687500000, 1492751150
0.008789062500, -0.965332031250, 0.187255859375, 40.312500000000, -18.820312500000, 0.929687500000, 1492751150
-0.128662109375, -0.969238281250, 0.279785156250, 79.726562500000, -0.546875000000, 4.187500000000, 1492751150
-0.128662109375, -0.969238281250, 0.279785156250, 79.726562500000, -0.546875000000, 4.187500000000, 1492751150
-0.128662109375, -0.969238281250, 0.279785156250, 79.726562500000, -0.546875000000, 4.187500000000, 1492751150
-0.128662109375, -0.969238281250, 0.279785156250, 79.726562500000, -0.546875000000, 4.187500000000, 1492751150
-0.054443359375, -1.069335937500, 0.275634765625, 87.757812500000, -1.414062500000, 10.554687500000, 1492751150
-0.054443359375, -1.069335937500, 0.275634765625, 87.757812500000, -1.414062500000, 10.554687500000, 1492751150
-0.054443359375, -1.069335937500, 0.275634765625, 87.757812500000, -1.414062500000, 10.554687500000, 1492751150
-0.080810546875, -0.977783203125, 0.276123046875, 100.429687500000, -8.429687500000, 12.906250000000, 1492751150
-0.080810546875, -0.977783203125, 0.276123046875, 100.429687500000, -8.429687500000, 12.906250000000, 1492751150
-0.080810546875, -0.977783203125, 0.276123046875, 100.429687500000, -8.429687500000, 12.906250000000, 1492751150
0.021484375000, -1.092285156250, 0.259765625000, 99.875000000000, -10.742187500000, 4.515625000000, 1492751150
0.021484375000, -1.092285156250, 0.259765625000, 99.875000000000, -10.742187500000, 4.515625000000, 1492751150
0.021484375000, -1.092285156250, 0.259765625000, 99.875000000000, -10.742187500000, 4.515625000000, 1492751150
-0.141357421875, -0.949462890625, 0.268798828125, 64.960937500000, -14.492187500000, 4.625000000000, 1492751150
-0.141357421875, -0.949462890625, 0.268798828125, 64.960937500000, -14.492187500000, 4.625000000000, 1492751150
-0.141357421875, -0.949462890625, 0.268798828125, 64.960937500000, -14.492187500000, 4.625000000000, 1492751150
-0.141357421875, -0.949462890625, 0.268798828125, 64.960937500000, -14.492187500000, 4.625000000000, 1492751150
-0.108398437500, -0.971191406250, 0.148681640625, 34.953125000000, -6.375000000000, 1.273437500000, 1492751150
-0.108398437500, -0.971191406250, 0.148681640625, 34.953125000000, -6.375000000000, 1.273437500000, 1492751150
-0.108398437500, -0.971191406250, 0.148681640625, 34.953125000000, -6.375000000000, 1.273437500000, 1492751150
-0.122558593750, -0.961669921875, 0.157226562500, -7.804687500000, -2.453125000000, 0.015625000000, 1492751150
-0.122558593750, -0.961669921875, 0.157226562500, -7.804687500000, -2.453125000000, 0.015625000000, 1492751150
-0.122558593750, -0.961669921875, 0.157226562500, -7.804687500000, -2.453125000000, 0.015625000000, 1492751150
0.004150390625, -0.957031250000, 0.157958984375, -46.539062500000, 14.898437500000, 0.742187500000, 1492751150
0.004150390625, -0.957031250000, 0.157958984375, -46.539062500000, 14.898437500000, 0.742187500000, 1492751150
0.004150390625, -0.957031250000, 0.157958984375, -46.539062500000, 14.898437500000, 0.742187500000, 1492751150
-0.113037109375, -1.070312500000, 0.271972656250, -81.273437500000, 11.804687500000, -5.445312500000, 1492751150
-0.113037109375, -1.070312500000, 0.271972656250, -81.273437500000, 11.804687500000, -5.445312500000, 1492751151
-0.113037109375, -1.070312500000, 0.271972656250, -81.273437500000, 11.804687500000, -5.445312500000, 1492751151
-0.113037109375, -1.070312500000, 0.271972656250, -81.273437500000, 11.804687500000, -5.445312500000, 1492751151
-0.053710937500, -0.991699218750, 0.255371093750, -92.945312500000, 18.882812500000, -10.679687500000, 1492751151
-0.053710937500, -0.991699218750, 0.255371093750, -92.945312500000, 18.882812500000, -10.679687500000, 1492751151
-0.053710937500, -0.991699218750, 0.255371093750, -92.945312500000, 18.882812500000, -10.679687500000, 1492751151
-0.139160156250, -0.941162109375, 0.211669921875, -98.695312500000, 20.585937500000, -9.281250000000, 1492751151
-0.139160156250, -0.941162109375, 0.211669921875, -98.695312500000, 20.585937500000, -9.281250000000, 1492751151
-0.139160156250, -0.941162109375, 0.211669921875, -98.695312500000, 20.585937500000, -9.281250000000, 1492751151
-0.031982421875, -1.013427734375, 0.215332031250, -87.757812500000, 14.507812500000, -10.890625000000, 1492751151
-0.031982421875, -1.013427734375, 0.215332031250, -87.757812500000, 14.507812500000, -10.890625000000, 1492751151
-0.031982421875, -1.013427734375, 0.215332031250, -87.757812500000, 14.507812500000, -10.890625000000, 1492751151
-0.076904296875, -0.968261718750, 0.175537109375, -62.578125000000, -0.867187500000, -10.125000000000, 1492751151
-0.076904296875, -0.968261718750, 0.175537109375, -62.578125000000, -0.867187500000, -10.125000000000, 1492751151
-0.076904296875, -0.968261718750, 0.175537109375, -62.578125000000, -0.867187500000, -10.125000000000, 1492751151
-0.076904296875, -0.968261718750, 0.175537109375, -62.578125000000, -0.867187500000, -10.125000000000, 1492751151
-0.040527343750, -1.004150390625, 0.110839843750, -42.343750000000, -10.164062500000, -8.882812500000, 1492751151
-0.040527343750, -1.004150390625, 0.110839843750, -42.343750000000, -10.164062500000, -8.882812500000, 1492751151
-0.040527343750, -1.004150390625, 0.110839843750, -42.343750000000, -10.164062500000, -8.882812500000, 1492751151
0.029052734375, -1.010009765625, 0.227783203125, -10.226562500000, -2.390625000000, -4.695312500000, 1492751151
0.029052734375, -1.010009765625, 0.227783203125, -10.226562500000, -2.390625000000, -4.695312500000, 1492751151
0.029052734375, -1.010009765625, 0.227783203125, -10.226562500000, -2.390625000000, -4.695312500000, 1492751151
-0.053222656250, -0.887207031250, 0.176269531250, 19.437500000000, 4.218750000000, -2.750000000000, 1492751151
-0.053222656250, -0.887207031250, 0.176269531250, 19.437500000000, 4.218750000000, -2.750000000000, 1492751151
-0.053222656250, -0.887207031250, 0.176269531250, 19.437500000000, 4.218750000000, -2.750000000000, 1492751151
-0.040527343750, -1.064453125000, 0.163085937500, 52.875000000000, 2.585937500000, -0.593750000000, 1492751151
-0.040527343750, -1.064453125000, 0.163085937500, 52.875000000000, 2.585937500000, -0.593750000000, 1492751151
-0.040527343750, -1.064453125000, 0.163085937500, 52.875000000000, 2.585937500000, -0.593750000000, 1492751151
-0.040527343750, -1.064453125000, 0.163085937500, 52.875000000000, 2.585937500000, -0.593750000000, 1492751151
-0.072021484375, -0.982666015625, 0.123291015625, 67.226562500000, -3.453125000000, 3.015625000000, 1492751151
-0.072021484375, -0.982666015625, 0.123291015625, 67.226562500000, -3.453125000000, 3.015625000000, 1492751151
-0.072021484375, -0.982666015625, 0.123291015625, 67.226562500000, -3.453125000000, 3.015625000000, 1492751151
-0.079101562500, -0.978515625000, 0.269531250000, 80.328125000000, -11.773437500000, 5.492187500000, 1492751151
-0.079101562500, -0.978515625000, 0.269531250000, 80.328125000000, -11.773437500000, 5.492187500000, 1492751151
-0.079101562500, -0.978515625000, 0.269531250000, 80.328125000000, -11.773437500000, 5.492187500000, 1492751151
-0.038818359375, -1.029541015625, 0.281250000000, 79.140625000000, -16.578125000000, 4.257812500000, 1492751151
-0.038818359375, -1.029541015625, 0.281250000000, 79.140625000000, -16.578125000000, 4.257812500000, 1492751151
-0.038818359375, -1.029541015625, 0.281250000000, 79.140625000000, -16.578125000000, 4.257812500000, 1492751151
-0.071289062500, -1.087402343750, 0.218994140625, 55.656250000000, -11.914062500000, 6.109375000000, 1492751151
-0.071289062500, -1.087402343750, 0.218994140625, 55.656250000000, -11.914062500000, 6.109375000000, 1492751151
-0.071289062500, -1.087402343750, 0.218994140625, 55.656250000000, -11.914062500000, 6.109375000000, 1492751151
-0.071289062500, -1.087402343750, 0.218994140625, 55.656250000000, -11.914062500000, 6.109375000000, 1492751151
-0.115478515625, -1.024902343750, 0.250488281250, 37.484375000000, -9.000000000000, 2.835937500000, 1492751151
-0.115478515625, -1.024902343750, 0.250488281250, 37.484375000000, -9.000000000000, 2.835937500000, 1492751151
-0.115478515625, -1.024902343750, 0.250488281250, 37.484375000000, -9.000000000000, 2.835937500000, 1492751151
-0.054443359375, -0.922119140625, 0.260986328125, 10.187500000000, 6.281250000000, -2.953125000000, 1492751151
-0.054443359375, -0.922119140625, 0.260986328125, 10.187500000000, 6.281250000000, -2.953125000000, 1492751151
-0.054443359375, -0.922119140625, 0.260986328125, 10.187500000000, 6.281250000000, -2.953125000000, 1492751151
