ACC_X,ACC_Y,ACC_Z,G_X,G_Y,G_Z,Unix Time
0.047607421875, 0.380126953125, 1.011474609375, -4.187500000000, -0.445312500000, -1.945312500000, 1492750633
0.047607421875, 0.380126953125, 1.011474609375, -4.187500000000, -0.445312500000, -1.945312500000, 1492750633
0.047607421875, 0.380126953125, 1.011474609375, -4.187500000000, -0.445312500000, -1.945312500000, 1492750633
0.128417968750, 0.282470703125, 1.025390625000, -3.742187500000, -0.710937500000, 0.023437500000, 1492750634
0.128417968750, 0.282470703125, 1.025390625000, -3.742187500000, -0.710937500000, 0.023437500000, 1492750634
0.128417968750, 0.282470703125, 1.025390625000, -3.742187500000, -0.710937500000, 0.023437500000, 1492750634
0.090087890625, 0.293701171875, 0.930664062500, -1.867187500000, -0.835937500000, -5.687500000000, 1492750634
0.090087890625, 0.293701171875, 0.930664062500, -1.867187500000, -0.835937500000, -5.687500000000, 1492750634
0.090087890625, 0.293701171875, 0.930664062500, -1.867187500000, -0.835937500000, -5.687500000000, 1492750634
0.124023437500, 0.356933593750, 1.015136718750, -3.640625000000, 0.382812500000, -4.429687500000, 1492750634
0.124023437500, 0.356933593750, 1.015136718750, -3.640625000000, 0.382812500000, -4.429687500000, 1492750634
0.124023437500, 0.356933593750, 1.015136718750, -3.640625000000, 0.382812500000, -4.429687500000, 1492750634
0.124023437500, 0.356933593750, 1.015136718750, -3.640625000000, 0.382812500000, -4.429687500000, 1492750634
0.126464843750, 0.398193359375, 0.963378906250, -4.328125000000, 2.843750000000, -4.054687500000, 1492750634
0.126464843750, 0.398193359375, 0.963378906250, -4.328125000000, 2.843750000000, -4.054687500000, 1492750634
0.126464843750, 0.398193359375, 0.963378906250, -4.328125000000, 2.843750000000, -4.054687500000, 1492750634
0.096435546875, 0.301025390625, 0.941406250000, -4.656250000000, -2.242187500000, -3.015625000000, 1492750634
0.096435546875, 0.301025390625, 0.941406250000, -4.656250000000, -2.242187500000, -3.015625000000, 1492750634
0.096435546875, 0.301025390625, 0.941406250000, -4.656250000000, -2.242187500000, -3.015625000000, 1492750634
0.032958984375, 0.393798828125, 0.935546875000, -3.820312500000, 0.773437500000, -3.726562500000, 1492750634
0.051025390625, 0.449707031250, 0.853515625000, -4.687500000000, 0.250000000000, -3.414062500000, 1492750634
0.126220703125, 0.449951171875, 0.923828125000, -4.031250000000, 0.312500000000, -3.570312500000, 1492750634
0.126220703125, 0.449951171875, 0.923828125000, -4.031250000000, 0.312500000000, -3.570312500000, 1492750634
0.084472656250, 0.249267578125, 1.002441406250, -4.601562500000, 2.898437500000, -3.218750000000, 1492750634
0.156005859375, 0.298583984375, 0.956787109375, -4.601562500000, 2.898437500000, -3.218750000000, 1492750634
0.156005859375, 0.298583984375, 0.956787109375, -4.601562500000, 2.898437500000, -3.218750000000, 1492750634
0.156005859375, 0.298583984375, 0.956787109375, -4.601562500000, 2.898437500000, -3.218750000000, 1492750634
0.156005859375, 0.298583984375, 0.956787109375, -4.601562500000, 2.898437500000, -3.218750000000, 1492750634
0.156005859375, 0.298583984375, 0.956787109375, -4.601562500000, 2.898437500000, -3.218750000000, 1492750634
0.139404296875, 0.352050781250, 1.011962890625, -6.054687500000, -0.296875000000, -1.875000000000, 1492750634
0.139404296875, 0.352050781250, 1.011962890625, -6.054687500000, -0.296875000000, -1.875000000000, 1492750634
0.139404296875, 0.352050781250, 1.011962890625, -6.054687500000, -0.296875000000, -1.875000000000, 1492750634
0.144287109375, 0.365966796875, 0.936279296875, -1.421875000000, -0.546875000000, -3.398437500000, 1492750634
0.144287109375, 0.365966796875, 0.936279296875, -1.421875000000, -0.546875000000, -3.398437500000, 1492750634
0.144287109375, 0.365966796875, 0.936279296875, -1.421875000000, -0.546875000000, -3.398437500000, 1492750634
0.144287109375, 0.365966796875, 0.936279296875, -1.421875000000, -0.546875000000, -3.398437500000, 1492750634
0.060791015625, 0.297607421875, 0.931640625000, -3.750000000000, -0.429687500000, -6.078125000000, 1492750634
0.060791015625, 0.297607421875, 0.931640625000, -3.750000000000, -0.429687500000, -6.078125000000, 1492750634
0.060791015625, 0.297607421875, 0.931640625000, -3.750000000000, -0.429687500000, -6.078125000000, 1492750634
0.138183593750, 0.345214843750, 0.964843750000, -4.273437500000, 0.578125000000, -3.093750000000, 1492750634
0.138183593750, 0.345214843750, 0.964843750000, -4.273437500000, 0.578125000000, -3.093750000000, 1492750634
0.138183593750, 0.345214843750, 0.964843750000, -4.273437500000, 0.578125000000, -3.093750000000, 1492750634
0.035156250000, 0.304931640625, 0.962402343750, -3.125000000000, 0.492187500000, -4.304687500000, 1492750634
0.035156250000, 0.304931640625, 0.962402343750, -3.125000000000, 0.492187500000, -4.304687500000, 1492750634
0.035156250000, 0.304931640625, 0.962402343750, -3.125000000000, 0.492187500000, -4.304687500000, 1492750634
0.066894531250, 0.279541015625, 0.912597656250, -1.820312500000, -0.460937500000, -4.093750000000, 1492750634
0.066894531250, 0.279541015625, 0.912597656250, -1.820312500000, -0.460937500000, -4.093750000000, 1492750634
0.066894531250, 0.279541015625, 0.912597656250, -1.820312500000, -0.460937500000, -4.093750000000, 1492750634
0.066894531250, 0.279541015625, 0.912597656250, -1.820312500000, -0.460937500000, -4.093750000000, 1492750634
0.035644531250, 0.385498046875, 0.927490234375, -4.507812500000, -0.960937500000, -1.929687500000, 1492750634
0.035644531250, 0.385498046875, 0.927490234375, -4.507812500000, -0.960937500000, -1.929687500000, 1492750634
0.035644531250, 0.385498046875, 0.927490234375, -4.507812500000, -0.960937500000, -1.929687500000, 1492750634
-0.022460937500, 0.447753906250, 0.988037109375, -4.093750000000, 2.070312500000, -1.945312500000, 1492750634
-0.022460937500, 0.447753906250, 0.988037109375, -4.093750000000, 2.070312500000, -1.945312500000, 1492750634
-0.022460937500, 0.447753906250, 0.988037109375, -4.093750000000, 2.070312500000, -1.945312500000, 1492750634
0.205322265625, 0.347167968750, 0.917724609375, -3.312500000000, 0.804687500000, -3.140625000000, 1492750634
0.079833984375, 0.381591796875, 0.926513671875, -3.531250000000, -0.726562500000, -3.867187500000, 1492750634
0.079833984375, 0.381591796875, 0.926513671875, -3.531250000000, -0.726562500000, -3.867187500000, 1492750634
0.079833984375, 0.381591796875, 0.926513671875, -3.531250000000, -0.726562500000, -3.867187500000, 1492750634
0.079833984375, 0.381591796875, 0.926513671875, -3.531250000000, -0.726562500000, -3.867187500000, 1492750634
0.076416015625, 0.344726562500, 0.937988281250, -3.078125000000, -2.343750000000, -4.609375000000, 1492750634
0.197265625000, 0.233154296875, 0.914062500000, -3.054687500000, 0.593750000000, -3.218750000000, 1492750634
0.197265625000, 0.233154296875, 0.914062500000, -3.054687500000, 0.593750000000, -3.218750000000, 1492750634
0.197265625000, 0.233154296875, 0.914062500000, -3.054687500000, 0.593750000000, -3.218750000000, 1492750634
0.197265625000, 0.233154296875, 0.914062500000, -3.054687500000, 0.593750000000, -3.218750000000, 1492750634
0.048583984375, 0.234130859375, 1.005859375000, -3.796875000000, 0.671875000000, -4.312500000000, 1492750634
0.048583984375, 0.234130859375, 1.005859375000, -3.796875000000, 0.671875000000, -4.312500000000, 1492750634
0.048583984375, 0.234130859375, 1.005859375000, -3.796875000000, 0.671875000000, -4.312500000000, 1492750634
0.138916015625, 0.295410156250, 0.986083984375, -3.250000000000, 2.867187500000, -6.468750000000, 1492750635
0.054443359375, 0.341064453125, 0.927246093750, -3.125000000000, -2.492187500000, -1.781250000000, 1492750635
0.054443359375, 0.341064453125, 0.927246093750, -3.125000000000, -2.492187500000, -1.781250000000, 1492750635
0.054443359375, 0.341064453125, 0.927246093750, -3.125000000000, -2.492187500000, -1.781250000000, 1492750635
0.054443359375, 0.341064453125, 0.927246093750, -3.125000000000, -2.492187500000, -1.781250000000, 1492750635
0.054443359375, 0.341064453125, 0.927246093750, -3.125000000000, -2.492187500000, -1.781250000000, 1492750635
0.054443359375, 0.341064453125, 0.927246093750, -3.125000000000, -2.492187500000, -1.781250000000, 1492750635
0.081542968750, 0.359863281250, 0.921630859375, 0.046875000000, 2.476562500000, -3.312500000000, 1492750635
0.127929687500, 0.463378906250, 0.927734375000, 0.046875000000, 2.476562500000, -3.312500000000, 1492750635
0.127929687500, 0.463378906250, 0.927734375000, 0.046875000000, 2.476562500000, -3.312500000000, 1492750635
0.127929687500, 0.463378906250, 0.927734375000, 0.046875000000, 2.476562500000, -3.312500000000, 1492750635
0.127929687500, 0.463378906250, 0.927734375000, 0.046875000000, 2.476562500000, -3.312500000000, 1492750635
0.127929687500, 0.463378906250, 0.927734375000, 0.046875000000, 2.476562500000, -3.312500000000, 1492750635
0.060791015625, 0.387939453125, 1.020751953125, -2.062500000000, 0.367187500000, -6.132812500000, 1492750635
0.060791015625, 0.387939453125, 1.020751953125, -2.062500000000, 0.367187500000, -6.132812500000, 1492750635
0.060791015625, 0.387939453125, 1.020751953125, -2.062500000000, 0.367187500000, -6.132812500000, 1492750635
0.057128906250, 0.366943359375, 1.016845703125, -2.828125000000, 0.882812500000, -3.132812500000, 1492750635
0.057128906250, 0.366943359375, 1.016845703125, -2.828125000000, 0.882812500000, -3.132812500000, 1492750635
0.057128906250, 0.366943359375, 1.016845703125, -2.828125000000, 0.882812500000, -3.132812500000, 1492750635
0.057128906250, 0.366943359375, 1.016845703125, -2.828125000000, 0.882812500000, -3.132812500000, 1492750635
0.100341796875, 0.346923828125, 1.063964843750, -2.851562500000, -0.679687500000, -4.656250000000, 1492750635
0.100341796875, 0.346923828125, 1.063964843750, -2.851562500000, -0.679687500000, -4.656250000000, 1492750635
0.100341796875, 0.346923828125, 1.063964843750, -2.851562500000, -0.679687500000, -4.656250000000, 1492750635
0.081787109375, 0.288818359375, 1.031005859375, -1.640625000000, 2.578125000000, -6.164062500000, 1492750635
0.081787109375, 0.288818359375, 1.031005859375, -1.640625000000, 2.578125000000, -6.164062500000, 1492750635
0.081787109375, 0.288818359375, 1.031005859375, -1.640625000000, 2.578125000000, -6.164062500000, 1492750635
0.147949218750, 0.337890625000, 0.941162109375, -6.250000000000, -2.007812500000, -3.851562500000, 1492750635
0.138427734375, 0.298828125000, 0.931152343750, -4.546875000000, 0.843750000000, -6.273437500000, 1492750635
0.138427734375, 0.298828125000, 0.931152343750, -4.546875000000, 0.843750000000, -6.273437500000, 1492750635
0.138427734375, 0.298828125000, 0.931152343750, -4.546875000000, 0.843750000000, -6.273437500000, 1492750635
0.138427734375, 0.298828125000, 0.931152343750, -4.539062500000, -0.632812500000, -6.398437500000, 1492750635
0.133300781250, 0.302246093750, 0.948242187500, -4.257812500000, -0.312500000000, -6.320312500000, 1492750635
0.133300781250, 0.302246093750, 0.948242187500, -4.257812500000, -0.312500000000, -6.320312500000, 1492750635
0.133300781250, 0.302246093750, 0.948242187500, -4.257812500000, -0.312500000000, -6.320312500000, 1492750635
0.133300781250, 0.302246093750, 0.948242187500, -4.257812500000, -0.312500000000, -6.320312500000, 1492750635
0.133300781250, 0.302246093750, 0.948242187500, -4.257812500000, -0.312500000000, -6.320312500000, 1492750635
0.139892578125, 0.457275390625, 0.851806640625, -4.976562500000, 0.007812500000, -3.343750000000, 1492750635
0.139892578125, 0.457275390625, 0.851806640625, -4.976562500000, 0.007812500000, -3.343750000000, 1492750635
0.139892578125, 0.457275390625, 0.851806640625, -4.976562500000, 0.007812500000, -3.343750000000, 1492750635
0.142333984375, 0.293945312500, 0.917968750000, -4.578125000000, -0.500000000000, -4.968750000000, 1492750635
0.142333984375, 0.293945312500, 0.917968750000, -4.578125000000, -0.500000000000, -4.968750000000, 1492750635
0.142333984375, 0.293945312500, 0.917968750000, -4.578125000000, -0.500000000000, -4.968750000000, 1492750635
0.200927734375, 0.395507812500, 1.043457031250, -1.593750000000, -0.750000000000, -1.851562500000, 1492750635
0.200927734375, 0.395507812500, 1.043457031250, -1.593750000000, -0.750000000000, -1.851562500000, 1492750635
0.200927734375, 0.395507812500, 1.043457031250, -1.593750000000, -0.750000000000, -1.851562500000, 1492750635
0.200927734375, 0.395507812500, 1.043457031250, -1.593750000000, -0.750000000000, -1.851562500000, 1492750635
0.135742187500, 0.381835937500, 1.030029296875, -6.578125000000, -0.648437500000, -4.187500000000, 1492750635
0.135742187500, 0.381835937500, 1.030029296875, -6.578125000000, -0.648437500000, -4.187500000000, 1492750635
0.135742187500, 0.381835937500, 1.030029296875, -6.578125000000, -0.648437500000, -4.187500000000, 1492750635
0.049316406250, 0.399902343750, 0.930175781250, -3.226562500000, -0.195312500000, -3.140625000000, 1492750635
0.049316406250, 0.399902343750, 0.930175781250, -3.226562500000, -0.195312500000, -3.140625000000, 1492750635
0.049316406250, 0.399902343750, 0.930175781250, -3.226562500000, -0.195312500000, -3.140625000000, 1492750635
0.099853515625, 0.440429687500, 0.971435546875, -3.796875000000, 0.937500000000, -1.328125000000, 1492750635
0.099853515625, 0.440429687500, 0.971435546875, -3.796875000000, 0.937500000000, -1.328125000000, 1492750635
0.099853515625, 0.440429687500, 0.971435546875, -3.796875000000, 0.937500000000, -1.328125000000, 1492750635
0.028808593750, 0.467529296875, 1.015625000000, -3.164062500000, 0.796875000000, -1.671875000000, 1492750635
0.028808593750, 0.467529296875, 1.015625000000, -3.164062500000, 0.796875000000, -1.671875000000, 1492750635
0.028808593750, 0.467529296875, 1.015625000000, -3.164062500000, 0.796875000000, -1.671875000000, 1492750635
0.028808593750, 0.467529296875, 1.015625000000, -3.164062500000, 0.796875000000, -1.671875000000, 1492750635
0.038330078125, 0.351562500000, 1.026855468750, -3.703125000000, -0.203125000000, -4.687500000000, 1492750635
0.038330078125, 0.351562500000, 1.026855468750, -3.703125000000, -0.203125000000, -4.687500000000, 1492750635
0.038330078125, 0.351562500000, 1.026855468750, -3.703125000000, -0.203125000000, -4.687500000000, 1492750635
0.101074218750, 0.219238281250, 0.909667968750, -4.906250000000, 0.835937500000, -4.351562500000, 1492750635
0.101074218750, 0.219238281250, 0.909667968750, -4.906250000000, 0.835937500000, -4.351562500000, 1492750635
0.101074218750, 0.219238281250, 0.909667968750, -4.906250000000, 0.835937500000, -4.351562500000, 1492750635
0.105468750000, 0.290283203125, 1.018798828125, -1.242187500000, 0.468750000000, -3.234375000000, 1492750635
0.105468750000, 0.290283203125, 1.018798828125, -1.242187500000, 0.468750000000, -3.234375000000, 1492750635
0.105468750000, 0.290283203125, 1.018798828125, -1.242187500000, 0.468750000000, -3.234375000000, 1492750635
0.088867187500, 0.349121093750, 0.984863281250, -4.203125000000, 2.984375000000, -4.406250000000, 1492750635
0.088867187500, 0.349121093750, 0.984863281250, -4.203125000000, 2.984375000000, -4.406250000000, 1492750636
0.088867187500, 0.349121093750, 0.984863281250, -4.203125000000, 2.984375000000, -4.406250000000, 1492750636
0.088867187500, 0.349121093750, 0.984863281250, -4.203125000000, 2.984375000000, -4.406250000000, 1492750636
0.147216796875, 0.320068359375, 1.073730468750, -1.687500000000, -2.351562500000, -1.390625000000, 1492750636
0.130615234375, 0.225585937500, 0.867431640625, -4.296875000000, -2.609375000000, -2.421875000000, 1492750636
0.130615234375, 0.225585937500, 0.867431640625, -4.296875000000, -2.609375000000, -2.421875000000, 1492750636
0.130615234375, 0.225585937500, 0.867431640625, -4.296875000000, -2.609375000000, -2.421875000000, 1492750636
0.130615234375, 0.225585937500, 0.867431640625, -4.296875000000, -2.609375000000, -2.421875000000, 1492750636
0.130615234375, 0.225585937500, 0.867431640625, -4.296875000000, -2.609375000000, -2.421875000000, 1492750636
0.140136718750, 0.340820312500, 0.924316406250, -3.156250000000, -0.929687500000, -3.156250000000, 1492750636
0.140136718750, 0.340820312500, 0.924316406250, -3.156250000000, -0.929687500000, -3.156250000000, 1492750636
0.140136718750, 0.340820312500, 0.924316406250, -3.156250000000, -0.929687500000, -3.156250000000, 1492750636
0.040771484375, 0.349853515625, 1.074951171875, -5.132812500000, 2.445312500000, -4.710937500000, 1492750636
0.040771484375, 0.349853515625, 1.074951171875, -5.132812500000, 2.445312500000, -4.710937500000, 1492750636
0.040771484375, 0.349853515625, 1.074951171875, -5.132812500000, 2.445312500000, -4.710937500000, 1492750636
0.057617187500, 0.301025390625, 0.932861328125, -8.843750000000, -0.234375000000, -4.804687500000, 1492750636
0.057617187500, 0.301025390625, 0.932861328125, -8.843750000000, -0.234375000000, -4.804687500000, 1492750636
0.057617187500, 0.301025390625, 0.932861328125, -8.843750000000, -0.234375000000, -4.804687500000, 1492750636
0.057617187500, 0.301025390625, 0.932861328125, -8.843750000000, -0.234375000000, -4.804687500000, 1492750636
0.144775390625, 0.308837890625, 0.902832031250, -5.609375000000, -0.039062500000, -6.679687500000, 1492750636
0.144775390625, 0.308837890625, 0.902832031250, -5.609375000000, -0.039062500000, -6.679687500000, 1492750636
0.144775390625, 0.308837890625, 0.902832031250, -5.609375000000, -0.039062500000, -6.679687500000, 1492750636
0.105712890625, 0.297363281250, 0.977050781250, -6.023437500000, 2.546875000000, -3.242187500000, 1492750636
0.105712890625, 0.297363281250, 0.977050781250, -6.023437500000, 2.546875000000, -3.242187500000, 1492750636
0.105712890625, 0.297363281250, 0.977050781250, -6.023437500000, 2.546875000000, -3.242187500000, 1492750636
0.052490234375, 0.241699218750, 0.970703125000, -6.875000000000, -2.218750000000, -3.367187500000, 1492750636
0.107910156250, 0.348876953125, 0.951904296875, -3.695312500000, -1.226562500000, -6.148437500000, 1492750636
0.107910156250, 0.348876953125, 0.951904296875, -3.695312500000, -1.226562500000, -6.148437500000, 1492750636
0.107910156250, 0.348876953125, 0.951904296875, -3.695312500000, -1.226562500000, -6.148437500000, 1492750636
0.107910156250, 0.348876953125, 0.951904296875, -3.695312500000, -1.226562500000, -6.148437500000, 1492750636
0.146728515625, 0.284667968750, 1.004638671875, -6.359375000000, 0.710937500000, -4.445312500000, 1492750636
0.146728515625, 0.284667968750, 1.004638671875, -6.359375000000, 0.710937500000, -4.445312500000, 1492750636
0.146728515625, 0.284667968750, 1.004638671875, -6.359375000000, 0.710937500000, -4.445312500000, 1492750636
0.146728515625, 0.284667968750, 1.004638671875, -6.359375000000, 0.710937500000, -4.445312500000, 1492750636
0.146728515625, 0.284667968750, 1.004638671875, -6.359375000000, 0.710937500000, -4.445312500000, 1492750636
0.111328125000, 0.305908203125, 1.031005859375, -3.851562500000, -0.289062500000, -5.195312500000, 1492750636
0.111328125000, 0.305908203125, 1.031005859375, -3.851562500000, -0.289062500000, -5.195312500000, 1492750636
0.111328125000, 0.305908203125, 1.031005859375, -3.851562500000, -0.289062500000, -5.195312500000, 1492750636
0.061523437500, 0.293945312500, 1.028808593750, -4.000000000000, 0.335937500000, -2.875000000000, 1492750636
0.061523437500, 0.293945312500, 1.028808593750, -4.000000000000, 0.335937500000, -2.875000000000, 1492750636
0.061523437500, 0.293945312500, 1.028808593750, -4.000000000000, 0.335937500000, -2.875000000000, 1492750636
0.061523437500, 0.293945312500, 1.028808593750, -4.000000000000, 0.335937500000, -2.875000000000, 1492750636
0.056884765625, 0.242675781250, 0.994384765625, -6.132812500000, -0.554687500000, 0.148437500000, 1492750636
0.056884765625, 0.242675781250, 0.994384765625, -6.132812500000, -0.554687500000, 0.148437500000, 1492750636
0.056884765625, 0.242675781250, 0.994384765625, -6.132812500000, -0.554687500000, 0.148437500000, 1492750636
0.060791015625, 0.237548828125, 0.915527343750, -6.062500000000, 2.640625000000, -4.210937500000, 1492750636
0.060791015625, 0.237548828125, 0.915527343750, -6.062500000000, 2.640625000000, -4.210937500000, 1492750636
0.060791015625, 0.237548828125, 0.915527343750, -6.062500000000, 2.640625000000, -4.210937500000, 1492750636
0.269042968750, 0.225097656250, 1.073730468750, -6.156250000000, -0.437500000000, -1.859375000000, 1492750636
0.269042968750, 0.225097656250, 1.073730468750, -6.156250000000, -0.437500000000, -1.859375000000, 1492750636
0.269042968750, 0.225097656250, 1.073730468750, -6.156250000000, -0.437500000000, -1.859375000000, 1492750636
0.039794921875, 0.329345703125, 0.990234375000, -3.554687500000, 1.046875000000, -1.828125000000, 1492750636
0.039794921875, 0.329345703125, 0.990234375000, -3.554687500000, 1.046875000000, -1.828125000000, 1492750636
0.039794921875, 0.329345703125, 0.990234375000, -3.554687500000, 1.046875000000, -1.828125000000, 1492750636
0.148437500000, 0.405761718750, 0.929931640625, -2.273437500000, 2.500000000000, -5.046875000000, 1492750636
0.148437500000, 0.405761718750, 0.929931640625, -2.273437500000, 2.500000000000, -5.046875000000, 1492750636
0.148437500000, 0.405761718750, 0.929931640625, -2.273437500000, 2.500000000000, -5.046875000000, 1492750636
0.148437500000, 0.405761718750, 0.929931640625, -2.273437500000, 2.500000000000, -5.046875000000, 1492750636
0.075683593750, 0.331787109375, 1.019531250000, -4.921875000000, 0.289062500000, -4.390625000000, 1492750636
0.075683593750, 0.331787109375, 1.019531250000, -4.921875000000, 0.289062500000, -4.390625000000, 1492750636
0.075683593750, 0.331787109375, 1.019531250000, -4.921875000000, 0.289062500000, -4.390625000000, 1492750636
0.045166015625, 0.363037109375, 0.925048828125, -3.093750000000, 0.625000000000, -3.039062500000, 1492750636
-0.000732421875, 0.362548828125, 0.935546875000, -6.078125000000, 1.335937500000, -6.492187500000, 1492750636
-0.000732421875, 0.362548828125, 0.935546875000, -6.078125000000, 1.335937500000, -6.492187500000, 1492750636
-0.000732421875, 0.362548828125, 0.935546875000, -6.078125000000, 1.335937500000, -6.492187500000, 1492750636
-0.000732421875, 0.362548828125, 0.935546875000, -6.078125000000, 1.335937500000, -6.492187500000, 1492750637
0.033935546875, 0.330566406250, 1.022949218750, -6.273437500000, 2.054687500000, -4.398437500000, 1492750637
0.033935546875, 0.330566406250, 1.022949218750, -6.273437500000, 2.054687500000, -4.398437500000, 1492750637
0.033935546875, 0.330566406250, 1.022949218750, -6.273437500000, 2.054687500000, -4.398437500000, 1492750637
0.033935546875, 0.330566406250, 1.022949218750, -6.273437500000, 2.054687500000, -4.398437500000, 1492750637
0.033935546875, 0.330566406250, 1.022949218750, -6.273437500000, 2.054687500000, -4.398437500000, 1492750637
0.082519531250, 0.389160156250, 1.012695312500, -3.468750000000, 1.085937500000, -8.101562500000, 1492750637
0.082519531250, 0.389160156250, 1.012695312500, -3.468750000000, 1.085937500000, -8.101562500000, 1492750637
0.082519531250, 0.389160156250, 1.012695312500, -3.468750000000, 1.085937500000, -8.101562500000, 1492750637
0.043212890625, 0.302490234375, 0.930908203125, -1.546875000000, -0.382812500000, -4.640625000000, 1492750637
0.043212890625, 0.302490234375, 0.930908203125, -1.546875000000, -0.382812500000, -4.640625000000, 1492750637
0.115722656250, 0.336914062500, 1.022216796875, -6.101562500000, 0.867187500000, -3.343750000000, 1492750637
0.115722656250, 0.336914062500, 1.022216796875, -6.101562500000, 0.867187500000, -3.343750000000, 1492750637
0.115722656250, 0.336914062500, 1.022216796875, -6.101562500000, 0.867187500000, -3.343750000000, 1492750637
0.115722656250, 0.336914062500, 1.022216796875, -6.101562500000, 0.867187500000, -3.343750000000, 1492750637
0.115722656250, 0.336914062500, 1.022216796875, -6.101562500000, 0.867187500000, -3.343750000000, 1492750637
0.115722656250, 0.336914062500, 1.022216796875, -6.101562500000, 0.867187500000, -3.343750000000, 1492750637
0.109375000000, 0.341796875000, 1.013671875000, -1.421875000000, 0.515625000000, -3.843750000000, 1492750637
0.109375000000, 0.341796875000, 1.013671875000, -1.421875000000, 0.515625000000, -3.843750000000, 1492750637
0.109375000000, 0.341796875000, 1.013671875000, -1.421875000000, 0.515625000000, -3.843750000000, 1492750637
0.109375000000, 0.341796875000, 1.013671875000, -1.421875000000, 0.515625000000, -3.843750000000, 1492750637
0.145019531250, 0.225097656250, 1.068359375000, -2.585937500000, -2.171875000000, -6.992187500000, 1492750637
0.106689453125, 0.310058593750, 0.933349609375, -1.968750000000, -1.242187500000, -6.460937500000, 1492750637
0.106689453125, 0.310058593750, 0.933349609375, -1.968750000000, -1.242187500000, -6.460937500000, 1492750637
0.106689453125, 0.310058593750, 0.933349609375, -1.968750000000, -1.242187500000, -6.460937500000, 1492750637
0.143554687500, 0.284423828125, 0.866943359375, -3.843750000000, 0.187500000000, -4.312500000000, 1492750637
0.143554687500, 0.284423828125, 0.866943359375, -3.843750000000, 0.187500000000, -4.312500000000, 1492750637
0.143554687500, 0.284423828125, 0.866943359375, -3.843750000000, 0.187500000000, -4.312500000000, 1492750637
0.143554687500, 0.284423828125, 0.866943359375, -3.843750000000, 0.187500000000, -4.312500000000, 1492750637
0.047363281250, 0.408447265625, 0.922363281250, -5.656250000000, -1.304687500000, -4.882812500000, 1492750637
0.047363281250, 0.408447265625, 0.922363281250, -5.656250000000, -1.304687500000, -4.882812500000, 1492750637
0.047363281250, 0.408447265625, 0.922363281250, -5.656250000000, -1.304687500000, -4.882812500000, 1492750637
0.144287109375, 0.324218750000, 0.928466796875, -4.312500000000, 2.632812500000, -6.984375000000, 1492750637
0.094970703125, 0.227294921875, 1.021484375000, -1.296875000000, 2.968750000000, -5.109375000000, 1492750637
0.094970703125, 0.227294921875, 1.021484375000, -1.296875000000, 2.968750000000, -5.109375000000, 1492750637
0.094970703125, 0.227294921875, 1.021484375000, -1.296875000000, 2.968750000000, -5.109375000000, 1492750637
0.094970703125, 0.227294921875, 1.021484375000, -1.296875000000, 2.968750000000, -5.109375000000, 1492750637
0.094970703125, 0.227294921875, 1.021484375000, -2.515625000000, -0.750000000000, -6.710937500000, 1492750637
0.041015625000, 0.327148437500, 1.089355468750, -10.515625000000, -1.070312500000, -4.250000000000, 1492750637
0.041015625000, 0.327148437500, 1.089355468750, -10.515625000000, -1.070312500000, -4.250000000000, 1492750637
0.041015625000, 0.327148437500, 1.089355468750, -10.515625000000, -1.070312500000, -4.250000000000, 1492750637
0.041015625000, 0.327148437500, 1.089355468750, -10.515625000000, -1.070312500000, -4.250000000000, 1492750637
0.143554687500, 0.281982421875, 1.074951171875, -9.367187500000, -5.843750000000, -5.867187500000, 1492750637
0.143554687500, 0.281982421875, 1.074951171875, -9.367187500000, -5.843750000000, -5.867187500000, 1492750637
0.143554687500, 0.281982421875, 1.074951171875, -9.367187500000, -5.843750000000, -5.867187500000, 1492750637
0.093994140625, 0.370117187500, 0.968750000000, 1.476562500000, -16.296875000000, -13.875000000000, 1492750637
0.093994140625, 0.370117187500, 0.968750000000, 1.476562500000, -16.296875000000, -13.875000000000, 1492750637
0.093994140625, 0.370117187500, 0.968750000000, 1.476562500000, -16.296875000000, -13.875000000000, 1492750637
0.142822265625, 0.517333984375, 0.978271484375, 6.843750000000, -19.640625000000, -16.820312500000, 1492750637
0.142822265625, 0.517333984375, 0.978271484375, 6.843750000000, -19.640625000000, -16.820312500000, 1492750637
0.142822265625, 0.517333984375, 0.978271484375, 6.843750000000, -19.640625000000, -16.820312500000, 1492750637
0.142822265625, 0.517333984375, 0.978271484375, 6.843750000000, -19.640625000000, -16.820312500000, 1492750637
0.142822265625, 0.517333984375, 0.978271484375, 6.843750000000, -19.640625000000, -16.820312500000, 1492750637
0.142822265625, 0.517333984375, 0.978271484375, 6.843750000000, -19.640625000000, -16.820312500000, 1492750637
0.260742187500, 0.293701171875, 1.089843750000, 8.382812500000, -14.492187500000, -7.585937500000, 1492750637
0.260742187500, 0.293701171875, 1.089843750000, 8.382812500000, -14.492187500000, -7.585937500000, 1492750637
0.260742187500, 0.293701171875, 1.089843750000, 8.382812500000, -14.492187500000, -7.585937500000, 1492750637
0.260742187500, 0.293701171875, 1.089843750000, 8.382812500000, -14.492187500000, -7.585937500000, 1492750637
0.181152343750, 0.303222656250, 0.987792968750, -3.492187500000, 8.203125000000, -6.320312500000, 1492750637
0.181152343750, 0.303222656250, 0.987792968750, -3.492187500000, 8.203125000000, -6.320312500000, 1492750637
0.181152343750, 0.303222656250, 0.987792968750, -3.492187500000, 8.203125000000, -6.320312500000, 1492750637
0.179687500000, 0.343505859375, 0.869384765625, 14.156250000000, 8.132812500000, -8.703125000000, 1492750637
0.179687500000, 0.343505859375, 0.869384765625, 14.156250000000, 8.132812500000, -8.703125000000, 1492750637
0.179687500000, 0.343505859375, 0.869384765625, 14.156250000000, 8.132812500000, -8.703125000000, 1492750637
0.183105468750, 0.174072265625, 0.921630859375, 12.828125000000, 15.125000000000, 6.671875000000, 1492750637
0.183105468750, 0.174072265625, 0.921630859375, 12.828125000000, 15.125000000000, 6.671875000000, 1492750637
0.183105468750, 0.174072265625, 0.921630859375, 12.828125000000, 15.125000000000, 6.671875000000, 1492750637
0.183105468750, 0.174072265625, 0.921630859375, 12.828125000000, 15.125000000000, 6.671875000000, 1492750637
0.302001953125, 0.139892578125, 1.084960937500, -3.867187500000, 13.257812500000, 4.140625000000, 1492750637
0.302001953125, 0.139892578125, 1.084960937500, -3.867187500000, 13.257812500000, 4.140625000000, 1492750638
0.302001953125, 0.139892578125, 1.084960937500, -3.867187500000, 13.257812500000, 4.140625000000, 1492750638
0.243896484375, 0.108154296875, 1.131591796875, -0.398437500000, -18.914062500000, 24.406250000000, 1492750638
0.243896484375, 0.108154296875, 1.131591796875, -0.398437500000, -18.914062500000, 24.406250000000, 1492750638
0.243896484375, 0.108154296875, 1.131591796875, -0.398437500000, -18.914062500000, 24.406250000000, 1492750638
0.243896484375, 0.108154296875, 1.131591796875, -0.398437500000, -18.914062500000, 24.406250000000, 1492750638
0.105712890625, 0.251220703125, 1.025634765625, 6.992187500000, -17.601562500000, 28.195312500000, 1492750638
0.105712890625, 0.251220703125, 1.025634765625, 6.992187500000, -17.601562500000, 28.195312500000, 1492750638
0.105712890625, 0.251220703125, 1.025634765625, 6.992187500000, -17.601562500000, 28.195312500000, 1492750638
0.105712890625, 0.251220703125, 1.025634765625, 6.992187500000, -17.601562500000, 28.195312500000, 1492750638
0.105712890625, 0.251220703125, 1.025634765625, 6.992187500000, -17.601562500000, 28.195312500000, 1492750638
0.105712890625, 0.251220703125, 1.025634765625, 6.992187500000, -17.601562500000, 28.195312500000, 1492750638
-0.030517578125, 0.363037109375, 0.859863281250, 38.679687500000, -20.578125000000, 33.234375000000, 1492750638
-0.030517578125, 0.363037109375, 0.859863281250, 38.679687500000, -20.578125000000, 33.234375000000, 1492750638
-0.030517578125, 0.363037109375, 0.859863281250, 38.679687500000, -20.578125000000, 33.234375000000, 1492750638
-0.015136718750, 0.446533203125, 0.882324218750, 45.914062500000, -10.351562500000, 20.554687500000, 1492750638
-0.015136718750, 0.446533203125, 0.882324218750, 45.914062500000, -10.351562500000, 20.554687500000, 1492750638
-0.015136718750, 0.446533203125, 0.882324218750, 45.914062500000, -10.351562500000, 20.554687500000, 1492750638
0.158447265625, 0.248046875000, 0.941406250000, -8.343750000000, -21.132812500000, 25.460937500000, 1492750638
0.158447265625, 0.248046875000, 0.941406250000, -8.343750000000, -21.132812500000, 25.460937500000, 1492750638
0.158447265625, 0.248046875000, 0.941406250000, -8.343750000000, -21.132812500000, 25.460937500000, 1492750638
0.293701171875, 0.166503906250, 1.117919921875, -83.882812500000, -8.070312500000, 13.257812500000, 1492750638
0.293701171875, 0.166503906250, 1.117919921875, -83.882812500000, -8.070312500000, 13.257812500000, 1492750638
0.293701171875, 0.166503906250, 1.117919921875, -83.882812500000, -8.070312500000, 13.257812500000, 1492750638
0.293701171875, 0.166503906250, 1.117919921875, -83.882812500000, -8.070312500000, 13.257812500000, 1492750638
0.110107421875, 0.241943359375, 0.990722656250, -131.054687500000, 40.328125000000, 3.289062500000, 1492750638
0.110107421875, 0.241943359375, 0.990722656250, -131.054687500000, 40.328125000000, 3.289062500000, 1492750638
0.110107421875, 0.241943359375, 0.990722656250, -131.054687500000, 40.328125000000, 3.289062500000, 1492750638
0.180908203125, 0.891845703125, 1.205078125000, -144.976562500000, 149.890625000000, 15.710937500000, 1492750638
0.180908203125, 0.891845703125, 1.205078125000, -144.976562500000, 149.890625000000, 15.710937500000, 1492750638
0.180908203125, 0.891845703125, 1.205078125000, -144.976562500000, 149.890625000000, 15.710937500000, 1492750638
0.053222656250, 0.727539062500, 1.003662109375, -32.859375000000, 188.039062500000, 23.750000000000, 1492750638
0.053222656250, 0.727539062500, 1.003662109375, -32.859375000000, 188.039062500000, 23.750000000000, 1492750638
0.053222656250, 0.727539062500, 1.003662109375, -32.859375000000, 188.039062500000, 23.750000000000, 1492750638
-0.273437500000, 0.249755859375, 0.527587890625, 18.203125000000, 82.343750000000, 52.828125000000, 1492750638
-0.273437500000, 0.249755859375, 0.527587890625, 18.203125000000, 82.343750000000, 52.828125000000, 1492750638
-0.273437500000, 0.249755859375, 0.527587890625, 18.203125000000, 82.343750000000, 52.828125000000, 1492750638
-0.273437500000, 0.249755859375, 0.527587890625, 18.203125000000, 82.343750000000, 52.828125000000, 1492750638
-0.107910156250, 0.235595703125, 0.337402343750, 87.015625000000, 21.804687500000, 45.453125000000, 1492750638
-0.107910156250, 0.235595703125, 0.337402343750, 87.015625000000, 21.804687500000, 45.453125000000, 1492750638
-0.107910156250, 0.235595703125, 0.337402343750, 87.015625000000, 21.804687500000, 45.453125000000, 1492750638
-0.300048828125, 0.098632812500, 0.711669921875, 82.335937500000, 84.187500000000, 80.734375000000, 1492750638
-0.300048828125, 0.098632812500, 0.711669921875, 82.335937500000, 84.187500000000, 80.734375000000, 1492750638
-0.300048828125, 0.098632812500, 0.711669921875, 82.335937500000, 84.187500000000, 80.734375000000, 1492750638
-0.105712890625, 0.333740234375, 1.060302734375, 35.703125000000, 4.929687500000, 70.367187500000, 1492750638
-0.105712890625, 0.333740234375, 1.060302734375, 35.703125000000, 4.929687500000, 70.367187500000, 1492750638
-0.105712890625, 0.333740234375, 1.060302734375, 35.703125000000, 4.929687500000, 70.367187500000, 1492750638
-0.173583984375, 0.336181640625, 1.219482421875, -40.976562500000, -19.375000000000, 59.140625000000, 1492750638
-0.173583984375, 0.336181640625, 1.219482421875, -40.976562500000, -19.375000000000, 59.140625000000, 1492750638
-0.173583984375, 0.336181640625, 1.219482421875, -40.976562500000, -19.375000000000, 59.140625000000, 1492750638
-0.173583984375, 0.336181640625, 1.219482421875, -40.976562500000, -19.375000000000, 59.140625000000, 1492750638
-0.447998046875, 0.173828125000, 1.058349609375, 34.742187500000, 101.726562500000, 111.531250000000, 1492750638
-0.514160156250, 0.135986328125, 1.012939453125, 39.796875000000, 147.945312500000, 143.335937500000, 1492750638
-0.514160156250, 0.135986328125, 1.012939453125, 39.796875000000, 147.945312500000, 143.335937500000, 1492750638
-0.514160156250, 0.135986328125, 1.012939453125, 39.796875000000, 147.945312500000, 143.335937500000, 1492750638
-0.514160156250, 0.135986328125, 1.012939453125, 39.796875000000, 147.945312500000, 143.335937500000, 1492750638
-0.397949218750, 0.109863281250, 0.579833984375, 85.828125000000, 219.101562500000, 147.875000000000, 1492750638
-0.397949218750, 0.109863281250, 0.579833984375, 85.828125000000, 219.101562500000, 147.875000000000, 1492750638
-0.397949218750, 0.109863281250, 0.579833984375, 85.828125000000, 219.101562500000, 147.875000000000, 1492750638
-0.397949218750, 0.109863281250, 0.579833984375, 85.828125000000, 219.101562500000, 147.875000000000, 1492750638
-0.371582031250, -0.180664062500, 0.424316406250, 65.835937500000, 212.289062500000, 121.289062500000, 1492750638
-0.371582031250, -0.180664062500, 0.424316406250, 65.835937500000, 212.289062500000, 121.289062500000, 1492750638
-0.371582031250, -0.180664062500, 0.424316406250, 65.835937500000, 212.289062500000, 121.289062500000, 1492750638
-0.371582031250, -0.180664062500, 0.424316406250, 65.835937500000, 212.289062500000, 121.289062500000, 1492750638
-0.115722656250, -0.262451171875, -0.000732421875, 70.640625000000, 218.125000000000, 136.703125000000, 1492750638
-0.115722656250, -0.262451171875, -0.000732421875, 70.640625000000, 218.125000000000, 136.703125000000, 1492750638
-0.115722656250, -0.262451171875, -0.000732421875, 70.640625000000, 218.125000000000, 136.703125000000, 1492750638
-7.294189453125, -2.016845703125, -0.563232421875, 82.296875000000, 19.289062500000, 119.570312500000, 1492750639
-7.294189453125, -2.016845703125, -0.563232421875, 82.296875000000, 19.289062500000, 119.570312500000, 1492750639
-7.294189453125, -2.016845703125, -0.563232421875, 82.296875000000, 19.289062500000, 119.570312500000, 1492750639
0.754882812500, 0.075927734375, 1.795654296875, 136.742187500000, 253.992187500000, -50.710937500000, 1492750639
0.754882812500, 0.075927734375, 1.795654296875, 136.742187500000, 253.992187500000, -50.710937500000, 1492750639
0.754882812500, 0.075927734375, 1.795654296875, 136.742187500000, 253.992187500000, -50.710937500000, 1492750639
-0.037597656250, -0.580078125000, 0.138427734375, 45.265625000000, 253.992187500000, 90.523437500000, 1492750639
-0.037597656250, -0.580078125000, 0.138427734375, 45.265625000000, 253.992187500000, 90.523437500000, 1492750639
0.096923828125, -0.335449218750, -0.215087890625, 44.585937500000, 253.992187500000, 33.328125000000, 1492750639
-0.346435546875, -0.367919921875, -0.667236328125, -61.210937500000, -54.656250000000, -26.039062500000, 1492750639
-0.396728515625, -0.470703125000, -1.671386718750, 15.953125000000, 75.562500000000, -2.125000000000, 1492750639
-0.396728515625, -0.470703125000, -1.671386718750, 15.953125000000, 75.562500000000, -2.125000000000, 1492750639
-0.396728515625, -0.470703125000, -1.671386718750, 15.953125000000, 75.562500000000, -2.125000000000, 1492750639
-0.129882812500, -0.409179687500, -0.698974609375, 10.296875000000, 23.164062500000, -2.492187500000, 1492750639
-0.129882812500, -0.409179687500, -0.698974609375, 10.296875000000, 23.164062500000, -2.492187500000, 1492750639
-0.129882812500, -0.409179687500, -0.698974609375, 10.296875000000, 23.164062500000, -2.492187500000, 1492750639
-0.129882812500, -0.409179687500, -0.698974609375, 10.296875000000, 23.164062500000, -2.492187500000, 1492750639
-0.129882812500, -0.409179687500, -0.698974609375, 10.296875000000, 23.164062500000, -2.492187500000, 1492750639
-0.129882812500, -0.409179687500, -0.698974609375, 10.296875000000, 23.164062500000, -2.492187500000, 1492750639
-0.132568359375, -0.516601562500, -0.823242187500, -4.781250000000, 27.859375000000, -5.117187500000, 1492750639
-0.132568359375, -0.516601562500, -0.823242187500, -4.781250000000, 27.859375000000, -5.117187500000, 1492750639
-0.132568359375, -0.516601562500, -0.823242187500, -4.781250000000, 27.859375000000, -5.117187500000, 1492750639
-0.132568359375, -0.516601562500, -0.823242187500, -4.781250000000, 27.859375000000, -5.117187500000, 1492750639
-0.132568359375, -0.516601562500, -0.823242187500, -4.781250000000, 27.859375000000, -5.117187500000, 1492750639
-0.132568359375, -0.516601562500, -0.823242187500, -4.781250000000, 27.859375000000, -5.117187500000, 1492750639
-0.279296875000, -0.393554687500, -0.761230468750, -17.406250000000, 16.843750000000, -6.351562500000, 1492750639
-0.443359375000, -0.409179687500, -0.798339843750, -30.531250000000, -10.304687500000, -7.484375000000, 1492750639
-0.443359375000, -0.409179687500, -0.798339843750, -30.531250000000, -10.304687500000, -7.484375000000, 1492750639
-0.546875000000, -0.447021484375, -0.742675781250, -22.671875000000, -21.531250000000, -6.375000000000, 1492750639
-0.630371093750, -0.352539062500, -0.876708984375, -14.867187500000, -34.343750000000, -1.843750000000, 1492750639
-0.630371093750, -0.352539062500, -0.876708984375, -14.867187500000, -34.343750000000, -1.843750000000, 1492750639
-0.630371093750, -0.352539062500, -0.876708984375, -14.867187500000, -34.343750000000, -1.843750000000, 1492750639
-0.630371093750, -0.352539062500, -0.876708984375, -14.867187500000, -34.343750000000, -1.843750000000, 1492750639
-0.630371093750, -0.352539062500, -0.876708984375, -14.867187500000, -34.343750000000, -1.843750000000, 1492750639
-0.630371093750, -0.352539062500, -0.876708984375, -14.867187500000, -34.343750000000, -1.843750000000, 1492750639
-0.630371093750, -0.352539062500, -0.876708984375, -14.867187500000, -34.343750000000, -1.843750000000, 1492750639
-0.396972656250, -0.569335937500, -0.787109375000, 9.531250000000, -7.664062500000, -8.148437500000, 1492750639
-0.381591796875, -0.437011718750, -0.768554687500, -2.406250000000, -0.882812500000, -4.882812500000, 1492750639
-0.381591796875, -0.437011718750, -0.768554687500, -2.406250000000, -0.882812500000, -4.882812500000, 1492750639
-0.381591796875, -0.437011718750, -0.768554687500, -2.406250000000, -0.882812500000, -4.882812500000, 1492750639
-0.381591796875, -0.437011718750, -0.768554687500, -2.406250000000, -0.882812500000, -4.882812500000, 1492750639
-0.381591796875, -0.437011718750, -0.768554687500, -2.406250000000, -0.882812500000, -4.882812500000, 1492750639
-0.381591796875, -0.437011718750, -0.768554687500, -2.406250000000, -0.882812500000, -4.882812500000, 1492750639
-0.381591796875, -0.437011718750, -0.768554687500, -2.406250000000, -0.882812500000, -4.882812500000, 1492750639
-0.381591796875, -0.437011718750, -0.768554687500, -2.406250000000, -0.882812500000, -4.882812500000, 1492750639
-0.458984375000, -0.459960937500, -0.677490234375, -8.210937500000, 0.453125000000, -5.992187500000, 1492750639
-0.458984375000, -0.459960937500, -0.677490234375, -8.210937500000, 0.453125000000, -5.992187500000, 1492750639
-0.458984375000, -0.459960937500, -0.677490234375, -8.210937500000, 0.453125000000, -5.992187500000, 1492750639
-0.458984375000, -0.459960937500, -0.677490234375, -8.210937500000, 0.453125000000, -5.992187500000, 1492750639
-0.420166015625, -0.413574218750, -0.745361328125, -2.039062500000, 3.218750000000, -2.937500000000, 1492750640
-0.420166015625, -0.413574218750, -0.745361328125, -2.039062500000, 3.218750000000, -2.937500000000, 1492750640
-0.420166015625, -0.413574218750, -0.745361328125, -2.039062500000, 3.218750000000, -2.937500000000, 1492750640
-0.420166015625, -0.413574218750, -0.745361328125, -2.039062500000, 3.218750000000, -2.937500000000, 1492750640
-0.420166015625, -0.413574218750, -0.745361328125, -2.039062500000, 3.218750000000, -2.937500000000, 1492750640
-0.420166015625, -0.413574218750, -0.745361328125, -2.039062500000, 3.218750000000, -2.937500000000, 1492750640
-0.416015625000, -0.413330078125, -0.812988281250, -2.117187500000, 6.335937500000, 0.062500000000, 1492750640
-0.508789062500, -0.437744140625, -0.757080078125, -2.617187500000, 8.070312500000, -4.640625000000, 1492750640
-0.508789062500, -0.437744140625, -0.757080078125, -2.617187500000, 8.070312500000, -4.640625000000, 1492750640
-0.508789062500, -0.437744140625, -0.757080078125, -2.617187500000, 8.070312500000, -4.640625000000, 1492750640
-0.508789062500, -0.437744140625, -0.757080078125, -2.617187500000, 8.070312500000, -4.640625000000, 1492750640
-0.508789062500, -0.437744140625, -0.757080078125, -2.617187500000, 8.070312500000, -4.640625000000, 1492750640
-0.309082031250, -0.353759765625, -0.727050781250, -10.453125000000, 4.851562500000, -0.835937500000, 1492750640
-0.309082031250, -0.353759765625, -0.727050781250, -10.453125000000, 4.851562500000, -0.835937500000, 1492750640
-0.309082031250, -0.353759765625, -0.727050781250, -10.453125000000, 4.851562500000, -0.835937500000, 1492750640
-0.309082031250, -0.353759765625, -0.727050781250, -10.453125000000, 4.851562500000, -0.835937500000, 1492750640
-0.309082031250, -0.353759765625, -0.727050781250, -10.453125000000, 4.851562500000, -0.835937500000, 1492750640
-0.437011718750, -0.422363281250, -0.720214843750, -14.125000000000, 1.148437500000, -2.046875000000, 1492750640
-0.437011718750, -0.422363281250, -0.720214843750, -14.125000000000, 1.148437500000, -2.046875000000, 1492750640
-0.437011718750, -0.422363281250, -0.720214843750, -14.125000000000, 1.148437500000, -2.046875000000, 1492750640
-0.437011718750, -0.422363281250, -0.720214843750, -14.125000000000, 1.148437500000, -2.046875000000, 1492750640
-0.437011718750, -0.422363281250, -0.720214843750, -14.125000000000, 1.148437500000, -2.046875000000, 1492750640
-0.437011718750, -0.422363281250, -0.720214843750, -14.125000000000, 1.148437500000, -2.046875000000, 1492750640
-0.456298828125, -0.519775390625, -0.681640625000, -12.046875000000, 1.039062500000, -2.085937500000, 1492750640
-0.503906250000, -0.583984375000, -0.777832031250, -6.148437500000, -0.156250000000, -4.914062500000, 1492750640
-0.440673828125, -0.514892578125, -0.661132812500, -3.304687500000, 1.585937500000, -4.390625000000, 1492750640
-0.440673828125, -0.514892578125, -0.661132812500, -3.304687500000, 1.585937500000, -4.390625000000, 1492750640
-0.440673828125, -0.514892578125, -0.661132812500, -3.304687500000, 1.585937500000, -4.390625000000, 1492750640
-0.381591796875, -0.399169921875, -0.769287109375, -4.890625000000, 3.460937500000, -6.304687500000, 1492750640
-0.381591796875, -0.399169921875, -0.769287109375, -4.890625000000, 3.460937500000, -6.304687500000, 1492750640
-0.381591796875, -0.399169921875, -0.769287109375, -4.890625000000, 3.460937500000, -6.304687500000, 1492750640
-0.381591796875, -0.399169921875, -0.769287109375, -4.890625000000, 3.460937500000, -6.304687500000, 1492750640
-0.381591796875, -0.399169921875, -0.769287109375, -4.890625000000, 3.460937500000, -6.304687500000, 1492750640
-0.381591796875, -0.399169921875, -0.769287109375, -4.890625000000, 3.460937500000, -6.304687500000, 1492750640
-0.381591796875, -0.399169921875, -0.769287109375, -4.890625000000, 3.460937500000, -6.304687500000, 1492750640
-0.307861328125, -0.407958984375, -0.781982421875, -7.320312500000, -2.617187500000, -1.859375000000, 1492750640
-0.307861328125, -0.407958984375, -0.781982421875, -7.320312500000, -2.617187500000, -1.859375000000, 1492750640
-0.307861328125, -0.407958984375, -0.781982421875, -7.320312500000, -2.617187500000, -1.859375000000, 1492750640
-0.402587890625, -0.474853515625, -0.723388671875, -5.593750000000, -3.593750000000, -1.859375000000, 1492750640
-0.402587890625, -0.474853515625, -0.723388671875, -5.593750000000, -3.593750000000, -1.859375000000, 1492750640
-0.402587890625, -0.474853515625, -0.723388671875, -5.593750000000, -3.593750000000, -1.859375000000, 1492750640
-0.402587890625, -0.474853515625, -0.723388671875, -5.593750000000, -3.593750000000, -1.859375000000, 1492750640
-0.402587890625, -0.474853515625, -0.723388671875, -5.593750000000, -3.593750000000, -1.859375000000, 1492750640
-0.402587890625, -0.474853515625, -0.723388671875, -5.593750000000, -3.593750000000, -1.859375000000, 1492750640
-0.402587890625, -0.474853515625, -0.723388671875, -5.593750000000, -3.593750000000, -1.859375000000, 1492750640
-0.402587890625, -0.474853515625, -0.723388671875, -5.593750000000, -3.593750000000, -1.859375000000, 1492750640
-0.402587890625, -0.474853515625, -0.723388671875, -5.593750000000, -3.593750000000, -1.859375000000, 1492750640
-0.402587890625, -0.474853515625, -0.723388671875, -5.593750000000, -3.593750000000, -1.859375000000, 1492750640
-0.408447265625, -0.496337890625, -0.659667968750, -3.343750000000, -1.976562500000, -1.984375000000, 1492750640
-0.391601562500, -0.450195312500, -0.746582031250, -1.195312500000, -4.289062500000, -3.992187500000, 1492750640
-0.391601562500, -0.450195312500, -0.746582031250, -1.195312500000, -4.289062500000, -3.992187500000, 1492750640
-0.391601562500, -0.450195312500, -0.746582031250, -1.195312500000, -4.289062500000, -3.992187500000, 1492750640
-0.391601562500, -0.450195312500, -0.746582031250, -1.195312500000, -4.289062500000, -3.992187500000, 1492750640
-0.391601562500, -0.450195312500, -0.746582031250, -1.195312500000, -4.289062500000, -3.992187500000, 1492750640
-0.391601562500, -0.450195312500, -0.746582031250, -1.195312500000, -4.289062500000, -3.992187500000, 1492750640
-0.391601562500, -0.450195312500, -0.746582031250, -1.195312500000, -4.289062500000, -3.992187500000, 1492750640
-0.391601562500, -0.450195312500, -0.746582031250, -1.195312500000, -4.289062500000, -3.992187500000, 1492750640
-0.403564453125, -0.350585937500, -0.814941406250, -3.328125000000, -6.406250000000, -5.007812500000, 1492750640
-0.403564453125, -0.350585937500, -0.814941406250, -3.328125000000, -6.406250000000, -5.007812500000, 1492750640
-0.471435546875, -0.468505859375, -0.753417968750, -5.304687500000, -1.734375000000, -4.625000000000, 1492750640
-0.399658203125, -0.512207031250, -0.830322265625, -4.609375000000, 1.343750000000, -4.757812500000, 1492750640
-0.399658203125, -0.512207031250, -0.830322265625, -4.609375000000, 1.343750000000, -4.757812500000, 1492750640
-0.399658203125, -0.512207031250, -0.830322265625, -4.609375000000, 1.343750000000, -4.757812500000, 1492750641
-0.399658203125, -0.512207031250, -0.830322265625, -4.609375000000, 1.343750000000, -4.757812500000, 1492750641
-0.399658203125, -0.512207031250, -0.830322265625, -4.609375000000, 1.343750000000, -4.757812500000, 1492750641
-0.399658203125, -0.512207031250, -0.830322265625, -4.609375000000, 1.343750000000, -4.757812500000, 1492750641
-0.399658203125, -0.512207031250, -0.830322265625, -4.609375000000, 1.343750000000, -4.757812500000, 1492750641
-0.399658203125, -0.512207031250, -0.830322265625, -4.609375000000, 1.343750000000, -4.757812500000, 1492750641
-0.399658203125, -0.512207031250, -0.830322265625, -4.609375000000, 1.343750000000, -4.757812500000, 1492750641
-0.347412109375, -0.507568359375, -0.738037109375, -3.843750000000, 2.625000000000, -3.242187500000, 1492750641
-0.347412109375, -0.507568359375, -0.738037109375, -3.843750000000, 2.625000000000, -3.242187500000, 1492750641
-0.347412109375, -0.507568359375, -0.738037109375, -3.843750000000, 2.625000000000, -3.242187500000, 1492750641
-0.347412109375, -0.507568359375, -0.738037109375, -3.843750000000, 2.625000000000, -3.242187500000, 1492750641
-0.437988281250, -0.460205078125, -0.736572265625, -3.796875000000, -4.062500000000, -3.429687500000, 1492750641
-0.361083984375, -0.473632812500, -0.774658203125, -3.414062500000, -1.710937500000, -6.390625000000, 1492750641
-0.361083984375, -0.473632812500, -0.774658203125, -3.414062500000, -1.710937500000, -6.390625000000, 1492750641
-0.361083984375, -0.473632812500, -0.774658203125, -3.414062500000, -1.710937500000, -6.390625000000, 1492750641
-0.361083984375, -0.473632812500, -0.774658203125, -3.414062500000, -1.710937500000, -6.390625000000, 1492750641
-0.439453125000, -0.432373046875, -0.736816406250, -4.914062500000, -4.257812500000, -1.687500000000, 1492750641
-0.439453125000, -0.432373046875, -0.736816406250, -4.914062500000, -4.257812500000, -1.687500000000, 1492750641
-0.439453125000, -0.432373046875, -0.736816406250, -4.914062500000, -4.257812500000, -1.687500000000, 1492750641
-0.439453125000, -0.432373046875, -0.736816406250, -4.914062500000, -4.257812500000, -1.687500000000, 1492750641
-0.439453125000, -0.432373046875, -0.736816406250, -4.914062500000, -4.257812500000, -1.687500000000, 1492750641
-0.439453125000, -0.432373046875, -0.736816406250, -4.914062500000, -4.257812500000, -1.687500000000, 1492750641
-0.432373046875, -0.423095703125, -0.766601562500, -8.445312500000, -0.187500000000, -4.484375000000, 1492750641
-0.455810546875, -0.507812500000, -0.728271484375, -5.015625000000, -0.210937500000, -6.304687500000, 1492750641
-0.361083984375, -0.350830078125, -0.742675781250, -4.046875000000, -0.687500000000, -5.117187500000, 1492750641
-0.361083984375, -0.350830078125, -0.742675781250, -4.046875000000, -0.687500000000, -5.117187500000, 1492750641
-0.367187500000, -0.444824218750, -0.739013671875, -3.445312500000, -0.984375000000, -5.507812500000, 1492750641
-0.367187500000, -0.444824218750, -0.739013671875, -3.445312500000, -0.984375000000, -5.507812500000, 1492750641
-0.367187500000, -0.444824218750, -0.739013671875, -3.445312500000, -0.984375000000, -5.507812500000, 1492750641
-0.367187500000, -0.444824218750, -0.739013671875, -3.445312500000, -0.984375000000, -5.507812500000, 1492750641
-0.367187500000, -0.444824218750, -0.739013671875, -3.445312500000, -0.984375000000, -5.507812500000, 1492750641
-0.367187500000, -0.444824218750, -0.739013671875, -3.445312500000, -0.984375000000, -5.507812500000, 1492750641
-0.367187500000, -0.444824218750, -0.739013671875, -3.445312500000, -0.984375000000, -5.507812500000, 1492750641
-0.367187500000, -0.444824218750, -0.739013671875, -3.445312500000, -0.984375000000, -5.507812500000, 1492750641
-0.363037109375, -0.411132812500, -0.775634765625, -6.195312500000, -0.156250000000, -1.656250000000, 1492750641
-0.443115234375, -0.461669921875, -0.672119140625, -6.179687500000, -1.335937500000, -3.273437500000, 1492750641
-0.443115234375, -0.461669921875, -0.672119140625, -6.179687500000, -1.335937500000, -3.273437500000, 1492750641
-0.443115234375, -0.461669921875, -0.672119140625, -6.179687500000, -1.335937500000, -3.273437500000, 1492750641
-0.443115234375, -0.461669921875, -0.672119140625, -6.179687500000, -1.335937500000, -3.273437500000, 1492750641
-0.462890625000, -0.472412109375, -0.666015625000, -3.765625000000, -0.937500000000, -1.164062500000, 1492750641
-0.462890625000, -0.472412109375, -0.666015625000, -3.765625000000, -0.937500000000, -1.164062500000, 1492750641
-0.462890625000, -0.472412109375, -0.666015625000, -3.765625000000, -0.937500000000, -1.164062500000, 1492750641
-0.462890625000, -0.472412109375, -0.666015625000, -3.765625000000, -0.937500000000, -1.164062500000, 1492750641
-0.462890625000, -0.472412109375, -0.666015625000, -3.765625000000, -0.937500000000, -1.164062500000, 1492750641
-0.462890625000, -0.472412109375, -0.666015625000, -3.765625000000, -0.937500000000, -1.164062500000, 1492750641
-0.462890625000, -0.472412109375, -0.666015625000, -3.765625000000, -0.937500000000, -1.164062500000, 1492750641
-0.346679687500, -0.529785156250, -0.761474609375, -6.468750000000, 0.484375000000, -4.007812500000, 1492750641
-0.346679687500, -0.529785156250, -0.761474609375, -6.468750000000, 0.484375000000, -4.007812500000, 1492750641
-0.346679687500, -0.529785156250, -0.761474609375, -6.468750000000, 0.484375000000, -4.007812500000, 1492750641
-0.378417968750, -0.492431640625, -0.722412109375, -3.226562500000, -0.351562500000, -3.078125000000, 1492750641
-0.378417968750, -0.492431640625, -0.722412109375, -3.226562500000, -0.351562500000, -3.078125000000, 1492750641
-0.378417968750, -0.492431640625, -0.722412109375, -3.226562500000, -0.351562500000, -3.078125000000, 1492750641
-0.378417968750, -0.492431640625, -0.722412109375, -3.226562500000, -0.351562500000, -3.078125000000, 1492750641
-0.440429687500, -0.524414062500, -0.663818359375, -1.687500000000, -0.859375000000, -4.093750000000, 1492750641
-0.354492187500, -0.474853515625, -0.659667968750, -3.507812500000, 0.273437500000, -3.398437500000, 1492750641
-0.354492187500, -0.474853515625, -0.659667968750, -3.507812500000, 0.273437500000, -3.398437500000, 1492750641
-0.417968750000, -0.484619140625, -0.770019531250, -6.054687500000, 2.039062500000, -1.984375000000, 1492750641
-0.367919921875, -0.579101562500, -0.826660156250, -4.070312500000, -0.789062500000, -4.203125000000, 1492750641
-0.367919921875, -0.579101562500, -0.826660156250, -4.070312500000, -0.789062500000, -4.203125000000, 1492750641
-0.367919921875, -0.579101562500, -0.826660156250, -4.070312500000, -0.789062500000, -4.203125000000, 1492750641
-0.367919921875, -0.579101562500, -0.826660156250, -4.070312500000, -0.789062500000, -4.203125000000, 1492750641
-0.367919921875, -0.579101562500, -0.826660156250, -4.070312500000, -0.789062500000, -4.203125000000, 1492750641
-0.416015625000, -0.577636718750, -0.720214843750, -2.062500000000, 1.179687500000, -2.601562500000, 1492750641
-0.358398437500, -0.432617187500, -0.677734375000, -3.476562500000, 2.953125000000, -1.007812500000, 1492750641
-0.358398437500, -0.432617187500, -0.677734375000, -3.476562500000, 2.953125000000, -1.007812500000, 1492750641
-0.358398437500, -0.432617187500, -0.677734375000, -3.476562500000, 2.953125000000, -1.007812500000, 1492750641
-0.402343750000, -0.370849609375, -0.774414062500, -3.359375000000, 1.992187500000, -3.054687500000, 1492750641
-0.402343750000, -0.370849609375, -0.774414062500, -3.359375000000, 1.992187500000, -3.054687500000, 1492750642
-0.402343750000, -0.370849609375, -0.774414062500, -3.359375000000, 1.992187500000, -3.054687500000, 1492750642
-0.402343750000, -0.370849609375, -0.774414062500, -3.359375000000, 1.992187500000, -3.054687500000, 1492750642
-0.402343750000, -0.370849609375, -0.774414062500, -3.359375000000, 1.992187500000, -3.054687500000, 1492750642
-0.402343750000, -0.370849609375, -0.774414062500, -3.359375000000, 1.992187500000, -3.054687500000, 1492750642
-0.402343750000, -0.370849609375, -0.774414062500, -3.359375000000, 1.992187500000, -3.054687500000, 1492750642
-0.402343750000, -0.370849609375, -0.774414062500, -3.359375000000, 1.992187500000, -3.054687500000, 1492750642
-0.451171875000, -0.511962890625, -0.747558593750, -1.671875000000, 2.234375000000, -4.078125000000, 1492750642
-0.451171875000, -0.511962890625, -0.747558593750, -1.671875000000, 2.234375000000, -4.078125000000, 1492750642
-0.390625000000, -0.424072265625, -0.763427734375, -3.359375000000, 0.906250000000, -4.750000000000, 1492750642
-0.389404296875, -0.425048828125, -0.725341796875, -4.460937500000, 4.671875000000, -1.703125000000, 1492750642
-0.389404296875, -0.425048828125, -0.725341796875, -4.460937500000, 4.671875000000, -1.703125000000, 1492750642
-0.389404296875, -0.425048828125, -0.725341796875, -4.460937500000, 4.671875000000, -1.703125000000, 1492750642
-0.389404296875, -0.425048828125, -0.725341796875, -4.460937500000, 4.671875000000, -1.703125000000, 1492750642
-0.389404296875, -0.425048828125, -0.725341796875, -4.460937500000, 4.671875000000, -1.703125000000, 1492750642
-0.389404296875, -0.425048828125, -0.725341796875, -4.460937500000, 4.671875000000, -1.703125000000, 1492750642
-0.389404296875, -0.425048828125, -0.725341796875, -4.460937500000, 4.671875000000, -1.703125000000, 1492750642
-0.389404296875, -0.425048828125, -0.725341796875, -4.460937500000, 4.671875000000, -1.703125000000, 1492750642
-0.349121093750, -0.437500000000, -0.755371093750, -3.703125000000, -0.554687500000, -1.335937500000, 1492750642
-0.349121093750, -0.437500000000, -0.755371093750, -3.703125000000, -0.554687500000, -1.335937500000, 1492750642
-0.428955078125, -0.415283203125, -0.738769531250, -4.734375000000, 2.687500000000, -4.250000000000, 1492750642
-0.508300781250, -0.502197265625, -0.743164062500, -4.734375000000, -2.703125000000, -3.765625000000, 1492750642
-0.508300781250, -0.502197265625, -0.743164062500, -4.734375000000, -2.703125000000, -3.765625000000, 1492750642
-0.508300781250, -0.502197265625, -0.743164062500, -4.734375000000, -2.703125000000, -3.765625000000, 1492750642
-0.508300781250, -0.502197265625, -0.743164062500, -4.734375000000, -2.703125000000, -3.765625000000, 1492750642
-0.458007812500, -0.445068359375, -0.755859375000, -3.835937500000, 0.710937500000, -1.593750000000, 1492750642
-0.458007812500, -0.445068359375, -0.755859375000, -3.835937500000, 0.710937500000, -1.593750000000, 1492750642
-0.458007812500, -0.445068359375, -0.755859375000, -3.835937500000, 0.710937500000, -1.593750000000, 1492750642
-0.458007812500, -0.445068359375, -0.755859375000, -3.835937500000, 0.710937500000, -1.593750000000, 1492750642
-0.458007812500, -0.445068359375, -0.755859375000, -3.835937500000, 0.710937500000, -1.593750000000, 1492750642
-0.352050781250, -0.519531250000, -0.742431640625, -3.429687500000, -0.960937500000, -5.953125000000, 1492750642
-0.352050781250, -0.519531250000, -0.742431640625, -3.429687500000, -0.960937500000, -5.953125000000, 1492750642
-0.352050781250, -0.519531250000, -0.742431640625, -3.429687500000, -0.960937500000, -5.953125000000, 1492750642
-0.352050781250, -0.519531250000, -0.742431640625, -3.429687500000, -0.960937500000, -5.953125000000, 1492750642
-0.352050781250, -0.519531250000, -0.742431640625, -3.429687500000, -0.960937500000, -5.953125000000, 1492750642
-0.420898437500, -0.486572265625, -0.802246093750, -4.710937500000, 0.789062500000, -3.937500000000, 1492750642
-0.420898437500, -0.486572265625, -0.802246093750, -4.710937500000, 0.789062500000, -3.937500000000, 1492750642
-0.420898437500, -0.486572265625, -0.802246093750, -4.710937500000, 0.789062500000, -3.937500000000, 1492750642
-0.420898437500, -0.486572265625, -0.802246093750, -4.710937500000, 0.789062500000, -3.937500000000, 1492750642
-0.366943359375, -0.487792968750, -0.672851562500, -4.343750000000, -0.851562500000, -4.156250000000, 1492750642
-0.366943359375, -0.487792968750, -0.672851562500, -4.343750000000, -0.851562500000, -4.156250000000, 1492750642
-0.366943359375, -0.487792968750, -0.672851562500, -4.343750000000, -0.851562500000, -4.156250000000, 1492750642
-0.388427734375, -0.419677734375, -0.725341796875, -4.406250000000, 2.320312500000, -1.476562500000, 1492750642
-0.310546875000, -0.390136718750, -0.725097656250, -3.187500000000, 2.687500000000, -4.703125000000, 1492750642
-0.503662109375, -0.508056640625, -0.753417968750, -3.437500000000, 0.640625000000, -1.921875000000, 1492750642
-0.419189453125, -0.439208984375, -0.831298828125, -4.812500000000, -2.359375000000, -1.578125000000, 1492750642
-0.419189453125, -0.439208984375, -0.831298828125, -4.812500000000, -2.359375000000, -1.578125000000, 1492750642
-0.419189453125, -0.439208984375, -0.831298828125, -4.812500000000, -2.359375000000, -1.578125000000, 1492750642
-0.419189453125, -0.439208984375, -0.831298828125, -4.812500000000, -2.359375000000, -1.578125000000, 1492750642
-0.419189453125, -0.439208984375, -0.831298828125, -4.812500000000, -2.359375000000, -1.578125000000, 1492750642
-0.419189453125, -0.439208984375, -0.831298828125, -4.812500000000, -2.359375000000, -1.578125000000, 1492750642
-0.419189453125, -0.439208984375, -0.831298828125, -4.812500000000, -2.359375000000, -1.578125000000, 1492750642
-0.419189453125, -0.439208984375, -0.831298828125, -4.812500000000, -2.359375000000, -1.578125000000, 1492750642
-0.419189453125, -0.439208984375, -0.831298828125, -4.812500000000, -2.359375000000, -1.578125000000, 1492750642
-0.419189453125, -0.439208984375, -0.831298828125, -4.812500000000, -2.359375000000, -1.578125000000, 1492750642
-0.351562500000, -0.433593750000, -0.778564453125, -4.242187500000, 0.742187500000, -1.382812500000, 1492750642
-0.351562500000, -0.433593750000, -0.778564453125, -4.242187500000, 0.742187500000, -1.382812500000, 1492750642
-0.351562500000, -0.433593750000, -0.778564453125, -4.242187500000, 0.742187500000, -1.382812500000, 1492750642
-0.351562500000, -0.433593750000, -0.778564453125, -4.242187500000, 0.742187500000, -1.382812500000, 1492750642
-0.351562500000, -0.433593750000, -0.778564453125, -4.242187500000, 0.742187500000, -1.382812500000, 1492750642
-0.351562500000, -0.433593750000, -0.778564453125, -4.242187500000, 0.742187500000, -1.382812500000, 1492750642
-0.362304687500, -0.514892578125, -0.752441406250, -3.812500000000, -0.101562500000, -4.867187500000, 1492750642
-0.362304687500, -0.514892578125, -0.752441406250, -3.812500000000, -0.101562500000, -4.867187500000, 1492750642
-0.340087890625, -0.428222656250, -0.780761718750, -4.843750000000, 0.742187500000, -3.679687500000, 1492750643
-0.390136718750, -0.412109375000, -0.879638671875, -3.953125000000, -2.742187500000, -1.718750000000, 1492750643
-0.390136718750, -0.412109375000, -0.879638671875, -3.953125000000, -2.742187500000, -1.718750000000, 1492750643
-0.390136718750, -0.412109375000, -0.879638671875, -3.953125000000, -2.742187500000, -1.718750000000, 1492750643
-0.390136718750, -0.412109375000, -0.879638671875, -3.953125000000, -2.742187500000, -1.718750000000, 1492750643
-0.390136718750, -0.412109375000, -0.879638671875, -3.953125000000, -2.742187500000, -1.718750000000, 1492750643
-0.390136718750, -0.412109375000, -0.879638671875, -3.953125000000, -2.742187500000, -1.718750000000, 1492750643
-0.390136718750, -0.412109375000, -0.879638671875, -3.953125000000, -2.742187500000, -1.718750000000, 1492750643
-0.438720703125, -0.482666015625, -0.731445312500, -6.570312500000, 2.125000000000, -4.046875000000, 1492750643
-0.359863281250, -0.456542968750, -0.739501953125, -1.828125000000, -1.000000000000, -4.046875000000, 1492750643
-0.359863281250, -0.456542968750, -0.739501953125, -1.828125000000, -1.000000000000, -4.046875000000, 1492750643
-0.353515625000, -0.435058593750, -0.814208984375, -3.156250000000, 0.835937500000, -4.117187500000, 1492750643
-0.353515625000, -0.435058593750, -0.814208984375, -3.156250000000, 0.835937500000, -4.117187500000, 1492750643
-0.353515625000, -0.435058593750, -0.814208984375, -3.156250000000, 0.835937500000, -4.117187500000, 1492750643
-0.353515625000, -0.435058593750, -0.814208984375, -3.156250000000, 0.835937500000, -4.117187500000, 1492750643
-0.353515625000, -0.435058593750, -0.814208984375, -3.156250000000, 0.835937500000, -4.117187500000, 1492750643
-0.353515625000, -0.435058593750, -0.814208984375, -3.156250000000, 0.835937500000, -4.117187500000, 1492750643
-0.451171875000, -0.447998046875, -0.675781250000, -4.531250000000, -0.179687500000, -1.140625000000, 1492750643
-0.384521484375, -0.468750000000, -0.822021484375, -4.531250000000, -0.179687500000, -1.140625000000, 1492750643
-0.384521484375, -0.468750000000, -0.822021484375, -4.531250000000, -0.179687500000, -1.140625000000, 1492750643
-0.384521484375, -0.468750000000, -0.822021484375, -4.531250000000, -0.179687500000, -1.140625000000, 1492750643
-0.384521484375, -0.468750000000, -0.822021484375, -4.531250000000, -0.179687500000, -1.140625000000, 1492750643
-0.384521484375, -0.468750000000, -0.822021484375, -4.531250000000, -0.179687500000, -1.140625000000, 1492750643
-0.500488281250, -0.481201171875, -0.749511718750, -3.398437500000, -2.054687500000, -1.976562500000, 1492750643
-0.447753906250, -0.412597656250, -0.732666015625, -3.835937500000, 0.273437500000, -4.101562500000, 1492750643
-0.447753906250, -0.412597656250, -0.732666015625, -3.835937500000, 0.273437500000, -4.101562500000, 1492750643
-0.447753906250, -0.412597656250, -0.732666015625, -3.835937500000, 0.273437500000, -4.101562500000, 1492750643
-0.447753906250, -0.412597656250, -0.732666015625, -3.835937500000, 0.273437500000, -4.101562500000, 1492750643
-0.365478515625, -0.425781250000, -0.759765625000, -3.554687500000, 0.976562500000, -3.078125000000, 1492750643
-0.365478515625, -0.425781250000, -0.759765625000, -3.554687500000, 0.976562500000, -3.078125000000, 1492750643
-0.365478515625, -0.425781250000, -0.759765625000, -3.554687500000, 0.976562500000, -3.078125000000, 1492750643
-0.365478515625, -0.425781250000, -0.759765625000, -3.554687500000, 0.976562500000, -3.078125000000, 1492750643
-0.365478515625, -0.425781250000, -0.759765625000, -3.554687500000, 0.976562500000, -3.078125000000, 1492750643
-0.365478515625, -0.425781250000, -0.759765625000, -3.554687500000, 0.976562500000, -3.078125000000, 1492750643
-0.446289062500, -0.373291015625, -0.734619140625, -4.820312500000, 0.937500000000, -6.265625000000, 1492750643
-0.446289062500, -0.373291015625, -0.734619140625, -4.820312500000, 0.937500000000, -6.265625000000, 1492750643
-0.446289062500, -0.373291015625, -0.734619140625, -4.820312500000, 0.937500000000, -6.265625000000, 1492750643
-0.387207031250, -0.420898437500, -0.766357421875, -5.296875000000, 0.757812500000, -3.007812500000, 1492750643
-0.426025390625, -0.504638671875, -0.762207031250, -5.312500000000, -2.695312500000, -4.851562500000, 1492750643
-0.443847656250, -0.439453125000, -0.818847656250, -6.539062500000, 0.601562500000, -3.898437500000, 1492750643
-0.443847656250, -0.439453125000, -0.818847656250, -6.539062500000, 0.601562500000, -3.898437500000, 1492750643
-0.443847656250, -0.439453125000, -0.818847656250, -6.539062500000, 0.601562500000, -3.898437500000, 1492750643
-0.443847656250, -0.439453125000, -0.818847656250, -6.539062500000, 0.601562500000, -3.898437500000, 1492750643
-0.443847656250, -0.439453125000, -0.818847656250, -6.539062500000, 0.601562500000, -3.898437500000, 1492750643
-0.443847656250, -0.439453125000, -0.818847656250, -6.539062500000, 0.601562500000, -3.898437500000, 1492750643
-0.443847656250, -0.439453125000, -0.818847656250, -6.539062500000, 0.601562500000, -3.898437500000, 1492750643
-0.443847656250, -0.439453125000, -0.818847656250, -6.539062500000, 0.601562500000, -3.898437500000, 1492750643
