ACC_X,ACC_Y,ACC_Z,G_X,G_Y,G_Z,Unix Time
-0.058593750000, -0.912597656250, 0.363525390625, -14.179687500000, -2.007812500000, -4.835937500000, 1492750738
-0.058593750000, -0.912597656250, 0.363525390625, -14.179687500000, -2.007812500000, -4.835937500000, 1492750738
-0.058593750000, -0.912597656250, 0.363525390625, -14.179687500000, -2.007812500000, -4.835937500000, 1492750738
-0.106933593750, -0.948486328125, 0.413574218750, 8.992187500000, -0.007812500000, -4.867187500000, 1492750738
-0.106933593750, -0.948486328125, 0.413574218750, 8.992187500000, -0.007812500000, -4.867187500000, 1492750738
-0.106933593750, -0.948486328125, 0.413574218750, 8.992187500000, -0.007812500000, -4.867187500000, 1492750738
-0.094238281250, -0.912841796875, 0.402343750000, -3.976562500000, 0.312500000000, -6.414062500000, 1492750738
-0.139404296875, -1.002929687500, 0.373046875000, -5.789062500000, 0.921875000000, -4.843750000000, 1492750738
-0.102783203125, -0.929931640625, 0.451171875000, 1.390625000000, -2.054687500000, 0.351562500000, 1492750738
-0.102783203125, -0.929931640625, 0.451171875000, 1.390625000000, -2.054687500000, 0.351562500000, 1492750738
-0.102783203125, -0.929931640625, 0.451171875000, 1.390625000000, -2.054687500000, 0.351562500000, 1492750738
-0.102783203125, -0.929931640625, 0.451171875000, 1.390625000000, -2.054687500000, 0.351562500000, 1492750738
-0.102783203125, -0.929931640625, 0.451171875000, 1.390625000000, -2.054687500000, 0.351562500000, 1492750738
-0.034667968750, -1.020996093750, 0.353027343750, -6.953125000000, 0.507812500000, -4.632812500000, 1492750738
-0.034667968750, -1.020996093750, 0.353027343750, -4.843750000000, 0.882812500000, -1.562500000000, 1492750738
-0.118896484375, -0.857666015625, 0.291748046875, 0.507812500000, -0.710937500000, -2.929687500000, 1492750738
-0.118896484375, -0.857666015625, 0.291748046875, 0.507812500000, -0.710937500000, -2.929687500000, 1492750738
-0.118896484375, -0.857666015625, 0.291748046875, 0.507812500000, -0.710937500000, -2.929687500000, 1492750738
-0.118896484375, -0.857666015625, 0.291748046875, 0.507812500000, -0.710937500000, -2.929687500000, 1492750738
-0.113281250000, -1.021972656250, 0.391845703125, -3.867187500000, 1.437500000000, -6.093750000000, 1492750738
-0.113281250000, -1.021972656250, 0.391845703125, -3.867187500000, 1.437500000000, -6.093750000000, 1492750738
-0.113281250000, -1.021972656250, 0.391845703125, -3.867187500000, 1.437500000000, -6.093750000000, 1492750738
-0.055419921875, -0.932861328125, 0.343750000000, -4.656250000000, -0.242187500000, 0.070312500000, 1492750738
-0.055419921875, -0.932861328125, 0.343750000000, -4.656250000000, -0.242187500000, 0.070312500000, 1492750738
-0.055419921875, -0.932861328125, 0.343750000000, -4.656250000000, -0.242187500000, 0.070312500000, 1492750738
-0.055419921875, -0.932861328125, 0.343750000000, -4.656250000000, -0.242187500000, 0.070312500000, 1492750738
-0.057861328125, -1.068359375000, 0.282226562500, -3.382812500000, 3.382812500000, -3.390625000000, 1492750738
-0.057861328125, -1.068359375000, 0.282226562500, -3.382812500000, 3.382812500000, -3.390625000000, 1492750738
-0.057861328125, -1.068359375000, 0.282226562500, -3.382812500000, 3.382812500000, -3.390625000000, 1492750738
-0.120361328125, -0.869140625000, 0.453125000000, 6.039062500000, 1.890625000000, -1.132812500000, 1492750738
-0.120361328125, -0.869140625000, 0.453125000000, 6.039062500000, 1.890625000000, -1.132812500000, 1492750738
-0.120361328125, -0.869140625000, 0.453125000000, 6.039062500000, 1.890625000000, -1.132812500000, 1492750738
-0.038818359375, -0.922363281250, 0.401855468750, -4.453125000000, 1.859375000000, 0.125000000000, 1492750738
-0.038818359375, -0.922363281250, 0.401855468750, -4.453125000000, 1.859375000000, 0.125000000000, 1492750738
-0.038818359375, -0.922363281250, 0.401855468750, -4.453125000000, 1.859375000000, 0.125000000000, 1492750738
-0.035156250000, -0.914794921875, 0.292236328125, 8.531250000000, 2.484375000000, -4.093750000000, 1492750738
-0.035156250000, -0.914794921875, 0.292236328125, 8.531250000000, 2.484375000000, -4.093750000000, 1492750738
-0.035156250000, -0.914794921875, 0.292236328125, 8.531250000000, 2.484375000000, -4.093750000000, 1492750738
-0.035156250000, -0.914794921875, 0.292236328125, 8.531250000000, 2.484375000000, -4.093750000000, 1492750738
-0.049560546875, -0.955566406250, 0.378417968750, -4.781250000000, 4.257812500000, -3.976562500000, 1492750738
-0.049560546875, -0.955566406250, 0.378417968750, -4.781250000000, 4.257812500000, -3.976562500000, 1492750738
-0.049560546875, -0.955566406250, 0.378417968750, -4.781250000000, 4.257812500000, -3.976562500000, 1492750738
-0.042236328125, -0.868164062500, 0.382568359375, -6.187500000000, -0.750000000000, -2.484375000000, 1492750739
-0.042236328125, -0.868164062500, 0.382568359375, -6.187500000000, -0.750000000000, -2.484375000000, 1492750739
-0.042236328125, -0.868164062500, 0.382568359375, -6.187500000000, -0.750000000000, -2.484375000000, 1492750739
-0.068115234375, -0.956542968750, 0.446289062500, -5.101562500000, -0.234375000000, -2.507812500000, 1492750739
-0.068115234375, -0.956542968750, 0.446289062500, -5.101562500000, -0.234375000000, -2.507812500000, 1492750739
-0.068115234375, -0.956542968750, 0.446289062500, -5.101562500000, -0.234375000000, -2.507812500000, 1492750739
-0.048828125000, -0.957031250000, 0.404296875000, -5.460937500000, -0.140625000000, -4.890625000000, 1492750739
-0.048828125000, -0.957031250000, 0.404296875000, -5.460937500000, -0.140625000000, -4.890625000000, 1492750739
-0.048828125000, -0.957031250000, 0.404296875000, -5.460937500000, -0.140625000000, -4.890625000000, 1492750739
-0.048828125000, -0.957031250000, 0.404296875000, -5.460937500000, -0.140625000000, -4.890625000000, 1492750739
-0.048828125000, -0.957031250000, 0.404296875000, -5.460937500000, -0.140625000000, -4.890625000000, 1492750739
-0.048828125000, -0.957031250000, 0.404296875000, -5.460937500000, -0.140625000000, -4.890625000000, 1492750739
-0.082763671875, -0.924316406250, 0.312011718750, -4.765625000000, 0.281250000000, -1.539062500000, 1492750739
-0.082763671875, -0.924316406250, 0.312011718750, -4.765625000000, 0.281250000000, -1.539062500000, 1492750739
-0.082763671875, -0.924316406250, 0.312011718750, -4.765625000000, 0.281250000000, -1.539062500000, 1492750739
-0.082763671875, -0.924316406250, 0.312011718750, -4.765625000000, 0.281250000000, -1.539062500000, 1492750739
-0.051025390625, -0.861083984375, 0.374755859375, -6.367187500000, -0.539062500000, -4.578125000000, 1492750739
-0.051025390625, -0.861083984375, 0.374755859375, -6.367187500000, -0.539062500000, -4.578125000000, 1492750739
-0.051025390625, -0.861083984375, 0.374755859375, -6.367187500000, -0.539062500000, -4.578125000000, 1492750739
-0.093994140625, -0.906738281250, 0.174560546875, 0.039062500000, 0.632812500000, -2.570312500000, 1492750739
-0.093994140625, -0.906738281250, 0.174560546875, 0.039062500000, 0.632812500000, -2.570312500000, 1492750739
-0.093994140625, -0.906738281250, 0.174560546875, 0.039062500000, 0.632812500000, -2.570312500000, 1492750739
-0.093994140625, -0.906738281250, 0.174560546875, 0.039062500000, 0.632812500000, -2.570312500000, 1492750739
-0.135986328125, -0.837402343750, 0.413818359375, -5.804687500000, 1.812500000000, -1.632812500000, 1492750739
-0.135986328125, -0.837402343750, 0.413818359375, -5.804687500000, 1.812500000000, -1.632812500000, 1492750739
-0.135986328125, -0.837402343750, 0.413818359375, -5.804687500000, 1.812500000000, -1.632812500000, 1492750739
-0.083251953125, -0.965332031250, 0.379638671875, -10.078125000000, 2.929687500000, -4.445312500000, 1492750739
-0.083251953125, -0.965332031250, 0.379638671875, -10.078125000000, 2.929687500000, -4.445312500000, 1492750739
-0.083251953125, -0.965332031250, 0.379638671875, -10.078125000000, 2.929687500000, -4.445312500000, 1492750739
-0.051269531250, -0.952148437500, 0.522216796875, -4.835937500000, -1.976562500000, -4.445312500000, 1492750739
-0.051269531250, -0.952148437500, 0.522216796875, -4.835937500000, -1.976562500000, -4.445312500000, 1492750739
-0.051269531250, -0.952148437500, 0.522216796875, -4.835937500000, -1.976562500000, -4.445312500000, 1492750739
-0.051757812500, -0.864746093750, 0.459228515625, -7.046875000000, 1.671875000000, -1.671875000000, 1492750739
-0.051757812500, -0.864746093750, 0.459228515625, -7.046875000000, 1.671875000000, -1.671875000000, 1492750739
-0.051757812500, -0.864746093750, 0.459228515625, -7.046875000000, 1.671875000000, -1.671875000000, 1492750739
-0.051757812500, -0.864746093750, 0.459228515625, -7.046875000000, 1.671875000000, -1.671875000000, 1492750739
-0.045898437500, -0.894287109375, 0.233642578125, -1.585937500000, 0.289062500000, -1.078125000000, 1492750739
-0.045898437500, -0.894287109375, 0.233642578125, -1.585937500000, 0.289062500000, -1.078125000000, 1492750739
-0.045898437500, -0.894287109375, 0.233642578125, -1.585937500000, 0.289062500000, -1.078125000000, 1492750739
-0.147705078125, -0.869140625000, 0.302001953125, -6.546875000000, 0.937500000000, -2.156250000000, 1492750739
-0.147705078125, -0.869140625000, 0.302001953125, -6.546875000000, 0.937500000000, -2.156250000000, 1492750739
-0.147705078125, -0.869140625000, 0.302001953125, -6.546875000000, 0.937500000000, -2.156250000000, 1492750739
-0.129882812500, -1.014648437500, 0.359619140625, -1.484375000000, -0.117187500000, -1.054687500000, 1492750739
-0.129882812500, -1.014648437500, 0.359619140625, -1.484375000000, -0.117187500000, -1.054687500000, 1492750739
-0.129882812500, -1.014648437500, 0.359619140625, -1.484375000000, -0.117187500000, -1.054687500000, 1492750739
-0.127685546875, -0.867431640625, 0.371826171875, -7.187500000000, 2.343750000000, -4.078125000000, 1492750739
-0.127685546875, -0.867431640625, 0.371826171875, -7.187500000000, 2.343750000000, -4.078125000000, 1492750739
-0.127685546875, -0.867431640625, 0.371826171875, -7.187500000000, 2.343750000000, -4.078125000000, 1492750739
-0.127685546875, -0.867431640625, 0.371826171875, -7.187500000000, 2.343750000000, -4.078125000000, 1492750739
-0.144775390625, -0.960449218750, 0.390869140625, -4.101562500000, 0.039062500000, 0.023437500000, 1492750739
-0.144775390625, -0.960449218750, 0.390869140625, -4.101562500000, 0.039062500000, 0.023437500000, 1492750739
-0.144775390625, -0.960449218750, 0.390869140625, -4.101562500000, 0.039062500000, 0.023437500000, 1492750739
-0.110839843750, -0.958251953125, 0.299804687500, -1.312500000000, 0.570312500000, -3.171875000000, 1492750739
-0.110839843750, -0.958251953125, 0.299804687500, -1.312500000000, 0.570312500000, -3.171875000000, 1492750739
-0.110839843750, -0.958251953125, 0.299804687500, -1.312500000000, 0.570312500000, -3.171875000000, 1492750739
-0.099121093750, -0.874511718750, 0.364990234375, -9.335937500000, 0.968750000000, -4.343750000000, 1492750739
-0.099121093750, -0.874511718750, 0.364990234375, -9.335937500000, 0.968750000000, -4.343750000000, 1492750739
-0.099121093750, -0.874511718750, 0.364990234375, -9.335937500000, 0.968750000000, -4.343750000000, 1492750739
-0.058593750000, -0.863769531250, 0.363281250000, -26.210937500000, 2.890625000000, -4.085937500000, 1492750739
-0.058593750000, -0.863769531250, 0.363281250000, -26.210937500000, 2.890625000000, -4.085937500000, 1492750739
-0.058593750000, -0.863769531250, 0.363281250000, -26.210937500000, 2.890625000000, -4.085937500000, 1492750739
-0.058593750000, -0.863769531250, 0.363281250000, -26.210937500000, 2.890625000000, -4.085937500000, 1492750739
-0.091064453125, -0.934814453125, 0.293212890625, -23.570312500000, 1.406250000000, 0.539062500000, 1492750739
-0.091064453125, -0.934814453125, 0.293212890625, -23.570312500000, 1.406250000000, 0.539062500000, 1492750739
-0.091064453125, -0.934814453125, 0.293212890625, -23.570312500000, 1.406250000000, 0.539062500000, 1492750739
-0.155517578125, -0.947509765625, 0.425537109375, -7.718750000000, -2.085937500000, -2.718750000000, 1492750739
-0.155517578125, -0.947509765625, 0.425537109375, -7.718750000000, -2.085937500000, -2.718750000000, 1492750739
-0.155517578125, -0.947509765625, 0.425537109375, -7.718750000000, -2.085937500000, -2.718750000000, 1492750739
-0.088134765625, -0.959228515625, 0.249267578125, -3.843750000000, 2.335937500000, -1.859375000000, 1492750740
-0.088134765625, -0.959228515625, 0.249267578125, -3.843750000000, 2.335937500000, -1.859375000000, 1492750740
-0.048095703125, -0.944580078125, 0.365722656250, 2.851562500000, 2.015625000000, -3.906250000000, 1492750740
-0.048095703125, -0.944580078125, 0.365722656250, 2.851562500000, 2.015625000000, -3.906250000000, 1492750740
-0.048095703125, -0.944580078125, 0.365722656250, 2.851562500000, 2.015625000000, -3.906250000000, 1492750740
-0.048095703125, -0.944580078125, 0.365722656250, 2.851562500000, 2.015625000000, -3.906250000000, 1492750740
-0.048095703125, -0.944580078125, 0.365722656250, 2.851562500000, 2.015625000000, -3.906250000000, 1492750740
-0.032226562500, -0.851806640625, 0.353027343750, -5.046875000000, 0.695312500000, -2.710937500000, 1492750740
-0.032226562500, -0.851806640625, 0.353027343750, -5.046875000000, 0.695312500000, -2.710937500000, 1492750740
-0.032226562500, -0.851806640625, 0.353027343750, -5.046875000000, 0.695312500000, -2.710937500000, 1492750740
-0.142089843750, -1.001953125000, 0.360839843750, -3.351562500000, 2.531250000000, -2.367187500000, 1492750740
-0.142089843750, -1.001953125000, 0.360839843750, -3.351562500000, 2.531250000000, -2.367187500000, 1492750740
-0.142089843750, -1.001953125000, 0.360839843750, -3.351562500000, 2.531250000000, -2.367187500000, 1492750740
-0.104736328125, -0.946044921875, 0.397705078125, -7.421875000000, 2.679687500000, -2.789062500000, 1492750740
-0.104736328125, -0.946044921875, 0.397705078125, -7.421875000000, 2.679687500000, -2.789062500000, 1492750740
-0.104736328125, -0.946044921875, 0.397705078125, -7.421875000000, 2.679687500000, -2.789062500000, 1492750740
-0.031982421875, -0.867675781250, 0.379638671875, -3.429687500000, -2.218750000000, -3.585937500000, 1492750740
-0.177978515625, -0.849365234375, 0.290527343750, -6.421875000000, 0.757812500000, -2.398437500000, 1492750740
-0.177978515625, -0.849365234375, 0.290527343750, -6.421875000000, 0.757812500000, -2.398437500000, 1492750740
-0.177978515625, -0.849365234375, 0.290527343750, -6.421875000000, 0.757812500000, -2.398437500000, 1492750740
-0.145507812500, -0.867187500000, 0.355468750000, -1.164062500000, 0.476562500000, -2.515625000000, 1492750740
-0.103759765625, -0.934326171875, 0.371826171875, -6.046875000000, -0.968750000000, -4.539062500000, 1492750740
-0.103759765625, -0.934326171875, 0.371826171875, -6.046875000000, -0.968750000000, -4.539062500000, 1492750740
-0.103759765625, -0.934326171875, 0.371826171875, -6.046875000000, -0.968750000000, -4.539062500000, 1492750740
-0.103759765625, -0.934326171875, 0.371826171875, -6.046875000000, -0.968750000000, -4.539062500000, 1492750740
-0.091064453125, -0.961425781250, 0.382080078125, 8.898437500000, 0.203125000000, -5.390625000000, 1492750740
-0.113037109375, -0.853759765625, 0.277832031250, 8.898437500000, 0.203125000000, -5.390625000000, 1492750740
-0.113037109375, -0.853759765625, 0.277832031250, 8.898437500000, 0.203125000000, -5.390625000000, 1492750740
-0.113037109375, -0.853759765625, 0.277832031250, 8.898437500000, 0.203125000000, -5.390625000000, 1492750740
-0.092285156250, -1.005126953125, 0.296142578125, -16.484375000000, -2.156250000000, -2.484375000000, 1492750740
-0.196289062500, -0.904541015625, 0.350830078125, -8.039062500000, 2.242187500000, -4.093750000000, 1492750740
-0.094238281250, -0.918212890625, 0.392822265625, 0.539062500000, -0.054687500000, -1.445312500000, 1492750740
-0.094238281250, -0.918212890625, 0.392822265625, 0.539062500000, -0.054687500000, -1.445312500000, 1492750740
-0.094238281250, -0.918212890625, 0.392822265625, -5.101562500000, -2.382812500000, 0.179687500000, 1492750740
-0.205322265625, -0.950683593750, 0.437988281250, 6.914062500000, -0.218750000000, -2.218750000000, 1492750740
-0.205322265625, -0.950683593750, 0.437988281250, 6.914062500000, -0.218750000000, -2.218750000000, 1492750740
-0.205322265625, -0.950683593750, 0.437988281250, 6.914062500000, -0.218750000000, -2.218750000000, 1492750740
-0.205322265625, -0.950683593750, 0.437988281250, 6.914062500000, -0.218750000000, -2.218750000000, 1492750740
-0.205322265625, -0.950683593750, 0.437988281250, 6.914062500000, -0.218750000000, -2.218750000000, 1492750740
0.009765625000, -0.940917968750, 0.292968750000, -12.234375000000, 1.195312500000, 0.460937500000, 1492750740
0.009765625000, -0.940917968750, 0.292968750000, -12.234375000000, 1.195312500000, 0.460937500000, 1492750740
0.009765625000, -0.940917968750, 0.292968750000, -12.234375000000, 1.195312500000, 0.460937500000, 1492750740
-0.041748046875, -0.955810546875, 0.301513671875, -1.523437500000, -3.000000000000, -4.101562500000, 1492750740
-0.041748046875, -0.955810546875, 0.301513671875, -1.523437500000, -3.000000000000, -4.101562500000, 1492750740
-0.041748046875, -0.955810546875, 0.301513671875, -1.523437500000, -3.000000000000, -4.101562500000, 1492750740
-0.041748046875, -0.955810546875, 0.301513671875, -1.523437500000, -3.000000000000, -4.101562500000, 1492750740
-0.142333984375, -0.964599609375, 0.392822265625, -11.882812500000, 3.148437500000, -1.070312500000, 1492750740
-0.142333984375, -0.964599609375, 0.392822265625, -11.882812500000, 3.148437500000, -1.070312500000, 1492750740
-0.142333984375, -0.964599609375, 0.392822265625, -11.882812500000, 3.148437500000, -1.070312500000, 1492750740
-0.144287109375, -0.929931640625, 0.358398437500, 2.429687500000, -0.398437500000, -2.437500000000, 1492750740
-0.144287109375, -0.929931640625, 0.358398437500, 2.429687500000, -0.398437500000, -2.437500000000, 1492750740
-0.144287109375, -0.929931640625, 0.358398437500, 2.429687500000, -0.398437500000, -2.437500000000, 1492750740
-0.038330078125, -0.846679687500, 0.394287109375, -5.585937500000, 2.320312500000, -2.203125000000, 1492750740
-0.038330078125, -0.846679687500, 0.394287109375, -5.585937500000, 2.320312500000, -2.203125000000, 1492750740
-0.038330078125, -0.846679687500, 0.394287109375, -5.585937500000, 2.320312500000, -2.203125000000, 1492750740
-0.215087890625, -0.849121093750, 0.403564453125, -3.562500000000, 0.007812500000, -4.093750000000, 1492750740
-0.215087890625, -0.849121093750, 0.403564453125, -3.562500000000, 0.007812500000, -4.093750000000, 1492750740
-0.215087890625, -0.849121093750, 0.403564453125, -3.562500000000, 0.007812500000, -4.093750000000, 1492750740
-0.215087890625, -0.849121093750, 0.403564453125, -3.562500000000, 0.007812500000, -4.093750000000, 1492750740
-0.131103515625, -0.923828125000, 0.403808593750, -4.054687500000, 0.257812500000, -1.789062500000, 1492750740
-0.131103515625, -0.923828125000, 0.403808593750, -4.054687500000, 0.257812500000, -1.789062500000, 1492750740
-0.131103515625, -0.923828125000, 0.403808593750, -4.054687500000, 0.257812500000, -1.789062500000, 1492750740
-0.114013671875, -0.954589843750, 0.375976562500, 4.375000000000, -1.585937500000, -2.328125000000, 1492750740
-0.114013671875, -0.954589843750, 0.375976562500, 4.375000000000, -1.585937500000, -2.328125000000, 1492750740
-0.114013671875, -0.954589843750, 0.375976562500, 4.375000000000, -1.585937500000, -2.328125000000, 1492750740
-0.061279296875, -0.889404296875, 0.436035156250, -19.078125000000, -0.054687500000, -1.804687500000, 1492750741
-0.061279296875, -0.889404296875, 0.436035156250, -19.078125000000, -0.054687500000, -1.804687500000, 1492750741
-0.061279296875, -0.889404296875, 0.436035156250, -19.078125000000, -0.054687500000, -1.804687500000, 1492750741
-0.055175781250, -0.953125000000, 0.464599609375, -4.125000000000, -0.757812500000, -4.968750000000, 1492750741
-0.055175781250, -0.953125000000, 0.464599609375, -4.125000000000, -0.757812500000, -4.968750000000, 1492750741
-0.055175781250, -0.953125000000, 0.464599609375, -4.125000000000, -0.757812500000, -4.968750000000, 1492750741
-0.055175781250, -0.953125000000, 0.464599609375, -4.125000000000, -0.757812500000, -4.968750000000, 1492750741
-0.049560546875, -0.910400390625, 0.424072265625, -0.007812500000, -2.656250000000, -3.320312500000, 1492750741
-0.049560546875, -0.910400390625, 0.424072265625, -0.007812500000, -2.656250000000, -3.320312500000, 1492750741
-0.049560546875, -0.910400390625, 0.424072265625, -0.007812500000, -2.656250000000, -3.320312500000, 1492750741
-0.062011718750, -0.859130859375, 0.401855468750, -13.828125000000, 0.992187500000, -2.742187500000, 1492750741
-0.062011718750, -0.859130859375, 0.401855468750, -13.828125000000, 0.992187500000, -2.742187500000, 1492750741
-0.062011718750, -0.859130859375, 0.401855468750, -13.828125000000, 0.992187500000, -2.742187500000, 1492750741
-0.042968750000, -0.951904296875, 0.380615234375, 1.015625000000, 0.429687500000, -1.546875000000, 1492750741
-0.042968750000, -0.951904296875, 0.380615234375, 1.015625000000, 0.429687500000, -1.546875000000, 1492750741
-0.042968750000, -0.951904296875, 0.380615234375, 1.015625000000, 0.429687500000, -1.546875000000, 1492750741
-0.144531250000, -0.966796875000, 0.384033203125, -7.445312500000, 2.632812500000, -2.601562500000, 1492750741
-0.144531250000, -0.966796875000, 0.384033203125, -7.445312500000, 2.632812500000, -2.601562500000, 1492750741
-0.144531250000, -0.966796875000, 0.384033203125, -7.445312500000, 2.632812500000, -2.601562500000, 1492750741
-0.034179687500, -0.892333984375, 0.348876953125, -10.992187500000, 4.359375000000, -4.093750000000, 1492750741
-0.041748046875, -0.851318359375, 0.289062500000, 3.039062500000, -0.945312500000, -1.203125000000, 1492750741
-0.041748046875, -0.851318359375, 0.289062500000, 3.039062500000, -0.945312500000, -1.203125000000, 1492750741
-0.041748046875, -0.851318359375, 0.289062500000, 3.039062500000, -0.945312500000, -1.203125000000, 1492750741
-0.135253906250, -0.907958984375, 0.391845703125, -5.523437500000, 2.703125000000, -2.570312500000, 1492750741
-0.135253906250, -0.907958984375, 0.391845703125, -5.523437500000, 2.703125000000, -2.570312500000, 1492750741
-0.135253906250, -0.907958984375, 0.391845703125, -5.523437500000, 2.703125000000, -2.570312500000, 1492750741
-0.189453125000, -0.933105468750, 0.288818359375, -1.687500000000, -4.007812500000, -3.828125000000, 1492750741
-0.189453125000, -0.933105468750, 0.288818359375, -1.687500000000, -4.007812500000, -3.828125000000, 1492750741
-0.189453125000, -0.933105468750, 0.288818359375, -1.687500000000, -4.007812500000, -3.828125000000, 1492750741
-0.144775390625, -0.951904296875, 0.351806640625, -5.851562500000, 2.039062500000, -1.164062500000, 1492750741
-0.144775390625, -0.951904296875, 0.351806640625, -5.851562500000, 2.039062500000, -1.164062500000, 1492750741
-0.144775390625, -0.951904296875, 0.351806640625, -5.851562500000, 2.039062500000, -1.164062500000, 1492750741
-0.144775390625, -0.951904296875, 0.351806640625, -5.851562500000, 2.039062500000, -1.164062500000, 1492750741
-0.053955078125, -0.901123046875, 0.359130859375, 0.468750000000, -1.531250000000, -2.890625000000, 1492750741
-0.053955078125, -0.901123046875, 0.359130859375, 0.468750000000, -1.531250000000, -2.890625000000, 1492750741
-0.053955078125, -0.901123046875, 0.359130859375, 0.468750000000, -1.531250000000, -2.890625000000, 1492750741
-0.153320312500, -0.968017578125, 0.439453125000, -13.773437500000, 0.984375000000, -1.609375000000, 1492750741
-0.153320312500, -0.968017578125, 0.439453125000, -13.773437500000, 0.984375000000, -1.609375000000, 1492750741
-0.153320312500, -0.968017578125, 0.439453125000, -13.773437500000, 0.984375000000, -1.609375000000, 1492750741
-0.119140625000, -0.968750000000, 0.309570312500, 15.132812500000, 2.343750000000, 2.281250000000, 1492750741
-0.119140625000, -0.968750000000, 0.309570312500, 15.132812500000, 2.343750000000, 2.281250000000, 1492750741
-0.119140625000, -0.968750000000, 0.309570312500, 15.132812500000, 2.343750000000, 2.281250000000, 1492750741
-0.133056640625, -0.959228515625, 0.412353515625, -7.351562500000, -4.093750000000, -4.718750000000, 1492750741
-0.133056640625, -0.959228515625, 0.412353515625, -7.351562500000, -4.093750000000, -4.718750000000, 1492750741
-0.133056640625, -0.959228515625, 0.412353515625, -7.351562500000, -4.093750000000, -4.718750000000, 1492750741
-0.133056640625, -0.959228515625, 0.412353515625, -7.351562500000, -4.093750000000, -4.718750000000, 1492750741
-0.066406250000, -0.955322265625, 0.394775390625, -14.468750000000, 2.750000000000, -2.265625000000, 1492750741
-0.066406250000, -0.955322265625, 0.394775390625, -14.468750000000, 2.750000000000, -2.265625000000, 1492750741
-0.066406250000, -0.955322265625, 0.394775390625, -14.468750000000, 2.750000000000, -2.265625000000, 1492750741
-0.036376953125, -0.855712890625, 0.303710937500, -0.007812500000, 2.125000000000, -1.070312500000, 1492750741
-0.036376953125, -0.855712890625, 0.303710937500, -0.007812500000, 2.125000000000, -1.070312500000, 1492750741
-0.036376953125, -0.855712890625, 0.303710937500, -0.007812500000, 2.125000000000, -1.070312500000, 1492750741
-0.050048828125, -0.916503906250, 0.440185546875, -6.531250000000, -2.101562500000, -6.250000000000, 1492750741
-0.050048828125, -0.916503906250, 0.440185546875, -6.531250000000, -2.101562500000, -6.250000000000, 1492750741
-0.050048828125, -0.916503906250, 0.440185546875, -6.531250000000, -2.101562500000, -6.250000000000, 1492750741
-0.133056640625, -0.872070312500, 0.361572265625, -6.093750000000, 0.921875000000, -2.812500000000, 1492750741
-0.133056640625, -0.872070312500, 0.361572265625, -6.093750000000, 0.921875000000, -2.812500000000, 1492750741
-0.133056640625, -0.872070312500, 0.361572265625, -6.093750000000, 0.921875000000, -2.812500000000, 1492750741
-0.133056640625, -0.872070312500, 0.361572265625, -6.093750000000, 0.921875000000, -2.812500000000, 1492750741
-0.066894531250, -0.912597656250, 0.337646484375, -8.570312500000, 1.601562500000, -2.046875000000, 1492750741
-0.066894531250, -0.912597656250, 0.337646484375, -8.570312500000, 1.601562500000, -2.046875000000, 1492750741
-0.066894531250, -0.912597656250, 0.337646484375, -8.570312500000, 1.601562500000, -2.046875000000, 1492750741
0.012451171875, -0.951171875000, 0.286621093750, -1.882812500000, 0.062500000000, -4.507812500000, 1492750741
0.012451171875, -0.951171875000, 0.286621093750, -1.882812500000, 0.062500000000, -4.507812500000, 1492750741
0.012451171875, -0.951171875000, 0.286621093750, -1.882812500000, 0.062500000000, -4.507812500000, 1492750741
-0.216308593750, -0.942626953125, 0.385986328125, -3.148437500000, -0.648437500000, -3.031250000000, 1492750741
-0.216308593750, -0.942626953125, 0.385986328125, -3.148437500000, -0.648437500000, -3.031250000000, 1492750741
-0.216308593750, -0.942626953125, 0.385986328125, -3.148437500000, -0.648437500000, -3.031250000000, 1492750741
-0.142578125000, -0.931396484375, 0.308349609375, -7.156250000000, -0.023437500000, -1.468750000000, 1492750742
-0.142578125000, -0.931396484375, 0.308349609375, -7.156250000000, -0.023437500000, -1.468750000000, 1492750742
-0.142578125000, -0.931396484375, 0.308349609375, -7.156250000000, -0.023437500000, -1.468750000000, 1492750742
-0.142578125000, -0.931396484375, 0.308349609375, -7.156250000000, -0.023437500000, -1.468750000000, 1492750742
-0.201904296875, -1.065185546875, 0.381835937500, -6.625000000000, -0.679687500000, -4.195312500000, 1492750742
-0.201904296875, -1.065185546875, 0.381835937500, -6.625000000000, -0.679687500000, -4.195312500000, 1492750742
-0.201904296875, -1.065185546875, 0.381835937500, -6.625000000000, -0.679687500000, -4.195312500000, 1492750742
-0.150146484375, -0.966796875000, 0.414794921875, 8.390625000000, 1.296875000000, -1.273437500000, 1492750742
-0.150146484375, -0.966796875000, 0.414794921875, 8.390625000000, 1.296875000000, -1.273437500000, 1492750742
-0.150146484375, -0.966796875000, 0.414794921875, 8.390625000000, 1.296875000000, -1.273437500000, 1492750742
-0.090087890625, -0.859130859375, 0.364990234375, 1.148437500000, 0.898437500000, 0.054687500000, 1492750742
-0.090087890625, -0.859130859375, 0.364990234375, 1.148437500000, 0.898437500000, 0.054687500000, 1492750742
-0.090087890625, -0.859130859375, 0.364990234375, 1.148437500000, 0.898437500000, 0.054687500000, 1492750742
-0.049804687500, -0.928955078125, 0.292968750000, 5.882812500000, 0.562500000000, -3.468750000000, 1492750742
-0.049804687500, -0.928955078125, 0.292968750000, 5.882812500000, 0.562500000000, -3.468750000000, 1492750742
-0.049804687500, -0.928955078125, 0.292968750000, 5.882812500000, 0.562500000000, -3.468750000000, 1492750742
-0.049804687500, -0.928955078125, 0.292968750000, 5.882812500000, 0.562500000000, -3.468750000000, 1492750742
-0.124023437500, -0.931884765625, 0.455078125000, -8.875000000000, 2.882812500000, -3.367187500000, 1492750742
-0.124023437500, -0.931884765625, 0.455078125000, -8.875000000000, 2.882812500000, -3.367187500000, 1492750742
-0.124023437500, -0.931884765625, 0.455078125000, -8.875000000000, 2.882812500000, -3.367187500000, 1492750742
-0.045166015625, -0.846191406250, 0.379394531250, 0.437500000000, 0.867187500000, -5.101562500000, 1492750742
-0.045166015625, -0.846191406250, 0.379394531250, 0.437500000000, 0.867187500000, -5.101562500000, 1492750742
-0.045166015625, -0.846191406250, 0.379394531250, 0.437500000000, 0.867187500000, -5.101562500000, 1492750742
-0.188964843750, -0.945312500000, 0.448974609375, -10.789062500000, 4.242187500000, -2.390625000000, 1492750742
-0.188964843750, -0.945312500000, 0.448974609375, -10.789062500000, 4.242187500000, -2.390625000000, 1492750742
-0.188964843750, -0.945312500000, 0.448974609375, -10.789062500000, 4.242187500000, -2.390625000000, 1492750742
-0.084716796875, -0.954101562500, 0.451904296875, -4.179687500000, 1.210937500000, -2.703125000000, 1492750742
-0.084716796875, -0.954101562500, 0.451904296875, -4.179687500000, 1.210937500000, -2.703125000000, 1492750742
-0.084716796875, -0.954101562500, 0.451904296875, -4.179687500000, 1.210937500000, -2.703125000000, 1492750742
-0.084716796875, -0.954101562500, 0.451904296875, -4.179687500000, 1.210937500000, -2.703125000000, 1492750742
-0.148681640625, -0.874755859375, 0.395019531250, -4.921875000000, 1.445312500000, -1.664062500000, 1492750742
-0.148681640625, -0.874755859375, 0.395019531250, -4.921875000000, 1.445312500000, -1.664062500000, 1492750742
-0.148681640625, -0.874755859375, 0.395019531250, -4.921875000000, 1.445312500000, -1.664062500000, 1492750742
-0.038818359375, -0.961914062500, 0.349365234375, -4.578125000000, -0.554687500000, -3.218750000000, 1492750742
-0.200195312500, -0.852050781250, 0.393066406250, -4.578125000000, -0.554687500000, -3.218750000000, 1492750742
-0.200195312500, -0.852050781250, 0.393066406250, -4.578125000000, -0.554687500000, -3.218750000000, 1492750742
-0.200195312500, -0.852050781250, 0.393066406250, -4.578125000000, -0.554687500000, -3.218750000000, 1492750742
-0.200195312500, -0.852050781250, 0.393066406250, -4.578125000000, -0.554687500000, -3.218750000000, 1492750742
-0.130371093750, -0.936035156250, 0.309814453125, 6.507812500000, -3.093750000000, -6.351562500000, 1492750742
-0.130371093750, -0.936035156250, 0.309814453125, 6.507812500000, -3.093750000000, -6.351562500000, 1492750742
-0.130371093750, -0.936035156250, 0.309814453125, 6.507812500000, -3.093750000000, -6.351562500000, 1492750742
-0.130371093750, -0.936035156250, 0.309814453125, 6.507812500000, -3.093750000000, -6.351562500000, 1492750742
-0.038085937500, -0.964843750000, 0.408935546875, -20.281250000000, 3.859375000000, 0.148437500000, 1492750742
-0.038085937500, -0.964843750000, 0.408935546875, -20.281250000000, 3.859375000000, 0.148437500000, 1492750742
-0.038085937500, -0.964843750000, 0.408935546875, -20.281250000000, 3.859375000000, 0.148437500000, 1492750742
-0.038085937500, -0.964843750000, 0.408935546875, -20.281250000000, 3.859375000000, 0.148437500000, 1492750742
-0.047119140625, -0.866455078125, 0.397705078125, -17.171875000000, 0.210937500000, -2.546875000000, 1492750742
-0.047119140625, -0.866455078125, 0.397705078125, -17.171875000000, 0.210937500000, -2.546875000000, 1492750742
-0.047119140625, -0.866455078125, 0.397705078125, -17.171875000000, 0.210937500000, -2.546875000000, 1492750742
-0.062011718750, -0.935791015625, 0.375000000000, -7.515625000000, -0.820312500000, -2.867187500000, 1492750742
-0.062011718750, -0.935791015625, 0.375000000000, -7.515625000000, -0.820312500000, -2.867187500000, 1492750742
-0.062011718750, -0.935791015625, 0.375000000000, -7.515625000000, -0.820312500000, -2.867187500000, 1492750742
-0.070800781250, -1.006835937500, 0.367187500000, -9.531250000000, 0.601562500000, -0.101562500000, 1492750742
-0.070800781250, -1.006835937500, 0.367187500000, -9.531250000000, 0.601562500000, -0.101562500000, 1492750742
-0.070800781250, -1.006835937500, 0.367187500000, -9.531250000000, 0.601562500000, -0.101562500000, 1492750742
-0.070800781250, -1.006835937500, 0.367187500000, -9.531250000000, 0.601562500000, -0.101562500000, 1492750742
-0.134521484375, -0.931152343750, 0.393310546875, -1.304687500000, 0.601562500000, -4.437500000000, 1492750742
-0.134521484375, -0.931152343750, 0.393310546875, -1.304687500000, 0.601562500000, -4.437500000000, 1492750742
-0.134521484375, -0.931152343750, 0.393310546875, -1.304687500000, 0.601562500000, -4.437500000000, 1492750742
-0.064208984375, -0.919189453125, 0.282958984375, -4.976562500000, 0.140625000000, -1.617187500000, 1492750742
-0.064208984375, -0.919189453125, 0.282958984375, -4.976562500000, 0.140625000000, -1.617187500000, 1492750742
-0.064208984375, -0.919189453125, 0.282958984375, -4.976562500000, 0.140625000000, -1.617187500000, 1492750742
-0.152587890625, -1.001708984375, 0.432373046875, -1.859375000000, -0.453125000000, -2.062500000000, 1492750742
-0.152587890625, -1.001708984375, 0.432373046875, -1.859375000000, -0.453125000000, -2.062500000000, 1492750742
-0.152587890625, -1.001708984375, 0.432373046875, -1.859375000000, -0.453125000000, -2.062500000000, 1492750742
-0.043457031250, -0.961914062500, 0.401123046875, -8.531250000000, -0.617187500000, -2.218750000000, 1492750743
-0.043457031250, -0.961914062500, 0.401123046875, -8.531250000000, -0.617187500000, -2.218750000000, 1492750743
-0.043457031250, -0.961914062500, 0.401123046875, -8.531250000000, -0.617187500000, -2.218750000000, 1492750743
-0.043457031250, -0.961914062500, 0.401123046875, -8.531250000000, -0.617187500000, -2.218750000000, 1492750743
-0.046875000000, -0.869628906250, 0.395019531250, -6.351562500000, -0.500000000000, -3.062500000000, 1492750743
-0.046875000000, -0.869628906250, 0.395019531250, -6.351562500000, -0.500000000000, -3.062500000000, 1492750743
-0.046875000000, -0.869628906250, 0.395019531250, -6.351562500000, -0.500000000000, -3.062500000000, 1492750743
-0.056640625000, -0.968505859375, 0.373046875000, -5.093750000000, -0.273437500000, -2.320312500000, 1492750743
-0.056640625000, -0.968505859375, 0.373046875000, -5.093750000000, -0.273437500000, -2.320312500000, 1492750743
-0.056640625000, -0.968505859375, 0.373046875000, -5.093750000000, -0.273437500000, -2.320312500000, 1492750743
-0.046386718750, -0.865478515625, 0.438476562500, -4.929687500000, -0.585937500000, -1.125000000000, 1492750743
-0.046386718750, -0.865478515625, 0.438476562500, -4.929687500000, -0.585937500000, -1.125000000000, 1492750743
-0.046386718750, -0.865478515625, 0.438476562500, -4.929687500000, -0.585937500000, -1.125000000000, 1492750743
-0.051269531250, -0.850097656250, 0.362792968750, -8.820312500000, 2.250000000000, 0.437500000000, 1492750743
-0.051269531250, -0.850097656250, 0.362792968750, -8.820312500000, 2.250000000000, 0.437500000000, 1492750743
-0.051269531250, -0.850097656250, 0.362792968750, -8.820312500000, 2.250000000000, 0.437500000000, 1492750743
-0.109130859375, -0.917236328125, 0.489990234375, 15.546875000000, -2.367187500000, 0.773437500000, 1492750743
-0.073974609375, -0.872070312500, 0.366455078125, 15.546875000000, -2.367187500000, 0.773437500000, 1492750743
-0.073974609375, -0.872070312500, 0.366455078125, 15.546875000000, -2.367187500000, 0.773437500000, 1492750743
-0.073974609375, -0.872070312500, 0.366455078125, 15.546875000000, -2.367187500000, 0.773437500000, 1492750743
-0.055175781250, -0.910400390625, 0.290039062500, 6.023437500000, -2.171875000000, 0.062500000000, 1492750743
-0.055175781250, -0.910400390625, 0.290039062500, 6.023437500000, -2.171875000000, 0.062500000000, 1492750743
-0.055175781250, -0.910400390625, 0.290039062500, 6.023437500000, -2.171875000000, 0.062500000000, 1492750743
-0.164794921875, -0.944091796875, 0.372558593750, 11.523437500000, -2.710937500000, -2.882812500000, 1492750743
-0.164794921875, -0.944091796875, 0.372558593750, 11.523437500000, -2.710937500000, -2.882812500000, 1492750743
-0.164794921875, -0.944091796875, 0.372558593750, 11.523437500000, -2.710937500000, -2.882812500000, 1492750743
-0.078369140625, -0.935791015625, 0.451171875000, -0.289062500000, -0.132812500000, -1.828125000000, 1492750743
-0.078369140625, -0.935791015625, 0.451171875000, -0.289062500000, -0.132812500000, -1.828125000000, 1492750743
-0.078369140625, -0.935791015625, 0.451171875000, -0.289062500000, -0.132812500000, -1.828125000000, 1492750743
-0.078369140625, -0.935791015625, 0.451171875000, -0.289062500000, -0.132812500000, -1.828125000000, 1492750743
-0.107910156250, -0.917480468750, 0.304931640625, -5.656250000000, -2.289062500000, 0.070312500000, 1492750743
-0.107910156250, -0.917480468750, 0.304931640625, -5.656250000000, -2.289062500000, 0.070312500000, 1492750743
-0.107910156250, -0.917480468750, 0.304931640625, -5.656250000000, -2.289062500000, 0.070312500000, 1492750743
-0.131835937500, -0.933593750000, 0.342285156250, -11.343750000000, 2.539062500000, -1.578125000000, 1492750743
-0.131835937500, -0.933593750000, 0.342285156250, -11.343750000000, 2.539062500000, -1.578125000000, 1492750743
-0.131835937500, -0.933593750000, 0.342285156250, -11.343750000000, 2.539062500000, -1.578125000000, 1492750743
-0.051513671875, -0.913085937500, 0.301025390625, -2.437500000000, 0.703125000000, -4.898437500000, 1492750743
-0.051513671875, -0.913085937500, 0.301025390625, -2.437500000000, 0.703125000000, -4.898437500000, 1492750743
-0.051513671875, -0.913085937500, 0.301025390625, -2.437500000000, 0.703125000000, -4.898437500000, 1492750743
-0.127197265625, -0.946533203125, 0.309814453125, -4.203125000000, -0.492187500000, -4.492187500000, 1492750743
-0.127197265625, -0.946533203125, 0.309814453125, -4.203125000000, -0.492187500000, -4.492187500000, 1492750743
-0.127197265625, -0.946533203125, 0.309814453125, -4.203125000000, -0.492187500000, -4.492187500000, 1492750743
-0.127197265625, -0.946533203125, 0.309814453125, -4.203125000000, -0.492187500000, -4.492187500000, 1492750743
-0.136962890625, -0.939453125000, 0.401367187500, -2.476562500000, 2.562500000000, -4.054687500000, 1492750743
-0.136962890625, -0.939453125000, 0.401367187500, -2.476562500000, 2.562500000000, -4.054687500000, 1492750743
-0.136962890625, -0.939453125000, 0.401367187500, -2.476562500000, 2.562500000000, -4.054687500000, 1492750743
-0.025390625000, -0.896240234375, 0.386718750000, -3.273437500000, -0.054687500000, 0.734375000000, 1492750743
-0.025390625000, -0.896240234375, 0.386718750000, -3.273437500000, -0.054687500000, 0.734375000000, 1492750743
-0.025390625000, -0.896240234375, 0.386718750000, -3.273437500000, -0.054687500000, 0.734375000000, 1492750743
-0.195556640625, -0.931396484375, 0.297119140625, -3.304687500000, -2.054687500000, -1.187500000000, 1492750743
-0.195556640625, -0.931396484375, 0.297119140625, -3.304687500000, -2.054687500000, -1.187500000000, 1492750743
-0.195556640625, -0.931396484375, 0.297119140625, -3.304687500000, -2.054687500000, -1.187500000000, 1492750743
-0.162597656250, -0.930175781250, 0.416015625000, -14.625000000000, 6.187500000000, -2.968750000000, 1492750743
-0.162597656250, -0.930175781250, 0.416015625000, -14.625000000000, 6.187500000000, -2.968750000000, 1492750743
-0.162597656250, -0.930175781250, 0.416015625000, -14.625000000000, 6.187500000000, -2.968750000000, 1492750743
-0.162597656250, -0.930175781250, 0.416015625000, -14.625000000000, 6.187500000000, -2.968750000000, 1492750743
-0.066162109375, -0.920654296875, 0.303710937500, -15.375000000000, -0.265625000000, -1.093750000000, 1492750743
-0.066162109375, -0.920654296875, 0.303710937500, -15.375000000000, -0.265625000000, -1.093750000000, 1492750743
-0.066162109375, -0.920654296875, 0.303710937500, -15.375000000000, -0.265625000000, -1.093750000000, 1492750743
