ACC_X,ACC_Y,ACC_Z,G_X,G_Y,G_Z,Unix Time
0.091552734375, 0.166992187500, -0.006835937500, 112.812500000000, 80.367187500000, -6.632812500000, 1492750804
0.091552734375, 0.166992187500, -0.006835937500, 112.812500000000, 80.367187500000, -6.632812500000, 1492750804
0.091552734375, 0.166992187500, -0.006835937500, 112.812500000000, 80.367187500000, -6.632812500000, 1492750804
0.091552734375, 0.166992187500, -0.006835937500, 112.812500000000, 80.367187500000, -6.632812500000, 1492750804
0.020751953125, 0.127197265625, 0.047363281250, 118.750000000000, 25.000000000000, -75.468750000000, 1492750804
0.020751953125, 0.127197265625, 0.047363281250, 118.750000000000, 25.000000000000, -75.468750000000, 1492750804
0.020751953125, 0.127197265625, 0.047363281250, 118.750000000000, 25.000000000000, -75.468750000000, 1492750804
-0.013427734375, 0.014892578125, 0.022705078125, -77.187500000000, 32.710937500000, -55.171875000000, 1492750804
-0.013427734375, 0.014892578125, 0.022705078125, -77.187500000000, 32.710937500000, -55.171875000000, 1492750804
-0.013427734375, 0.014892578125, 0.022705078125, -77.187500000000, 32.710937500000, -55.171875000000, 1492750804
0.227783203125, -2.228027343750, -0.298095703125, -256.000000000000, 253.992187500000, 91.593750000000, 1492750804
0.227783203125, -2.228027343750, -0.298095703125, -256.000000000000, 253.992187500000, 91.593750000000, 1492750804
0.227783203125, -2.228027343750, -0.298095703125, -256.000000000000, 253.992187500000, 91.593750000000, 1492750804
0.628417968750, -1.284667968750, 0.821044921875, 253.992187500000, -256.000000000000, -256.000000000000, 1492750804
0.628417968750, -1.284667968750, 0.821044921875, 253.992187500000, -256.000000000000, -256.000000000000, 1492750804
0.628417968750, -1.284667968750, 0.821044921875, 253.992187500000, -256.000000000000, -256.000000000000, 1492750804
0.628417968750, -1.284667968750, 0.821044921875, 253.992187500000, -256.000000000000, -256.000000000000, 1492750804
-0.001953125000, -1.064208984375, 0.332763671875, -7.804687500000, 2.460937500000, 24.218750000000, 1492750804
-0.001953125000, -1.064208984375, 0.332763671875, -7.804687500000, 2.460937500000, 24.218750000000, 1492750804
-0.001953125000, -1.064208984375, 0.332763671875, -7.804687500000, 2.460937500000, 24.218750000000, 1492750804
0.075195312500, -0.516845703125, 1.944091796875, 253.992187500000, 253.992187500000, 83.210937500000, 1492750804
0.075195312500, -0.516845703125, 1.944091796875, 253.992187500000, 253.992187500000, 83.210937500000, 1492750804
0.075195312500, -0.516845703125, 1.944091796875, 253.992187500000, 253.992187500000, 83.210937500000, 1492750804
-0.120361328125, -0.104248046875, 0.172119140625, -229.609375000000, 25.000000000000, -56.132812500000, 1492750804
-0.120361328125, -0.104248046875, 0.172119140625, -229.609375000000, 25.000000000000, -56.132812500000, 1492750804
-0.120361328125, -0.104248046875, 0.172119140625, -229.609375000000, 25.000000000000, -56.132812500000, 1492750804
0.030517578125, 0.041992187500, 0.067138671875, 72.031250000000, 86.390625000000, 1.312500000000, 1492750804
0.030517578125, 0.041992187500, 0.067138671875, 72.031250000000, 86.390625000000, 1.312500000000, 1492750804
0.030517578125, 0.041992187500, 0.067138671875, 72.031250000000, 86.390625000000, 1.312500000000, 1492750804
0.030517578125, 0.041992187500, 0.067138671875, 72.031250000000, 86.390625000000, 1.312500000000, 1492750804
-0.023681640625, -0.123779296875, -0.086425781250, -37.968750000000, -5.273437500000, -83.875000000000, 1492750804
-0.023681640625, -0.123779296875, -0.086425781250, -37.968750000000, -5.273437500000, -83.875000000000, 1492750804
-0.023681640625, -0.123779296875, -0.086425781250, -37.968750000000, -5.273437500000, -83.875000000000, 1492750804
-0.212402343750, -1.206298828125, -0.089843750000, -256.000000000000, -190.382812500000, -60.796875000000, 1492750804
-0.212402343750, -1.206298828125, -0.089843750000, -256.000000000000, -190.382812500000, -60.796875000000, 1492750804
-0.212402343750, -1.206298828125, -0.089843750000, -256.000000000000, -190.382812500000, -60.796875000000, 1492750804
-0.441162109375, -1.642089843750, 0.814697265625, 253.992187500000, 155.171875000000, 85.484375000000, 1492750804
-0.441162109375, -1.642089843750, 0.814697265625, 253.992187500000, 155.171875000000, 85.484375000000, 1492750804
-0.441162109375, -1.642089843750, 0.814697265625, 253.992187500000, 155.171875000000, 85.484375000000, 1492750804
0.233642578125, -1.569824218750, 0.261718750000, 4.140625000000, 1.093750000000, 72.718750000000, 1492750804
0.233642578125, -1.569824218750, 0.261718750000, 4.140625000000, 1.093750000000, 72.718750000000, 1492750804
0.233642578125, -1.569824218750, 0.261718750000, 4.140625000000, 1.093750000000, 72.718750000000, 1492750804
0.233642578125, -1.569824218750, 0.261718750000, 4.140625000000, 1.093750000000, 72.718750000000, 1492750804
0.340576171875, -1.275146484375, 0.497070312500, 180.125000000000, -155.593750000000, 67.617187500000, 1492750804
0.340576171875, -1.275146484375, 0.497070312500, 180.125000000000, -155.593750000000, 67.617187500000, 1492750804
0.340576171875, -1.275146484375, 0.497070312500, 180.125000000000, -155.593750000000, 67.617187500000, 1492750804
0.265136718750, 0.063232421875, 0.982421875000, -224.421875000000, -88.570312500000, -56.757812500000, 1492750804
0.265136718750, 0.063232421875, 0.982421875000, -224.421875000000, -88.570312500000, -56.757812500000, 1492750804
0.265136718750, 0.063232421875, 0.982421875000, -224.421875000000, -88.570312500000, -56.757812500000, 1492750804
-0.014648437500, 0.069335937500, 0.036376953125, 14.703125000000, 253.992187500000, 127.523437500000, 1492750804
-0.014648437500, 0.069335937500, 0.036376953125, 14.703125000000, 253.992187500000, 127.523437500000, 1492750804
-0.014648437500, 0.069335937500, 0.036376953125, 14.703125000000, 253.992187500000, 127.523437500000, 1492750804
-0.009521484375, 0.050781250000, 0.069824218750, -82.515625000000, 142.546875000000, -132.968750000000, 1492750805
-0.009521484375, 0.050781250000, 0.069824218750, -82.515625000000, 142.546875000000, -132.968750000000, 1492750805
-0.009521484375, 0.050781250000, 0.069824218750, -82.515625000000, 142.546875000000, -132.968750000000, 1492750805
-0.009521484375, 0.050781250000, 0.069824218750, -82.515625000000, 142.546875000000, -132.968750000000, 1492750805
-0.009521484375, 0.050781250000, 0.069824218750, -127.812500000000, 137.445312500000, -116.273437500000, 1492750805
0.473388671875, -0.969482421875, 0.016357421875, -195.976562500000, 144.921875000000, 14.937500000000, 1492750805
0.473388671875, -0.969482421875, 0.016357421875, -195.976562500000, 144.921875000000, 14.937500000000, 1492750805
0.473388671875, -0.969482421875, 0.016357421875, -195.976562500000, 144.921875000000, 14.937500000000, 1492750805
0.960205078125, -1.805664062500, 0.488281250000, -91.968750000000, -256.000000000000, -101.585937500000, 1492750805
0.960205078125, -1.805664062500, 0.488281250000, -91.968750000000, -256.000000000000, -101.585937500000, 1492750805
0.960205078125, -1.805664062500, 0.488281250000, -91.968750000000, -256.000000000000, -101.585937500000, 1492750805
0.960205078125, -1.805664062500, 0.488281250000, -91.968750000000, -256.000000000000, -101.585937500000, 1492750805
-0.474609375000, -1.605957031250, 0.308105468750, 253.992187500000, -141.187500000000, -63.804687500000, 1492750805
-0.474609375000, -1.605957031250, 0.308105468750, 253.992187500000, -141.187500000000, -63.804687500000, 1492750805
-0.474609375000, -1.605957031250, 0.308105468750, 253.992187500000, -141.187500000000, -63.804687500000, 1492750805
-0.474609375000, -1.605957031250, 0.308105468750, 253.992187500000, -141.187500000000, -63.804687500000, 1492750805
-0.474609375000, -1.605957031250, 0.308105468750, 253.992187500000, -141.187500000000, -63.804687500000, 1492750805
0.145019531250, -0.719726562500, -0.180664062500, -178.367187500000, 253.992187500000, -54.179687500000, 1492750805
0.145019531250, -0.719726562500, -0.180664062500, -178.367187500000, 253.992187500000, -54.179687500000, 1492750805
0.145019531250, -0.719726562500, -0.180664062500, -178.367187500000, 253.992187500000, -54.179687500000, 1492750805
-0.135498046875, -0.034912109375, -0.010498046875, -168.789062500000, 109.953125000000, -92.132812500000, 1492750805
-0.135498046875, -0.034912109375, -0.010498046875, -168.789062500000, 109.953125000000, -92.132812500000, 1492750805
-0.135498046875, -0.034912109375, -0.010498046875, -168.789062500000, 109.953125000000, -92.132812500000, 1492750805
0.007080078125, 0.060058593750, 0.026611328125, -49.117187500000, 39.164062500000, 30.742187500000, 1492750805
0.007080078125, 0.060058593750, 0.026611328125, -49.117187500000, 39.164062500000, 30.742187500000, 1492750805
0.007080078125, 0.060058593750, 0.026611328125, -49.117187500000, 39.164062500000, 30.742187500000, 1492750805
-0.035400390625, 0.011230468750, -0.016601562500, -155.187500000000, -46.742187500000, -5.804687500000, 1492750805
-0.035400390625, 0.011230468750, -0.016601562500, -155.187500000000, -46.742187500000, -5.804687500000, 1492750805
-0.035400390625, 0.011230468750, -0.016601562500, -155.187500000000, -46.742187500000, -5.804687500000, 1492750805
-0.035400390625, 0.011230468750, -0.016601562500, -155.187500000000, -46.742187500000, -5.804687500000, 1492750805
-0.056396484375, -1.224121093750, 0.083251953125, -256.000000000000, -163.046875000000, -165.085937500000, 1492750805
-0.056396484375, -1.224121093750, 0.083251953125, -256.000000000000, -163.046875000000, -165.085937500000, 1492750805
-0.056396484375, -1.224121093750, 0.083251953125, -256.000000000000, -163.046875000000, -165.085937500000, 1492750805
-0.609130859375, -1.609130859375, 0.707275390625, 242.000000000000, 59.773437500000, 41.695312500000, 1492750805
-0.609130859375, -1.609130859375, 0.707275390625, 242.000000000000, 59.773437500000, 41.695312500000, 1492750805
-0.609130859375, -1.609130859375, 0.707275390625, 242.000000000000, 59.773437500000, 41.695312500000, 1492750805
-0.014648437500, -2.136718750000, 0.046386718750, 253.992187500000, 52.632812500000, 121.226562500000, 1492750805
-0.014648437500, -2.136718750000, 0.046386718750, 253.992187500000, 52.632812500000, 121.226562500000, 1492750805
-0.014648437500, -2.136718750000, 0.046386718750, 253.992187500000, 52.632812500000, 121.226562500000, 1492750805
0.278808593750, -1.863281250000, 0.399658203125, 232.093750000000, -123.125000000000, 27.125000000000, 1492750805
0.278808593750, -1.863281250000, 0.399658203125, 232.093750000000, -123.125000000000, 27.125000000000, 1492750805
0.188232421875, -0.182128906250, 0.216308593750, -110.140625000000, 253.992187500000, 90.132812500000, 1492750805
0.188232421875, -0.182128906250, 0.216308593750, -110.140625000000, 253.992187500000, 90.132812500000, 1492750805
0.188232421875, -0.182128906250, 0.216308593750, -110.140625000000, 253.992187500000, 90.132812500000, 1492750805
0.188232421875, -0.182128906250, 0.216308593750, -110.140625000000, 253.992187500000, 90.132812500000, 1492750805
0.188232421875, -0.182128906250, 0.216308593750, -110.140625000000, 253.992187500000, 90.132812500000, 1492750805
0.135498046875, -0.086914062500, -0.050048828125, 76.843750000000, 253.992187500000, -0.882812500000, 1492750805
0.135498046875, -0.086914062500, -0.050048828125, 76.843750000000, 253.992187500000, -0.882812500000, 1492750805
0.135498046875, -0.086914062500, -0.050048828125, 76.843750000000, 253.992187500000, -0.882812500000, 1492750805
0.015625000000, 0.032958984375, 0.016357421875, 35.531250000000, 186.531250000000, -139.953125000000, 1492750805
0.015625000000, 0.032958984375, 0.016357421875, 35.531250000000, 186.531250000000, -139.953125000000, 1492750805
0.015625000000, 0.032958984375, 0.016357421875, 35.531250000000, 186.531250000000, -139.953125000000, 1492750805
0.063964843750, -0.019042968750, -0.007324218750, 8.453125000000, 53.257812500000, -151.375000000000, 1492750805
0.063964843750, -0.019042968750, -0.007324218750, 8.453125000000, 53.257812500000, -151.375000000000, 1492750805
0.357910156250, -0.465332031250, 0.092041015625, -225.093750000000, 146.945312500000, -86.414062500000, 1492750805
0.357910156250, -0.465332031250, 0.092041015625, -225.093750000000, 146.945312500000, -86.414062500000, 1492750805
0.357910156250, -0.465332031250, 0.092041015625, -225.093750000000, 146.945312500000, -86.414062500000, 1492750805
0.357910156250, -0.465332031250, 0.092041015625, -225.093750000000, 146.945312500000, -86.414062500000, 1492750805
2.767578125000, -4.385498046875, 0.859619140625, -118.851562500000, -256.000000000000, 229.437500000000, 1492750805
2.767578125000, -4.385498046875, 0.859619140625, -118.851562500000, -256.000000000000, 229.437500000000, 1492750805
2.767578125000, -4.385498046875, 0.859619140625, -118.851562500000, -256.000000000000, 229.437500000000, 1492750805
2.767578125000, -4.385498046875, 0.859619140625, -118.851562500000, -256.000000000000, 229.437500000000, 1492750805
0.782470703125, -2.825683593750, 1.155517578125, 253.992187500000, -256.000000000000, -256.000000000000, 1492750805
0.782470703125, -2.825683593750, 1.155517578125, 253.992187500000, -256.000000000000, -256.000000000000, 1492750805
0.782470703125, -2.825683593750, 1.155517578125, 253.992187500000, -256.000000000000, -256.000000000000, 1492750805
0.059082031250, -1.099365234375, 0.457519531250, -223.781250000000, 253.992187500000, -10.093750000000, 1492750805
0.059082031250, -1.099365234375, 0.457519531250, -223.781250000000, 253.992187500000, -10.093750000000, 1492750805
0.059082031250, -1.099365234375, 0.457519531250, -223.781250000000, 253.992187500000, -10.093750000000, 1492750806
0.059082031250, -1.099365234375, 0.457519531250, -223.781250000000, 253.992187500000, -10.093750000000, 1492750806
-0.127197265625, -0.260742187500, 0.072998046875, -256.000000000000, 253.992187500000, -135.335937500000, 1492750806
-0.127197265625, -0.260742187500, 0.072998046875, -256.000000000000, 253.992187500000, -135.335937500000, 1492750806
-0.127197265625, -0.260742187500, 0.072998046875, -256.000000000000, 253.992187500000, -135.335937500000, 1492750806
0.006103515625, -0.044189453125, -0.010498046875, -157.710937500000, 27.187500000000, -25.000000000000, 1492750806
0.006103515625, -0.044189453125, -0.010498046875, -157.710937500000, 27.187500000000, -25.000000000000, 1492750806
0.006103515625, -0.044189453125, -0.010498046875, -157.710937500000, 27.187500000000, -25.000000000000, 1492750806
-0.025634765625, 0.024414062500, 0.004150390625, -125.406250000000, -45.312500000000, -69.273437500000, 1492750806
-0.025634765625, 0.024414062500, 0.004150390625, -125.406250000000, -45.312500000000, -69.273437500000, 1492750806
-0.025634765625, 0.024414062500, 0.004150390625, -125.406250000000, -45.312500000000, -69.273437500000, 1492750806
-0.104003906250, -1.707519531250, 0.042724609375, -256.000000000000, -206.414062500000, -150.468750000000, 1492750806
-0.104003906250, -1.707519531250, 0.042724609375, -256.000000000000, -206.414062500000, -150.468750000000, 1492750806
-0.104003906250, -1.707519531250, 0.042724609375, -256.000000000000, -206.414062500000, -150.468750000000, 1492750806
-0.104003906250, -1.707519531250, 0.042724609375, -256.000000000000, -206.414062500000, -150.468750000000, 1492750806
-0.338867187500, -1.467285156250, 0.688476562500, 228.539062500000, 42.320312500000, 36.187500000000, 1492750806
-0.338867187500, -1.467285156250, 0.688476562500, 228.539062500000, 42.320312500000, 36.187500000000, 1492750806
-0.338867187500, -1.467285156250, 0.688476562500, 228.539062500000, 42.320312500000, 36.187500000000, 1492750806
-0.391357421875, -2.205078125000, 0.194335937500, 253.992187500000, 233.757812500000, 106.843750000000, 1492750806
-0.391357421875, -2.205078125000, 0.194335937500, 253.992187500000, 233.757812500000, 106.843750000000, 1492750806
-0.391357421875, -2.205078125000, 0.194335937500, 253.992187500000, 233.757812500000, 106.843750000000, 1492750806
-0.106201171875, -1.496093750000, 0.515625000000, 253.992187500000, -134.046875000000, 166.398437500000, 1492750806
-0.106201171875, -1.496093750000, 0.515625000000, 253.992187500000, -134.046875000000, 166.398437500000, 1492750806
-0.106201171875, -1.496093750000, 0.515625000000, 253.992187500000, -134.046875000000, 166.398437500000, 1492750806
0.239746093750, -0.422363281250, 0.005859375000, -256.000000000000, 24.257812500000, 140.671875000000, 1492750806
0.239746093750, -0.422363281250, 0.005859375000, -256.000000000000, 24.257812500000, 140.671875000000, 1492750806
0.239746093750, -0.422363281250, 0.005859375000, -256.000000000000, 24.257812500000, 140.671875000000, 1492750806
0.239746093750, -0.422363281250, 0.005859375000, -256.000000000000, 24.257812500000, 140.671875000000, 1492750806
0.079345703125, -0.279052734375, 0.317626953125, -152.710937500000, 167.359375000000, 16.367187500000, 1492750806
0.108642578125, -0.163818359375, -0.092285156250, 7.242187500000, 253.992187500000, -11.406250000000, 1492750806
0.108642578125, -0.163818359375, -0.092285156250, 7.242187500000, 253.992187500000, -11.406250000000, 1492750806
0.108642578125, -0.163818359375, -0.092285156250, 7.242187500000, 253.992187500000, -11.406250000000, 1492750806
0.108642578125, -0.163818359375, -0.092285156250, 7.242187500000, 253.992187500000, -11.406250000000, 1492750806
0.259765625000, -0.398193359375, 0.111572265625, -144.796875000000, 253.992187500000, -27.765625000000, 1492750806
0.259765625000, -0.398193359375, 0.111572265625, -144.796875000000, 253.992187500000, -27.765625000000, 1492750806
0.259765625000, -0.398193359375, 0.111572265625, -144.796875000000, 253.992187500000, -27.765625000000, 1492750806
1.193603515625, -2.185546875000, 0.497558593750, 151.929687500000, 253.992187500000, 177.351562500000, 1492750806
1.193603515625, -2.185546875000, 0.497558593750, 151.929687500000, 253.992187500000, 177.351562500000, 1492750806
1.193603515625, -2.185546875000, 0.497558593750, 151.929687500000, 253.992187500000, 177.351562500000, 1492750806
1.193603515625, -2.185546875000, 0.497558593750, 151.929687500000, 253.992187500000, 177.351562500000, 1492750806
1.193603515625, -2.185546875000, 0.497558593750, 151.929687500000, 253.992187500000, 177.351562500000, 1492750806
0.988769531250, -1.857910156250, 0.369384765625, -27.851562500000, 10.593750000000, 126.390625000000, 1492750806
0.988769531250, -1.857910156250, 0.369384765625, -27.851562500000, 10.593750000000, 126.390625000000, 1492750806
0.988769531250, -1.857910156250, 0.369384765625, -27.851562500000, 10.593750000000, 126.390625000000, 1492750806
1.086914062500, -2.213623046875, 0.287597656250, -66.765625000000, -241.375000000000, 239.250000000000, 1492750806
1.086914062500, -2.213623046875, 0.287597656250, -66.765625000000, -241.375000000000, 239.250000000000, 1492750806
1.086914062500, -2.213623046875, 0.287597656250, -66.765625000000, -241.375000000000, 239.250000000000, 1492750806
0.040039062500, -1.688476562500, 0.420654296875, -143.664062500000, -256.000000000000, 50.992187500000, 1492750806
0.040039062500, -1.688476562500, 0.420654296875, -143.664062500000, -256.000000000000, 50.992187500000, 1492750806
0.040039062500, -1.688476562500, 0.420654296875, -143.664062500000, -256.000000000000, 50.992187500000, 1492750806
-0.170166015625, -0.281250000000, 0.197509765625, -4.031250000000, 187.414062500000, -24.695312500000, 1492750806
-0.170166015625, -0.281250000000, 0.197509765625, -4.031250000000, 187.414062500000, -24.695312500000, 1492750806
-0.170166015625, -0.281250000000, 0.197509765625, -4.031250000000, 187.414062500000, -24.695312500000, 1492750806
-0.170166015625, -0.281250000000, 0.197509765625, -4.031250000000, 187.414062500000, -24.695312500000, 1492750806
0.083984375000, -0.136962890625, -0.006591796875, 72.093750000000, 253.992187500000, 69.218750000000, 1492750806
0.083984375000, -0.136962890625, -0.006591796875, 72.093750000000, 253.992187500000, 69.218750000000, 1492750806
0.083984375000, -0.136962890625, -0.006591796875, 72.093750000000, 253.992187500000, 69.218750000000, 1492750806
0.015625000000, -0.048583984375, 0.028808593750, -151.054687500000, 253.992187500000, 19.070312500000, 1492750806
0.015625000000, -0.048583984375, 0.028808593750, -151.054687500000, 253.992187500000, 19.070312500000, 1492750806
0.015625000000, -0.048583984375, 0.028808593750, -151.054687500000, 253.992187500000, 19.070312500000, 1492750806
-0.052001953125, -0.321533203125, -0.122314453125, -256.000000000000, 71.171875000000, -71.132812500000, 1492750806
-0.052001953125, -0.321533203125, -0.122314453125, -256.000000000000, 71.171875000000, -71.132812500000, 1492750806
-0.052001953125, -0.321533203125, -0.122314453125, -256.000000000000, 71.171875000000, -71.132812500000, 1492750806
-0.218017578125, -2.780029296875, 1.309814453125, -187.875000000000, 59.476562500000, 109.187500000000, 1492750806
-0.218017578125, -2.780029296875, 1.309814453125, -187.875000000000, 59.476562500000, 109.187500000000, 1492750806
-0.218017578125, -2.780029296875, 1.309814453125, -187.875000000000, 59.476562500000, 109.187500000000, 1492750806
-0.218017578125, -2.780029296875, 1.309814453125, -187.875000000000, 59.476562500000, 109.187500000000, 1492750806
0.303466796875, -2.718261718750, 0.433837890625, 253.992187500000, 37.539062500000, 54.289062500000, 1492750807
0.303466796875, -2.718261718750, 0.433837890625, 253.992187500000, 37.539062500000, 54.289062500000, 1492750807
0.303466796875, -2.718261718750, 0.433837890625, 253.992187500000, 37.539062500000, 54.289062500000, 1492750807
0.099609375000, -1.424804687500, 0.177001953125, 127.359375000000, 12.367187500000, 26.148437500000, 1492750807
0.099609375000, -1.424804687500, 0.177001953125, 127.359375000000, 12.367187500000, 26.148437500000, 1492750807
0.099609375000, -1.424804687500, 0.177001953125, 127.359375000000, 12.367187500000, 26.148437500000, 1492750807
0.379638671875, -1.315429687500, 0.667480468750, -256.000000000000, -256.000000000000, 58.460937500000, 1492750807
0.379638671875, -1.315429687500, 0.667480468750, -256.000000000000, -256.000000000000, 58.460937500000, 1492750807
0.379638671875, -1.315429687500, 0.667480468750, -256.000000000000, -256.000000000000, 58.460937500000, 1492750807
0.189453125000, -0.052734375000, 0.116455078125, 41.117187500000, 253.992187500000, 132.726562500000, 1492750807
0.189453125000, -0.052734375000, 0.116455078125, 41.117187500000, 253.992187500000, 132.726562500000, 1492750807
0.189453125000, -0.052734375000, 0.116455078125, 41.117187500000, 253.992187500000, 132.726562500000, 1492750807
0.189453125000, -0.052734375000, 0.116455078125, 41.117187500000, 253.992187500000, 132.726562500000, 1492750807
0.145507812500, -0.121337890625, -0.065429687500, 33.726562500000, 253.992187500000, 52.421875000000, 1492750807
0.145507812500, -0.121337890625, -0.065429687500, 33.726562500000, 253.992187500000, 52.421875000000, 1492750807
0.145507812500, -0.121337890625, -0.065429687500, 33.726562500000, 253.992187500000, 52.421875000000, 1492750807
0.211914062500, -0.097656250000, 0.073974609375, -50.234375000000, 253.992187500000, -101.570312500000, 1492750807
0.211914062500, -0.097656250000, 0.073974609375, -50.234375000000, 253.992187500000, -101.570312500000, 1492750807
0.211914062500, -0.097656250000, 0.073974609375, -50.234375000000, 253.992187500000, -101.570312500000, 1492750807
0.589355468750, -0.948242187500, 0.172363281250, -49.492187500000, 253.992187500000, -85.617187500000, 1492750807
0.589355468750, -0.948242187500, 0.172363281250, -49.492187500000, 253.992187500000, -85.617187500000, 1492750807
0.589355468750, -0.948242187500, 0.172363281250, -49.492187500000, 253.992187500000, -85.617187500000, 1492750807
1.224853515625, -1.954345703125, 0.143310546875, 105.304687500000, 137.656250000000, 109.148437500000, 1492750807
1.224853515625, -1.954345703125, 0.143310546875, 105.304687500000, 137.656250000000, 109.148437500000, 1492750807
1.224853515625, -1.954345703125, 0.143310546875, 105.304687500000, 137.656250000000, 109.148437500000, 1492750807
1.224853515625, -1.954345703125, 0.143310546875, 105.304687500000, 137.656250000000, 109.148437500000, 1492750807
1.207519531250, -2.052001953125, 0.344238281250, -122.843750000000, -256.000000000000, 204.570312500000, 1492750807
1.207519531250, -2.052001953125, 0.344238281250, -122.843750000000, -256.000000000000, 204.570312500000, 1492750807
1.207519531250, -2.052001953125, 0.344238281250, -122.843750000000, -256.000000000000, 204.570312500000, 1492750807
0.668457031250, -2.226318359375, 0.240722656250, -199.398437500000, -256.000000000000, -5.468750000000, 1492750807
0.668457031250, -2.226318359375, 0.240722656250, -199.398437500000, -256.000000000000, -5.468750000000, 1492750807
0.668457031250, -2.226318359375, 0.240722656250, -199.398437500000, -256.000000000000, -5.468750000000, 1492750807
0.130615234375, -1.723876953125, 0.602294921875, -27.304687500000, 253.992187500000, -9.632812500000, 1492750807
0.130615234375, -1.723876953125, 0.602294921875, -27.304687500000, 253.992187500000, -9.632812500000, 1492750807
0.130615234375, -1.723876953125, 0.602294921875, -27.304687500000, 253.992187500000, -9.632812500000, 1492750807
0.191894531250, -0.227783203125, 0.051513671875, -29.531250000000, 253.992187500000, 107.164062500000, 1492750807
0.191894531250, -0.227783203125, 0.051513671875, -29.531250000000, 253.992187500000, 107.164062500000, 1492750807
0.191894531250, -0.227783203125, 0.051513671875, -29.531250000000, 253.992187500000, 107.164062500000, 1492750807
0.052734375000, -0.257080078125, -0.042968750000, -58.523437500000, 202.296875000000, -66.757812500000, 1492750807
0.071533203125, -0.314453125000, 0.001953125000, -129.796875000000, -18.437500000000, -19.585937500000, 1492750807
0.121826171875, -0.395263671875, -0.008056640625, -113.437500000000, -91.632812500000, -22.804687500000, 1492750807
0.121826171875, -0.395263671875, -0.008056640625, -113.437500000000, -91.632812500000, -22.804687500000, 1492750807
0.121826171875, -0.395263671875, -0.008056640625, -113.437500000000, -91.632812500000, -22.804687500000, 1492750807
0.201171875000, -0.653808593750, 0.150634765625, -80.640625000000, -207.585937500000, 33.343750000000, 1492750807
0.201171875000, -0.653808593750, 0.150634765625, -80.640625000000, -207.585937500000, 33.343750000000, 1492750807
0.201171875000, -0.653808593750, 0.150634765625, -80.640625000000, -207.585937500000, 33.343750000000, 1492750807
0.201171875000, -0.653808593750, 0.150634765625, -80.640625000000, -207.585937500000, 33.343750000000, 1492750807
0.201171875000, -0.653808593750, 0.150634765625, -80.640625000000, -207.585937500000, 33.343750000000, 1492750807
0.607177734375, -1.036376953125, 0.368408203125, -56.820312500000, -179.164062500000, -44.468750000000, 1492750807
0.607177734375, -1.036376953125, 0.368408203125, -56.820312500000, -179.164062500000, -44.468750000000, 1492750807
0.607177734375, -1.036376953125, 0.368408203125, -56.820312500000, -179.164062500000, -44.468750000000, 1492750807
0.607177734375, -1.036376953125, 0.368408203125, -56.820312500000, -179.164062500000, -44.468750000000, 1492750807
0.530029296875, -1.323486328125, 0.444091796875, 205.468750000000, -2.804687500000, -6.750000000000, 1492750807
0.530029296875, -1.323486328125, 0.444091796875, 205.468750000000, -2.804687500000, -6.750000000000, 1492750807
0.530029296875, -1.323486328125, 0.444091796875, 205.468750000000, -2.804687500000, -6.750000000000, 1492750807
0.258544921875, -0.633789062500, 0.238769531250, -186.148437500000, 253.992187500000, 61.890625000000, 1492750807
0.258544921875, -0.633789062500, 0.238769531250, -186.148437500000, 253.992187500000, 61.890625000000, 1492750807
0.258544921875, -0.633789062500, 0.238769531250, -186.148437500000, 253.992187500000, 61.890625000000, 1492750807
0.258544921875, -0.633789062500, 0.238769531250, -186.148437500000, 253.992187500000, 61.890625000000, 1492750807
0.258544921875, -0.633789062500, 0.238769531250, -186.148437500000, 253.992187500000, 61.890625000000, 1492750807
0.258544921875, -0.633789062500, 0.238769531250, -186.148437500000, 253.992187500000, 61.890625000000, 1492750807
0.377441406250, -0.895751953125, 0.145507812500, 5.242187500000, 253.992187500000, 167.710937500000, 1492750807
0.377441406250, -0.895751953125, 0.145507812500, 5.242187500000, 253.992187500000, 167.710937500000, 1492750807
0.377441406250, -0.895751953125, 0.145507812500, 5.242187500000, 253.992187500000, 167.710937500000, 1492750807
0.377441406250, -0.895751953125, 0.145507812500, 5.242187500000, 253.992187500000, 167.710937500000, 1492750807
0.136474609375, -1.083007812500, 0.131835937500, -118.937500000000, 160.507812500000, -24.484375000000, 1492750807
0.136474609375, -1.083007812500, 0.131835937500, -118.937500000000, 160.507812500000, -24.484375000000, 1492750807
0.136474609375, -1.083007812500, 0.131835937500, -118.937500000000, 160.507812500000, -24.484375000000, 1492750808
-0.047363281250, -1.159423828125, 0.323486328125, -70.546875000000, -138.867187500000, -38.875000000000, 1492750808
-0.047363281250, -1.159423828125, 0.323486328125, -70.546875000000, -138.867187500000, -38.875000000000, 1492750808
-0.047363281250, -1.159423828125, 0.323486328125, -70.546875000000, -138.867187500000, -38.875000000000, 1492750808
-0.069335937500, -1.197265625000, 0.307128906250, 11.539062500000, -171.367187500000, -78.468750000000, 1492750808
-0.069335937500, -1.197265625000, 0.307128906250, 11.539062500000, -171.367187500000, -78.468750000000, 1492750808
-0.069335937500, -1.197265625000, 0.307128906250, 11.539062500000, -171.367187500000, -78.468750000000, 1492750808
-0.011718750000, -0.882080078125, 0.166748046875, 78.554687500000, 96.398437500000, 25.921875000000, 1492750808
-0.011718750000, -0.882080078125, 0.166748046875, 78.554687500000, 96.398437500000, 25.921875000000, 1492750808
-0.011718750000, -0.882080078125, 0.166748046875, 78.554687500000, 96.398437500000, 25.921875000000, 1492750808
-0.011718750000, -0.882080078125, 0.166748046875, 78.554687500000, 96.398437500000, 25.921875000000, 1492750808
0.013671875000, -0.817138671875, 0.211914062500, 95.890625000000, 253.992187500000, 60.460937500000, 1492750808
0.013671875000, -0.817138671875, 0.211914062500, 95.890625000000, 253.992187500000, 60.460937500000, 1492750808
0.013671875000, -0.817138671875, 0.211914062500, 95.890625000000, 253.992187500000, 60.460937500000, 1492750808
-0.101074218750, -0.744873046875, 0.114746093750, 43.265625000000, 177.570312500000, 47.882812500000, 1492750808
-0.101074218750, -0.744873046875, 0.114746093750, 43.265625000000, 177.570312500000, 47.882812500000, 1492750808
-0.101074218750, -0.744873046875, 0.114746093750, 43.265625000000, 177.570312500000, 47.882812500000, 1492750808
-0.269531250000, -0.755859375000, 0.523437500000, 45.695312500000, -226.710937500000, -25.257812500000, 1492750808
-0.269531250000, -0.755859375000, 0.523437500000, 45.695312500000, -226.710937500000, -25.257812500000, 1492750808
-0.269531250000, -0.755859375000, 0.523437500000, 45.695312500000, -226.710937500000, -25.257812500000, 1492750808
0.125732421875, -0.876708984375, 0.310058593750, -57.039062500000, 114.234375000000, 72.515625000000, 1492750808
0.125732421875, -0.876708984375, 0.310058593750, -57.039062500000, 114.234375000000, 72.515625000000, 1492750808
0.125732421875, -0.876708984375, 0.310058593750, -57.039062500000, 114.234375000000, 72.515625000000, 1492750808
0.125732421875, -0.876708984375, 0.310058593750, -57.039062500000, 114.234375000000, 72.515625000000, 1492750808
0.237548828125, -1.179687500000, 0.439453125000, -0.695312500000, 219.195312500000, 151.570312500000, 1492750808
0.237548828125, -1.179687500000, 0.439453125000, -0.695312500000, 219.195312500000, 151.570312500000, 1492750808
0.237548828125, -1.179687500000, 0.439453125000, -0.695312500000, 219.195312500000, 151.570312500000, 1492750808
0.333496093750, -0.866455078125, 0.377685546875, 32.250000000000, -165.773437500000, -33.679687500000, 1492750808
0.333496093750, -0.866455078125, 0.377685546875, 32.250000000000, -165.773437500000, -33.679687500000, 1492750808
0.333496093750, -0.866455078125, 0.377685546875, 32.250000000000, -165.773437500000, -33.679687500000, 1492750808
0.333496093750, -0.866455078125, 0.377685546875, 32.250000000000, -165.773437500000, -33.679687500000, 1492750808
0.299072265625, -0.818359375000, 0.328125000000, 7.531250000000, -87.687500000000, -17.023437500000, 1492750808
0.299072265625, -0.818359375000, 0.328125000000, 7.531250000000, -87.687500000000, -17.023437500000, 1492750808
0.299072265625, -0.818359375000, 0.328125000000, 7.531250000000, -87.687500000000, -17.023437500000, 1492750808
0.299072265625, -0.818359375000, 0.328125000000, 7.531250000000, -87.687500000000, -17.023437500000, 1492750808
0.299072265625, -0.818359375000, 0.328125000000, 7.531250000000, -87.687500000000, -17.023437500000, 1492750808
0.299072265625, -0.818359375000, 0.328125000000, 7.531250000000, -87.687500000000, -17.023437500000, 1492750808
0.380371093750, -0.754882812500, 0.240722656250, 2.828125000000, -33.070312500000, 10.437500000000, 1492750808
0.380371093750, -0.754882812500, 0.240722656250, 2.828125000000, -33.070312500000, 10.437500000000, 1492750808
0.448730468750, -0.903320312500, 0.237304687500, -32.031250000000, 105.546875000000, 75.335937500000, 1492750808
0.448730468750, -0.903320312500, 0.237304687500, -32.031250000000, 105.546875000000, 75.335937500000, 1492750808
0.448730468750, -0.903320312500, 0.237304687500, -32.031250000000, 105.546875000000, 75.335937500000, 1492750808
0.448730468750, -0.903320312500, 0.237304687500, -32.031250000000, 105.546875000000, 75.335937500000, 1492750808
0.373779296875, -0.848388671875, 0.176513671875, -4.281250000000, 41.609375000000, 42.929687500000, 1492750808
0.373779296875, -0.848388671875, 0.176513671875, -4.281250000000, 41.609375000000, 42.929687500000, 1492750808
0.373779296875, -0.848388671875, 0.176513671875, -4.281250000000, 41.609375000000, 42.929687500000, 1492750808
0.301269531250, -0.862304687500, 0.176757812500, -53.937500000000, -85.484375000000, -25.429687500000, 1492750808
0.301269531250, -0.862304687500, 0.176757812500, -53.937500000000, -85.484375000000, -25.429687500000, 1492750808
0.301269531250, -0.862304687500, 0.176757812500, -53.937500000000, -85.484375000000, -25.429687500000, 1492750808
0.383056640625, -0.811035156250, 0.176025390625, -35.125000000000, -114.890625000000, -76.781250000000, 1492750808
0.383056640625, -0.811035156250, 0.176025390625, -35.125000000000, -114.890625000000, -76.781250000000, 1492750808
0.383056640625, -0.811035156250, 0.176025390625, -35.125000000000, -114.890625000000, -76.781250000000, 1492750808
0.383056640625, -0.811035156250, 0.176025390625, -35.125000000000, -114.890625000000, -76.781250000000, 1492750808
0.569335937500, -0.817871093750, 0.185791015625, 23.265625000000, 110.468750000000, -40.960937500000, 1492750808
0.569335937500, -0.817871093750, 0.185791015625, 23.265625000000, 110.468750000000, -40.960937500000, 1492750808
0.569335937500, -0.817871093750, 0.185791015625, 23.265625000000, 110.468750000000, -40.960937500000, 1492750808
0.429687500000, -0.822021484375, 0.228271484375, 56.523437500000, 114.773437500000, -53.906250000000, 1492750808
0.458496093750, -0.763671875000, 0.253417968750, 70.453125000000, 107.101562500000, -56.687500000000, 1492750808
0.458496093750, -0.763671875000, 0.253417968750, 70.453125000000, 107.101562500000, -56.687500000000, 1492750808
0.458496093750, -0.763671875000, 0.253417968750, 70.453125000000, 107.101562500000, -56.687500000000, 1492750808
0.458496093750, -0.763671875000, 0.253417968750, 70.453125000000, 107.101562500000, -56.687500000000, 1492750808
0.458496093750, -0.763671875000, 0.253417968750, 70.453125000000, 107.101562500000, -56.687500000000, 1492750808
0.432617187500, -0.830810546875, 0.224121093750, 40.859375000000, 128.523437500000, -21.195312500000, 1492750808
