ACC_X,ACC_Y,ACC_Z,G_X,G_Y,G_Z,Unix Time
0.132568359375, 1.007080078125, -0.234130859375, -5.898437500000, 0.656250000000, -3.351562500000, 1490848306
0.132568359375, 1.007080078125, -0.234130859375, -5.898437500000, 0.656250000000, -3.351562500000, 1490848306
0.132568359375, 1.007080078125, -0.234130859375, -5.898437500000, 0.656250000000, -3.351562500000, 1490848306
0.132568359375, 1.007080078125, -0.234130859375, -5.898437500000, 0.656250000000, -3.351562500000, 1490848306
0.101806640625, 0.848632812500, -0.253417968750, -8.039062500000, -1.015625000000, -8.367187500000, 1490848306
0.044189453125, 0.963867187500, -0.261474609375, -8.734375000000, 0.640625000000, -3.429687500000, 1490848306
0.044189453125, 0.963867187500, -0.261474609375, -8.734375000000, 0.640625000000, -3.429687500000, 1490848306
0.044189453125, 0.963867187500, -0.261474609375, -8.734375000000, 0.640625000000, -3.429687500000, 1490848306
0.044189453125, 0.963867187500, -0.261474609375, -8.734375000000, 0.640625000000, -3.429687500000, 1490848306
0.034667968750, 1.026855468750, -0.316406250000, -7.023437500000, 6.140625000000, 0.476562500000, 1490848306
0.034667968750, 1.026855468750, -0.316406250000, -7.023437500000, 6.140625000000, 0.476562500000, 1490848306
0.034667968750, 1.026855468750, -0.316406250000, -7.023437500000, 6.140625000000, 0.476562500000, 1490848306
0.190185546875, 1.026123046875, -0.237060546875, -1.671875000000, 3.375000000000, -4.382812500000, 1490848306
0.190185546875, 1.026123046875, -0.237060546875, -1.671875000000, 3.375000000000, -4.382812500000, 1490848306
0.190185546875, 1.026123046875, -0.237060546875, -1.671875000000, 3.375000000000, -4.382812500000, 1490848306
0.167480468750, 0.975830078125, -0.231689453125, -7.539062500000, 5.437500000000, -6.617187500000, 1490848306
0.167480468750, 0.975830078125, -0.231689453125, -7.539062500000, 5.437500000000, -6.617187500000, 1490848306
0.167480468750, 0.975830078125, -0.231689453125, -7.539062500000, 5.437500000000, -6.617187500000, 1490848306
0.101562500000, 0.935302734375, -0.279541015625, -8.093750000000, 3.476562500000, -4.296875000000, 1490848306
0.101562500000, 0.935302734375, -0.279541015625, -8.093750000000, 3.476562500000, -4.296875000000, 1490848306
0.101562500000, 0.935302734375, -0.279541015625, -8.093750000000, 3.476562500000, -4.296875000000, 1490848306
0.101562500000, 0.935302734375, -0.279541015625, -8.093750000000, 3.476562500000, -4.296875000000, 1490848306
0.040283203125, 0.927490234375, -0.223388671875, -6.890625000000, 8.093750000000, -4.500000000000, 1490848306
0.040283203125, 0.927490234375, -0.223388671875, -6.890625000000, 8.093750000000, -4.500000000000, 1490848306
0.040283203125, 0.927490234375, -0.223388671875, -6.890625000000, 8.093750000000, -4.500000000000, 1490848306
0.195800781250, 0.918945312500, -0.245117187500, -6.898437500000, 4.687500000000, -4.648437500000, 1490848306
0.195800781250, 0.918945312500, -0.245117187500, -6.898437500000, 4.687500000000, -4.648437500000, 1490848306
0.195800781250, 0.918945312500, -0.245117187500, -6.898437500000, 4.687500000000, -4.648437500000, 1490848307
0.061523437500, 1.028564453125, -0.263916015625, -4.273437500000, 6.445312500000, -2.929687500000, 1490848307
0.061523437500, 1.028564453125, -0.263916015625, -4.273437500000, 6.445312500000, -2.929687500000, 1490848307
0.061523437500, 1.028564453125, -0.263916015625, -4.273437500000, 6.445312500000, -2.929687500000, 1490848307
0.058837890625, 0.964843750000, -0.257568359375, -5.945312500000, 1.757812500000, -5.070312500000, 1490848307
0.058837890625, 0.964843750000, -0.257568359375, -5.945312500000, 1.757812500000, -5.070312500000, 1490848307
0.058837890625, 0.964843750000, -0.257568359375, -5.945312500000, 1.757812500000, -5.070312500000, 1490848307
0.058837890625, 0.964843750000, -0.257568359375, -5.945312500000, 1.757812500000, -5.070312500000, 1490848307
0.065429687500, 0.927246093750, -0.223632812500, -4.093750000000, 1.226562500000, -2.640625000000, 1490848307
0.065429687500, 0.927246093750, -0.223632812500, -4.093750000000, 1.226562500000, -2.640625000000, 1490848307
0.065429687500, 0.927246093750, -0.223632812500, -4.093750000000, 1.226562500000, -2.640625000000, 1490848307
0.137207031250, 1.025146484375, -0.277343750000, -4.257812500000, 6.687500000000, -3.226562500000, 1490848307
0.137207031250, 1.025146484375, -0.277343750000, -4.257812500000, 6.687500000000, -3.226562500000, 1490848307
0.137207031250, 1.025146484375, -0.277343750000, -4.257812500000, 6.687500000000, -3.226562500000, 1490848307
0.144775390625, 0.937011718750, -0.283935546875, -3.828125000000, 0.773437500000, -4.820312500000, 1490848307
0.144775390625, 0.937011718750, -0.283935546875, -3.828125000000, 0.773437500000, -4.820312500000, 1490848307
0.144775390625, 0.937011718750, -0.283935546875, -3.828125000000, 0.773437500000, -4.820312500000, 1490848307
0.097656250000, 0.990234375000, -0.164794921875, -0.796875000000, -1.437500000000, -2.500000000000, 1490848307
0.097656250000, 0.990234375000, -0.164794921875, -0.796875000000, -1.437500000000, -2.500000000000, 1490848307
0.097656250000, 0.990234375000, -0.164794921875, -0.796875000000, -1.437500000000, -2.500000000000, 1490848307
0.097656250000, 0.990234375000, -0.164794921875, -0.796875000000, -1.437500000000, -2.500000000000, 1490848307
0.142089843750, 0.936767578125, -0.232421875000, 0.414062500000, 2.757812500000, -2.429687500000, 1490848307
0.142089843750, 0.936767578125, -0.232421875000, 0.414062500000, 2.757812500000, -2.429687500000, 1490848307
0.142089843750, 0.936767578125, -0.232421875000, 0.414062500000, 2.757812500000, -2.429687500000, 1490848307
0.131347656250, 0.955810546875, -0.231445312500, -6.031250000000, -10.640625000000, -4.835937500000, 1490848307
0.131347656250, 0.955810546875, -0.231445312500, -6.031250000000, -10.640625000000, -4.835937500000, 1490848307
0.131347656250, 0.955810546875, -0.231445312500, -6.031250000000, -10.640625000000, -4.835937500000, 1490848307
0.056884765625, 0.934570312500, -0.177001953125, -1.500000000000, 1.937500000000, -4.859375000000, 1490848307
0.056884765625, 0.934570312500, -0.177001953125, -1.500000000000, 1.937500000000, -4.859375000000, 1490848307
0.056884765625, 0.934570312500, -0.177001953125, -1.500000000000, 1.937500000000, -4.859375000000, 1490848307
0.207031250000, 0.873535156250, -0.239990234375, -3.546875000000, -4.921875000000, -1.304687500000, 1490848307
0.207031250000, 0.873535156250, -0.239990234375, -3.546875000000, -4.921875000000, -1.304687500000, 1490848307
0.207031250000, 0.873535156250, -0.239990234375, -3.546875000000, -4.921875000000, -1.304687500000, 1490848307
0.207031250000, 0.873535156250, -0.239990234375, -3.546875000000, -4.921875000000, -1.304687500000, 1490848307
0.188964843750, 0.991210937500, -0.179443359375, -3.382812500000, 0.179687500000, -5.007812500000, 1490848307
0.188964843750, 0.991210937500, -0.179443359375, -3.382812500000, 0.179687500000, -5.007812500000, 1490848307
0.188964843750, 0.991210937500, -0.179443359375, -3.382812500000, 0.179687500000, -5.007812500000, 1490848307
0.137695312500, 1.011962890625, -0.187011718750, -0.171875000000, 0.679687500000, -4.679687500000, 1490848307
0.137695312500, 1.011962890625, -0.187011718750, -0.171875000000, 0.679687500000, -4.679687500000, 1490848307
0.137695312500, 1.011962890625, -0.187011718750, -0.171875000000, 0.679687500000, -4.679687500000, 1490848307
0.210449218750, 0.906250000000, -0.185058593750, -4.898437500000, -4.757812500000, -4.257812500000, 1490848307
0.210449218750, 0.906250000000, -0.185058593750, -4.898437500000, -4.757812500000, -4.257812500000, 1490848307
0.210449218750, 0.906250000000, -0.185058593750, -4.898437500000, -4.757812500000, -4.257812500000, 1490848307
-0.025634765625, 0.915527343750, -0.267578125000, -2.476562500000, 0.640625000000, -1.625000000000, 1490848307
-0.025634765625, 0.915527343750, -0.267578125000, -2.476562500000, 0.640625000000, -1.625000000000, 1490848307
-0.025634765625, 0.915527343750, -0.267578125000, -2.476562500000, 0.640625000000, -1.625000000000, 1490848307
-0.025634765625, 0.915527343750, -0.267578125000, -2.476562500000, 0.640625000000, -1.625000000000, 1490848307
0.071044921875, 0.845947265625, -0.223632812500, -4.554687500000, -0.210937500000, -1.812500000000, 1490848307
0.071044921875, 0.845947265625, -0.223632812500, -4.554687500000, -0.210937500000, -1.812500000000, 1490848307
0.071044921875, 0.845947265625, -0.223632812500, -4.554687500000, -0.210937500000, -1.812500000000, 1490848307
0.188720703125, 0.958496093750, -0.244384765625, -8.734375000000, 6.507812500000, -3.710937500000, 1490848307
0.188720703125, 0.958496093750, -0.244384765625, -8.734375000000, 6.507812500000, -3.710937500000, 1490848307
0.188720703125, 0.958496093750, -0.244384765625, -8.734375000000, 6.507812500000, -3.710937500000, 1490848307
0.121582031250, 0.937011718750, -0.272705078125, -1.835937500000, 0.789062500000, -1.851562500000, 1490848307
0.121582031250, 0.937011718750, -0.272705078125, -1.835937500000, 0.789062500000, -1.851562500000, 1490848307
0.121582031250, 0.937011718750, -0.272705078125, -1.835937500000, 0.789062500000, -1.851562500000, 1490848307
0.206787109375, 0.922363281250, -0.221923828125, -2.828125000000, -2.632812500000, -1.351562500000, 1490848307
0.206787109375, 0.922363281250, -0.221923828125, -2.828125000000, -2.632812500000, -1.351562500000, 1490848307
0.206787109375, 0.922363281250, -0.221923828125, -2.828125000000, -2.632812500000, -1.351562500000, 1490848307
0.206787109375, 0.922363281250, -0.221923828125, -2.828125000000, -2.632812500000, -1.351562500000, 1490848307
0.155761718750, 0.969726562500, -0.327880859375, -5.593750000000, 1.023437500000, -5.570312500000, 1490848307
0.155761718750, 0.969726562500, -0.327880859375, -5.593750000000, 1.023437500000, -5.570312500000, 1490848307
0.155761718750, 0.969726562500, -0.327880859375, -5.593750000000, 1.023437500000, -5.570312500000, 1490848307
0.043212890625, 0.915039062500, -0.320800781250, -1.054687500000, 1.125000000000, -4.531250000000, 1490848307
0.043212890625, 0.915039062500, -0.320800781250, -1.054687500000, 1.125000000000, -4.531250000000, 1490848307
0.043212890625, 0.915039062500, -0.320800781250, -1.054687500000, 1.125000000000, -4.531250000000, 1490848307
0.138916015625, 0.987792968750, -0.318847656250, -3.500000000000, -1.914062500000, -1.960937500000, 1490848308
0.138916015625, 0.987792968750, -0.318847656250, -3.500000000000, -1.914062500000, -1.960937500000, 1490848308
0.138916015625, 0.987792968750, -0.318847656250, -3.500000000000, -1.914062500000, -1.960937500000, 1490848308
0.143310546875, 0.946777343750, -0.314941406250, -0.226562500000, -1.023437500000, -1.179687500000, 1490848308
0.143310546875, 0.946777343750, -0.314941406250, -0.226562500000, -1.023437500000, -1.179687500000, 1490848308
0.143310546875, 0.946777343750, -0.314941406250, -0.226562500000, -1.023437500000, -1.179687500000, 1490848308
0.115478515625, 0.988525390625, -0.277832031250, -1.507812500000, -3.296875000000, -4.929687500000, 1490848308
0.049072265625, 0.957519531250, -0.235839843750, -3.265625000000, -4.203125000000, -1.500000000000, 1490848308
0.049072265625, 0.957519531250, -0.235839843750, -3.265625000000, -4.203125000000, -1.500000000000, 1490848308
0.197021484375, 0.916748046875, -0.237060546875, -4.757812500000, -1.390625000000, -1.851562500000, 1490848308
0.213378906250, 0.939208984375, -0.271484375000, -1.179687500000, -4.148437500000, -1.328125000000, 1490848308
0.213378906250, 0.939208984375, -0.271484375000, -1.179687500000, -4.148437500000, -1.328125000000, 1490848308
0.213378906250, 0.939208984375, -0.271484375000, -1.179687500000, -4.148437500000, -1.328125000000, 1490848308
0.053466796875, 0.953369140625, -0.237060546875, -1.250000000000, 0.578125000000, -1.929687500000, 1490848308
0.053466796875, 0.953369140625, -0.237060546875, -1.250000000000, 0.578125000000, -1.929687500000, 1490848308
0.053466796875, 0.953369140625, -0.237060546875, -1.250000000000, 0.578125000000, -1.929687500000, 1490848308
0.153808593750, 0.933349609375, -0.258789062500, -1.992187500000, 0.914062500000, -3.414062500000, 1490848308
0.153808593750, 0.933349609375, -0.258789062500, -1.992187500000, 0.914062500000, -3.414062500000, 1490848308
0.153808593750, 0.933349609375, -0.258789062500, -1.992187500000, 0.914062500000, -3.414062500000, 1490848308
0.153808593750, 0.933349609375, -0.258789062500, -1.992187500000, 0.914062500000, -3.414062500000, 1490848308
0.142089843750, 0.907226562500, -0.238281250000, 0.226562500000, -6.546875000000, -3.992187500000, 1490848308
0.142089843750, 0.907226562500, -0.238281250000, 0.226562500000, -6.546875000000, -3.992187500000, 1490848308
0.142089843750, 0.907226562500, -0.238281250000, 0.226562500000, -6.546875000000, -3.992187500000, 1490848308
0.115722656250, 0.935791015625, -0.173095703125, -2.953125000000, 1.742187500000, -0.992187500000, 1490848308
0.115722656250, 0.935791015625, -0.173095703125, -2.953125000000, 1.742187500000, -0.992187500000, 1490848308
0.115722656250, 0.935791015625, -0.173095703125, -2.953125000000, 1.742187500000, -0.992187500000, 1490848308
0.127685546875, 0.912109375000, -0.273925781250, -4.718750000000, -3.367187500000, -2.757812500000, 1490848308
0.127685546875, 0.912109375000, -0.273925781250, -4.718750000000, -3.367187500000, -2.757812500000, 1490848308
0.127685546875, 0.912109375000, -0.273925781250, -4.718750000000, -3.367187500000, -2.757812500000, 1490848308
0.128173828125, 0.925537109375, -0.229980468750, -1.539062500000, 4.132812500000, 0.750000000000, 1490848308
0.128173828125, 0.925537109375, -0.229980468750, -1.539062500000, 4.132812500000, 0.750000000000, 1490848308
0.128173828125, 0.925537109375, -0.229980468750, -1.539062500000, 4.132812500000, 0.750000000000, 1490848308
0.128173828125, 0.925537109375, -0.229980468750, -1.539062500000, 4.132812500000, 0.750000000000, 1490848308
0.204101562500, 1.002197265625, -0.320312500000, -4.390625000000, -1.734375000000, -4.890625000000, 1490848308
0.204101562500, 1.002197265625, -0.320312500000, -4.390625000000, -1.734375000000, -4.890625000000, 1490848308
0.204101562500, 1.002197265625, -0.320312500000, -4.390625000000, -1.734375000000, -4.890625000000, 1490848308
0.065429687500, 0.983154296875, -0.255615234375, -4.070312500000, 0.289062500000, -1.828125000000, 1490848308
0.065429687500, 0.983154296875, -0.255615234375, -4.070312500000, 0.289062500000, -1.828125000000, 1490848308
0.065429687500, 0.983154296875, -0.255615234375, -4.070312500000, 0.289062500000, -1.828125000000, 1490848308
0.154296875000, 0.874511718750, -0.221191406250, -1.585937500000, 0.132812500000, -1.898437500000, 1490848308
0.154296875000, 0.874511718750, -0.221191406250, -1.585937500000, 0.132812500000, -1.898437500000, 1490848308
0.128417968750, 0.910156250000, -0.238525390625, -8.015625000000, 0.570312500000, -3.953125000000, 1490848308
0.128417968750, 0.910156250000, -0.238525390625, -8.015625000000, 0.570312500000, -3.953125000000, 1490848308
0.095458984375, 0.942138671875, -0.267822265625, -3.281250000000, 1.617187500000, -4.226562500000, 1490848308
0.054931640625, 0.953613281250, -0.227294921875, -6.187500000000, 0.460937500000, -4.273437500000, 1490848308
0.054931640625, 0.953613281250, -0.227294921875, -6.187500000000, 0.460937500000, -4.273437500000, 1490848308
0.152099609375, 1.017333984375, -0.260986328125, -6.421875000000, 10.390625000000, -5.570312500000, 1490848308
0.152099609375, 1.017333984375, -0.260986328125, -6.421875000000, 10.390625000000, -5.570312500000, 1490848308
0.152099609375, 1.017333984375, -0.260986328125, -6.421875000000, 10.390625000000, -5.570312500000, 1490848308
0.152099609375, 1.017333984375, -0.260986328125, -6.421875000000, 10.390625000000, -5.570312500000, 1490848308
0.152099609375, 1.017333984375, -0.260986328125, -6.421875000000, 10.390625000000, -5.570312500000, 1490848308
0.152099609375, 1.017333984375, -0.260986328125, -6.421875000000, 10.390625000000, -5.570312500000, 1490848308
0.105468750000, 0.954345703125, -0.250976562500, -0.500000000000, -2.382812500000, -2.687500000000, 1490848308
0.063720703125, 0.926269531250, -0.214843750000, -8.609375000000, 6.578125000000, -3.460937500000, 1490848308
0.063720703125, 0.926269531250, -0.214843750000, -8.609375000000, 6.578125000000, -3.460937500000, 1490848308
0.063720703125, 0.926269531250, -0.214843750000, -8.609375000000, 6.578125000000, -3.460937500000, 1490848308
0.063720703125, 0.926269531250, -0.214843750000, -8.609375000000, 6.578125000000, -3.460937500000, 1490848308
0.063720703125, 0.926269531250, -0.214843750000, -8.609375000000, 6.578125000000, -3.460937500000, 1490848308
0.104492187500, 0.916015625000, -0.230712890625, -2.781250000000, -2.773437500000, -1.890625000000, 1490848308
0.104492187500, 0.916015625000, -0.230712890625, -2.781250000000, -2.773437500000, -1.890625000000, 1490848308
0.104492187500, 0.916015625000, -0.230712890625, -2.781250000000, -2.773437500000, -1.890625000000, 1490848308
0.104492187500, 0.916015625000, -0.230712890625, -2.781250000000, -2.773437500000, -1.890625000000, 1490848308
0.101074218750, 0.957275390625, -0.274169921875, -3.093750000000, 4.296875000000, -3.679687500000, 1490848308
0.101074218750, 0.957275390625, -0.274169921875, -3.093750000000, 4.296875000000, -3.679687500000, 1490848308
0.101074218750, 0.957275390625, -0.274169921875, -3.093750000000, 4.296875000000, -3.679687500000, 1490848308
0.053955078125, 0.934570312500, -0.168212890625, -1.601562500000, 2.859375000000, -2.992187500000, 1490848308
0.049560546875, 0.935546875000, -0.332519531250, -5.687500000000, -4.953125000000, -3.585937500000, 1490848309
0.153320312500, 1.021728515625, -0.124267578125, -3.593750000000, -2.507812500000, -1.812500000000, 1490848309
0.153320312500, 1.021728515625, -0.124267578125, -3.593750000000, -2.507812500000, -1.812500000000, 1490848309
0.153320312500, 1.021728515625, -0.124267578125, -3.593750000000, -2.507812500000, -1.812500000000, 1490848309
0.153320312500, 1.021728515625, -0.124267578125, -3.593750000000, -2.507812500000, -1.812500000000, 1490848309
0.153320312500, 1.021728515625, -0.124267578125, -3.593750000000, -2.507812500000, -1.812500000000, 1490848309
0.142333984375, 0.908447265625, -0.273193359375, -3.265625000000, -2.390625000000, -3.023437500000, 1490848309
0.147705078125, 0.846679687500, -0.168457031250, -6.382812500000, -2.656250000000, -1.578125000000, 1490848309
0.147705078125, 0.846679687500, -0.168457031250, -6.382812500000, -2.656250000000, -1.578125000000, 1490848309
0.147705078125, 0.846679687500, -0.168457031250, -6.382812500000, -2.656250000000, -1.578125000000, 1490848309
0.147705078125, 0.846679687500, -0.168457031250, -6.382812500000, -2.656250000000, -1.578125000000, 1490848309
0.102294921875, 1.079833984375, -0.217041015625, -6.109375000000, 0.656250000000, -3.226562500000, 1490848309
0.102294921875, 1.079833984375, -0.217041015625, -6.109375000000, 0.656250000000, -3.226562500000, 1490848309
0.102294921875, 1.079833984375, -0.217041015625, -6.109375000000, 0.656250000000, -3.226562500000, 1490848309
0.102294921875, 1.079833984375, -0.217041015625, -6.109375000000, 0.656250000000, -3.226562500000, 1490848309
0.073974609375, 0.954833984375, -0.204345703125, -8.171875000000, -0.367187500000, -6.671875000000, 1490848309
0.190429687500, 0.928466796875, -0.275146484375, -8.507812500000, 8.046875000000, -6.726562500000, 1490848309
0.190429687500, 0.928466796875, -0.275146484375, -8.507812500000, 8.046875000000, -6.726562500000, 1490848309
0.190429687500, 0.928466796875, -0.275146484375, -8.507812500000, 8.046875000000, -6.726562500000, 1490848309
0.190429687500, 0.928466796875, -0.275146484375, -8.507812500000, 8.046875000000, -6.726562500000, 1490848309
0.190429687500, 0.928466796875, -0.275146484375, -8.507812500000, 8.046875000000, -6.726562500000, 1490848309
0.190429687500, 0.928466796875, -0.275146484375, -8.507812500000, 8.046875000000, -6.726562500000, 1490848309
0.103759765625, 0.949218750000, -0.255371093750, -7.734375000000, 0.078125000000, -5.265625000000, 1490848309
0.103759765625, 0.949218750000, -0.255371093750, -7.734375000000, 0.078125000000, -5.265625000000, 1490848309
0.103759765625, 0.949218750000, -0.255371093750, -7.734375000000, 0.078125000000, -5.265625000000, 1490848309
0.212158203125, 0.957031250000, -0.323974609375, -3.265625000000, -0.195312500000, -3.343750000000, 1490848309
0.212158203125, 0.957031250000, -0.323974609375, -3.265625000000, -0.195312500000, -3.343750000000, 1490848309
0.212158203125, 0.957031250000, -0.323974609375, -3.265625000000, -0.195312500000, -3.343750000000, 1490848309
0.041748046875, 0.943847656250, -0.221923828125, -5.882812500000, -0.898437500000, -5.617187500000, 1490848309
0.041748046875, 0.943847656250, -0.221923828125, -5.882812500000, -0.898437500000, -5.617187500000, 1490848309
0.041748046875, 0.943847656250, -0.221923828125, -5.882812500000, -0.898437500000, -5.617187500000, 1490848309
0.041748046875, 0.943847656250, -0.221923828125, -5.882812500000, -0.898437500000, -5.617187500000, 1490848309
0.056152343750, 0.961425781250, -0.269775390625, -6.687500000000, 0.726562500000, -7.265625000000, 1490848309
0.056152343750, 0.961425781250, -0.269775390625, -6.687500000000, 0.726562500000, -7.265625000000, 1490848309
0.056152343750, 0.961425781250, -0.269775390625, -6.687500000000, 0.726562500000, -7.265625000000, 1490848309
0.141113281250, 0.927734375000, -0.233154296875, -8.984375000000, 0.914062500000, -5.320312500000, 1490848309
0.141113281250, 0.927734375000, -0.233154296875, -8.984375000000, 0.914062500000, -5.320312500000, 1490848309
0.141113281250, 0.927734375000, -0.233154296875, -8.984375000000, 0.914062500000, -5.320312500000, 1490848309
0.142333984375, 0.946777343750, -0.182617187500, -6.476562500000, -1.640625000000, -3.437500000000, 1490848309
0.130859375000, 0.897705078125, -0.186523437500, -2.640625000000, 0.421875000000, -3.187500000000, 1490848309
0.130859375000, 0.897705078125, -0.186523437500, -2.640625000000, 0.421875000000, -3.187500000000, 1490848309
0.130859375000, 0.897705078125, -0.186523437500, -2.640625000000, 0.421875000000, -3.187500000000, 1490848309
0.130859375000, 0.897705078125, -0.186523437500, -2.640625000000, 0.421875000000, -3.187500000000, 1490848309
0.133544921875, 0.947509765625, -0.340820312500, -4.070312500000, -2.023437500000, -4.312500000000, 1490848309
0.133544921875, 0.947509765625, -0.340820312500, -4.070312500000, -2.023437500000, -4.312500000000, 1490848309
0.133544921875, 0.947509765625, -0.340820312500, -4.070312500000, -2.023437500000, -4.312500000000, 1490848309
0.133544921875, 0.947509765625, -0.340820312500, -4.070312500000, -2.023437500000, -4.312500000000, 1490848309
0.133544921875, 0.947509765625, -0.340820312500, -4.070312500000, -2.023437500000, -4.312500000000, 1490848309
0.151367187500, 0.860839843750, -0.203613281250, -6.031250000000, -2.210937500000, -4.945312500000, 1490848309
0.151367187500, 0.860839843750, -0.203613281250, -6.031250000000, -2.210937500000, -4.945312500000, 1490848309
0.151367187500, 0.860839843750, -0.203613281250, -6.031250000000, -2.210937500000, -4.945312500000, 1490848309
0.139404296875, 0.997802734375, -0.257080078125, -6.570312500000, 6.015625000000, -3.828125000000, 1490848309
0.139404296875, 0.997802734375, -0.257080078125, -6.570312500000, 6.015625000000, -3.828125000000, 1490848309
0.139404296875, 0.997802734375, -0.257080078125, -6.570312500000, 6.015625000000, -3.828125000000, 1490848309
0.068359375000, 0.921142578125, -0.263427734375, -8.570312500000, 2.609375000000, -5.117187500000, 1490848309
0.068359375000, 0.921142578125, -0.263427734375, -8.570312500000, 2.609375000000, -5.117187500000, 1490848309
0.068359375000, 0.921142578125, -0.263427734375, -8.570312500000, 2.609375000000, -5.117187500000, 1490848309
0.068359375000, 0.921142578125, -0.263427734375, -8.570312500000, 2.609375000000, -5.117187500000, 1490848309
0.158203125000, 0.892822265625, -0.335449218750, -1.750000000000, -0.445312500000, -4.023437500000, 1490848309
0.158203125000, 0.892822265625, -0.335449218750, -1.750000000000, -0.445312500000, -4.023437500000, 1490848309
0.158203125000, 0.892822265625, -0.335449218750, -1.750000000000, -0.445312500000, -4.023437500000, 1490848309
0.051025390625, 0.893554687500, -0.184570312500, -6.132812500000, 9.257812500000, -3.945312500000, 1490848309
0.051025390625, 0.893554687500, -0.184570312500, -6.132812500000, 9.257812500000, -3.945312500000, 1490848309
0.051025390625, 0.893554687500, -0.184570312500, -6.132812500000, 9.257812500000, -3.945312500000, 1490848309
0.136962890625, 1.068359375000, -0.158447265625, -10.828125000000, 3.414062500000, -14.984375000000, 1490848309
0.136962890625, 1.068359375000, -0.158447265625, -10.828125000000, 3.414062500000, -14.984375000000, 1490848309
0.136962890625, 1.068359375000, -0.158447265625, -10.828125000000, 3.414062500000, -14.984375000000, 1490848309
0.229248046875, 1.035400390625, -0.179687500000, -19.570312500000, -6.742187500000, -4.390625000000, 1490848310
0.229248046875, 1.035400390625, -0.179687500000, -19.570312500000, -6.742187500000, -4.390625000000, 1490848310
0.229248046875, 1.035400390625, -0.179687500000, -19.570312500000, -6.742187500000, -4.390625000000, 1490848310
0.229248046875, 1.035400390625, -0.179687500000, -19.570312500000, -6.742187500000, -4.390625000000, 1490848310
0.048828125000, 0.977783203125, -0.263671875000, 2.539062500000, 1.921875000000, -12.750000000000, 1490848310
0.048828125000, 0.977783203125, -0.263671875000, 2.539062500000, 1.921875000000, -12.750000000000, 1490848310
0.048828125000, 0.977783203125, -0.263671875000, 2.539062500000, 1.921875000000, -12.750000000000, 1490848310
0.093994140625, 1.057373046875, -0.323974609375, 9.515625000000, 11.507812500000, 3.585937500000, 1490848310
0.093994140625, 1.057373046875, -0.323974609375, 9.515625000000, 11.507812500000, 3.585937500000, 1490848310
0.093994140625, 1.057373046875, -0.323974609375, 9.515625000000, 11.507812500000, 3.585937500000, 1490848310
0.248291015625, 1.020263671875, -0.297119140625, 6.992187500000, 19.484375000000, 3.062500000000, 1490848310
0.248291015625, 1.020263671875, -0.297119140625, 6.992187500000, 19.484375000000, 3.062500000000, 1490848310
0.156250000000, 0.852294921875, -0.117187500000, -7.976562500000, -26.796875000000, -20.765625000000, 1490848310
0.156250000000, 0.852294921875, -0.117187500000, -7.976562500000, -26.796875000000, -20.765625000000, 1490848310
0.156250000000, 0.852294921875, -0.117187500000, -7.976562500000, -26.796875000000, -20.765625000000, 1490848310
0.156250000000, 0.852294921875, -0.117187500000, -7.976562500000, -26.796875000000, -20.765625000000, 1490848310
0.156250000000, 0.852294921875, -0.117187500000, -7.976562500000, -26.796875000000, -20.765625000000, 1490848310
0.144531250000, 1.152099609375, -0.577880859375, -17.554687500000, 8.859375000000, -12.718750000000, 1490848310
0.144531250000, 1.152099609375, -0.577880859375, -17.554687500000, 8.859375000000, -12.718750000000, 1490848310
0.144531250000, 1.152099609375, -0.577880859375, -17.554687500000, 8.859375000000, -12.718750000000, 1490848310
0.125732421875, 1.159179687500, -0.275390625000, -60.507812500000, -6.804687500000, -23.140625000000, 1490848310
0.125732421875, 1.159179687500, -0.275390625000, -60.507812500000, -6.804687500000, -23.140625000000, 1490848310
0.125732421875, 1.159179687500, -0.275390625000, -60.507812500000, -6.804687500000, -23.140625000000, 1490848310
0.191406250000, 0.915283203125, 0.011962890625, 3.179687500000, 4.382812500000, -1.531250000000, 1490848310
0.191406250000, 0.915283203125, 0.011962890625, 3.179687500000, 4.382812500000, -1.531250000000, 1490848310
0.109130859375, 0.883056640625, -0.127197265625, 29.523437500000, 43.648437500000, 7.750000000000, 1490848310
0.306884765625, 1.031005859375, -0.526123046875, -47.671875000000, -59.390625000000, -45.820312500000, 1490848310
0.306884765625, 1.031005859375, -0.526123046875, -47.671875000000, -59.390625000000, -45.820312500000, 1490848310
0.306884765625, 1.031005859375, -0.526123046875, -47.671875000000, -59.390625000000, -45.820312500000, 1490848310
0.306884765625, 1.031005859375, -0.526123046875, -47.671875000000, -59.390625000000, -45.820312500000, 1490848310
0.003662109375, 1.176269531250, -0.156738281250, -54.046875000000, -33.226562500000, -25.757812500000, 1490848310
0.003662109375, 1.176269531250, -0.156738281250, -54.046875000000, -33.226562500000, -25.757812500000, 1490848310
0.003662109375, 1.176269531250, -0.156738281250, -54.046875000000, -33.226562500000, -25.757812500000, 1490848310
0.003662109375, 1.176269531250, -0.156738281250, -54.046875000000, -33.226562500000, -25.757812500000, 1490848310
0.003662109375, 1.176269531250, -0.156738281250, -54.046875000000, -33.226562500000, -25.757812500000, 1490848310
0.003662109375, 1.176269531250, -0.156738281250, -54.046875000000, -33.226562500000, -25.757812500000, 1490848310
0.066894531250, 0.963134765625, -0.075439453125, 48.734375000000, 51.531250000000, 13.164062500000, 1490848310
0.066894531250, 0.963134765625, -0.075439453125, 48.734375000000, 51.531250000000, 13.164062500000, 1490848310
0.066894531250, 0.963134765625, -0.075439453125, 48.734375000000, 51.531250000000, 13.164062500000, 1490848310
0.291992187500, 0.684082031250, -0.322753906250, 27.171875000000, 55.601562500000, 32.007812500000, 1490848310
0.291992187500, 0.684082031250, -0.322753906250, 27.171875000000, 55.601562500000, 32.007812500000, 1490848310
0.291992187500, 0.684082031250, -0.322753906250, 27.171875000000, 55.601562500000, 32.007812500000, 1490848310
0.291992187500, 0.684082031250, -0.322753906250, 27.171875000000, 55.601562500000, 32.007812500000, 1490848310
0.336425781250, 0.886718750000, -0.390869140625, -38.289062500000, -39.921875000000, -24.687500000000, 1490848310
0.336425781250, 0.886718750000, -0.390869140625, -38.289062500000, -39.921875000000, -24.687500000000, 1490848310
0.336425781250, 0.886718750000, -0.390869140625, -38.289062500000, -39.921875000000, -24.687500000000, 1490848310
0.131103515625, 1.240966796875, -0.346923828125, -58.234375000000, -42.812500000000, -23.828125000000, 1490848310
0.131103515625, 1.240966796875, -0.346923828125, -58.234375000000, -42.812500000000, -23.828125000000, 1490848310
0.131103515625, 1.240966796875, -0.346923828125, -58.234375000000, -42.812500000000, -23.828125000000, 1490848310
0.059082031250, 0.936523437500, -0.109130859375, 2.453125000000, 3.328125000000, -0.710937500000, 1490848310
0.059082031250, 0.936523437500, -0.109130859375, 2.453125000000, 3.328125000000, -0.710937500000, 1490848310
0.059082031250, 0.936523437500, -0.109130859375, 2.453125000000, 3.328125000000, -0.710937500000, 1490848310
0.209716796875, 0.791015625000, -0.320312500000, 40.046875000000, 72.328125000000, 26.843750000000, 1490848310
0.209716796875, 0.791015625000, -0.320312500000, 40.046875000000, 72.328125000000, 26.843750000000, 1490848310
0.209716796875, 0.791015625000, -0.320312500000, 40.046875000000, 72.328125000000, 26.843750000000, 1490848310
0.209716796875, 0.791015625000, -0.320312500000, 40.046875000000, 72.328125000000, 26.843750000000, 1490848310
0.361816406250, 1.031494140625, -0.464599609375, 2.187500000000, -47.398437500000, -91.679687500000, 1490848310
0.361816406250, 1.031494140625, -0.464599609375, 2.187500000000, -47.398437500000, -91.679687500000, 1490848310
0.361816406250, 1.031494140625, -0.464599609375, 2.187500000000, -47.398437500000, -91.679687500000, 1490848310
-0.223632812500, 1.410156250000, -0.039306640625, -256.000000000000, 4.132812500000, 69.960937500000, 1490848310
-0.223632812500, 1.410156250000, -0.039306640625, -256.000000000000, 4.132812500000, 69.960937500000, 1490848310
-0.223632812500, 1.410156250000, -0.039306640625, -256.000000000000, 4.132812500000, 69.960937500000, 1490848310
-0.081542968750, 1.340332031250, 0.074951171875, -256.000000000000, 138.460937500000, 72.445312500000, 1490848310
-0.081542968750, 1.340332031250, 0.074951171875, -256.000000000000, 138.460937500000, 72.445312500000, 1490848310
-0.081542968750, 1.340332031250, 0.074951171875, -256.000000000000, 138.460937500000, 72.445312500000, 1490848310
0.344238281250, -0.336181640625, 0.465820312500, -92.546875000000, 187.195312500000, -229.648437500000, 1490848310
0.344238281250, -0.336181640625, 0.465820312500, -92.546875000000, 187.195312500000, -229.648437500000, 1490848310
0.344238281250, -0.336181640625, 0.465820312500, -92.546875000000, 187.195312500000, -229.648437500000, 1490848311
0.344238281250, -0.336181640625, 0.465820312500, -92.546875000000, 187.195312500000, -229.648437500000, 1490848311
0.137695312500, 0.104980468750, -0.197509765625, -33.039062500000, 21.445312500000, -189.070312500000, 1490848311
0.137695312500, 0.104980468750, -0.197509765625, -33.039062500000, 21.445312500000, -189.070312500000, 1490848311
0.137695312500, 0.104980468750, -0.197509765625, -33.039062500000, 21.445312500000, -189.070312500000, 1490848311
0.019531250000, -0.104980468750, 0.134033203125, 31.265625000000, -121.007812500000, -1.437500000000, 1490848311
0.019531250000, -0.104980468750, 0.134033203125, 31.265625000000, -121.007812500000, -1.437500000000, 1490848311
0.019531250000, -0.104980468750, 0.134033203125, 31.265625000000, -121.007812500000, -1.437500000000, 1490848311
0.208251953125, 0.589111328125, 0.170654296875, 183.804687500000, 41.742187500000, 181.820312500000, 1490848311
0.208251953125, 0.589111328125, 0.170654296875, 183.804687500000, 41.742187500000, 181.820312500000, 1490848311
0.208251953125, 0.589111328125, 0.170654296875, 183.804687500000, 41.742187500000, 181.820312500000, 1490848311
0.295898437500, 0.706054687500, -0.185302734375, 144.429687500000, 107.039062500000, 33.312500000000, 1490848311
0.295898437500, 0.706054687500, -0.185302734375, 144.429687500000, 107.039062500000, 33.312500000000, 1490848311
0.295898437500, 0.706054687500, -0.185302734375, 144.429687500000, 107.039062500000, 33.312500000000, 1490848311
0.295898437500, 0.706054687500, -0.185302734375, 144.429687500000, 107.039062500000, 33.312500000000, 1490848311
0.232177734375, 0.972656250000, -0.258056640625, 109.351562500000, -256.000000000000, -21.289062500000, 1490848311
0.232177734375, 0.972656250000, -0.258056640625, 109.351562500000, -256.000000000000, -21.289062500000, 1490848311
0.232177734375, 0.972656250000, -0.258056640625, 109.351562500000, -256.000000000000, -21.289062500000, 1490848311
0.000976562500, 0.785156250000, 0.147949218750, 171.328125000000, -256.000000000000, -75.515625000000, 1490848311
0.000976562500, 0.785156250000, 0.147949218750, 171.328125000000, -256.000000000000, -75.515625000000, 1490848311
0.000976562500, 0.785156250000, 0.147949218750, 171.328125000000, -256.000000000000, -75.515625000000, 1490848311
-0.198730468750, 1.082763671875, -0.177734375000, 193.632812500000, -157.460937500000, -17.171875000000, 1490848311
-0.198730468750, 1.082763671875, -0.177734375000, 193.632812500000, -157.460937500000, -17.171875000000, 1490848311
-0.198730468750, 1.082763671875, -0.177734375000, 193.632812500000, -157.460937500000, -17.171875000000, 1490848311
-0.339111328125, 0.713378906250, -0.089843750000, -11.882812500000, 83.937500000000, -44.804687500000, 1490848311
-0.339111328125, 0.713378906250, -0.089843750000, -11.882812500000, 83.937500000000, -44.804687500000, 1490848311
-0.339111328125, 0.713378906250, -0.089843750000, -11.882812500000, 83.937500000000, -44.804687500000, 1490848311
-0.339111328125, 0.713378906250, -0.089843750000, -11.882812500000, 83.937500000000, -44.804687500000, 1490848311
0.018066406250, 0.524414062500, -0.241455078125, -66.343750000000, 253.992187500000, 29.375000000000, 1490848311
0.018066406250, 0.524414062500, -0.241455078125, -66.343750000000, 253.992187500000, 29.375000000000, 1490848311
0.440429687500, 0.906494140625, -0.462158203125, -205.453125000000, 25.281250000000, -77.109375000000, 1490848311
0.440429687500, 0.906494140625, -0.462158203125, -205.453125000000, 25.281250000000, -77.109375000000, 1490848311
0.440429687500, 0.906494140625, -0.462158203125, -205.453125000000, 25.281250000000, -77.109375000000, 1490848311
0.440429687500, 0.906494140625, -0.462158203125, -205.453125000000, 25.281250000000, -77.109375000000, 1490848311
0.646240234375, 1.986083984375, -0.555908203125, -223.320312500000, -256.000000000000, -74.406250000000, 1490848311
0.646240234375, 1.986083984375, -0.555908203125, -223.320312500000, -256.000000000000, -74.406250000000, 1490848311
0.646240234375, 1.986083984375, -0.555908203125, -223.320312500000, -256.000000000000, -74.406250000000, 1490848311
0.016601562500, 2.010498046875, -1.348144531250, -256.000000000000, 121.125000000000, -34.156250000000, 1490848311
0.016601562500, 2.010498046875, -1.348144531250, -256.000000000000, 121.125000000000, -34.156250000000, 1490848311
0.016601562500, 2.010498046875, -1.348144531250, -256.000000000000, 121.125000000000, -34.156250000000, 1490848311
0.016601562500, 2.010498046875, -1.348144531250, -256.000000000000, 121.125000000000, -34.156250000000, 1490848311
0.226318359375, 0.708007812500, -1.767089843750, -81.031250000000, -51.531250000000, 66.476562500000, 1490848311
0.226318359375, 0.708007812500, -1.767089843750, -81.031250000000, -51.531250000000, 66.476562500000, 1490848311
0.226318359375, 0.708007812500, -1.767089843750, -81.031250000000, -51.531250000000, 66.476562500000, 1490848311
-0.007080078125, 0.155273437500, -0.520019531250, -256.000000000000, 81.367187500000, 16.906250000000, 1490848311
-0.007080078125, 0.155273437500, -0.520019531250, -256.000000000000, 81.367187500000, 16.906250000000, 1490848311
-0.007080078125, 0.155273437500, -0.520019531250, -256.000000000000, 81.367187500000, 16.906250000000, 1490848311
0.114990234375, -0.501464843750, 0.140136718750, -255.335937500000, 87.765625000000, -62.179687500000, 1490848311
0.114990234375, -0.501464843750, 0.140136718750, -255.335937500000, 87.765625000000, -62.179687500000, 1490848311
0.114990234375, -0.501464843750, 0.140136718750, -255.335937500000, 87.765625000000, -62.179687500000, 1490848311
-0.233642578125, -0.794433593750, -0.530029296875, -256.000000000000, -170.343750000000, 80.343750000000, 1490848311
-0.233642578125, -0.794433593750, -0.530029296875, -256.000000000000, -170.343750000000, 80.343750000000, 1490848311
-0.233642578125, -0.794433593750, -0.530029296875, -256.000000000000, -170.343750000000, 80.343750000000, 1490848311
-0.233642578125, -0.794433593750, -0.530029296875, -256.000000000000, -170.343750000000, 80.343750000000, 1490848311
0.340820312500, -1.616699218750, -1.422851562500, -201.601562500000, 120.421875000000, 57.507812500000, 1490848311
0.340820312500, -1.616699218750, -1.422851562500, -201.601562500000, 120.421875000000, 57.507812500000, 1490848311
0.340820312500, -1.616699218750, -1.422851562500, -201.601562500000, 120.421875000000, 57.507812500000, 1490848311
-0.662597656250, -0.866943359375, -1.516601562500, -31.101562500000, -63.695312500000, -113.359375000000, 1490848311
-0.662597656250, -0.866943359375, -1.516601562500, -31.101562500000, -63.695312500000, -113.359375000000, 1490848311
-0.662597656250, -0.866943359375, -1.516601562500, -31.101562500000, -63.695312500000, -113.359375000000, 1490848311
-0.459472656250, -1.747558593750, -1.113281250000, 3.953125000000, 150.085937500000, 62.843750000000, 1490848311
-0.459472656250, -1.747558593750, -1.113281250000, 3.953125000000, 150.085937500000, 62.843750000000, 1490848311
-0.459472656250, -1.747558593750, -1.113281250000, 3.953125000000, 150.085937500000, 62.843750000000, 1490848311
0.136230468750, -0.216308593750, 0.053955078125, 199.687500000000, -72.406250000000, 70.765625000000, 1490848311
0.136230468750, -0.216308593750, 0.053955078125, 199.687500000000, -72.406250000000, 70.765625000000, 1490848311
0.136230468750, -0.216308593750, 0.053955078125, 199.687500000000, -72.406250000000, 70.765625000000, 1490848311
0.136230468750, -0.216308593750, 0.053955078125, 199.687500000000, -72.406250000000, 70.765625000000, 1490848311
0.044921875000, -0.245605468750, -0.520263671875, 159.640625000000, 251.328125000000, 169.000000000000, 1490848312
0.044921875000, -0.245605468750, -0.520263671875, 159.640625000000, 251.328125000000, 169.000000000000, 1490848312
0.044921875000, -0.245605468750, -0.520263671875, 159.640625000000, 251.328125000000, 169.000000000000, 1490848312
0.730468750000, -0.343994140625, -1.027587890625, -63.312500000000, 253.992187500000, 119.515625000000, 1490848312
0.730468750000, -0.343994140625, -1.027587890625, -63.312500000000, 253.992187500000, 119.515625000000, 1490848312
0.730468750000, -0.343994140625, -1.027587890625, -63.312500000000, 253.992187500000, 119.515625000000, 1490848312
0.772216796875, 0.214355468750, -0.760009765625, -20.257812500000, -256.000000000000, -74.273437500000, 1490848312
0.772216796875, 0.214355468750, -0.760009765625, -20.257812500000, -256.000000000000, -74.273437500000, 1490848312
0.772216796875, 0.214355468750, -0.760009765625, -20.257812500000, -256.000000000000, -74.273437500000, 1490848312
-0.404541015625, -0.386718750000, -1.415283203125, -256.000000000000, -256.000000000000, -60.367187500000, 1490848312
-0.404541015625, -0.386718750000, -1.415283203125, -256.000000000000, -256.000000000000, -60.367187500000, 1490848312
-0.404541015625, -0.386718750000, -1.415283203125, -256.000000000000, -256.000000000000, -60.367187500000, 1490848312
-0.404541015625, -0.386718750000, -1.415283203125, -256.000000000000, -256.000000000000, -60.367187500000, 1490848312
-0.353759765625, -0.788330078125, -0.764648437500, 56.843750000000, 248.062500000000, 35.406250000000, 1490848312
-0.353759765625, -0.788330078125, -0.764648437500, 56.843750000000, 248.062500000000, 35.406250000000, 1490848312
-0.353759765625, -0.788330078125, -0.764648437500, 56.843750000000, 248.062500000000, 35.406250000000, 1490848312
0.541748046875, -0.695312500000, -1.076171875000, 22.031250000000, 165.210937500000, 58.085937500000, 1490848312
0.541748046875, -0.695312500000, -1.076171875000, 22.031250000000, 165.210937500000, 58.085937500000, 1490848312
0.541748046875, -0.695312500000, -1.076171875000, 22.031250000000, 165.210937500000, 58.085937500000, 1490848312
0.289794921875, -0.188720703125, -0.831787109375, 47.671875000000, -139.304687500000, -38.570312500000, 1490848312
0.289794921875, -0.188720703125, -0.831787109375, 47.671875000000, -139.304687500000, -38.570312500000, 1490848312
0.289794921875, -0.188720703125, -0.831787109375, 47.671875000000, -139.304687500000, -38.570312500000, 1490848312
-0.072753906250, -0.071533203125, -0.973144531250, -77.828125000000, -15.554687500000, -0.828125000000, 1490848312
-0.072753906250, -0.071533203125, -0.973144531250, -77.828125000000, -15.554687500000, -0.828125000000, 1490848312
-0.072753906250, -0.071533203125, -0.973144531250, -77.828125000000, -15.554687500000, -0.828125000000, 1490848312
-0.072753906250, -0.071533203125, -0.973144531250, -77.828125000000, -15.554687500000, -0.828125000000, 1490848312
0.179687500000, -0.356933593750, -0.708984375000, -104.359375000000, 46.156250000000, -21.968750000000, 1490848312
0.179687500000, -0.356933593750, -0.708984375000, -104.359375000000, 46.156250000000, -21.968750000000, 1490848312
0.179687500000, -0.356933593750, -0.708984375000, -104.359375000000, 46.156250000000, -21.968750000000, 1490848312
0.183349609375, -0.699707031250, -0.615722656250, -12.687500000000, 9.015625000000, -51.085937500000, 1490848312
0.183349609375, -0.699707031250, -0.615722656250, -12.687500000000, 9.015625000000, -51.085937500000, 1490848312
0.183349609375, -0.699707031250, -0.615722656250, -12.687500000000, 9.015625000000, -51.085937500000, 1490848312
0.072753906250, -0.841064453125, -0.994873046875, -5.945312500000, -101.351562500000, -67.562500000000, 1490848312
0.072753906250, -0.841064453125, -0.994873046875, -5.945312500000, -101.351562500000, -67.562500000000, 1490848312
0.072753906250, -0.841064453125, -0.994873046875, -5.945312500000, -101.351562500000, -67.562500000000, 1490848312
-0.132324218750, -0.494384765625, -0.404052734375, 44.867187500000, -47.000000000000, -43.218750000000, 1490848312
-0.132324218750, -0.494384765625, -0.404052734375, 44.867187500000, -47.000000000000, -43.218750000000, 1490848312
-0.132324218750, -0.494384765625, -0.404052734375, 44.867187500000, -47.000000000000, -43.218750000000, 1490848312
-0.132324218750, -0.494384765625, -0.404052734375, 44.867187500000, -47.000000000000, -43.218750000000, 1490848312
0.116210937500, -0.478027343750, -0.871826171875, 80.656250000000, 55.281250000000, -5.007812500000, 1490848312
0.116210937500, -0.478027343750, -0.871826171875, 80.656250000000, 55.281250000000, -5.007812500000, 1490848312
0.116210937500, -0.478027343750, -0.871826171875, 80.656250000000, 55.281250000000, -5.007812500000, 1490848312
0.314941406250, -0.294921875000, -0.807128906250, 73.882812500000, -98.242187500000, -70.562500000000, 1490848312
0.314941406250, -0.294921875000, -0.807128906250, 73.882812500000, -98.242187500000, -70.562500000000, 1490848312
0.314941406250, -0.294921875000, -0.807128906250, 73.882812500000, -98.242187500000, -70.562500000000, 1490848312
-0.162597656250, -0.091552734375, -0.671630859375, 29.312500000000, -180.460937500000, -109.757812500000, 1490848312
-0.162597656250, -0.091552734375, -0.671630859375, 29.312500000000, -180.460937500000, -109.757812500000, 1490848312
-0.162597656250, -0.091552734375, -0.671630859375, 29.312500000000, -180.460937500000, -109.757812500000, 1490848312
-0.857421875000, 0.252441406250, -1.154296875000, -18.046875000000, -256.000000000000, -175.039062500000, 1490848312
-0.857421875000, 0.252441406250, -1.154296875000, -18.046875000000, -256.000000000000, -175.039062500000, 1490848312
-0.857421875000, 0.252441406250, -1.154296875000, -18.046875000000, -256.000000000000, -175.039062500000, 1490848312
-0.857421875000, 0.252441406250, -1.154296875000, -18.046875000000, -256.000000000000, -175.039062500000, 1490848312
-0.720458984375, 0.280029296875, -0.744384765625, -108.406250000000, 234.843750000000, -44.414062500000, 1490848312
-0.720458984375, 0.280029296875, -0.744384765625, -108.406250000000, 234.843750000000, -44.414062500000, 1490848312
-0.720458984375, 0.280029296875, -0.744384765625, -108.406250000000, 234.843750000000, -44.414062500000, 1490848312
-0.452392578125, -0.330566406250, -0.632568359375, -86.054687500000, -4.000000000000, 0.976562500000, 1490848312
-0.452392578125, -0.330566406250, -0.632568359375, -86.054687500000, -4.000000000000, 0.976562500000, 1490848312
-0.452392578125, -0.330566406250, -0.632568359375, -86.054687500000, -4.000000000000, 0.976562500000, 1490848312
-0.252197265625, -0.156005859375, -0.113037109375, 50.906250000000, -182.609375000000, -94.078125000000, 1490848312
-0.252197265625, -0.156005859375, -0.113037109375, 50.906250000000, -182.609375000000, -94.078125000000, 1490848312
-0.252197265625, -0.156005859375, -0.113037109375, 50.906250000000, -182.609375000000, -94.078125000000, 1490848312
-1.087402343750, -0.036376953125, -1.092773437500, -19.765625000000, 44.554687500000, -78.476562500000, 1490848312
-1.087402343750, -0.036376953125, -1.092773437500, -19.765625000000, 44.554687500000, -78.476562500000, 1490848312
-1.087402343750, -0.036376953125, -1.092773437500, -19.765625000000, 44.554687500000, -78.476562500000, 1490848312
-0.727783203125, -0.208984375000, -0.622314453125, -59.007812500000, -83.242187500000, -5.023437500000, 1490848312
-0.727783203125, -0.208984375000, -0.622314453125, -59.007812500000, -83.242187500000, -5.023437500000, 1490848312
-0.727783203125, -0.208984375000, -0.622314453125, -59.007812500000, -83.242187500000, -5.023437500000, 1490848312
-0.727783203125, -0.208984375000, -0.622314453125, -59.007812500000, -83.242187500000, -5.023437500000, 1490848313
-0.523681640625, -0.424316406250, -0.299072265625, -35.523437500000, -30.750000000000, -15.234375000000, 1490848313
-0.523681640625, -0.424316406250, -0.299072265625, -35.523437500000, -30.750000000000, -15.234375000000, 1490848313
-0.523681640625, -0.424316406250, -0.299072265625, -35.523437500000, -30.750000000000, -15.234375000000, 1490848313
-0.881835937500, -0.260009765625, -0.655029296875, 65.210937500000, -95.656250000000, -104.796875000000, 1490848313
-0.881835937500, -0.260009765625, -0.655029296875, 65.210937500000, -95.656250000000, -104.796875000000, 1490848313
-0.881835937500, -0.260009765625, -0.655029296875, 65.210937500000, -95.656250000000, -104.796875000000, 1490848313
-1.096679687500, -0.246337890625, -0.780273437500, 35.000000000000, 114.484375000000, -62.679687500000, 1490848313
-1.096679687500, -0.246337890625, -0.780273437500, 35.000000000000, 114.484375000000, -62.679687500000, 1490848313
-1.096679687500, -0.246337890625, -0.780273437500, 35.000000000000, 114.484375000000, -62.679687500000, 1490848313
-1.096679687500, -0.246337890625, -0.780273437500, 35.000000000000, 114.484375000000, -62.679687500000, 1490848313
-0.651367187500, -0.008789062500, -0.540283203125, -50.000000000000, 70.265625000000, 36.109375000000, 1490848313
-0.651367187500, -0.008789062500, -0.540283203125, -50.000000000000, 70.265625000000, 36.109375000000, 1490848313
-0.651367187500, -0.008789062500, -0.540283203125, -50.000000000000, 70.265625000000, 36.109375000000, 1490848313
-0.589355468750, -0.182373046875, -0.654296875000, -6.671875000000, 18.023437500000, 36.226562500000, 1490848313
-0.589355468750, -0.182373046875, -0.654296875000, -6.671875000000, 18.023437500000, 36.226562500000, 1490848313
-0.589355468750, -0.182373046875, -0.654296875000, -6.671875000000, 18.023437500000, 36.226562500000, 1490848313
-0.614501953125, -0.269287109375, -0.761718750000, -3.773437500000, 39.695312500000, 15.890625000000, 1490848313
-0.614501953125, -0.269287109375, -0.761718750000, -3.773437500000, 39.695312500000, 15.890625000000, 1490848313
-0.614501953125, -0.269287109375, -0.761718750000, -3.773437500000, 39.695312500000, 15.890625000000, 1490848313
-0.557617187500, -0.009765625000, -1.084960937500, -24.929687500000, 118.367187500000, 35.765625000000, 1490848313
-0.557617187500, -0.009765625000, -1.084960937500, -24.929687500000, 118.367187500000, 35.765625000000, 1490848313
-0.557617187500, -0.009765625000, -1.084960937500, -24.929687500000, 118.367187500000, 35.765625000000, 1490848313
-0.557617187500, -0.009765625000, -1.084960937500, -24.929687500000, 118.367187500000, 35.765625000000, 1490848313
-0.477050781250, -0.209716796875, -0.798828125000, -60.085937500000, 82.828125000000, 68.328125000000, 1490848313
-0.477050781250, -0.209716796875, -0.798828125000, -60.085937500000, 82.828125000000, 68.328125000000, 1490848313
-0.477050781250, -0.209716796875, -0.798828125000, -60.085937500000, 82.828125000000, 68.328125000000, 1490848313
-0.284912109375, -0.094482421875, -0.752685546875, -18.648437500000, -4.968750000000, 55.632812500000, 1490848313
-0.284912109375, -0.094482421875, -0.752685546875, -18.648437500000, -4.968750000000, 55.632812500000, 1490848313
-0.284912109375, -0.094482421875, -0.752685546875, -18.648437500000, -4.968750000000, 55.632812500000, 1490848313
-0.397460937500, -0.278808593750, -0.783203125000, -1.007812500000, 26.062500000000, 35.726562500000, 1490848313
-0.397460937500, -0.278808593750, -0.783203125000, -1.007812500000, 26.062500000000, 35.726562500000, 1490848313
-0.397460937500, -0.278808593750, -0.783203125000, -1.007812500000, 26.062500000000, 35.726562500000, 1490848313
-0.221923828125, -0.403808593750, -0.837158203125, -6.023437500000, 33.476562500000, 21.734375000000, 1490848313
-0.221923828125, -0.403808593750, -0.837158203125, -6.023437500000, 33.476562500000, 21.734375000000, 1490848313
-0.221923828125, -0.403808593750, -0.837158203125, -6.023437500000, 33.476562500000, 21.734375000000, 1490848313
-0.221923828125, -0.403808593750, -0.837158203125, -6.023437500000, 33.476562500000, 21.734375000000, 1490848313
-0.326904296875, -0.110595703125, -0.802490234375, -3.234375000000, 10.640625000000, 5.398437500000, 1490848313
-0.326904296875, -0.110595703125, -0.802490234375, -3.234375000000, 10.640625000000, 5.398437500000, 1490848313
-0.326904296875, -0.110595703125, -0.802490234375, -3.234375000000, 10.640625000000, 5.398437500000, 1490848313
-0.245605468750, -0.059814453125, -0.929931640625, -28.718750000000, 33.968750000000, 27.492187500000, 1490848313
-0.245605468750, -0.059814453125, -0.929931640625, -28.718750000000, 33.968750000000, 27.492187500000, 1490848313
-0.245605468750, -0.059814453125, -0.929931640625, -28.718750000000, 33.968750000000, 27.492187500000, 1490848313
-0.159423828125, -0.307373046875, -0.948242187500, -31.421875000000, -23.914062500000, 11.304687500000, 1490848313
-0.159423828125, -0.307373046875, -0.948242187500, -31.421875000000, -23.914062500000, 11.304687500000, 1490848313
-0.159423828125, -0.307373046875, -0.948242187500, -31.421875000000, -23.914062500000, 11.304687500000, 1490848313
-0.381591796875, -0.365234375000, -0.819335937500, 5.460937500000, -0.539062500000, 1.546875000000, 1490848313
-0.381591796875, -0.365234375000, -0.819335937500, 5.460937500000, -0.539062500000, 1.546875000000, 1490848313
-0.381591796875, -0.365234375000, -0.819335937500, 5.460937500000, -0.539062500000, 1.546875000000, 1490848313
-0.381591796875, -0.365234375000, -0.819335937500, 5.460937500000, -0.539062500000, 1.546875000000, 1490848313
-0.318359375000, -0.273681640625, -0.843994140625, 21.625000000000, 11.187500000000, -18.226562500000, 1490848313
-0.318359375000, -0.273681640625, -0.843994140625, 21.625000000000, 11.187500000000, -18.226562500000, 1490848313
-0.318359375000, -0.273681640625, -0.843994140625, 21.625000000000, 11.187500000000, -18.226562500000, 1490848313
-0.208251953125, -0.267089843750, -0.910400390625, -37.140625000000, 28.460937500000, 2.031250000000, 1490848313
-0.208251953125, -0.267089843750, -0.910400390625, -37.140625000000, 28.460937500000, 2.031250000000, 1490848313
-0.208251953125, -0.267089843750, -0.910400390625, -37.140625000000, 28.460937500000, 2.031250000000, 1490848313
-0.132080078125, -0.337402343750, -0.942138671875, -20.148437500000, -86.335937500000, -20.921875000000, 1490848313
-0.132080078125, -0.337402343750, -0.942138671875, -20.148437500000, -86.335937500000, -20.921875000000, 1490848313
-0.132080078125, -0.337402343750, -0.942138671875, -20.148437500000, -86.335937500000, -20.921875000000, 1490848313
-0.393066406250, -0.258544921875, -0.942138671875, -10.687500000000, -124.500000000000, -33.132812500000, 1490848313
-0.393066406250, -0.258544921875, -0.942138671875, -10.687500000000, -124.500000000000, -33.132812500000, 1490848313
-0.644042968750, -0.449462890625, -0.824462890625, -38.164062500000, -37.312500000000, -4.375000000000, 1490848313
-0.644042968750, -0.449462890625, -0.824462890625, -38.164062500000, -37.312500000000, -4.375000000000, 1490848313
-0.644042968750, -0.449462890625, -0.824462890625, -38.164062500000, -37.312500000000, -4.375000000000, 1490848313
-0.644042968750, -0.449462890625, -0.824462890625, -38.164062500000, -37.312500000000, -4.375000000000, 1490848313
-0.644042968750, -0.449462890625, -0.824462890625, -38.164062500000, -37.312500000000, -4.375000000000, 1490848313
-0.572509765625, -0.531738281250, -0.609130859375, -47.585937500000, -37.859375000000, -14.843750000000, 1490848314
-0.572509765625, -0.531738281250, -0.609130859375, -47.585937500000, -37.859375000000, -14.843750000000, 1490848314
-0.572509765625, -0.531738281250, -0.609130859375, -47.585937500000, -37.859375000000, -14.843750000000, 1490848314
-0.498046875000, -0.415527343750, -0.500976562500, -6.265625000000, -26.234375000000, -26.265625000000, 1490848314
-0.498046875000, -0.415527343750, -0.500976562500, -6.265625000000, -26.234375000000, -26.265625000000, 1490848314
-0.498046875000, -0.415527343750, -0.500976562500, -6.265625000000, -26.234375000000, -26.265625000000, 1490848314
-0.531738281250, -0.376220703125, -0.726074218750, 5.468750000000, 16.218750000000, -5.726562500000, 1490848314
-0.531738281250, -0.376220703125, -0.726074218750, 5.468750000000, 16.218750000000, -5.726562500000, 1490848314
-0.531738281250, -0.376220703125, -0.726074218750, 5.468750000000, 16.218750000000, -5.726562500000, 1490848314
-0.531738281250, -0.376220703125, -0.726074218750, 5.468750000000, 16.218750000000, -5.726562500000, 1490848314
-0.628906250000, -0.233398437500, -0.829345703125, -7.281250000000, 4.812500000000, -7.023437500000, 1490848314
-0.628906250000, -0.233398437500, -0.829345703125, -7.281250000000, 4.812500000000, -7.023437500000, 1490848314
-0.628906250000, -0.233398437500, -0.829345703125, -7.281250000000, 4.812500000000, -7.023437500000, 1490848314
-0.542724609375, -0.301513671875, -0.620117187500, 1.195312500000, 4.695312500000, 0.531250000000, 1490848314
-0.542724609375, -0.301513671875, -0.620117187500, 1.195312500000, 4.695312500000, 0.531250000000, 1490848314
-0.542724609375, -0.301513671875, -0.620117187500, 1.195312500000, 4.695312500000, 0.531250000000, 1490848314
-0.452392578125, -0.297119140625, -0.755859375000, 0.179687500000, 7.921875000000, 4.617187500000, 1490848314
-0.452392578125, -0.297119140625, -0.755859375000, 0.179687500000, 7.921875000000, 4.617187500000, 1490848314
-0.452392578125, -0.297119140625, -0.755859375000, 0.179687500000, 7.921875000000, 4.617187500000, 1490848314
-0.418701171875, -0.230957031250, -0.780029296875, -10.664062500000, 11.320312500000, 3.945312500000, 1490848314
-0.418701171875, -0.230957031250, -0.780029296875, -10.664062500000, 11.320312500000, 3.945312500000, 1490848314
-0.418701171875, -0.230957031250, -0.780029296875, -10.664062500000, 11.320312500000, 3.945312500000, 1490848314
-0.418701171875, -0.230957031250, -0.780029296875, -10.664062500000, 11.320312500000, 3.945312500000, 1490848314
-0.445068359375, -0.337890625000, -0.744140625000, 3.203125000000, -2.210937500000, -3.242187500000, 1490848314
-0.445068359375, -0.337890625000, -0.744140625000, 3.203125000000, -2.210937500000, -3.242187500000, 1490848314
-0.445068359375, -0.337890625000, -0.744140625000, 3.203125000000, -2.210937500000, -3.242187500000, 1490848314
-0.473388671875, -0.311035156250, -0.722412109375, 4.867187500000, -10.578125000000, -11.851562500000, 1490848314
-0.473388671875, -0.311035156250, -0.722412109375, 4.867187500000, -10.578125000000, -11.851562500000, 1490848314
-0.473388671875, -0.311035156250, -0.722412109375, 4.867187500000, -10.578125000000, -11.851562500000, 1490848314
-0.592041015625, -0.330810546875, -0.705078125000, -3.867187500000, 3.226562500000, -3.718750000000, 1490848314
-0.469482421875, -0.348388671875, -0.760498046875, -3.867187500000, 3.226562500000, -3.718750000000, 1490848314
-0.469482421875, -0.348388671875, -0.760498046875, -3.867187500000, 3.226562500000, -3.718750000000, 1490848314
-0.469482421875, -0.348388671875, -0.760498046875, -3.867187500000, 3.226562500000, -3.718750000000, 1490848314
-0.469482421875, -0.348388671875, -0.760498046875, -3.867187500000, 3.226562500000, -3.718750000000, 1490848314
-0.469482421875, -0.348388671875, -0.760498046875, -3.867187500000, 3.226562500000, -3.718750000000, 1490848314
-0.539306640625, -0.247558593750, -0.682617187500, -10.101562500000, -8.265625000000, -3.648437500000, 1490848314
-0.539306640625, -0.247558593750, -0.682617187500, -10.101562500000, -8.265625000000, -3.648437500000, 1490848314
-0.539306640625, -0.247558593750, -0.682617187500, -10.101562500000, -8.265625000000, -3.648437500000, 1490848314
-0.539306640625, -0.247558593750, -0.682617187500, -10.101562500000, -8.265625000000, -3.648437500000, 1490848314
-0.598632812500, -0.310058593750, -0.789306640625, -2.585937500000, -6.437500000000, -3.523437500000, 1490848314
-0.598632812500, -0.310058593750, -0.789306640625, -2.585937500000, -6.437500000000, -3.523437500000, 1490848314
-0.598632812500, -0.310058593750, -0.789306640625, -2.585937500000, -6.437500000000, -3.523437500000, 1490848314
-0.598632812500, -0.310058593750, -0.789306640625, -2.585937500000, -6.437500000000, -3.523437500000, 1490848314
-0.628662109375, -0.338867187500, -0.822753906250, -5.015625000000, 2.054687500000, -3.328125000000, 1490848314
-0.445068359375, -0.281250000000, -0.773925781250, -8.296875000000, 5.437500000000, -4.187500000000, 1490848314
-0.445068359375, -0.281250000000, -0.773925781250, -8.296875000000, 5.437500000000, -4.187500000000, 1490848314
-0.445068359375, -0.281250000000, -0.773925781250, -8.296875000000, 5.437500000000, -4.187500000000, 1490848314
-0.445068359375, -0.281250000000, -0.773925781250, -8.296875000000, 5.437500000000, -4.187500000000, 1490848314
-0.445068359375, -0.281250000000, -0.773925781250, -8.296875000000, 5.437500000000, -4.187500000000, 1490848314
-0.435546875000, -0.264648437500, -0.726562500000, -11.578125000000, 5.968750000000, -1.281250000000, 1490848314
-0.435546875000, -0.264648437500, -0.726562500000, -11.578125000000, 5.968750000000, -1.281250000000, 1490848314
-0.435546875000, -0.264648437500, -0.726562500000, -11.578125000000, 5.968750000000, -1.281250000000, 1490848314
-0.539306640625, -0.343017578125, -0.733154296875, -10.632812500000, 3.195312500000, -2.921875000000, 1490848314
-0.539306640625, -0.343017578125, -0.733154296875, -10.632812500000, 3.195312500000, -2.921875000000, 1490848314
-0.539306640625, -0.343017578125, -0.733154296875, -10.632812500000, 3.195312500000, -2.921875000000, 1490848314
-0.485107421875, -0.385986328125, -0.681152343750, -14.507812500000, 12.945312500000, 0.492187500000, 1490848314
-0.485107421875, -0.385986328125, -0.681152343750, -14.507812500000, 12.945312500000, 0.492187500000, 1490848314
-0.485107421875, -0.385986328125, -0.681152343750, -14.507812500000, 12.945312500000, 0.492187500000, 1490848314
-0.541992187500, -0.365234375000, -0.683593750000, -6.562500000000, 6.484375000000, -4.218750000000, 1490848314
-0.541992187500, -0.365234375000, -0.683593750000, -6.562500000000, 6.484375000000, -4.218750000000, 1490848314
-0.541992187500, -0.365234375000, -0.683593750000, -6.562500000000, 6.484375000000, -4.218750000000, 1490848314
-0.541992187500, -0.365234375000, -0.683593750000, -6.562500000000, 6.484375000000, -4.218750000000, 1490848314
-0.518310546875, -0.326904296875, -0.732910156250, -6.031250000000, 15.609375000000, -1.421875000000, 1490848314
-0.518310546875, -0.326904296875, -0.732910156250, -6.031250000000, 15.609375000000, -1.421875000000, 1490848314
-0.518310546875, -0.326904296875, -0.732910156250, -6.031250000000, 15.609375000000, -1.421875000000, 1490848314
-0.498779296875, -0.326904296875, -0.743408203125, 2.695312500000, 2.648437500000, -6.164062500000, 1490848314
-0.498779296875, -0.326904296875, -0.743408203125, 2.695312500000, 2.648437500000, -6.164062500000, 1490848314
-0.498779296875, -0.326904296875, -0.743408203125, 2.695312500000, 2.648437500000, -6.164062500000, 1490848315
-0.471191406250, -0.238281250000, -0.779052734375, -15.085937500000, -0.289062500000, 0.203125000000, 1490848315
-0.471191406250, -0.238281250000, -0.779052734375, -15.085937500000, -0.289062500000, 0.203125000000, 1490848315
-0.471191406250, -0.238281250000, -0.779052734375, -15.085937500000, -0.289062500000, 0.203125000000, 1490848315
-0.488281250000, -0.350341796875, -0.835693359375, -14.632812500000, 10.656250000000, -0.093750000000, 1490848315
-0.488281250000, -0.350341796875, -0.835693359375, -14.632812500000, 10.656250000000, -0.093750000000, 1490848315
-0.488281250000, -0.350341796875, -0.835693359375, -14.632812500000, 10.656250000000, -0.093750000000, 1490848315
-0.488281250000, -0.350341796875, -0.835693359375, -14.632812500000, 10.656250000000, -0.093750000000, 1490848315
-0.431884765625, -0.362792968750, -0.757080078125, -8.562500000000, -1.039062500000, -6.554687500000, 1490848315
-0.431884765625, -0.362792968750, -0.757080078125, -8.562500000000, -1.039062500000, -6.554687500000, 1490848315
-0.431884765625, -0.362792968750, -0.757080078125, -8.562500000000, -1.039062500000, -6.554687500000, 1490848315
-0.504150390625, -0.439941406250, -0.738037109375, 3.328125000000, -1.789062500000, -5.343750000000, 1490848315
-0.504150390625, -0.439941406250, -0.738037109375, 3.328125000000, -1.789062500000, -5.343750000000, 1490848315
-0.504150390625, -0.439941406250, -0.738037109375, 3.328125000000, -1.789062500000, -5.343750000000, 1490848315
-0.473632812500, -0.398925781250, -0.888671875000, -0.070312500000, -1.359375000000, -10.335937500000, 1490848315
-0.473632812500, -0.398925781250, -0.888671875000, -0.070312500000, -1.359375000000, -10.335937500000, 1490848315
-0.473632812500, -0.398925781250, -0.888671875000, -0.070312500000, -1.359375000000, -10.335937500000, 1490848315
-0.498779296875, -0.405761718750, -0.728027343750, -1.656250000000, -0.968750000000, -6.117187500000, 1490848315
-0.498779296875, -0.405761718750, -0.728027343750, -1.656250000000, -0.968750000000, -6.117187500000, 1490848315
-0.498779296875, -0.405761718750, -0.728027343750, -1.656250000000, -0.968750000000, -6.117187500000, 1490848315
-0.498779296875, -0.405761718750, -0.728027343750, -1.656250000000, -0.968750000000, -6.117187500000, 1490848315
-0.419433593750, -0.303955078125, -0.740234375000, -0.929687500000, -4.656250000000, -4.648437500000, 1490848315
-0.419433593750, -0.303955078125, -0.740234375000, -0.929687500000, -4.656250000000, -4.648437500000, 1490848315
-0.419433593750, -0.303955078125, -0.740234375000, -0.929687500000, -4.656250000000, -4.648437500000, 1490848315
-0.435546875000, -0.311279296875, -0.685791015625, 0.906250000000, -9.734375000000, -5.421875000000, 1490848315
-0.435546875000, -0.311279296875, -0.685791015625, 0.906250000000, -9.734375000000, -5.421875000000, 1490848315
-0.435546875000, -0.311279296875, -0.685791015625, 0.906250000000, -9.734375000000, -5.421875000000, 1490848315
-0.503906250000, -0.384765625000, -0.756347656250, -8.562500000000, 9.554687500000, 0.453125000000, 1490848315
-0.503906250000, -0.384765625000, -0.756347656250, -8.562500000000, 9.554687500000, 0.453125000000, 1490848315
-0.503906250000, -0.384765625000, -0.756347656250, -8.562500000000, 9.554687500000, 0.453125000000, 1490848315
-0.421386718750, -0.361328125000, -0.769775390625, -4.992187500000, -4.484375000000, -1.984375000000, 1490848315
-0.421386718750, -0.361328125000, -0.769775390625, -4.992187500000, -4.484375000000, -1.984375000000, 1490848315
-0.421386718750, -0.361328125000, -0.769775390625, -4.992187500000, -4.484375000000, -1.984375000000, 1490848315
-0.421386718750, -0.361328125000, -0.769775390625, -4.992187500000, -4.484375000000, -1.984375000000, 1490848315
-0.368896484375, -0.394775390625, -0.716308593750, -3.109375000000, -2.531250000000, -3.890625000000, 1490848315
-0.368896484375, -0.394775390625, -0.716308593750, -3.109375000000, -2.531250000000, -3.890625000000, 1490848315
-0.582763671875, -0.349609375000, -0.780761718750, -4.710937500000, 2.507812500000, -4.804687500000, 1490848315
-0.582763671875, -0.349609375000, -0.780761718750, -4.710937500000, 2.507812500000, -4.804687500000, 1490848315
-0.582763671875, -0.349609375000, -0.780761718750, -4.710937500000, 2.507812500000, -4.804687500000, 1490848315
-0.582763671875, -0.349609375000, -0.780761718750, -4.710937500000, 2.507812500000, -4.804687500000, 1490848315
-0.505615234375, -0.350097656250, -0.747314453125, -4.695312500000, -1.015625000000, -4.507812500000, 1490848315
-0.505615234375, -0.350097656250, -0.747314453125, -4.695312500000, -1.015625000000, -4.507812500000, 1490848315
-0.505615234375, -0.350097656250, -0.747314453125, -4.695312500000, -1.015625000000, -4.507812500000, 1490848315
-0.437744140625, -0.288818359375, -0.734130859375, -6.070312500000, -1.531250000000, -3.992187500000, 1490848315
-0.437744140625, -0.288818359375, -0.734130859375, -6.070312500000, -1.531250000000, -3.992187500000, 1490848315
-0.437744140625, -0.288818359375, -0.734130859375, -6.070312500000, -1.531250000000, -3.992187500000, 1490848315
-0.437744140625, -0.288818359375, -0.734130859375, -6.070312500000, -1.531250000000, -3.992187500000, 1490848315
-0.517578125000, -0.445800781250, -0.683837890625, -2.789062500000, 2.234375000000, -6.875000000000, 1490848315
-0.517578125000, -0.445800781250, -0.683837890625, -2.789062500000, 2.234375000000, -6.875000000000, 1490848315
-0.517578125000, -0.445800781250, -0.683837890625, -2.789062500000, 2.234375000000, -6.875000000000, 1490848315
-0.417724609375, -0.340332031250, -0.817382812500, -2.960937500000, 2.843750000000, -5.023437500000, 1490848315
-0.417724609375, -0.340332031250, -0.817382812500, -2.960937500000, 2.843750000000, -5.023437500000, 1490848315
-0.417724609375, -0.340332031250, -0.817382812500, -2.960937500000, 2.843750000000, -5.023437500000, 1490848315
-0.431884765625, -0.393310546875, -0.756347656250, -2.585937500000, -0.812500000000, -6.984375000000, 1490848315
-0.431884765625, -0.393310546875, -0.756347656250, -2.585937500000, -0.812500000000, -6.984375000000, 1490848315
-0.431884765625, -0.393310546875, -0.756347656250, -2.585937500000, -0.812500000000, -6.984375000000, 1490848315
-0.575683593750, -0.387207031250, -0.776855468750, -5.109375000000, 4.312500000000, -3.406250000000, 1490848315
-0.575683593750, -0.387207031250, -0.776855468750, -5.109375000000, 4.312500000000, -3.406250000000, 1490848315
-0.575683593750, -0.387207031250, -0.776855468750, -5.109375000000, 4.312500000000, -3.406250000000, 1490848315
-0.575683593750, -0.387207031250, -0.776855468750, -5.109375000000, 4.312500000000, -3.406250000000, 1490848315
-0.414062500000, -0.381835937500, -0.800048828125, -4.515625000000, 4.421875000000, -2.562500000000, 1490848315
-0.414062500000, -0.381835937500, -0.800048828125, -4.515625000000, 4.421875000000, -2.562500000000, 1490848315
-0.414062500000, -0.381835937500, -0.800048828125, -4.515625000000, 4.421875000000, -2.562500000000, 1490848315
-0.419677734375, -0.246582031250, -0.680419921875, -1.234375000000, 0.710937500000, -3.148437500000, 1490848315
-0.419677734375, -0.246582031250, -0.680419921875, -1.234375000000, 0.710937500000, -3.148437500000, 1490848315
-0.419677734375, -0.246582031250, -0.680419921875, -1.234375000000, 0.710937500000, -3.148437500000, 1490848315
-0.479003906250, -0.293701171875, -0.699951171875, -1.132812500000, 16.671875000000, 0.125000000000, 1490848316
-0.479003906250, -0.293701171875, -0.699951171875, -1.132812500000, 16.671875000000, 0.125000000000, 1490848316
-0.453369140625, -0.326416015625, -0.742675781250, -0.781250000000, -1.015625000000, -6.812500000000, 1490848316
-0.453369140625, -0.326416015625, -0.742675781250, -0.781250000000, -1.015625000000, -6.812500000000, 1490848316
-0.453369140625, -0.326416015625, -0.742675781250, -0.781250000000, -1.015625000000, -6.812500000000, 1490848316
-0.453369140625, -0.326416015625, -0.742675781250, -0.781250000000, -1.015625000000, -6.812500000000, 1490848316
-0.453369140625, -0.326416015625, -0.742675781250, -0.781250000000, -1.015625000000, -6.812500000000, 1490848316
-0.524658203125, -0.311523437500, -0.791015625000, -2.953125000000, -0.210937500000, -3.085937500000, 1490848316
-0.524658203125, -0.311523437500, -0.791015625000, -2.953125000000, -0.210937500000, -3.085937500000, 1490848316
-0.524658203125, -0.311523437500, -0.791015625000, -2.953125000000, -0.210937500000, -3.085937500000, 1490848316
-0.501708984375, -0.335205078125, -0.737060546875, 0.312500000000, 4.546875000000, -3.226562500000, 1490848316
-0.501708984375, -0.335205078125, -0.737060546875, 0.312500000000, 4.546875000000, -3.226562500000, 1490848316
-0.501708984375, -0.335205078125, -0.737060546875, 0.312500000000, 4.546875000000, -3.226562500000, 1490848316
-0.434326171875, -0.396484375000, -0.754638671875, -3.070312500000, 1.109375000000, -1.398437500000, 1490848316
-0.434326171875, -0.396484375000, -0.754638671875, -3.070312500000, 1.109375000000, -1.398437500000, 1490848316
-0.434326171875, -0.396484375000, -0.754638671875, -3.070312500000, 1.109375000000, -1.398437500000, 1490848316
-0.548583984375, -0.281982421875, -0.723632812500, -4.781250000000, -1.351562500000, -3.359375000000, 1490848316
-0.548583984375, -0.281982421875, -0.723632812500, -4.781250000000, -1.351562500000, -3.359375000000, 1490848316
-0.521972656250, -0.392089843750, -0.737548828125, 0.773437500000, 5.460937500000, -3.093750000000, 1490848316
-0.521972656250, -0.392089843750, -0.737548828125, 0.773437500000, 5.460937500000, -3.093750000000, 1490848316
-0.521972656250, -0.392089843750, -0.737548828125, 0.773437500000, 5.460937500000, -3.093750000000, 1490848316
-0.521972656250, -0.392089843750, -0.737548828125, 0.773437500000, 5.460937500000, -3.093750000000, 1490848316
-0.521972656250, -0.392089843750, -0.737548828125, 0.773437500000, 5.460937500000, -3.093750000000, 1490848316
-0.464599609375, -0.371093750000, -0.875488281250, -3.578125000000, 1.335937500000, -4.335937500000, 1490848316
-0.464599609375, -0.371093750000, -0.875488281250, -3.578125000000, 1.335937500000, -4.335937500000, 1490848316
-0.464599609375, -0.371093750000, -0.875488281250, -3.578125000000, 1.335937500000, -4.335937500000, 1490848316
-0.480224609375, -0.311523437500, -0.833496093750, -7.117187500000, 6.257812500000, -0.304687500000, 1490848316
-0.480224609375, -0.311523437500, -0.833496093750, -7.117187500000, 6.257812500000, -0.304687500000, 1490848316
-0.480224609375, -0.311523437500, -0.833496093750, -7.117187500000, 6.257812500000, -0.304687500000, 1490848316
-0.433349609375, -0.227050781250, -0.686035156250, -2.507812500000, -4.906250000000, -4.796875000000, 1490848316
-0.433349609375, -0.227050781250, -0.686035156250, -2.507812500000, -4.906250000000, -4.796875000000, 1490848316
-0.433349609375, -0.227050781250, -0.686035156250, -2.507812500000, -4.906250000000, -4.796875000000, 1490848316
-0.433349609375, -0.227050781250, -0.686035156250, -2.507812500000, -4.906250000000, -4.796875000000, 1490848316
-0.373291015625, -0.358886718750, -0.827392578125, -3.625000000000, 5.570312500000, -1.648437500000, 1490848316
-0.373291015625, -0.358886718750, -0.827392578125, -3.625000000000, 5.570312500000, -1.648437500000, 1490848316
-0.373291015625, -0.358886718750, -0.827392578125, -3.625000000000, 5.570312500000, -1.648437500000, 1490848316
-0.526123046875, -0.242919921875, -0.722412109375, -6.507812500000, 0.296875000000, -4.734375000000, 1490848316
-0.526123046875, -0.242919921875, -0.722412109375, -6.507812500000, 0.296875000000, -4.734375000000, 1490848316
-0.526123046875, -0.242919921875, -0.722412109375, -6.507812500000, 0.296875000000, -4.734375000000, 1490848316
-0.515380859375, -0.285400390625, -0.839111328125, -4.640625000000, -2.679687500000, -3.835937500000, 1490848316
-0.515380859375, -0.285400390625, -0.839111328125, -4.640625000000, -2.679687500000, -3.835937500000, 1490848316
-0.515380859375, -0.285400390625, -0.839111328125, -4.640625000000, -2.679687500000, -3.835937500000, 1490848316
-0.496093750000, -0.353759765625, -0.735351562500, -1.359375000000, -1.617187500000, -3.078125000000, 1490848316
-0.496093750000, -0.353759765625, -0.735351562500, -1.359375000000, -1.617187500000, -3.078125000000, 1490848316
-0.509521484375, -0.360839843750, -0.815185546875, -1.210937500000, -3.273437500000, -3.695312500000, 1490848316
-0.447021484375, -0.286132812500, -0.685546875000, -6.492187500000, 1.875000000000, -3.593750000000, 1490848316
-0.447021484375, -0.286132812500, -0.685546875000, -6.492187500000, 1.875000000000, -3.593750000000, 1490848316
-0.447021484375, -0.286132812500, -0.685546875000, -6.492187500000, 1.875000000000, -3.593750000000, 1490848316
-0.447021484375, -0.286132812500, -0.685546875000, -6.492187500000, 1.875000000000, -3.593750000000, 1490848316
-0.370605468750, -0.283691406250, -0.834960937500, -4.812500000000, -2.984375000000, -3.390625000000, 1490848316
-0.370605468750, -0.283691406250, -0.834960937500, -4.812500000000, -2.984375000000, -3.390625000000, 1490848316
-0.370605468750, -0.283691406250, -0.834960937500, -4.812500000000, -2.984375000000, -3.390625000000, 1490848316
-0.505859375000, -0.339111328125, -0.743164062500, -4.984375000000, 1.718750000000, -4.835937500000, 1490848316
-0.505859375000, -0.339111328125, -0.743164062500, -4.984375000000, 1.718750000000, -4.835937500000, 1490848316
-0.505859375000, -0.339111328125, -0.743164062500, -4.984375000000, 1.718750000000, -4.835937500000, 1490848316
-0.524414062500, -0.388427734375, -0.828369140625, -1.507812500000, -0.023437500000, 0.820312500000, 1490848316
-0.524414062500, -0.388427734375, -0.828369140625, -1.507812500000, -0.023437500000, 0.820312500000, 1490848316
-0.524414062500, -0.388427734375, -0.828369140625, -1.507812500000, -0.023437500000, 0.820312500000, 1490848316
-0.524414062500, -0.388427734375, -0.828369140625, -1.507812500000, -0.023437500000, 0.820312500000, 1490848316
-0.518066406250, -0.271728515625, -0.839599609375, -10.039062500000, 8.210937500000, -2.156250000000, 1490848316
-0.518066406250, -0.271728515625, -0.839599609375, -10.039062500000, 8.210937500000, -2.156250000000, 1490848316
-0.518066406250, -0.271728515625, -0.839599609375, -10.039062500000, 8.210937500000, -2.156250000000, 1490848316
