ACC_X,ACC_Y,ACC_Z,G_X,G_Y,G_Z,Unix Time
0.288085937500, 1.009277343750, -0.353027343750, 0.601562500000, 6.632812500000, -3.171875000000, 1490848285
0.288085937500, 1.009277343750, -0.353027343750, 0.601562500000, 6.632812500000, -3.171875000000, 1490848285
0.288085937500, 1.009277343750, -0.353027343750, 0.601562500000, 6.632812500000, -3.171875000000, 1490848285
0.181396484375, 0.892333984375, -0.423339843750, -3.601562500000, 0.859375000000, -5.875000000000, 1490848285
0.181396484375, 0.892333984375, -0.423339843750, -3.601562500000, 0.859375000000, -5.875000000000, 1490848285
0.193847656250, 0.887451171875, -0.346191406250, -8.335937500000, -4.257812500000, -5.570312500000, 1490848285
0.193847656250, 0.887451171875, -0.346191406250, -8.335937500000, -4.257812500000, -5.570312500000, 1490848285
0.262451171875, 0.968505859375, -0.380126953125, -8.343750000000, -2.210937500000, -5.664062500000, 1490848286
0.262451171875, 0.968505859375, -0.380126953125, -8.343750000000, -2.210937500000, -5.664062500000, 1490848286
0.262451171875, 0.968505859375, -0.380126953125, -8.343750000000, -2.210937500000, -5.664062500000, 1490848286
0.262451171875, 0.968505859375, -0.380126953125, -8.343750000000, -2.210937500000, -5.664062500000, 1490848286
0.262451171875, 0.968505859375, -0.380126953125, -8.343750000000, -2.210937500000, -5.664062500000, 1490848286
0.327392578125, 0.901367187500, -0.382080078125, -3.742187500000, -0.164062500000, -4.429687500000, 1490848286
0.327392578125, 0.901367187500, -0.382080078125, -3.742187500000, -0.164062500000, -4.429687500000, 1490848286
0.327392578125, 0.901367187500, -0.382080078125, -3.742187500000, -0.164062500000, -4.429687500000, 1490848286
0.327392578125, 0.901367187500, -0.382080078125, -3.742187500000, -0.164062500000, -4.429687500000, 1490848286
0.262207031250, 0.792236328125, -0.379150390625, -6.015625000000, 0.757812500000, -1.875000000000, 1490848286
0.262207031250, 0.792236328125, -0.379150390625, -6.015625000000, 0.757812500000, -1.875000000000, 1490848286
0.262207031250, 0.792236328125, -0.379150390625, -6.015625000000, 0.757812500000, -1.875000000000, 1490848286
0.259033203125, 0.859375000000, -0.348144531250, -5.351562500000, -1.984375000000, -4.742187500000, 1490848286
0.259033203125, 0.859375000000, -0.348144531250, -5.351562500000, -1.984375000000, -4.742187500000, 1490848286
0.259033203125, 0.859375000000, -0.348144531250, -5.351562500000, -1.984375000000, -4.742187500000, 1490848286
0.265869140625, 0.872070312500, -0.390625000000, -6.554687500000, -0.921875000000, -4.265625000000, 1490848286
0.265869140625, 0.872070312500, -0.390625000000, -6.554687500000, -0.921875000000, -4.265625000000, 1490848286
0.265869140625, 0.872070312500, -0.390625000000, -6.554687500000, -0.921875000000, -4.265625000000, 1490848286
0.265869140625, 0.872070312500, -0.390625000000, -6.554687500000, -0.921875000000, -4.265625000000, 1490848286
0.182373046875, 0.942626953125, -0.410400390625, -4.140625000000, -8.289062500000, -6.937500000000, 1490848286
0.182373046875, 0.942626953125, -0.410400390625, -4.140625000000, -8.289062500000, -6.937500000000, 1490848286
0.182373046875, 0.942626953125, -0.410400390625, -4.140625000000, -8.289062500000, -6.937500000000, 1490848286
0.173583984375, 0.955322265625, -0.398437500000, -4.250000000000, 4.679687500000, -4.125000000000, 1490848286
0.173583984375, 0.955322265625, -0.398437500000, -4.250000000000, 4.679687500000, -4.125000000000, 1490848286
0.173583984375, 0.955322265625, -0.398437500000, -4.250000000000, 4.679687500000, -4.125000000000, 1490848286
0.277587890625, 0.924316406250, -0.299804687500, -10.500000000000, -6.804687500000, -5.585937500000, 1490848286
0.277587890625, 0.924316406250, -0.299804687500, -10.500000000000, -6.804687500000, -5.585937500000, 1490848286
0.277587890625, 0.924316406250, -0.299804687500, -10.500000000000, -6.804687500000, -5.585937500000, 1490848286
0.197753906250, 0.805908203125, -0.303955078125, 0.796875000000, 8.343750000000, -1.703125000000, 1490848286
0.197753906250, 0.805908203125, -0.303955078125, 0.796875000000, 8.343750000000, -1.703125000000, 1490848286
0.197753906250, 0.805908203125, -0.303955078125, 0.796875000000, 8.343750000000, -1.703125000000, 1490848286
0.197753906250, 0.805908203125, -0.303955078125, 0.796875000000, 8.343750000000, -1.703125000000, 1490848286
0.164062500000, 0.858154296875, -0.356201171875, -4.421875000000, -2.218750000000, -3.664062500000, 1490848286
0.164062500000, 0.858154296875, -0.356201171875, -4.421875000000, -2.218750000000, -3.664062500000, 1490848286
0.164062500000, 0.858154296875, -0.356201171875, -4.421875000000, -2.218750000000, -3.664062500000, 1490848286
0.271728515625, 0.952880859375, -0.349609375000, -3.617187500000, 0.500000000000, -4.531250000000, 1490848286
0.271728515625, 0.952880859375, -0.349609375000, -3.617187500000, 0.500000000000, -4.531250000000, 1490848286
0.271728515625, 0.952880859375, -0.349609375000, -3.617187500000, 0.500000000000, -4.531250000000, 1490848286
0.267089843750, 0.958496093750, -0.448486328125, -2.601562500000, 2.570312500000, -1.257812500000, 1490848286
0.267089843750, 0.958496093750, -0.448486328125, -2.601562500000, 2.570312500000, -1.257812500000, 1490848286
0.267089843750, 0.958496093750, -0.448486328125, -2.601562500000, 2.570312500000, -1.257812500000, 1490848286
0.178710937500, 0.921142578125, -0.333496093750, -1.335937500000, -0.429687500000, -3.781250000000, 1490848286
0.178710937500, 0.921142578125, -0.333496093750, -1.335937500000, -0.429687500000, -3.781250000000, 1490848286
0.178710937500, 0.921142578125, -0.333496093750, -1.335937500000, -0.429687500000, -3.781250000000, 1490848286
0.178710937500, 0.921142578125, -0.333496093750, -1.335937500000, -0.429687500000, -3.781250000000, 1490848286
0.319091796875, 0.785400390625, -0.450195312500, -4.265625000000, 0.492187500000, -1.312500000000, 1490848286
0.319091796875, 0.785400390625, -0.450195312500, -4.265625000000, 0.492187500000, -1.312500000000, 1490848286
0.319091796875, 0.785400390625, -0.450195312500, -4.265625000000, 0.492187500000, -1.312500000000, 1490848286
0.270996093750, 0.870361328125, -0.352539062500, -6.648437500000, 0.382812500000, -6.031250000000, 1490848286
0.270996093750, 0.870361328125, -0.352539062500, -6.648437500000, 0.382812500000, -6.031250000000, 1490848286
0.270996093750, 0.870361328125, -0.352539062500, -6.648437500000, 0.382812500000, -6.031250000000, 1490848286
0.211914062500, 0.873535156250, -0.361572265625, -3.820312500000, 4.367187500000, -1.187500000000, 1490848286
0.211914062500, 0.873535156250, -0.361572265625, -3.820312500000, 4.367187500000, -1.187500000000, 1490848286
0.211914062500, 0.873535156250, -0.361572265625, -3.820312500000, 4.367187500000, -1.187500000000, 1490848286
0.255371093750, 0.863525390625, -0.463867187500, -1.968750000000, 1.390625000000, -3.890625000000, 1490848286
0.255371093750, 0.863525390625, -0.463867187500, -1.968750000000, 1.390625000000, -3.890625000000, 1490848286
0.255371093750, 0.863525390625, -0.463867187500, -1.968750000000, 1.390625000000, -3.890625000000, 1490848286
0.255371093750, 0.863525390625, -0.463867187500, -1.968750000000, 1.390625000000, -3.890625000000, 1490848286
0.181152343750, 0.892822265625, -0.448974609375, -1.195312500000, 1.382812500000, -1.484375000000, 1490848286
0.181152343750, 0.892822265625, -0.448974609375, -1.195312500000, 1.382812500000, -1.484375000000, 1490848286
0.181152343750, 0.892822265625, -0.448974609375, -1.195312500000, 1.382812500000, -1.484375000000, 1490848286
0.224121093750, 0.863037109375, -0.337402343750, -8.375000000000, -1.234375000000, -6.375000000000, 1490848286
0.224121093750, 0.863037109375, -0.337402343750, -8.375000000000, -1.234375000000, -6.375000000000, 1490848286
0.224121093750, 0.863037109375, -0.337402343750, -8.375000000000, -1.234375000000, -6.375000000000, 1490848286
0.239013671875, 0.864501953125, -0.288574218750, -2.132812500000, 1.843750000000, 0.320312500000, 1490848286
0.239013671875, 0.864501953125, -0.288574218750, -2.132812500000, 1.843750000000, 0.320312500000, 1490848286
0.239013671875, 0.864501953125, -0.288574218750, -2.132812500000, 1.843750000000, 0.320312500000, 1490848286
0.246093750000, 0.947753906250, -0.411132812500, -8.531250000000, -1.687500000000, -4.921875000000, 1490848287
0.246093750000, 0.947753906250, -0.411132812500, -8.531250000000, -1.687500000000, -4.921875000000, 1490848287
0.246093750000, 0.947753906250, -0.411132812500, -8.531250000000, -1.687500000000, -4.921875000000, 1490848287
0.246093750000, 0.947753906250, -0.411132812500, -8.531250000000, -1.687500000000, -4.921875000000, 1490848287
0.254394531250, 0.872802734375, -0.308837890625, 0.703125000000, 0.640625000000, -3.500000000000, 1490848287
0.254394531250, 0.872802734375, -0.308837890625, 0.703125000000, 0.640625000000, -3.500000000000, 1490848287
0.254394531250, 0.872802734375, -0.308837890625, 0.703125000000, 0.640625000000, -3.500000000000, 1490848287
0.183105468750, 0.854003906250, -0.447021484375, -3.023437500000, -0.562500000000, -3.484375000000, 1490848287
0.183105468750, 0.854003906250, -0.447021484375, -3.023437500000, -0.562500000000, -3.484375000000, 1490848287
0.183105468750, 0.854003906250, -0.447021484375, -3.023437500000, -0.562500000000, -3.484375000000, 1490848287
0.195800781250, 0.865722656250, -0.338623046875, -6.070312500000, -2.648437500000, -4.734375000000, 1490848287
0.195800781250, 0.865722656250, -0.338623046875, -6.070312500000, -2.648437500000, -4.734375000000, 1490848287
0.195800781250, 0.865722656250, -0.338623046875, -6.070312500000, -2.648437500000, -4.734375000000, 1490848287
0.172119140625, 0.921386718750, -0.356201171875, -1.195312500000, -2.554687500000, -4.085937500000, 1490848287
0.172119140625, 0.921386718750, -0.356201171875, -1.195312500000, -2.554687500000, -4.085937500000, 1490848287
0.172119140625, 0.921386718750, -0.356201171875, -1.195312500000, -2.554687500000, -4.085937500000, 1490848287
0.172119140625, 0.921386718750, -0.356201171875, -1.195312500000, -2.554687500000, -4.085937500000, 1490848287
0.160400390625, 0.902343750000, -0.294433593750, -6.867187500000, -1.078125000000, -4.476562500000, 1490848287
0.160400390625, 0.902343750000, -0.294433593750, -6.867187500000, -1.078125000000, -4.476562500000, 1490848287
0.160400390625, 0.902343750000, -0.294433593750, -6.867187500000, -1.078125000000, -4.476562500000, 1490848287
0.172363281250, 0.920898437500, -0.286865234375, -4.039062500000, 2.875000000000, -4.367187500000, 1490848287
0.172363281250, 0.920898437500, -0.286865234375, -4.039062500000, 2.875000000000, -4.367187500000, 1490848287
0.172363281250, 0.920898437500, -0.286865234375, -4.039062500000, 2.875000000000, -4.367187500000, 1490848287
0.210205078125, 0.932861328125, -0.356201171875, 0.789062500000, -0.570312500000, -4.273437500000, 1490848287
0.210205078125, 0.932861328125, -0.356201171875, 0.789062500000, -0.570312500000, -4.273437500000, 1490848287
0.210205078125, 0.932861328125, -0.356201171875, 0.789062500000, -0.570312500000, -4.273437500000, 1490848287
0.160644531250, 0.941650390625, -0.304443359375, 0.101562500000, -0.992187500000, -2.226562500000, 1490848287
0.160644531250, 0.941650390625, -0.304443359375, 0.101562500000, -0.992187500000, -2.226562500000, 1490848287
0.160644531250, 0.941650390625, -0.304443359375, 0.101562500000, -0.992187500000, -2.226562500000, 1490848287
0.160644531250, 0.941650390625, -0.304443359375, 0.101562500000, -0.992187500000, -2.226562500000, 1490848287
0.187500000000, 0.962402343750, -0.343994140625, -5.242187500000, -0.093750000000, -1.648437500000, 1490848287
0.187500000000, 0.962402343750, -0.343994140625, -5.242187500000, -0.093750000000, -1.648437500000, 1490848287
0.187500000000, 0.962402343750, -0.343994140625, -5.242187500000, -0.093750000000, -1.648437500000, 1490848287
0.175781250000, 0.869628906250, -0.301025390625, -4.148437500000, 2.390625000000, -4.218750000000, 1490848287
0.175781250000, 0.869628906250, -0.301025390625, -4.148437500000, 2.390625000000, -4.218750000000, 1490848287
0.175781250000, 0.869628906250, -0.301025390625, -4.148437500000, 2.390625000000, -4.218750000000, 1490848287
0.206054687500, 0.921386718750, -0.359375000000, -4.679687500000, 0.726562500000, 0.046875000000, 1490848287
0.206054687500, 0.921386718750, -0.359375000000, -4.679687500000, 0.726562500000, 0.046875000000, 1490848287
0.206054687500, 0.921386718750, -0.359375000000, -4.679687500000, 0.726562500000, 0.046875000000, 1490848287
0.330322265625, 0.878173828125, -0.310791015625, -4.476562500000, 0.515625000000, 0.023437500000, 1490848287
0.330322265625, 0.878173828125, -0.310791015625, -4.476562500000, 0.515625000000, 0.023437500000, 1490848287
0.330322265625, 0.878173828125, -0.310791015625, -4.476562500000, 0.515625000000, 0.023437500000, 1490848287
0.330322265625, 0.878173828125, -0.310791015625, -4.476562500000, 0.515625000000, 0.023437500000, 1490848287
0.280517578125, 0.898681640625, -0.440673828125, -6.632812500000, -0.796875000000, -2.593750000000, 1490848287
0.280517578125, 0.898681640625, -0.440673828125, -6.632812500000, -0.796875000000, -2.593750000000, 1490848287
0.280517578125, 0.898681640625, -0.440673828125, -6.632812500000, -0.796875000000, -2.593750000000, 1490848287
0.280029296875, 0.956787109375, -0.438476562500, -3.820312500000, 1.179687500000, -3.273437500000, 1490848287
0.280029296875, 0.956787109375, -0.438476562500, -3.820312500000, 1.179687500000, -3.273437500000, 1490848287
0.280029296875, 0.956787109375, -0.438476562500, -3.820312500000, 1.179687500000, -3.273437500000, 1490848287
0.241699218750, 0.966064453125, -0.359375000000, -4.093750000000, 1.257812500000, -4.921875000000, 1490848287
0.241699218750, 0.966064453125, -0.359375000000, -4.093750000000, 1.257812500000, -4.921875000000, 1490848287
0.241699218750, 0.966064453125, -0.359375000000, -4.093750000000, 1.257812500000, -4.921875000000, 1490848287
0.306152343750, 0.891845703125, -0.435791015625, -5.445312500000, 2.164062500000, -6.015625000000, 1490848287
0.306152343750, 0.891845703125, -0.435791015625, -5.445312500000, 2.164062500000, -6.015625000000, 1490848287
0.257568359375, 0.907714843750, -0.352050781250, -6.304687500000, 0.789062500000, -6.382812500000, 1490848287
0.257568359375, 0.907714843750, -0.352050781250, -6.304687500000, 0.789062500000, -6.382812500000, 1490848287
0.182128906250, 0.856201171875, -0.401611328125, -7.820312500000, -5.210937500000, -8.609375000000, 1490848287
0.182128906250, 0.856201171875, -0.401611328125, -7.820312500000, -5.210937500000, -8.609375000000, 1490848287
0.182128906250, 0.856201171875, -0.401611328125, -7.820312500000, -5.210937500000, -8.609375000000, 1490848287
0.182128906250, 0.856201171875, -0.401611328125, -7.820312500000, -5.210937500000, -8.609375000000, 1490848287
0.182128906250, 0.856201171875, -0.401611328125, -7.820312500000, -5.210937500000, -8.609375000000, 1490848287
0.182128906250, 0.856201171875, -0.401611328125, -7.820312500000, -5.210937500000, -8.609375000000, 1490848287
0.267333984375, 0.905761718750, -0.373535156250, -1.617187500000, -0.187500000000, -1.171875000000, 1490848287
0.267333984375, 0.905761718750, -0.373535156250, -1.617187500000, -0.187500000000, -1.171875000000, 1490848287
0.267333984375, 0.905761718750, -0.373535156250, -1.617187500000, -0.187500000000, -1.171875000000, 1490848287
0.262451171875, 0.885009765625, -0.343261718750, -7.359375000000, 0.171875000000, -3.921875000000, 1490848287
0.262451171875, 0.885009765625, -0.343261718750, -7.359375000000, 0.171875000000, -3.921875000000, 1490848287
0.262451171875, 0.885009765625, -0.343261718750, -7.359375000000, 0.171875000000, -3.921875000000, 1490848287
0.262451171875, 0.885009765625, -0.343261718750, -7.359375000000, 0.171875000000, -3.921875000000, 1490848287
0.274169921875, 0.864013671875, -0.439941406250, -2.156250000000, 4.992187500000, -4.335937500000, 1490848288
0.274169921875, 0.864013671875, -0.439941406250, -2.156250000000, 4.992187500000, -4.335937500000, 1490848288
0.274169921875, 0.864013671875, -0.439941406250, -2.156250000000, 4.992187500000, -4.335937500000, 1490848288
0.208251953125, 0.864746093750, -0.439208984375, -8.257812500000, -2.921875000000, -6.304687500000, 1490848288
0.208251953125, 0.864746093750, -0.439208984375, -8.257812500000, -2.921875000000, -6.304687500000, 1490848288
0.208251953125, 0.864746093750, -0.439208984375, -8.257812500000, -2.921875000000, -6.304687500000, 1490848288
0.215820312500, 0.878662109375, -0.377685546875, -3.445312500000, -1.929687500000, -4.882812500000, 1490848288
0.215820312500, 0.878662109375, -0.377685546875, -3.445312500000, -1.929687500000, -4.882812500000, 1490848288
0.215820312500, 0.878662109375, -0.377685546875, -3.445312500000, -1.929687500000, -4.882812500000, 1490848288
0.255615234375, 0.898437500000, -0.354248046875, -5.218750000000, 4.414062500000, -1.437500000000, 1490848288
0.255615234375, 0.898437500000, -0.354248046875, -5.218750000000, 4.414062500000, -1.437500000000, 1490848288
0.255615234375, 0.898437500000, -0.354248046875, -5.218750000000, 4.414062500000, -1.437500000000, 1490848288
0.255615234375, 0.898437500000, -0.354248046875, -5.218750000000, 4.414062500000, -1.437500000000, 1490848288
0.238769531250, 0.901123046875, -0.393798828125, -8.804687500000, -3.062500000000, -1.632812500000, 1490848288
0.238769531250, 0.901123046875, -0.393798828125, -8.804687500000, -3.062500000000, -1.632812500000, 1490848288
0.318359375000, 0.868896484375, -0.383544921875, -1.757812500000, 1.132812500000, -1.148437500000, 1490848288
0.318359375000, 0.868896484375, -0.383544921875, -1.757812500000, 1.132812500000, -1.148437500000, 1490848288
0.318359375000, 0.868896484375, -0.383544921875, -1.757812500000, 1.132812500000, -1.148437500000, 1490848288
0.318359375000, 0.868896484375, -0.383544921875, -1.757812500000, 1.132812500000, -1.148437500000, 1490848288
0.267089843750, 0.958496093750, -0.391601562500, -5.843750000000, 2.476562500000, -3.117187500000, 1490848288
0.267089843750, 0.958496093750, -0.391601562500, -5.843750000000, 2.476562500000, -3.117187500000, 1490848288
0.267089843750, 0.958496093750, -0.391601562500, -5.843750000000, 2.476562500000, -3.117187500000, 1490848288
0.230957031250, 0.897460937500, -0.347656250000, -1.515625000000, 1.265625000000, -4.570312500000, 1490848288
0.230957031250, 0.897460937500, -0.347656250000, -1.515625000000, 1.265625000000, -4.570312500000, 1490848288
0.230957031250, 0.897460937500, -0.347656250000, -1.515625000000, 1.265625000000, -4.570312500000, 1490848288
0.230957031250, 0.897460937500, -0.347656250000, -1.515625000000, 1.265625000000, -4.570312500000, 1490848288
0.118408203125, 0.895019531250, -0.314941406250, -7.406250000000, 1.210937500000, -3.976562500000, 1490848288
0.118408203125, 0.895019531250, -0.314941406250, -7.406250000000, 1.210937500000, -3.976562500000, 1490848288
0.118408203125, 0.895019531250, -0.314941406250, -7.406250000000, 1.210937500000, -3.976562500000, 1490848288
0.267333984375, 0.855224609375, -0.373046875000, -1.437500000000, -1.140625000000, -4.054687500000, 1490848288
0.267333984375, 0.855224609375, -0.373046875000, -1.437500000000, -1.140625000000, -4.054687500000, 1490848288
0.267333984375, 0.855224609375, -0.373046875000, -1.437500000000, -1.140625000000, -4.054687500000, 1490848288
0.232910156250, 1.025878906250, -0.332519531250, -7.750000000000, -1.859375000000, -6.726562500000, 1490848288
0.232910156250, 1.025878906250, -0.332519531250, -7.750000000000, -1.859375000000, -6.726562500000, 1490848288
0.232910156250, 1.025878906250, -0.332519531250, -7.750000000000, -1.859375000000, -6.726562500000, 1490848288
0.270751953125, 0.962158203125, -0.372802734375, 0.101562500000, 5.296875000000, -2.687500000000, 1490848288
0.270751953125, 0.962158203125, -0.372802734375, 0.101562500000, 5.296875000000, -2.687500000000, 1490848288
0.270751953125, 0.962158203125, -0.372802734375, 0.101562500000, 5.296875000000, -2.687500000000, 1490848288
0.270751953125, 0.962158203125, -0.372802734375, 0.101562500000, 5.296875000000, -2.687500000000, 1490848288
0.239746093750, 0.902099609375, -0.375732421875, -7.023437500000, 0.367187500000, -6.304687500000, 1490848288
0.239746093750, 0.902099609375, -0.375732421875, -7.023437500000, 0.367187500000, -6.304687500000, 1490848288
0.239746093750, 0.902099609375, -0.375732421875, -7.023437500000, 0.367187500000, -6.304687500000, 1490848288
0.224365234375, 1.018310546875, -0.351806640625, 0.507812500000, 6.789062500000, -2.296875000000, 1490848288
0.224365234375, 1.018310546875, -0.351806640625, 0.507812500000, 6.789062500000, -2.296875000000, 1490848288
0.224365234375, 1.018310546875, -0.351806640625, 0.507812500000, 6.789062500000, -2.296875000000, 1490848288
0.227294921875, 0.867187500000, -0.374755859375, -6.929687500000, -1.593750000000, -6.671875000000, 1490848288
0.227294921875, 0.867187500000, -0.374755859375, -6.929687500000, -1.593750000000, -6.671875000000, 1490848288
0.227294921875, 0.867187500000, -0.374755859375, -6.929687500000, -1.593750000000, -6.671875000000, 1490848288
0.190185546875, 0.860595703125, -0.386718750000, -2.960937500000, 2.625000000000, -4.031250000000, 1490848288
0.173339843750, 0.852539062500, -0.407958984375, -2.601562500000, 2.875000000000, -1.257812500000, 1490848288
0.173339843750, 0.852539062500, -0.407958984375, -2.601562500000, 2.875000000000, -1.257812500000, 1490848288
0.173339843750, 0.852539062500, -0.407958984375, -2.601562500000, 2.875000000000, -1.257812500000, 1490848288
0.155029296875, 0.794677734375, -0.365722656250, -4.656250000000, -0.437500000000, -3.632812500000, 1490848288
0.155029296875, 0.794677734375, -0.365722656250, -4.656250000000, -0.437500000000, -3.632812500000, 1490848288
0.155029296875, 0.794677734375, -0.365722656250, -4.656250000000, -0.437500000000, -3.632812500000, 1490848288
0.183837890625, 0.864013671875, -0.338867187500, -4.796875000000, -0.281250000000, -1.695312500000, 1490848288
0.183837890625, 0.864013671875, -0.338867187500, -4.796875000000, -0.281250000000, -1.695312500000, 1490848288
0.183837890625, 0.864013671875, -0.338867187500, -4.796875000000, -0.281250000000, -1.695312500000, 1490848288
0.187744140625, 0.807617187500, -0.357421875000, 5.976562500000, 5.773437500000, -0.187500000000, 1490848288
0.187744140625, 0.807617187500, -0.357421875000, 5.976562500000, 5.773437500000, -0.187500000000, 1490848288
0.187744140625, 0.807617187500, -0.357421875000, 5.976562500000, 5.773437500000, -0.187500000000, 1490848288
0.271972656250, 0.906738281250, -0.353027343750, -8.671875000000, -6.609375000000, -4.531250000000, 1490848288
0.271972656250, 0.906738281250, -0.353027343750, -8.671875000000, -6.609375000000, -4.531250000000, 1490848288
0.271972656250, 0.906738281250, -0.353027343750, -8.671875000000, -6.609375000000, -4.531250000000, 1490848288
0.271972656250, 0.906738281250, -0.353027343750, -8.671875000000, -6.609375000000, -4.531250000000, 1490848288
0.201171875000, 0.902099609375, -0.357910156250, 0.328125000000, 6.539062500000, -2.218750000000, 1490848289
0.201171875000, 0.902099609375, -0.357910156250, 0.328125000000, 6.539062500000, -2.218750000000, 1490848289
0.201171875000, 0.902099609375, -0.357910156250, 0.328125000000, 6.539062500000, -2.218750000000, 1490848289
0.180175781250, 0.888671875000, -0.294433593750, -6.031250000000, -1.570312500000, -4.312500000000, 1490848289
0.180175781250, 0.888671875000, -0.294433593750, -6.031250000000, -1.570312500000, -4.312500000000, 1490848289
0.180175781250, 0.888671875000, -0.294433593750, -6.031250000000, -1.570312500000, -4.312500000000, 1490848289
0.252441406250, 0.881347656250, -0.351806640625, -4.328125000000, 2.445312500000, -4.937500000000, 1490848289
0.252441406250, 0.881347656250, -0.351806640625, -4.328125000000, 2.445312500000, -4.937500000000, 1490848289
0.252441406250, 0.881347656250, -0.351806640625, -4.328125000000, 2.445312500000, -4.937500000000, 1490848289
0.246582031250, 0.857910156250, -0.451416015625, -3.718750000000, -4.734375000000, -3.632812500000, 1490848289
0.246582031250, 0.857910156250, -0.451416015625, -3.718750000000, -4.734375000000, -3.632812500000, 1490848289
0.246582031250, 0.857910156250, -0.451416015625, -3.718750000000, -4.734375000000, -3.632812500000, 1490848289
0.246582031250, 0.857910156250, -0.451416015625, -3.718750000000, -4.734375000000, -3.632812500000, 1490848289
0.168945312500, 0.810302734375, -0.438720703125, -6.929687500000, -1.046875000000, -3.835937500000, 1490848289
0.168945312500, 0.810302734375, -0.438720703125, -6.929687500000, -1.046875000000, -3.835937500000, 1490848289
0.168945312500, 0.810302734375, -0.438720703125, -6.929687500000, -1.046875000000, -3.835937500000, 1490848289
0.259521484375, 0.952148437500, -0.390136718750, -3.203125000000, 0.828125000000, -5.718750000000, 1490848289
0.259521484375, 0.952148437500, -0.390136718750, -3.203125000000, 0.828125000000, -5.718750000000, 1490848289
0.259521484375, 0.952148437500, -0.390136718750, -3.203125000000, 0.828125000000, -5.718750000000, 1490848289
0.241699218750, 0.745849609375, -0.462890625000, -5.570312500000, 3.671875000000, -0.992187500000, 1490848289
0.241699218750, 0.745849609375, -0.462890625000, -5.570312500000, 3.671875000000, -0.992187500000, 1490848289
-0.059570312500, -0.137939453125, -4.410644531250, 241.054687500000, -206.757812500000, -15.390625000000, 1490848289
-0.059570312500, -0.137939453125, -4.410644531250, 241.054687500000, -206.757812500000, -15.390625000000, 1490848289
-0.059570312500, -0.137939453125, -4.410644531250, 241.054687500000, -206.757812500000, -15.390625000000, 1490848289
-0.059570312500, -0.137939453125, -4.410644531250, 241.054687500000, -206.757812500000, -15.390625000000, 1490848289
-0.059570312500, -0.137939453125, -4.410644531250, 241.054687500000, -206.757812500000, -15.390625000000, 1490848289
0.020996093750, 0.832031250000, -0.965087890625, -256.000000000000, -67.984375000000, 9.265625000000, 1490848289
0.261718750000, 0.714599609375, -0.132568359375, -111.132812500000, 50.601562500000, 8.546875000000, 1490848289
0.106201171875, 0.601562500000, -0.066894531250, -96.039062500000, 118.367187500000, 7.421875000000, 1490848289
0.165283203125, 0.687988281250, -0.019287109375, -96.039062500000, 118.367187500000, 7.421875000000, 1490848289
0.165283203125, 0.687988281250, -0.019287109375, -96.039062500000, 118.367187500000, 7.421875000000, 1490848289
0.313964843750, 0.815429687500, -0.138916015625, -88.312500000000, 81.460937500000, 4.304687500000, 1490848289
0.454589843750, 0.959716796875, -0.044433593750, -114.398437500000, -121.679687500000, -93.164062500000, 1490848289
0.454589843750, 0.959716796875, -0.044433593750, -114.398437500000, -121.679687500000, -93.164062500000, 1490848289
0.184082031250, 0.980712890625, -0.044921875000, 69.234375000000, -94.789062500000, -105.320312500000, 1490848289
0.184082031250, 0.980712890625, -0.044921875000, 69.234375000000, -94.789062500000, -105.320312500000, 1490848289
0.184082031250, 0.980712890625, -0.044921875000, 69.234375000000, -94.789062500000, -105.320312500000, 1490848289
0.184082031250, 0.980712890625, -0.044921875000, 69.234375000000, -94.789062500000, -105.320312500000, 1490848289
0.184082031250, 0.980712890625, -0.044921875000, 69.234375000000, -94.789062500000, -105.320312500000, 1490848289
0.083251953125, 0.641845703125, 0.018554687500, -3.421875000000, 55.593750000000, -62.101562500000, 1490848289
0.083251953125, 0.641845703125, 0.018554687500, -3.421875000000, 55.593750000000, -62.101562500000, 1490848289
0.083251953125, 0.641845703125, 0.018554687500, -3.421875000000, 55.593750000000, -62.101562500000, 1490848289
-0.166015625000, 1.010742187500, -0.068603515625, 51.179687500000, 147.242187500000, 45.515625000000, 1490848289
-0.166015625000, 1.010742187500, -0.068603515625, 51.179687500000, 147.242187500000, 45.515625000000, 1490848289
-0.166015625000, 1.010742187500, -0.068603515625, 51.179687500000, 147.242187500000, 45.515625000000, 1490848289
-0.096191406250, 0.834716796875, -0.143066406250, 214.632812500000, 46.804687500000, 21.312500000000, 1490848289
-0.096191406250, 0.834716796875, -0.143066406250, 214.632812500000, 46.804687500000, 21.312500000000, 1490848289
-0.096191406250, 0.834716796875, -0.143066406250, 214.632812500000, 46.804687500000, 21.312500000000, 1490848289
0.357421875000, 0.696777343750, -1.802490234375, 253.992187500000, -256.000000000000, 42.375000000000, 1490848289
0.357421875000, 0.696777343750, -1.802490234375, 253.992187500000, -256.000000000000, 42.375000000000, 1490848289
0.357421875000, 0.696777343750, -1.802490234375, 253.992187500000, -256.000000000000, 42.375000000000, 1490848289
-0.005615234375, 0.562500000000, -0.247802734375, -186.429687500000, 41.078125000000, -22.257812500000, 1490848289
-0.005615234375, 0.562500000000, -0.247802734375, -186.429687500000, 41.078125000000, -22.257812500000, 1490848289
-0.005615234375, 0.562500000000, -0.247802734375, -186.429687500000, 41.078125000000, -22.257812500000, 1490848289
-0.005615234375, 0.562500000000, -0.247802734375, -186.429687500000, 41.078125000000, -22.257812500000, 1490848289
-0.083740234375, 0.061035156250, 0.130859375000, 23.132812500000, -55.843750000000, -36.515625000000, 1490848289
-0.083740234375, 0.061035156250, 0.130859375000, 23.132812500000, -55.843750000000, -36.515625000000, 1490848289
-0.083740234375, 0.061035156250, 0.130859375000, 23.132812500000, -55.843750000000, -36.515625000000, 1490848289
-0.027099609375, 0.076171875000, 0.017822265625, 93.992187500000, -36.617187500000, -20.960937500000, 1490848289
-0.027099609375, 0.076171875000, 0.017822265625, 93.992187500000, -36.617187500000, -20.960937500000, 1490848289
-0.027099609375, 0.076171875000, 0.017822265625, 93.992187500000, -36.617187500000, -20.960937500000, 1490848289
0.269287109375, 0.236572265625, -0.067382812500, 14.328125000000, -139.164062500000, -52.539062500000, 1490848289
0.269287109375, 0.236572265625, -0.067382812500, 14.328125000000, -139.164062500000, -52.539062500000, 1490848289
0.269287109375, 0.236572265625, -0.067382812500, 14.328125000000, -139.164062500000, -52.539062500000, 1490848289
0.269287109375, 0.236572265625, -0.067382812500, 14.328125000000, -139.164062500000, -52.539062500000, 1490848289
0.376708984375, 1.115478515625, 0.118408203125, -256.000000000000, -256.000000000000, -177.476562500000, 1490848289
0.376708984375, 1.115478515625, 0.118408203125, -256.000000000000, -256.000000000000, -177.476562500000, 1490848289
0.376708984375, 1.115478515625, 0.118408203125, -256.000000000000, -256.000000000000, -177.476562500000, 1490848289
0.334472656250, 0.917724609375, 0.112792968750, 197.265625000000, -117.320312500000, -134.687500000000, 1490848290
0.334472656250, 0.917724609375, 0.112792968750, 197.265625000000, -117.320312500000, -134.687500000000, 1490848290
0.334472656250, 0.917724609375, 0.112792968750, 197.265625000000, -117.320312500000, -134.687500000000, 1490848290
0.506835937500, 1.832275390625, -0.371826171875, 71.328125000000, -175.031250000000, -202.984375000000, 1490848290
0.506835937500, 1.832275390625, -0.371826171875, 71.328125000000, -175.031250000000, -202.984375000000, 1490848290
0.506835937500, 1.832275390625, -0.371826171875, 71.328125000000, -175.031250000000, -202.984375000000, 1490848290
1.010009765625, 2.595947265625, -0.357666015625, 199.054687500000, -19.484375000000, -256.000000000000, 1490848290
1.010009765625, 2.595947265625, -0.357666015625, 199.054687500000, -19.484375000000, -256.000000000000, 1490848290
1.010009765625, 2.595947265625, -0.357666015625, 199.054687500000, -19.484375000000, -256.000000000000, 1490848290
1.010009765625, 2.595947265625, -0.357666015625, 199.054687500000, -19.484375000000, -256.000000000000, 1490848290
0.790039062500, 1.573486328125, -0.246582031250, 120.171875000000, 55.593750000000, -125.039062500000, 1490848290
0.790039062500, 1.573486328125, -0.246582031250, 120.171875000000, 55.593750000000, -125.039062500000, 1490848290
0.373779296875, 0.148193359375, -0.406494140625, -256.000000000000, 253.992187500000, -256.000000000000, 1490848290
0.373779296875, 0.148193359375, -0.406494140625, -256.000000000000, 253.992187500000, -256.000000000000, 1490848290
0.373779296875, 0.148193359375, -0.406494140625, -256.000000000000, 253.992187500000, -256.000000000000, 1490848290
0.373779296875, 0.148193359375, -0.406494140625, -256.000000000000, 253.992187500000, -256.000000000000, 1490848290
-0.386718750000, 0.631103515625, 0.017822265625, -256.000000000000, 253.992187500000, 41.398437500000, 1490848290
-0.386718750000, 0.631103515625, 0.017822265625, -256.000000000000, 253.992187500000, 41.398437500000, 1490848290
-0.386718750000, 0.631103515625, 0.017822265625, -256.000000000000, 253.992187500000, 41.398437500000, 1490848290
0.527832031250, -0.203613281250, 0.377441406250, -163.148437500000, 252.140625000000, -75.484375000000, 1490848290
0.527832031250, -0.203613281250, 0.377441406250, -163.148437500000, 252.140625000000, -75.484375000000, 1490848290
0.527832031250, -0.203613281250, 0.377441406250, -163.148437500000, 252.140625000000, -75.484375000000, 1490848290
0.527832031250, -0.203613281250, 0.377441406250, -163.148437500000, 252.140625000000, -75.484375000000, 1490848290
0.601562500000, 0.052490234375, 1.028076171875, 78.742187500000, 88.671875000000, 134.531250000000, 1490848290
0.601562500000, 0.052490234375, 1.028076171875, 78.742187500000, 88.671875000000, 134.531250000000, 1490848290
0.601562500000, 0.052490234375, 1.028076171875, 78.742187500000, 88.671875000000, 134.531250000000, 1490848290
1.694824218750, 1.881347656250, 0.723144531250, -256.000000000000, 253.992187500000, 253.992187500000, 1490848290
1.694824218750, 1.881347656250, 0.723144531250, -256.000000000000, 253.992187500000, 253.992187500000, 1490848290
1.694824218750, 1.881347656250, 0.723144531250, -256.000000000000, 253.992187500000, 253.992187500000, 1490848290
2.056396484375, -0.713867187500, 0.618652343750, -218.023437500000, 253.992187500000, -29.320312500000, 1490848290
2.056396484375, -0.713867187500, 0.618652343750, -218.023437500000, 253.992187500000, -29.320312500000, 1490848290
2.056396484375, -0.713867187500, 0.618652343750, -218.023437500000, 253.992187500000, -29.320312500000, 1490848290
0.385986328125, 1.067626953125, 0.748535156250, -208.914062500000, 109.867187500000, -256.000000000000, 1490848290
0.385986328125, 1.067626953125, 0.748535156250, -208.914062500000, 109.867187500000, -256.000000000000, 1490848290
0.385986328125, 1.067626953125, 0.748535156250, -208.914062500000, 109.867187500000, -256.000000000000, 1490848290
0.086914062500, 0.637695312500, 0.638183593750, -160.648437500000, 253.992187500000, -193.796875000000, 1490848290
0.112060546875, 0.393798828125, 0.209472656250, -123.531250000000, 253.992187500000, -144.500000000000, 1490848290
0.112060546875, 0.393798828125, 0.209472656250, -123.531250000000, 253.992187500000, -144.500000000000, 1490848290
0.112060546875, 0.393798828125, 0.209472656250, -123.531250000000, 253.992187500000, -144.500000000000, 1490848290
0.109375000000, 0.510253906250, 0.138671875000, -152.195312500000, 184.562500000000, -113.273437500000, 1490848290
0.109375000000, 0.510253906250, 0.138671875000, -152.195312500000, 184.562500000000, -113.273437500000, 1490848290
0.109375000000, 0.510253906250, 0.138671875000, -152.195312500000, 184.562500000000, -113.273437500000, 1490848290
0.578613281250, 1.113281250000, 0.230712890625, -172.117187500000, 253.992187500000, -191.984375000000, 1490848290
0.578613281250, 1.113281250000, 0.230712890625, -172.117187500000, 253.992187500000, -191.984375000000, 1490848290
0.578613281250, 1.113281250000, 0.230712890625, -172.117187500000, 253.992187500000, -191.984375000000, 1490848290
0.450927734375, 0.974609375000, 0.002685546875, -256.000000000000, 253.992187500000, -256.000000000000, 1490848290
0.450927734375, 0.974609375000, 0.002685546875, -256.000000000000, 253.992187500000, -256.000000000000, 1490848290
-0.565673828125, -0.053466796875, 0.162597656250, -37.656250000000, 30.500000000000, -256.000000000000, 1490848290
-0.565673828125, -0.053466796875, 0.162597656250, -37.656250000000, 30.500000000000, -256.000000000000, 1490848290
-0.565673828125, -0.053466796875, 0.162597656250, -37.656250000000, 30.500000000000, -256.000000000000, 1490848290
-0.565673828125, -0.053466796875, 0.162597656250, -37.656250000000, 30.500000000000, -256.000000000000, 1490848290
-0.565673828125, -0.053466796875, 0.162597656250, -37.656250000000, 30.500000000000, -256.000000000000, 1490848290
-0.770996093750, 0.853271484375, 1.222656250000, 21.359375000000, -44.031250000000, -203.039062500000, 1490848290
-0.770996093750, 0.853271484375, 1.222656250000, 21.359375000000, -44.031250000000, -203.039062500000, 1490848290
-0.770996093750, 0.853271484375, 1.222656250000, 21.359375000000, -44.031250000000, -203.039062500000, 1490848290
-0.259521484375, 0.536865234375, 0.521972656250, 80.585937500000, 253.992187500000, 43.843750000000, 1490848290
-0.259521484375, 0.536865234375, 0.521972656250, 80.585937500000, 253.992187500000, 43.843750000000, 1490848290
-0.259521484375, 0.536865234375, 0.521972656250, 80.585937500000, 253.992187500000, 43.843750000000, 1490848290
-0.111083984375, 0.786132812500, 0.799804687500, 15.507812500000, -109.976562500000, -146.328125000000, 1490848290
-0.111083984375, 0.786132812500, 0.799804687500, 15.507812500000, -109.976562500000, -146.328125000000, 1490848290
-0.111083984375, 0.786132812500, 0.799804687500, 15.507812500000, -109.976562500000, -146.328125000000, 1490848290
-0.111083984375, 0.786132812500, 0.799804687500, 15.507812500000, -109.976562500000, -146.328125000000, 1490848290
0.102050781250, 0.409179687500, 0.854980468750, 20.296875000000, -59.101562500000, -80.976562500000, 1490848290
0.102050781250, 0.409179687500, 0.854980468750, 20.296875000000, -59.101562500000, -80.976562500000, 1490848290
0.102050781250, 0.409179687500, 0.854980468750, 20.296875000000, -59.101562500000, -80.976562500000, 1490848290
0.086669921875, 0.441650390625, 0.730224609375, 4.859375000000, 96.835937500000, 19.140625000000, 1490848291
0.086669921875, 0.441650390625, 0.730224609375, 4.859375000000, 96.835937500000, 19.140625000000, 1490848291
0.086669921875, 0.441650390625, 0.730224609375, 4.859375000000, 96.835937500000, 19.140625000000, 1490848291
0.086425781250, 0.645751953125, 0.968017578125, 25.843750000000, 83.195312500000, 28.648437500000, 1490848291
0.086425781250, 0.645751953125, 0.968017578125, 25.843750000000, 83.195312500000, 28.648437500000, 1490848291
0.086425781250, 0.645751953125, 0.968017578125, 25.843750000000, 83.195312500000, 28.648437500000, 1490848291
-0.005371093750, 0.533935546875, 0.999023437500, -20.914062500000, -24.187500000000, 6.281250000000, 1490848291
-0.005371093750, 0.533935546875, 0.999023437500, -20.914062500000, -24.187500000000, 6.281250000000, 1490848291
-0.005371093750, 0.533935546875, 0.999023437500, -20.914062500000, -24.187500000000, 6.281250000000, 1490848291
-0.005371093750, 0.533935546875, 0.999023437500, -20.914062500000, -24.187500000000, 6.281250000000, 1490848291
-0.071289062500, 0.496337890625, 0.825439453125, -36.765625000000, -23.437500000000, 33.656250000000, 1490848291
-0.071289062500, 0.496337890625, 0.825439453125, -36.765625000000, -23.437500000000, 33.656250000000, 1490848291
-0.071289062500, 0.496337890625, 0.825439453125, -36.765625000000, -23.437500000000, 33.656250000000, 1490848291
0.064941406250, 0.574218750000, 0.949462890625, -6.132812500000, -2.156250000000, -7.515625000000, 1490848291
0.064941406250, 0.574218750000, 0.949462890625, -6.132812500000, -2.156250000000, -7.515625000000, 1490848291
0.064941406250, 0.574218750000, 0.949462890625, -6.132812500000, -2.156250000000, -7.515625000000, 1490848291
0.004638671875, 0.693603515625, 1.096435546875, -21.882812500000, -40.273437500000, -8.179687500000, 1490848291
0.004638671875, 0.693603515625, 1.096435546875, -21.882812500000, -40.273437500000, -8.179687500000, 1490848291
0.004638671875, 0.693603515625, 1.096435546875, -21.882812500000, -40.273437500000, -8.179687500000, 1490848291
0.039306640625, 0.551757812500, 0.736816406250, -54.554687500000, -13.601562500000, -21.265625000000, 1490848291
-0.057861328125, 0.531005859375, 0.849609375000, -33.648437500000, 21.445312500000, -22.476562500000, 1490848291
-0.012451171875, 0.532226562500, 0.922119140625, -6.929687500000, 95.398437500000, 38.859375000000, 1490848291
-0.012451171875, 0.532226562500, 0.922119140625, -6.929687500000, 95.398437500000, 38.859375000000, 1490848291
-0.012451171875, 0.532226562500, 0.922119140625, -6.929687500000, 95.398437500000, 38.859375000000, 1490848291
-0.012451171875, 0.532226562500, 0.922119140625, -6.929687500000, 95.398437500000, 38.859375000000, 1490848291
-0.012451171875, 0.532226562500, 0.922119140625, -6.929687500000, 95.398437500000, 38.859375000000, 1490848291
0.012695312500, 0.568847656250, 0.887207031250, -43.218750000000, -25.453125000000, -10.765625000000, 1490848291
0.012695312500, 0.568847656250, 0.887207031250, -43.218750000000, -25.453125000000, -10.765625000000, 1490848291
0.012695312500, 0.568847656250, 0.887207031250, -43.218750000000, -25.453125000000, -10.765625000000, 1490848291
-0.135986328125, 0.704345703125, 0.835449218750, -8.960937500000, 6.859375000000, -15.398437500000, 1490848291
-0.135986328125, 0.704345703125, 0.835449218750, -8.960937500000, 6.859375000000, -15.398437500000, 1490848291
-0.135986328125, 0.704345703125, 0.835449218750, -8.960937500000, 6.859375000000, -15.398437500000, 1490848291
-0.185546875000, 0.532470703125, 0.886718750000, -2.898437500000, 3.382812500000, -12.898437500000, 1490848291
-0.185546875000, 0.532470703125, 0.886718750000, -2.898437500000, 3.382812500000, -12.898437500000, 1490848291
-0.185546875000, 0.532470703125, 0.886718750000, -2.898437500000, 3.382812500000, -12.898437500000, 1490848291
-0.185546875000, 0.532470703125, 0.886718750000, -2.898437500000, 3.382812500000, -12.898437500000, 1490848291
0.044677734375, 0.623291015625, 0.852539062500, -1.125000000000, -14.570312500000, -9.312500000000, 1490848291
0.044677734375, 0.623291015625, 0.852539062500, -1.125000000000, -14.570312500000, -9.312500000000, 1490848291
0.044677734375, 0.623291015625, 0.852539062500, -1.125000000000, -14.570312500000, -9.312500000000, 1490848291
0.002929687500, 0.602539062500, 0.863525390625, -7.960937500000, -2.046875000000, -2.898437500000, 1490848291
0.002929687500, 0.602539062500, 0.863525390625, -7.960937500000, -2.046875000000, -2.898437500000, 1490848291
0.002929687500, 0.602539062500, 0.863525390625, -7.960937500000, -2.046875000000, -2.898437500000, 1490848291
0.067382812500, 0.494384765625, 0.746582031250, 0.429687500000, 1.679687500000, -4.687500000000, 1490848291
0.067382812500, 0.494384765625, 0.746582031250, 0.429687500000, 1.679687500000, -4.687500000000, 1490848291
0.067382812500, 0.494384765625, 0.746582031250, 0.429687500000, 1.679687500000, -4.687500000000, 1490848291
-0.019042968750, 0.607910156250, 0.737060546875, -8.031250000000, 0.812500000000, -3.796875000000, 1490848291
-0.019042968750, 0.607910156250, 0.737060546875, -8.031250000000, 0.812500000000, -3.796875000000, 1490848291
-0.019042968750, 0.607910156250, 0.737060546875, -8.031250000000, 0.812500000000, -3.796875000000, 1490848291
-0.055419921875, 0.637695312500, 0.940917968750, -10.320312500000, 6.304687500000, 6.382812500000, 1490848291
-0.055419921875, 0.637695312500, 0.940917968750, -10.320312500000, 6.304687500000, 6.382812500000, 1490848291
-0.055419921875, 0.637695312500, 0.940917968750, -10.320312500000, 6.304687500000, 6.382812500000, 1490848291
-0.055419921875, 0.637695312500, 0.940917968750, -10.320312500000, 6.304687500000, 6.382812500000, 1490848291
-0.077880859375, 0.545898437500, 0.882324218750, -7.578125000000, 12.062500000000, 17.453125000000, 1490848291
-0.077880859375, 0.545898437500, 0.882324218750, -7.578125000000, 12.062500000000, 17.453125000000, 1490848291
-0.077880859375, 0.545898437500, 0.882324218750, -7.578125000000, 12.062500000000, 17.453125000000, 1490848291
0.022216796875, 0.549560546875, 0.808349609375, -13.750000000000, 6.664062500000, 18.101562500000, 1490848291
0.022216796875, 0.549560546875, 0.808349609375, -13.750000000000, 6.664062500000, 18.101562500000, 1490848291
0.022216796875, 0.549560546875, 0.808349609375, -13.750000000000, 6.664062500000, 18.101562500000, 1490848291
-0.144775390625, 0.609863281250, 0.811767578125, -22.906250000000, -12.429687500000, 18.093750000000, 1490848291
-0.144775390625, 0.609863281250, 0.811767578125, -22.906250000000, -12.429687500000, 18.093750000000, 1490848291
-0.144775390625, 0.609863281250, 0.811767578125, -22.906250000000, -12.429687500000, 18.093750000000, 1490848291
-0.144775390625, 0.609863281250, 0.811767578125, -22.906250000000, -12.429687500000, 18.093750000000, 1490848291
0.007324218750, 0.599853515625, 0.814208984375, -13.281250000000, -1.468750000000, 14.140625000000, 1490848291
0.007324218750, 0.599853515625, 0.814208984375, -13.281250000000, -1.468750000000, 14.140625000000, 1490848291
0.007324218750, 0.599853515625, 0.814208984375, -13.281250000000, -1.468750000000, 14.140625000000, 1490848291
-0.061767578125, 0.627929687500, 0.730224609375, -5.890625000000, 4.742187500000, 1.757812500000, 1490848291
-0.061767578125, 0.627929687500, 0.730224609375, -5.890625000000, 4.742187500000, 1.757812500000, 1490848291
-0.061767578125, 0.627929687500, 0.730224609375, -5.890625000000, 4.742187500000, 1.757812500000, 1490848291
-0.037597656250, 0.650878906250, 0.899414062500, -2.945312500000, -0.148437500000, -8.851562500000, 1490848292
-0.037597656250, 0.650878906250, 0.899414062500, -2.945312500000, -0.148437500000, -8.851562500000, 1490848292
-0.037597656250, 0.650878906250, 0.899414062500, -2.945312500000, -0.148437500000, -8.851562500000, 1490848292
-0.081542968750, 0.700195312500, 0.817382812500, -4.156250000000, 3.218750000000, -7.210937500000, 1490848292
-0.081542968750, 0.700195312500, 0.817382812500, -4.156250000000, 3.218750000000, -7.210937500000, 1490848292
-0.081542968750, 0.700195312500, 0.817382812500, -4.156250000000, 3.218750000000, -7.210937500000, 1490848292
-0.081542968750, 0.700195312500, 0.817382812500, -4.156250000000, 3.218750000000, -7.210937500000, 1490848292
-0.058837890625, 0.556152343750, 0.788818359375, 3.835937500000, -1.054687500000, -24.398437500000, 1490848292
-0.058837890625, 0.556152343750, 0.788818359375, 3.835937500000, -1.054687500000, -24.398437500000, 1490848292
-0.058837890625, 0.556152343750, 0.788818359375, 3.835937500000, -1.054687500000, -24.398437500000, 1490848292
-0.057861328125, 0.548095703125, 0.843017578125, -2.101562500000, -4.406250000000, -20.843750000000, 1490848292
-0.057861328125, 0.548095703125, 0.843017578125, -2.101562500000, -4.406250000000, -20.843750000000, 1490848292
-0.057861328125, 0.548095703125, 0.843017578125, -2.101562500000, -4.406250000000, -20.843750000000, 1490848292
-0.074707031250, 0.693603515625, 0.804931640625, 3.062500000000, 8.140625000000, -4.187500000000, 1490848292
-0.074707031250, 0.693603515625, 0.804931640625, 3.062500000000, 8.140625000000, -4.187500000000, 1490848292
-0.074707031250, 0.693603515625, 0.804931640625, 3.062500000000, 8.140625000000, -4.187500000000, 1490848292
-0.140380859375, 0.595703125000, 0.819335937500, -5.398437500000, 2.046875000000, -4.117187500000, 1490848292
-0.140380859375, 0.595703125000, 0.819335937500, -5.398437500000, 2.046875000000, -4.117187500000, 1490848292
-0.140380859375, 0.595703125000, 0.819335937500, -5.398437500000, 2.046875000000, -4.117187500000, 1490848292
-0.140380859375, 0.595703125000, 0.819335937500, -5.398437500000, 2.046875000000, -4.117187500000, 1490848292
0.013183593750, 0.632812500000, 0.805664062500, -7.007812500000, 0.578125000000, 0.343750000000, 1490848292
0.013183593750, 0.632812500000, 0.805664062500, -7.007812500000, 0.578125000000, 0.343750000000, 1490848292
0.013183593750, 0.632812500000, 0.805664062500, -7.007812500000, 0.578125000000, 0.343750000000, 1490848292
-0.147949218750, 0.607421875000, 0.740234375000, -6.968750000000, 2.351562500000, 1.140625000000, 1490848292
-0.147949218750, 0.607421875000, 0.740234375000, -6.968750000000, 2.351562500000, 1.140625000000, 1490848292
-0.147949218750, 0.607421875000, 0.740234375000, -6.968750000000, 2.351562500000, 1.140625000000, 1490848292
-0.077392578125, 0.607910156250, 0.830322265625, -6.484375000000, 1.390625000000, 2.023437500000, 1490848292
-0.077392578125, 0.607910156250, 0.830322265625, -6.484375000000, 1.390625000000, 2.023437500000, 1490848292
-0.077392578125, 0.607910156250, 0.830322265625, -6.484375000000, 1.390625000000, 2.023437500000, 1490848292
-0.151855468750, 0.607910156250, 0.835449218750, -5.578125000000, 0.328125000000, -3.320312500000, 1490848292
-0.151855468750, 0.607910156250, 0.835449218750, -5.578125000000, 0.328125000000, -3.320312500000, 1490848292
-0.151855468750, 0.607910156250, 0.835449218750, -5.578125000000, 0.328125000000, -3.320312500000, 1490848292
-0.151855468750, 0.607910156250, 0.835449218750, -5.578125000000, 0.328125000000, -3.320312500000, 1490848292
-0.079345703125, 0.658691406250, 0.744140625000, -2.679687500000, -0.906250000000, 0.179687500000, 1490848292
-0.079345703125, 0.658691406250, 0.744140625000, -2.679687500000, -0.906250000000, 0.179687500000, 1490848292
-0.079345703125, 0.658691406250, 0.744140625000, -2.679687500000, -0.906250000000, 0.179687500000, 1490848292
-0.038574218750, 0.559326171875, 0.734375000000, -6.570312500000, 0.015625000000, -5.859375000000, 1490848292
-0.038574218750, 0.559326171875, 0.734375000000, -6.570312500000, 0.015625000000, -5.859375000000, 1490848292
-0.038574218750, 0.559326171875, 0.734375000000, -6.570312500000, 0.015625000000, -5.859375000000, 1490848292
-0.049804687500, 0.595947265625, 0.840576171875, -4.296875000000, -2.359375000000, -5.234375000000, 1490848292
-0.049804687500, 0.595947265625, 0.840576171875, -4.296875000000, -2.359375000000, -5.234375000000, 1490848292
-0.049804687500, 0.595947265625, 0.840576171875, -4.296875000000, -2.359375000000, -5.234375000000, 1490848292
-0.089843750000, 0.708496093750, 0.895996093750, 8.500000000000, 5.445312500000, -7.304687500000, 1490848292
-0.089843750000, 0.708496093750, 0.895996093750, 8.500000000000, 5.445312500000, -7.304687500000, 1490848292
-0.089843750000, 0.708496093750, 0.895996093750, 8.500000000000, 5.445312500000, -7.304687500000, 1490848292
-0.089843750000, 0.708496093750, 0.895996093750, 8.500000000000, 5.445312500000, -7.304687500000, 1490848292
-0.043457031250, 0.651611328125, 0.903320312500, 2.828125000000, -0.218750000000, -5.554687500000, 1490848292
-0.043457031250, 0.651611328125, 0.903320312500, 2.828125000000, -0.218750000000, -5.554687500000, 1490848292
-0.043457031250, 0.651611328125, 0.903320312500, 2.828125000000, -0.218750000000, -5.554687500000, 1490848292
-0.062255859375, 0.631103515625, 0.749755859375, -2.281250000000, 2.257812500000, -5.968750000000, 1490848292
-0.062255859375, 0.631103515625, 0.749755859375, -2.281250000000, 2.257812500000, -5.968750000000, 1490848292
-0.062255859375, 0.631103515625, 0.749755859375, -2.281250000000, 2.257812500000, -5.968750000000, 1490848292
0.014404296875, 0.637695312500, 0.814453125000, -4.851562500000, -2.070312500000, -7.000000000000, 1490848292
0.014404296875, 0.637695312500, 0.814453125000, -4.851562500000, -2.070312500000, -7.000000000000, 1490848292
0.014404296875, 0.637695312500, 0.814453125000, -4.851562500000, -2.070312500000, -7.000000000000, 1490848292
-0.030029296875, 0.550781250000, 0.799072265625, -3.968750000000, 0.312500000000, -5.210937500000, 1490848292
-0.030029296875, 0.550781250000, 0.799072265625, -3.968750000000, 0.312500000000, -5.210937500000, 1490848292
-0.030029296875, 0.550781250000, 0.799072265625, -3.968750000000, 0.312500000000, -5.210937500000, 1490848292
-0.030029296875, 0.550781250000, 0.799072265625, -3.968750000000, 0.312500000000, -5.210937500000, 1490848292
-0.033935546875, 0.564941406250, 0.802490234375, 4.531250000000, 1.875000000000, -4.664062500000, 1490848292
-0.033935546875, 0.564941406250, 0.802490234375, 4.531250000000, 1.875000000000, -4.664062500000, 1490848292
-0.052978515625, 0.647705078125, 0.858154296875, -4.039062500000, 1.531250000000, -3.695312500000, 1490848292
-0.052978515625, 0.647705078125, 0.858154296875, -4.039062500000, 1.531250000000, -3.695312500000, 1490848292
-0.052978515625, 0.647705078125, 0.858154296875, -4.039062500000, 1.531250000000, -3.695312500000, 1490848292
-0.052978515625, 0.647705078125, 0.858154296875, -4.039062500000, 1.531250000000, -3.695312500000, 1490848292
-0.133300781250, 0.547363281250, 0.784179687500, -3.617187500000, -0.664062500000, -5.335937500000, 1490848293
-0.133300781250, 0.547363281250, 0.784179687500, -3.617187500000, -0.664062500000, -5.335937500000, 1490848293
-0.133300781250, 0.547363281250, 0.784179687500, -3.617187500000, -0.664062500000, -5.335937500000, 1490848293
-0.020019531250, 0.497802734375, 0.805664062500, -4.992187500000, 0.562500000000, -4.593750000000, 1490848293
-0.020019531250, 0.497802734375, 0.805664062500, -4.992187500000, 0.562500000000, -4.593750000000, 1490848293
-0.020019531250, 0.497802734375, 0.805664062500, -4.992187500000, 0.562500000000, -4.593750000000, 1490848293
-0.020019531250, 0.497802734375, 0.805664062500, -4.992187500000, 0.562500000000, -4.593750000000, 1490848293
-0.071044921875, 0.596435546875, 0.905029296875, -3.929687500000, 2.195312500000, -1.335937500000, 1490848293
-0.071044921875, 0.596435546875, 0.905029296875, -3.929687500000, 2.195312500000, -1.335937500000, 1490848293
-0.071044921875, 0.596435546875, 0.905029296875, -3.929687500000, 2.195312500000, -1.335937500000, 1490848293
-0.130371093750, 0.576660156250, 0.787597656250, -1.898437500000, 2.492187500000, 0.585937500000, 1490848293
-0.130371093750, 0.576660156250, 0.787597656250, -1.898437500000, 2.492187500000, 0.585937500000, 1490848293
-0.130371093750, 0.576660156250, 0.787597656250, -1.898437500000, 2.492187500000, 0.585937500000, 1490848293
-0.032958984375, 0.542724609375, 0.867675781250, -4.390625000000, -0.328125000000, -1.875000000000, 1490848293
-0.032958984375, 0.542724609375, 0.867675781250, -4.390625000000, -0.328125000000, -1.875000000000, 1490848293
-0.032958984375, 0.542724609375, 0.867675781250, -4.390625000000, -0.328125000000, -1.875000000000, 1490848293
-0.082275390625, 0.637451171875, 0.805908203125, -4.140625000000, -0.898437500000, -1.812500000000, 1490848293
-0.082275390625, 0.637451171875, 0.805908203125, -4.140625000000, -0.898437500000, -1.812500000000, 1490848293
-0.082275390625, 0.637451171875, 0.805908203125, -4.140625000000, -0.898437500000, -1.812500000000, 1490848293
-0.082275390625, 0.637451171875, 0.805908203125, -4.140625000000, -0.898437500000, -1.812500000000, 1490848293
-0.073486328125, 0.637695312500, 0.799560546875, -4.859375000000, -0.859375000000, -4.609375000000, 1490848293
-0.073486328125, 0.637695312500, 0.799560546875, -4.859375000000, -0.859375000000, -4.609375000000, 1490848293
-0.073486328125, 0.637695312500, 0.799560546875, -4.859375000000, -0.859375000000, -4.609375000000, 1490848293
0.018310546875, 0.550537109375, 0.896484375000, -6.312500000000, -0.453125000000, -6.601562500000, 1490848293
0.018310546875, 0.550537109375, 0.896484375000, -6.312500000000, -0.453125000000, -6.601562500000, 1490848293
0.018310546875, 0.550537109375, 0.896484375000, -6.312500000000, -0.453125000000, -6.601562500000, 1490848293
-0.090576171875, 0.540283203125, 0.797851562500, -1.484375000000, -2.343750000000, -4.867187500000, 1490848293
-0.090576171875, 0.540283203125, 0.797851562500, -1.484375000000, -2.343750000000, -4.867187500000, 1490848293
-0.090576171875, 0.540283203125, 0.797851562500, -1.484375000000, -2.343750000000, -4.867187500000, 1490848293
-0.050781250000, 0.613037109375, 0.828857421875, -4.757812500000, 2.656250000000, -4.000000000000, 1490848293
-0.050781250000, 0.613037109375, 0.828857421875, -4.757812500000, 2.656250000000, -4.000000000000, 1490848293
-0.050781250000, 0.613037109375, 0.828857421875, -4.757812500000, 2.656250000000, -4.000000000000, 1490848293
-0.050781250000, 0.613037109375, 0.828857421875, -4.757812500000, 2.656250000000, -4.000000000000, 1490848293
-0.057617187500, 0.672363281250, 0.897460937500, -6.546875000000, 2.351562500000, -5.046875000000, 1490848293
-0.057617187500, 0.672363281250, 0.897460937500, -6.546875000000, 2.351562500000, -5.046875000000, 1490848293
-0.057617187500, 0.672363281250, 0.897460937500, -6.546875000000, 2.351562500000, -5.046875000000, 1490848293
-0.105224609375, 0.566162109375, 0.792724609375, -3.343750000000, -2.632812500000, -8.382812500000, 1490848293
-0.105224609375, 0.566162109375, 0.792724609375, -3.343750000000, -2.632812500000, -8.382812500000, 1490848293
-0.105224609375, 0.566162109375, 0.792724609375, -3.343750000000, -2.632812500000, -8.382812500000, 1490848293
-0.129882812500, 0.664794921875, 0.813476562500, -1.593750000000, 2.335937500000, -3.242187500000, 1490848293
-0.129882812500, 0.664794921875, 0.813476562500, -1.593750000000, 2.335937500000, -3.242187500000, 1490848293
-0.129882812500, 0.664794921875, 0.813476562500, -1.593750000000, 2.335937500000, -3.242187500000, 1490848293
-0.151367187500, 0.489746093750, 0.838378906250, -4.976562500000, -0.820312500000, -6.289062500000, 1490848293
-0.151367187500, 0.489746093750, 0.838378906250, -4.976562500000, -0.820312500000, -6.289062500000, 1490848293
-0.151367187500, 0.489746093750, 0.838378906250, -4.976562500000, -0.820312500000, -6.289062500000, 1490848293
-0.151367187500, 0.489746093750, 0.838378906250, -4.976562500000, -0.820312500000, -6.289062500000, 1490848293
-0.143798828125, 0.627197265625, 0.861572265625, -6.437500000000, -0.656250000000, -1.500000000000, 1490848293
-0.143798828125, 0.627197265625, 0.861572265625, -6.437500000000, -0.656250000000, -1.500000000000, 1490848293
-0.143798828125, 0.627197265625, 0.861572265625, -6.437500000000, -0.656250000000, -1.500000000000, 1490848293
-0.060791015625, 0.468750000000, 0.802001953125, -6.562500000000, 0.750000000000, -3.078125000000, 1490848293
-0.060791015625, 0.468750000000, 0.802001953125, -6.562500000000, 0.750000000000, -3.078125000000, 1490848293
-0.060791015625, 0.468750000000, 0.802001953125, -6.562500000000, 0.750000000000, -3.078125000000, 1490848293
-0.156005859375, 0.577636718750, 0.811035156250, -3.562500000000, 0.992187500000, -4.625000000000, 1490848293
-0.156005859375, 0.577636718750, 0.811035156250, -3.562500000000, 0.992187500000, -4.625000000000, 1490848293
-0.156005859375, 0.577636718750, 0.811035156250, -3.562500000000, 0.992187500000, -4.625000000000, 1490848293
-0.042968750000, 0.606933593750, 0.839355468750, -3.531250000000, 2.054687500000, -1.414062500000, 1490848293
-0.042968750000, 0.606933593750, 0.839355468750, -3.531250000000, 2.054687500000, -1.414062500000, 1490848293
-0.042968750000, 0.606933593750, 0.839355468750, -3.531250000000, 2.054687500000, -1.414062500000, 1490848293
-0.042968750000, 0.606933593750, 0.839355468750, -3.531250000000, 2.054687500000, -1.414062500000, 1490848293
-0.152343750000, 0.641601562500, 0.891845703125, -6.343750000000, -0.210937500000, -1.765625000000, 1490848293
-0.152343750000, 0.641601562500, 0.891845703125, -6.343750000000, -0.210937500000, -1.765625000000, 1490848293
-0.152343750000, 0.641601562500, 0.891845703125, -6.343750000000, -0.210937500000, -1.765625000000, 1490848293
0.006835937500, 0.612792968750, 0.808593750000, -5.085937500000, 2.226562500000, -2.539062500000, 1490848293
0.006835937500, 0.612792968750, 0.808593750000, -5.085937500000, 2.226562500000, -2.539062500000, 1490848293
0.006835937500, 0.612792968750, 0.808593750000, -5.085937500000, 2.226562500000, -2.539062500000, 1490848293
-0.037109375000, 0.550537109375, 0.832519531250, -3.328125000000, 4.593750000000, -0.554687500000, 1490848293
-0.037109375000, 0.550537109375, 0.832519531250, -3.328125000000, 4.593750000000, -0.554687500000, 1490848293
-0.037109375000, 0.550537109375, 0.832519531250, -3.328125000000, 4.593750000000, -0.554687500000, 1490848293
-0.143798828125, 0.583007812500, 0.896728515625, -4.445312500000, 0.468750000000, -1.804687500000, 1490848294
-0.143798828125, 0.583007812500, 0.896728515625, -4.445312500000, 0.468750000000, -1.804687500000, 1490848294
-0.143798828125, 0.583007812500, 0.896728515625, -4.445312500000, 0.468750000000, -1.804687500000, 1490848294
-0.143798828125, 0.583007812500, 0.896728515625, -4.445312500000, 0.468750000000, -1.804687500000, 1490848294
-0.194335937500, 0.646484375000, 0.810302734375, -1.265625000000, -0.085937500000, -2.312500000000, 1490848294
-0.194335937500, 0.646484375000, 0.810302734375, -1.265625000000, -0.085937500000, -2.312500000000, 1490848294
-0.194335937500, 0.646484375000, 0.810302734375, -1.265625000000, -0.085937500000, -2.312500000000, 1490848294
-0.150146484375, 0.714111328125, 0.781982421875, -0.921875000000, 0.882812500000, -4.773437500000, 1490848294
-0.150146484375, 0.714111328125, 0.781982421875, -0.921875000000, 0.882812500000, -4.773437500000, 1490848294
-0.150146484375, 0.714111328125, 0.781982421875, -0.921875000000, 0.882812500000, -4.773437500000, 1490848294
-0.051513671875, 0.557128906250, 0.877685546875, -4.203125000000, 2.406250000000, -2.835937500000, 1490848294
-0.051513671875, 0.557128906250, 0.877685546875, -4.203125000000, 2.406250000000, -2.835937500000, 1490848294
-0.051513671875, 0.557128906250, 0.877685546875, -4.203125000000, 2.406250000000, -2.835937500000, 1490848294
-0.134033203125, 0.710205078125, 0.827636718750, -4.203125000000, 1.132812500000, -0.625000000000, 1490848294
-0.134033203125, 0.710205078125, 0.827636718750, -4.203125000000, 1.132812500000, -0.625000000000, 1490848294
-0.134033203125, 0.710205078125, 0.827636718750, -4.203125000000, 1.132812500000, -0.625000000000, 1490848294
-0.134033203125, 0.710205078125, 0.827636718750, -4.203125000000, 1.132812500000, -0.625000000000, 1490848294
-0.138183593750, 0.643066406250, 0.790039062500, -6.375000000000, -0.195312500000, -4.046875000000, 1490848294
-0.138183593750, 0.643066406250, 0.790039062500, -6.375000000000, -0.195312500000, -4.046875000000, 1490848294
-0.138183593750, 0.643066406250, 0.790039062500, -6.375000000000, -0.195312500000, -4.046875000000, 1490848294
-0.081787109375, 0.694824218750, 0.888183593750, -1.984375000000, -1.140625000000, -5.023437500000, 1490848294
-0.081787109375, 0.694824218750, 0.888183593750, -1.984375000000, -1.140625000000, -5.023437500000, 1490848294
-0.081787109375, 0.694824218750, 0.888183593750, -1.984375000000, -1.140625000000, -5.023437500000, 1490848294
-0.048583984375, 0.615478515625, 0.875732421875, -7.046875000000, -2.765625000000, -8.570312500000, 1490848294
-0.048583984375, 0.615478515625, 0.875732421875, -7.046875000000, -2.765625000000, -8.570312500000, 1490848294
-0.048583984375, 0.615478515625, 0.875732421875, -7.046875000000, -2.765625000000, -8.570312500000, 1490848294
-0.068359375000, 0.560302734375, 0.882080078125, -1.070312500000, 0.156250000000, -8.617187500000, 1490848294
-0.068359375000, 0.560302734375, 0.882080078125, -1.070312500000, 0.156250000000, -8.617187500000, 1490848294
-0.068359375000, 0.560302734375, 0.882080078125, -1.070312500000, 0.156250000000, -8.617187500000, 1490848294
-0.144042968750, 0.562988281250, 0.856933593750, 2.460937500000, 4.953125000000, -14.945312500000, 1490848294
-0.144042968750, 0.562988281250, 0.856933593750, 2.460937500000, 4.953125000000, -14.945312500000, 1490848294
-0.144042968750, 0.562988281250, 0.856933593750, 2.460937500000, 4.953125000000, -14.945312500000, 1490848294
-0.144042968750, 0.562988281250, 0.856933593750, 2.460937500000, 4.953125000000, -14.945312500000, 1490848294
-0.153808593750, 0.548828125000, 0.835937500000, 6.585937500000, 3.804687500000, -17.640625000000, 1490848294
-0.153808593750, 0.548828125000, 0.835937500000, 6.585937500000, 3.804687500000, -17.640625000000, 1490848294
-0.153808593750, 0.548828125000, 0.835937500000, 6.585937500000, 3.804687500000, -17.640625000000, 1490848294
-0.032714843750, 0.606445312500, 0.805419921875, 4.273437500000, -0.148437500000, -8.859375000000, 1490848294
-0.032714843750, 0.606445312500, 0.805419921875, 4.273437500000, -0.148437500000, -8.859375000000, 1490848294
-0.032714843750, 0.606445312500, 0.805419921875, 4.273437500000, -0.148437500000, -8.859375000000, 1490848294
-0.205322265625, 0.566650390625, 0.887451171875, -0.140625000000, 1.406250000000, -5.570312500000, 1490848294
-0.205322265625, 0.566650390625, 0.887451171875, -0.140625000000, 1.406250000000, -5.570312500000, 1490848294
-0.205322265625, 0.566650390625, 0.887451171875, -0.140625000000, 1.406250000000, -5.570312500000, 1490848294
-0.205322265625, 0.566650390625, 0.887451171875, -0.140625000000, 1.406250000000, -5.570312500000, 1490848294
-0.131103515625, 0.588378906250, 0.845703125000, -3.609375000000, 1.289062500000, 0.843750000000, 1490848294
-0.131103515625, 0.588378906250, 0.845703125000, -3.609375000000, 1.289062500000, 0.843750000000, 1490848294
-0.131103515625, 0.588378906250, 0.845703125000, -3.609375000000, 1.289062500000, 0.843750000000, 1490848294
-0.074462890625, 0.488037109375, 0.821289062500, -8.875000000000, 0.585937500000, -0.343750000000, 1490848294
-0.074462890625, 0.488037109375, 0.821289062500, -8.875000000000, 0.585937500000, -0.343750000000, 1490848294
-0.074462890625, 0.488037109375, 0.821289062500, -8.875000000000, 0.585937500000, -0.343750000000, 1490848294
-0.092041015625, 0.656982421875, 0.808349609375, -7.093750000000, 0.210937500000, 10.242187500000, 1490848294
-0.092041015625, 0.656982421875, 0.808349609375, -7.093750000000, 0.210937500000, 10.242187500000, 1490848294
-0.092041015625, 0.656982421875, 0.808349609375, -7.093750000000, 0.210937500000, 10.242187500000, 1490848294
-0.071533203125, 0.574218750000, 0.802490234375, -11.375000000000, -3.343750000000, 7.445312500000, 1490848294
-0.071533203125, 0.574218750000, 0.802490234375, -11.375000000000, -3.343750000000, 7.445312500000, 1490848294
-0.071533203125, 0.574218750000, 0.802490234375, -11.375000000000, -3.343750000000, 7.445312500000, 1490848294
-0.071533203125, 0.574218750000, 0.802490234375, -11.375000000000, -3.343750000000, 7.445312500000, 1490848294
-0.143554687500, 0.468750000000, 0.807373046875, -11.429687500000, -6.351562500000, 5.453125000000, 1490848294
-0.030517578125, 0.655029296875, 0.904785156250, -7.484375000000, -2.406250000000, 1.085937500000, 1490848294
-0.030517578125, 0.655029296875, 0.904785156250, -7.484375000000, -2.406250000000, 1.085937500000, 1490848294
-0.030517578125, 0.655029296875, 0.904785156250, -7.484375000000, -2.406250000000, 1.085937500000, 1490848294
-0.030517578125, 0.655029296875, 0.904785156250, -7.484375000000, -2.406250000000, 1.085937500000, 1490848294
-0.030517578125, 0.655029296875, 0.904785156250, -7.484375000000, -2.406250000000, 1.085937500000, 1490848294
-0.104736328125, 0.531250000000, 0.832275390625, -5.828125000000, 0.828125000000, -6.460937500000, 1490848294
-0.104736328125, 0.531250000000, 0.832275390625, -5.828125000000, 0.828125000000, -6.460937500000, 1490848294
-0.104736328125, 0.531250000000, 0.832275390625, -5.828125000000, 0.828125000000, -6.460937500000, 1490848294
-0.012695312500, 0.557373046875, 0.730957031250, -5.343750000000, -2.976562500000, -6.007812500000, 1490848295
-0.012695312500, 0.557373046875, 0.730957031250, -5.343750000000, -2.976562500000, -6.007812500000, 1490848295
-0.012695312500, 0.557373046875, 0.730957031250, -5.343750000000, -2.976562500000, -6.007812500000, 1490848295
-0.012695312500, 0.557373046875, 0.730957031250, -5.343750000000, -2.976562500000, -6.007812500000, 1490848295
-0.066162109375, 0.515625000000, 0.798339843750, -4.062500000000, -3.281250000000, -9.265625000000, 1490848295
-0.066162109375, 0.515625000000, 0.798339843750, -4.062500000000, -3.281250000000, -9.265625000000, 1490848295
-0.066162109375, 0.515625000000, 0.798339843750, -4.062500000000, -3.281250000000, -9.265625000000, 1490848295
-0.051025390625, 0.583007812500, 0.890136718750, 0.468750000000, 0.500000000000, -1.039062500000, 1490848295
-0.051025390625, 0.583007812500, 0.890136718750, 0.468750000000, 0.500000000000, -1.039062500000, 1490848295
-0.051025390625, 0.583007812500, 0.890136718750, 0.468750000000, 0.500000000000, -1.039062500000, 1490848295
-0.052490234375, 0.579101562500, 0.897949218750, -3.632812500000, 0.273437500000, -3.039062500000, 1490848295
-0.052490234375, 0.579101562500, 0.897949218750, -3.632812500000, 0.273437500000, -3.039062500000, 1490848295
-0.052490234375, 0.579101562500, 0.897949218750, -3.632812500000, 0.273437500000, -3.039062500000, 1490848295
-0.032958984375, 0.554443359375, 0.832275390625, -6.515625000000, -0.312500000000, 0.578125000000, 1490848295
-0.032958984375, 0.554443359375, 0.832275390625, -6.515625000000, -0.312500000000, 0.578125000000, 1490848295
-0.032958984375, 0.554443359375, 0.832275390625, -6.515625000000, -0.312500000000, 0.578125000000, 1490848295
-0.032958984375, 0.554443359375, 0.832275390625, -6.515625000000, -0.312500000000, 0.578125000000, 1490848295
-0.070556640625, 0.642822265625, 0.802734375000, -7.546875000000, -0.265625000000, 4.789062500000, 1490848295
-0.070556640625, 0.642822265625, 0.802734375000, -7.546875000000, -0.265625000000, 4.789062500000, 1490848295
-0.070556640625, 0.642822265625, 0.802734375000, -7.546875000000, -0.265625000000, 4.789062500000, 1490848295
-0.091064453125, 0.592285156250, 0.822021484375, -5.882812500000, -2.929687500000, -4.351562500000, 1490848295
-0.091064453125, 0.592285156250, 0.822021484375, -5.882812500000, -2.929687500000, -4.351562500000, 1490848295
-0.091064453125, 0.592285156250, 0.822021484375, -5.882812500000, -2.929687500000, -4.351562500000, 1490848295
-0.038818359375, 0.614013671875, 0.788085937500, 0.757812500000, -4.757812500000, -8.000000000000, 1490848295
-0.038818359375, 0.614013671875, 0.788085937500, 0.757812500000, -4.757812500000, -8.000000000000, 1490848295
-0.038818359375, 0.614013671875, 0.788085937500, 0.757812500000, -4.757812500000, -8.000000000000, 1490848295
-0.052978515625, 0.588867187500, 0.870361328125, 7.382812500000, -7.382812500000, -42.054687500000, 1490848295
-0.052978515625, 0.588867187500, 0.870361328125, 7.382812500000, -7.382812500000, -42.054687500000, 1490848295
-0.052978515625, 0.588867187500, 0.870361328125, 7.382812500000, -7.382812500000, -42.054687500000, 1490848295
-0.052978515625, 0.588867187500, 0.870361328125, 7.382812500000, -7.382812500000, -42.054687500000, 1490848295
-0.125976562500, 0.627685546875, 0.899902343750, 8.757812500000, 17.492187500000, -23.351562500000, 1490848295
-0.125976562500, 0.627685546875, 0.899902343750, 8.757812500000, 17.492187500000, -23.351562500000, 1490848295
-0.125976562500, 0.627685546875, 0.899902343750, 8.757812500000, 17.492187500000, -23.351562500000, 1490848295
0.010498046875, 0.535644531250, 0.795166015625, -1.140625000000, 6.546875000000, -10.343750000000, 1490848295
0.010498046875, 0.535644531250, 0.795166015625, -1.140625000000, 6.546875000000, -10.343750000000, 1490848295
0.010498046875, 0.535644531250, 0.795166015625, -1.140625000000, 6.546875000000, -10.343750000000, 1490848295
-0.058105468750, 0.638183593750, 0.902343750000, 2.554687500000, 6.125000000000, -1.812500000000, 1490848295
-0.058105468750, 0.638183593750, 0.902343750000, 2.554687500000, 6.125000000000, -1.812500000000, 1490848295
-0.058105468750, 0.638183593750, 0.902343750000, 2.554687500000, 6.125000000000, -1.812500000000, 1490848295
0.020263671875, 0.486083984375, 0.792724609375, -6.078125000000, 2.937500000000, 2.171875000000, 1490848295
0.020263671875, 0.486083984375, 0.792724609375, -6.078125000000, 2.937500000000, 2.171875000000, 1490848295
0.020263671875, 0.486083984375, 0.792724609375, -6.078125000000, 2.937500000000, 2.171875000000, 1490848295
0.020263671875, 0.486083984375, 0.792724609375, -6.078125000000, 2.937500000000, 2.171875000000, 1490848295
-0.153564453125, 0.602050781250, 0.796875000000, -8.132812500000, 3.492187500000, 5.507812500000, 1490848295
-0.153564453125, 0.602050781250, 0.796875000000, -8.132812500000, 3.492187500000, 5.507812500000, 1490848295
-0.153564453125, 0.602050781250, 0.796875000000, -8.132812500000, 3.492187500000, 5.507812500000, 1490848295
-0.083496093750, 0.559570312500, 0.809814453125, -11.234375000000, -3.992187500000, 8.125000000000, 1490848295
-0.083496093750, 0.559570312500, 0.809814453125, -11.234375000000, -3.992187500000, 8.125000000000, 1490848295
-0.083496093750, 0.559570312500, 0.809814453125, -11.234375000000, -3.992187500000, 8.125000000000, 1490848295
-0.062500000000, 0.545166015625, 0.828125000000, -7.273437500000, -3.593750000000, 6.039062500000, 1490848295
-0.062500000000, 0.545166015625, 0.828125000000, -7.273437500000, -3.593750000000, 6.039062500000, 1490848295
-0.062500000000, 0.545166015625, 0.828125000000, -7.273437500000, -3.593750000000, 6.039062500000, 1490848295
-0.090332031250, 0.711914062500, 0.793945312500, -1.148437500000, 3.476562500000, 0.523437500000, 1490848295
-0.090332031250, 0.711914062500, 0.793945312500, -1.148437500000, 3.476562500000, 0.523437500000, 1490848295
-0.090332031250, 0.711914062500, 0.793945312500, -1.148437500000, 3.476562500000, 0.523437500000, 1490848295
-0.090332031250, 0.711914062500, 0.793945312500, -1.148437500000, 3.476562500000, 0.523437500000, 1490848295
