ACC_X,ACC_Y,ACC_Z,G_X,G_Y,G_Z,Unix Time
0.324218750000, -0.882568359375, -0.285888671875, 4.921875000000, -6.546875000000, -4.335937500000, 1490848959
0.324218750000, -0.882568359375, -0.285888671875, 4.921875000000, -6.546875000000, -4.335937500000, 1490848959
0.324218750000, -0.882568359375, -0.285888671875, 4.921875000000, -6.546875000000, -4.335937500000, 1490848959
0.324218750000, -0.882568359375, -0.285888671875, 4.921875000000, -6.546875000000, -4.335937500000, 1490848959
0.244384765625, -0.927490234375, -0.310791015625, 2.445312500000, -4.250000000000, 0.109375000000, 1490848959
0.244384765625, -0.927490234375, -0.310791015625, 2.445312500000, -4.250000000000, 0.109375000000, 1490848959
0.244384765625, -0.927490234375, -0.310791015625, 2.445312500000, -4.250000000000, 0.109375000000, 1490848959
0.267578125000, -0.964599609375, -0.172363281250, 3.570312500000, -5.937500000000, -2.531250000000, 1490848959
0.267578125000, -0.964599609375, -0.172363281250, 3.570312500000, -5.937500000000, -2.531250000000, 1490848959
0.267578125000, -0.964599609375, -0.172363281250, 3.570312500000, -5.937500000000, -2.531250000000, 1490848959
0.325927734375, -0.918945312500, -0.249023437500, 4.257812500000, -5.898437500000, -2.070312500000, 1490848959
0.325927734375, -0.918945312500, -0.249023437500, 4.257812500000, -5.898437500000, -2.070312500000, 1490848959
0.325927734375, -0.918945312500, -0.249023437500, 4.257812500000, -5.898437500000, -2.070312500000, 1490848959
0.251953125000, -0.849853515625, -0.318359375000, 4.367187500000, -1.562500000000, -2.976562500000, 1490848959
0.251953125000, -0.849853515625, -0.318359375000, 4.367187500000, -1.562500000000, -2.976562500000, 1490848959
0.251953125000, -0.849853515625, -0.318359375000, 4.367187500000, -1.562500000000, -2.976562500000, 1490848959
0.251953125000, -0.849853515625, -0.318359375000, 4.367187500000, -1.562500000000, -2.976562500000, 1490848959
0.214843750000, -0.937988281250, -0.323730468750, -14.429687500000, -0.882812500000, 5.804687500000, 1490848959
0.214843750000, -0.937988281250, -0.323730468750, -14.429687500000, -0.882812500000, 5.804687500000, 1490848959
0.214843750000, -0.937988281250, -0.323730468750, -14.429687500000, -0.882812500000, 5.804687500000, 1490848959
0.202148437500, -0.873046875000, -0.295654296875, -7.320312500000, -1.289062500000, 5.234375000000, 1490848959
0.202148437500, -0.873046875000, -0.295654296875, -7.320312500000, -1.289062500000, 5.234375000000, 1490848959
0.202148437500, -0.873046875000, -0.295654296875, -7.320312500000, -1.289062500000, 5.234375000000, 1490848959
0.238769531250, -0.953369140625, -0.351562500000, 1.921875000000, -7.453125000000, -1.460937500000, 1490848959
0.238769531250, -0.953369140625, -0.351562500000, 1.921875000000, -7.453125000000, -1.460937500000, 1490848960
0.238769531250, -0.953369140625, -0.351562500000, 1.921875000000, -7.453125000000, -1.460937500000, 1490848960
0.220458984375, -0.889648437500, -0.376708984375, 6.179687500000, -9.375000000000, -5.406250000000, 1490848960
0.220458984375, -0.889648437500, -0.376708984375, 6.179687500000, -9.375000000000, -5.406250000000, 1490848960
0.220458984375, -0.889648437500, -0.376708984375, 6.179687500000, -9.375000000000, -5.406250000000, 1490848960
0.220458984375, -0.889648437500, -0.376708984375, 6.179687500000, -9.375000000000, -5.406250000000, 1490848960
0.123046875000, -0.931396484375, -0.346679687500, -1.820312500000, -7.023437500000, -0.812500000000, 1490848960
0.123046875000, -0.931396484375, -0.346679687500, -1.820312500000, -7.023437500000, -0.812500000000, 1490848960
0.123046875000, -0.931396484375, -0.346679687500, -1.820312500000, -7.023437500000, -0.812500000000, 1490848960
0.210937500000, -0.890869140625, -0.354248046875, -9.773437500000, -4.726562500000, 2.085937500000, 1490848960
0.210937500000, -0.890869140625, -0.354248046875, -9.773437500000, -4.726562500000, 2.085937500000, 1490848960
0.210937500000, -0.890869140625, -0.354248046875, -9.773437500000, -4.726562500000, 2.085937500000, 1490848960
0.240966796875, -0.920166015625, -0.311035156250, -1.453125000000, -1.351562500000, -3.750000000000, 1490848960
0.240966796875, -0.920166015625, -0.311035156250, -1.453125000000, -1.351562500000, -3.750000000000, 1490848960
0.240966796875, -0.920166015625, -0.311035156250, -1.453125000000, -1.351562500000, -3.750000000000, 1490848960
0.178955078125, -0.902343750000, -0.291503906250, 0.625000000000, -10.265625000000, -1.945312500000, 1490848960
0.222656250000, -0.885498046875, -0.356689453125, 0.625000000000, -10.265625000000, -1.945312500000, 1490848960
0.222656250000, -0.885498046875, -0.356689453125, 0.625000000000, -10.265625000000, -1.945312500000, 1490848960
0.222656250000, -0.885498046875, -0.356689453125, 0.625000000000, -10.265625000000, -1.945312500000, 1490848960
0.183105468750, -0.967529296875, -0.446289062500, -1.984375000000, 0.632812500000, -4.390625000000, 1490848960
0.183105468750, -0.967529296875, -0.446289062500, -1.984375000000, 0.632812500000, -4.390625000000, 1490848960
0.183105468750, -0.967529296875, -0.446289062500, -1.984375000000, 0.632812500000, -4.390625000000, 1490848960
0.304199218750, -0.946044921875, -0.311035156250, -1.000000000000, -2.750000000000, -1.882812500000, 1490848960
0.246826171875, -0.901367187500, -0.447998046875, -5.335937500000, -1.164062500000, 0.937500000000, 1490848960
0.246826171875, -0.901367187500, -0.447998046875, -5.335937500000, -1.164062500000, 0.937500000000, 1490848960
0.274169921875, -0.853759765625, -0.392089843750, -3.921875000000, 4.507812500000, -0.031250000000, 1490848960
0.274169921875, -0.853759765625, -0.392089843750, -3.921875000000, 4.507812500000, -0.031250000000, 1490848960
0.274169921875, -0.853759765625, -0.392089843750, -3.921875000000, 4.507812500000, -0.031250000000, 1490848960
0.260253906250, -0.960449218750, -0.385742187500, -4.187500000000, 4.484375000000, -3.125000000000, 1490848960
0.172607421875, -0.792236328125, -0.378173828125, -2.398437500000, 4.757812500000, -6.585937500000, 1490848960
0.172607421875, -0.792236328125, -0.378173828125, -2.398437500000, 4.757812500000, -6.585937500000, 1490848960
0.172607421875, -0.792236328125, -0.378173828125, -2.398437500000, 4.757812500000, -6.585937500000, 1490848960
0.333984375000, -0.871337890625, -0.297119140625, -4.000000000000, 5.585937500000, -3.820312500000, 1490848960
0.333984375000, -0.871337890625, -0.297119140625, -4.000000000000, 5.585937500000, -3.820312500000, 1490848960
0.333984375000, -0.871337890625, -0.297119140625, -4.000000000000, 5.585937500000, -3.820312500000, 1490848960
0.319824218750, -0.940185546875, -0.394775390625, -8.507812500000, 4.593750000000, 2.453125000000, 1490848960
0.319824218750, -0.940185546875, -0.394775390625, -8.507812500000, 4.593750000000, 2.453125000000, 1490848960
0.319824218750, -0.940185546875, -0.394775390625, -8.507812500000, 4.593750000000, 2.453125000000, 1490848960
0.382568359375, -0.953857421875, -0.237060546875, -8.312500000000, 4.085937500000, 0.867187500000, 1490848960
0.382568359375, -0.953857421875, -0.237060546875, -8.312500000000, 4.085937500000, 0.867187500000, 1490848960
0.382568359375, -0.953857421875, -0.237060546875, -8.312500000000, 4.085937500000, 0.867187500000, 1490848960
0.330078125000, -0.907714843750, -0.307373046875, -5.359375000000, 2.367187500000, -3.039062500000, 1490848960
0.330078125000, -0.907714843750, -0.307373046875, -5.359375000000, 2.367187500000, -3.039062500000, 1490848960
0.330078125000, -0.907714843750, -0.307373046875, -5.359375000000, 2.367187500000, -3.039062500000, 1490848960
0.330078125000, -0.907714843750, -0.307373046875, -5.359375000000, 2.367187500000, -3.039062500000, 1490848960
0.182861328125, -0.851562500000, -0.247558593750, -4.070312500000, 5.203125000000, -5.507812500000, 1490848960
0.182861328125, -0.851562500000, -0.247558593750, -4.070312500000, 5.203125000000, -5.507812500000, 1490848960
0.182861328125, -0.851562500000, -0.247558593750, -4.070312500000, 5.203125000000, -5.507812500000, 1490848960
0.159179687500, -0.942626953125, -0.237304687500, -3.539062500000, -6.890625000000, -2.625000000000, 1490848960
0.159179687500, -0.942626953125, -0.237304687500, -3.539062500000, -6.890625000000, -2.625000000000, 1490848960
0.159179687500, -0.942626953125, -0.237304687500, -3.539062500000, -6.890625000000, -2.625000000000, 1490848960
0.276855468750, -0.917968750000, -0.294189453125, -7.468750000000, -1.585937500000, 2.484375000000, 1490848960
0.231445312500, -0.962158203125, -0.314697265625, -8.734375000000, -2.375000000000, -2.109375000000, 1490848960
0.231445312500, -0.962158203125, -0.314697265625, -8.734375000000, -2.375000000000, -2.109375000000, 1490848960
0.231445312500, -0.962158203125, -0.314697265625, -8.734375000000, -2.375000000000, -2.109375000000, 1490848960
0.231445312500, -0.962158203125, -0.314697265625, -8.734375000000, -2.375000000000, -2.109375000000, 1490848960
0.231445312500, -0.962158203125, -0.314697265625, -3.718750000000, -2.023437500000, 0.164062500000, 1490848960
0.229736328125, -1.008789062500, -0.380615234375, -1.875000000000, -2.265625000000, -3.179687500000, 1490848960
0.229736328125, -1.008789062500, -0.380615234375, -1.875000000000, -2.265625000000, -3.179687500000, 1490848960
0.229736328125, -1.008789062500, -0.380615234375, -1.875000000000, -2.265625000000, -3.179687500000, 1490848960
0.229736328125, -1.008789062500, -0.380615234375, -1.875000000000, -2.265625000000, -3.179687500000, 1490848960
0.280761718750, -0.868652343750, -0.334472656250, -0.445312500000, -1.335937500000, -3.570312500000, 1490848960
0.313232421875, -0.968750000000, -0.279052734375, -2.859375000000, 2.101562500000, -6.843750000000, 1490848960
0.156738281250, -0.851562500000, -0.342529296875, -1.359375000000, -0.812500000000, -4.476562500000, 1490848960
0.156738281250, -0.851562500000, -0.342529296875, -1.359375000000, -0.812500000000, -4.476562500000, 1490848960
0.156738281250, -0.851562500000, -0.342529296875, -1.359375000000, -0.812500000000, -4.476562500000, 1490848961
0.233398437500, -0.954589843750, -0.288085937500, -4.085937500000, 0.492187500000, -4.203125000000, 1490848961
0.189941406250, -0.808837890625, -0.312500000000, -7.218750000000, 1.140625000000, -0.007812500000, 1490848961
0.189941406250, -0.808837890625, -0.312500000000, -7.218750000000, 1.140625000000, -0.007812500000, 1490848961
0.189941406250, -0.808837890625, -0.312500000000, -7.218750000000, 1.140625000000, -0.007812500000, 1490848961
0.189941406250, -0.808837890625, -0.312500000000, -7.218750000000, 1.140625000000, -0.007812500000, 1490848961
0.306884765625, -0.846923828125, -0.229492187500, -2.140625000000, 3.039062500000, -8.015625000000, 1490848961
0.306884765625, -0.846923828125, -0.229492187500, -2.140625000000, 3.039062500000, -8.015625000000, 1490848961
0.306884765625, -0.846923828125, -0.229492187500, -2.140625000000, 3.039062500000, -8.015625000000, 1490848961
0.177734375000, -0.872558593750, -0.262695312500, -3.132812500000, 3.250000000000, -7.335937500000, 1490848961
0.177734375000, -0.872558593750, -0.262695312500, -3.132812500000, 3.250000000000, -7.335937500000, 1490848961
0.177734375000, -0.872558593750, -0.262695312500, -3.132812500000, 3.250000000000, -7.335937500000, 1490848961
0.177734375000, -0.872558593750, -0.262695312500, -3.132812500000, 3.250000000000, -7.335937500000, 1490848961
0.177734375000, -0.872558593750, -0.262695312500, -3.132812500000, 3.250000000000, -7.335937500000, 1490848961
0.184814453125, -0.873779296875, -0.312011718750, -10.304687500000, -2.656250000000, -1.000000000000, 1490848961
0.261474609375, -0.919189453125, -0.332763671875, -5.953125000000, -0.984375000000, -1.617187500000, 1490848961
0.261474609375, -0.919189453125, -0.332763671875, -5.953125000000, -0.984375000000, -1.617187500000, 1490848961
0.261474609375, -0.919189453125, -0.332763671875, -5.953125000000, -0.984375000000, -1.617187500000, 1490848961
0.261474609375, -0.919189453125, -0.332763671875, -5.953125000000, -0.984375000000, -1.617187500000, 1490848961
0.226806640625, -0.958007812500, -0.248535156250, -6.882812500000, 2.210937500000, -1.875000000000, 1490848961
0.226806640625, -0.958007812500, -0.248535156250, -6.882812500000, 2.210937500000, -1.875000000000, 1490848961
0.226806640625, -0.958007812500, -0.248535156250, -6.882812500000, 2.210937500000, -1.875000000000, 1490848961
0.257812500000, -0.889160156250, -0.298583984375, -2.476562500000, 3.406250000000, -5.781250000000, 1490848961
0.257812500000, -0.889160156250, -0.298583984375, -2.476562500000, 3.406250000000, -5.781250000000, 1490848961
0.257812500000, -0.889160156250, -0.298583984375, -2.476562500000, 3.406250000000, -5.781250000000, 1490848961
0.230224609375, -1.018554687500, -0.249267578125, -3.546875000000, 0.851562500000, -1.234375000000, 1490848961
0.230224609375, -1.018554687500, -0.249267578125, -3.546875000000, 0.851562500000, -1.234375000000, 1490848961
0.230224609375, -1.018554687500, -0.249267578125, -3.546875000000, 0.851562500000, -1.234375000000, 1490848961
0.312744140625, -0.903076171875, -0.224121093750, -6.835937500000, 4.125000000000, -6.039062500000, 1490848961
0.312744140625, -0.903076171875, -0.224121093750, -6.835937500000, 4.125000000000, -6.039062500000, 1490848961
0.312744140625, -0.903076171875, -0.224121093750, -6.835937500000, 4.125000000000, -6.039062500000, 1490848961
0.312744140625, -0.903076171875, -0.224121093750, -6.835937500000, 4.125000000000, -6.039062500000, 1490848961
0.221191406250, -0.940185546875, -0.340087890625, -7.015625000000, 0.781250000000, -2.718750000000, 1490848961
0.221191406250, -0.940185546875, -0.340087890625, -7.015625000000, 0.781250000000, -2.718750000000, 1490848961
0.221191406250, -0.940185546875, -0.340087890625, -7.015625000000, 0.781250000000, -2.718750000000, 1490848961
0.236083984375, -0.868652343750, -0.226074218750, -6.078125000000, 0.773437500000, -1.828125000000, 1490848961
0.236083984375, -0.868652343750, -0.226074218750, -6.078125000000, 0.773437500000, -1.828125000000, 1490848961
0.252685546875, -0.940429687500, -0.286376953125, -2.609375000000, -4.609375000000, -1.226562500000, 1490848961
0.252685546875, -0.940429687500, -0.286376953125, -2.609375000000, -4.609375000000, -1.226562500000, 1490848961
0.269775390625, -1.004638671875, -0.325439453125, -2.140625000000, -8.757812500000, -1.015625000000, 1490848961
0.165527343750, -0.940185546875, -0.297851562500, 0.570312500000, -8.500000000000, -2.460937500000, 1490848961
0.165527343750, -0.940185546875, -0.297851562500, 0.570312500000, -8.500000000000, -2.460937500000, 1490848961
0.165527343750, -0.940185546875, -0.297851562500, 0.570312500000, -8.500000000000, -2.460937500000, 1490848961
0.224121093750, -0.946044921875, -0.330810546875, -2.757812500000, -18.710937500000, -3.007812500000, 1490848961
0.224121093750, -0.946044921875, -0.330810546875, -2.757812500000, -18.710937500000, -3.007812500000, 1490848961
0.224121093750, -0.946044921875, -0.330810546875, -2.757812500000, -18.710937500000, -3.007812500000, 1490848961
0.224121093750, -0.946044921875, -0.330810546875, -2.757812500000, -18.710937500000, -3.007812500000, 1490848961
0.224121093750, -0.946044921875, -0.330810546875, -2.757812500000, -18.710937500000, -3.007812500000, 1490848961
0.176025390625, -1.016113281250, -0.378173828125, -7.492187500000, -6.585937500000, -4.203125000000, 1490848961
0.176025390625, -1.016113281250, -0.378173828125, -7.492187500000, -6.585937500000, -4.203125000000, 1490848961
0.176025390625, -1.016113281250, -0.378173828125, -7.492187500000, -6.585937500000, -4.203125000000, 1490848961
0.241455078125, -0.873535156250, -0.402832031250, -11.492187500000, 0.867187500000, 3.171875000000, 1490848961
0.241455078125, -0.873535156250, -0.402832031250, -11.492187500000, 0.867187500000, 3.171875000000, 1490848961
0.241455078125, -0.873535156250, -0.402832031250, -11.492187500000, 0.867187500000, 3.171875000000, 1490848961
0.095458984375, -0.941650390625, -0.369628906250, -2.132812500000, 6.609375000000, 0.093750000000, 1490848961
0.095458984375, -0.941650390625, -0.369628906250, -2.132812500000, 6.609375000000, 0.093750000000, 1490848961
0.095458984375, -0.941650390625, -0.369628906250, -2.132812500000, 6.609375000000, 0.093750000000, 1490848961
0.095458984375, -0.941650390625, -0.369628906250, -2.132812500000, 6.609375000000, 0.093750000000, 1490848961
0.112304687500, -0.906738281250, -0.315185546875, -2.375000000000, 4.906250000000, 0.531250000000, 1490848961
0.112304687500, -0.906738281250, -0.315185546875, -2.375000000000, 4.906250000000, 0.531250000000, 1490848961
0.112304687500, -0.906738281250, -0.315185546875, -2.375000000000, 4.906250000000, 0.531250000000, 1490848961
0.268554687500, -0.856445312500, -0.333251953125, -3.093750000000, 0.406250000000, -1.921875000000, 1490848961
0.268554687500, -0.856445312500, -0.333251953125, -3.093750000000, 0.406250000000, -1.921875000000, 1490848961
0.268554687500, -0.856445312500, -0.333251953125, -3.093750000000, 0.406250000000, -1.921875000000, 1490848961
0.268798828125, -1.001220703125, -0.396728515625, -2.593750000000, -4.273437500000, -2.906250000000, 1490848961
0.268798828125, -1.001220703125, -0.396728515625, -2.593750000000, -4.273437500000, -2.906250000000, 1490848961
0.268798828125, -1.001220703125, -0.396728515625, -2.593750000000, -4.273437500000, -2.906250000000, 1490848961
0.246582031250, -0.844726562500, -0.328613281250, 0.070312500000, -3.335937500000, -4.210937500000, 1490848961
0.246582031250, -0.844726562500, -0.328613281250, 0.070312500000, -3.335937500000, -4.210937500000, 1490848962
0.246582031250, -0.844726562500, -0.328613281250, 0.070312500000, -3.335937500000, -4.210937500000, 1490848962
0.246582031250, -0.844726562500, -0.328613281250, 0.070312500000, -3.335937500000, -4.210937500000, 1490848962
0.264160156250, -1.012939453125, -0.297363281250, 1.804687500000, -2.710937500000, -4.812500000000, 1490848962
0.264160156250, -1.012939453125, -0.297363281250, 1.804687500000, -2.710937500000, -4.812500000000, 1490848962
0.264160156250, -1.012939453125, -0.297363281250, 1.804687500000, -2.710937500000, -4.812500000000, 1490848962
0.239990234375, -0.963623046875, -0.376464843750, 2.953125000000, 3.085937500000, -7.531250000000, 1490848962
0.239990234375, -0.963623046875, -0.376464843750, 2.953125000000, 3.085937500000, -7.531250000000, 1490848962
0.239990234375, -0.963623046875, -0.376464843750, 2.953125000000, 3.085937500000, -7.531250000000, 1490848962
0.208740234375, -0.846191406250, -0.285400390625, 1.515625000000, -7.757812500000, -1.234375000000, 1490848962
0.208740234375, -0.846191406250, -0.285400390625, 1.515625000000, -7.757812500000, -1.234375000000, 1490848962
0.208740234375, -0.846191406250, -0.285400390625, 1.515625000000, -7.757812500000, -1.234375000000, 1490848962
0.249023437500, -0.869628906250, -0.403320312500, -21.992187500000, 10.195312500000, 9.617187500000, 1490848962
0.249023437500, -0.869628906250, -0.403320312500, -21.992187500000, 10.195312500000, 9.617187500000, 1490848962
0.249023437500, -0.869628906250, -0.403320312500, -21.992187500000, 10.195312500000, 9.617187500000, 1490848962
0.249023437500, -0.869628906250, -0.403320312500, -21.992187500000, 10.195312500000, 9.617187500000, 1490848962
0.182617187500, -0.888671875000, -0.468017578125, -5.656250000000, 7.617187500000, 5.367187500000, 1490848962
0.182617187500, -0.888671875000, -0.468017578125, -5.656250000000, 7.617187500000, 5.367187500000, 1490848962
0.182617187500, -0.888671875000, -0.468017578125, -5.656250000000, 7.617187500000, 5.367187500000, 1490848962
0.224609375000, -0.784912109375, -0.452636718750, 8.929687500000, -9.203125000000, 4.828125000000, 1490848962
0.224609375000, -0.784912109375, -0.452636718750, 8.929687500000, -9.203125000000, 4.828125000000, 1490848962
0.224609375000, -0.784912109375, -0.452636718750, 8.929687500000, -9.203125000000, 4.828125000000, 1490848962
0.194824218750, -0.791015625000, -0.353271484375, 3.039062500000, -40.953125000000, 21.367187500000, 1490848962
0.194824218750, -0.791015625000, -0.353271484375, 3.039062500000, -40.953125000000, 21.367187500000, 1490848962
0.194824218750, -0.791015625000, -0.353271484375, 3.039062500000, -40.953125000000, 21.367187500000, 1490848962
0.194335937500, -0.706298828125, -0.355712890625, 1.429687500000, -48.429687500000, 17.062500000000, 1490848962
0.194335937500, -0.706298828125, -0.355712890625, 1.429687500000, -48.429687500000, 17.062500000000, 1490848962
0.194335937500, -0.706298828125, -0.355712890625, 1.429687500000, -48.429687500000, 17.062500000000, 1490848962
0.194335937500, -0.706298828125, -0.355712890625, 1.429687500000, -48.429687500000, 17.062500000000, 1490848962
0.101318359375, -0.659667968750, -0.385498046875, -18.765625000000, -60.210937500000, 28.523437500000, 1490848962
0.101318359375, -0.659667968750, -0.385498046875, -18.765625000000, -60.210937500000, 28.523437500000, 1490848962
0.101318359375, -0.659667968750, -0.385498046875, -18.765625000000, -60.210937500000, 28.523437500000, 1490848962
0.201660156250, -0.878417968750, -0.399414062500, -34.203125000000, -74.078125000000, 30.414062500000, 1490848962
0.201660156250, -0.878417968750, -0.399414062500, -34.203125000000, -74.078125000000, 30.414062500000, 1490848962
0.201660156250, -0.878417968750, -0.399414062500, -34.203125000000, -74.078125000000, 30.414062500000, 1490848962
0.145507812500, -0.982666015625, -0.406982421875, -49.476562500000, -32.195312500000, 19.664062500000, 1490848962
0.145507812500, -0.982666015625, -0.406982421875, -49.476562500000, -32.195312500000, 19.664062500000, 1490848962
0.145507812500, -0.982666015625, -0.406982421875, -49.476562500000, -32.195312500000, 19.664062500000, 1490848962
0.059082031250, -0.832519531250, -0.381347656250, -15.226562500000, 19.539062500000, -24.617187500000, 1490848962
0.059082031250, -0.832519531250, -0.381347656250, -15.226562500000, 19.539062500000, -24.617187500000, 1490848962
0.059082031250, -0.832519531250, -0.381347656250, -15.226562500000, 19.539062500000, -24.617187500000, 1490848962
0.059082031250, -0.832519531250, -0.381347656250, -15.226562500000, 19.539062500000, -24.617187500000, 1490848962
0.135009765625, -0.896240234375, -0.388671875000, -70.953125000000, 63.437500000000, 10.781250000000, 1490848962
0.135009765625, -0.896240234375, -0.388671875000, -70.953125000000, 63.437500000000, 10.781250000000, 1490848962
0.135009765625, -0.896240234375, -0.388671875000, -70.953125000000, 63.437500000000, 10.781250000000, 1490848962
0.192871093750, -0.819580078125, -0.341308593750, -54.414062500000, -20.757812500000, 5.070312500000, 1490848962
0.192871093750, -0.819580078125, -0.341308593750, -54.414062500000, -20.757812500000, 5.070312500000, 1490848962
0.192871093750, -0.819580078125, -0.341308593750, -54.414062500000, -20.757812500000, 5.070312500000, 1490848962
0.100585937500, -0.971191406250, -0.385253906250, -73.929687500000, -43.484375000000, 32.851562500000, 1490848962
0.100585937500, -0.971191406250, -0.385253906250, -73.929687500000, -43.484375000000, 32.851562500000, 1490848962
0.100585937500, -0.971191406250, -0.385253906250, -73.929687500000, -43.484375000000, 32.851562500000, 1490848962
0.139892578125, -1.025146484375, -0.398925781250, -65.875000000000, 41.281250000000, 25.140625000000, 1490848962
0.139892578125, -1.025146484375, -0.398925781250, -65.875000000000, 41.281250000000, 25.140625000000, 1490848962
0.139892578125, -1.025146484375, -0.398925781250, -65.875000000000, 41.281250000000, 25.140625000000, 1490848962
0.139892578125, -1.025146484375, -0.398925781250, -65.875000000000, 41.281250000000, 25.140625000000, 1490848962
0.390380859375, -1.259277343750, -0.433837890625, 24.195312500000, 21.125000000000, -21.093750000000, 1490848962
0.390380859375, -1.259277343750, -0.433837890625, 24.195312500000, 21.125000000000, -21.093750000000, 1490848962
0.390380859375, -1.259277343750, -0.433837890625, 24.195312500000, 21.125000000000, -21.093750000000, 1490848962
0.357666015625, -0.835449218750, -0.287597656250, 63.484375000000, 10.492187500000, 45.148437500000, 1490848962
0.357666015625, -0.835449218750, -0.287597656250, 63.484375000000, 10.492187500000, 45.148437500000, 1490848962
0.357666015625, -0.835449218750, -0.287597656250, 63.484375000000, 10.492187500000, 45.148437500000, 1490848962
0.157958984375, -0.525878906250, -0.197021484375, -52.554687500000, 116.234375000000, 114.554687500000, 1490848962
0.157958984375, -0.525878906250, -0.197021484375, -52.554687500000, 116.234375000000, 114.554687500000, 1490848962
0.157958984375, -0.525878906250, -0.197021484375, -52.554687500000, 116.234375000000, 114.554687500000, 1490848962
0.096923828125, -0.490722656250, -0.033935546875, -179.625000000000, 83.828125000000, 139.109375000000, 1490848962
0.096923828125, -0.490722656250, -0.033935546875, -179.625000000000, 83.828125000000, 139.109375000000, 1490848962
0.096923828125, -0.490722656250, -0.033935546875, -179.625000000000, 83.828125000000, 139.109375000000, 1490848962
0.096923828125, -0.490722656250, -0.033935546875, -179.625000000000, 83.828125000000, 139.109375000000, 1490848962
0.057617187500, -0.310546875000, -0.013671875000, -129.093750000000, 176.898437500000, 35.773437500000, 1490848963
0.057617187500, -0.310546875000, -0.013671875000, -129.093750000000, 176.898437500000, 35.773437500000, 1490848963
0.057617187500, -0.310546875000, -0.013671875000, -129.093750000000, 176.898437500000, 35.773437500000, 1490848963
0.102050781250, -0.440673828125, -0.108398437500, -128.718750000000, 148.148437500000, 33.898437500000, 1490848963
0.102050781250, -0.440673828125, -0.108398437500, -128.718750000000, 148.148437500000, 33.898437500000, 1490848963
0.102050781250, -0.440673828125, -0.108398437500, -128.718750000000, 148.148437500000, 33.898437500000, 1490848963
0.196289062500, -0.563476562500, -0.293701171875, -192.156250000000, 168.140625000000, 90.601562500000, 1490848963
0.196289062500, -0.563476562500, -0.293701171875, -192.156250000000, 168.140625000000, 90.601562500000, 1490848963
0.196289062500, -0.563476562500, -0.293701171875, -192.156250000000, 168.140625000000, 90.601562500000, 1490848963
0.914062500000, -2.485351562500, -1.361328125000, -256.000000000000, -14.109375000000, 165.718750000000, 1490848963
0.914062500000, -2.485351562500, -1.361328125000, -256.000000000000, -14.109375000000, 165.718750000000, 1490848963
0.914062500000, -2.485351562500, -1.361328125000, -256.000000000000, -14.109375000000, 165.718750000000, 1490848963
0.914062500000, -2.485351562500, -1.361328125000, -256.000000000000, -14.109375000000, 165.718750000000, 1490848963
-1.148925781250, 1.860351562500, -0.677978515625, 156.843750000000, -256.000000000000, 177.171875000000, 1490848963
-1.148925781250, 1.860351562500, -0.677978515625, 156.843750000000, -256.000000000000, 177.171875000000, 1490848963
-1.148925781250, 1.860351562500, -0.677978515625, 156.843750000000, -256.000000000000, 177.171875000000, 1490848963
-0.239013671875, 0.067626953125, -0.435302734375, 20.820312500000, 253.992187500000, -256.000000000000, 1490848963
-0.239013671875, 0.067626953125, -0.435302734375, 20.820312500000, 253.992187500000, -256.000000000000, 1490848963
-0.239013671875, 0.067626953125, -0.435302734375, 20.820312500000, 253.992187500000, -256.000000000000, 1490848963
-0.326171875000, 0.139892578125, 0.179931640625, -59.187500000000, -162.828125000000, 91.156250000000, 1490848963
-0.326171875000, 0.139892578125, 0.179931640625, -59.187500000000, -162.828125000000, 91.156250000000, 1490848963
-0.326171875000, 0.139892578125, 0.179931640625, -59.187500000000, -162.828125000000, 91.156250000000, 1490848963
-0.001220703125, -0.027099609375, 0.154052734375, -128.632812500000, -176.359375000000, 253.992187500000, 1490848963
-0.001220703125, -0.027099609375, 0.154052734375, -128.632812500000, -176.359375000000, 253.992187500000, 1490848963
-0.001220703125, -0.027099609375, 0.154052734375, -128.632812500000, -176.359375000000, 253.992187500000, 1490848963
-0.001220703125, -0.027099609375, 0.154052734375, -128.632812500000, -176.359375000000, 253.992187500000, 1490848963
0.121093750000, 0.082763671875, 0.153076171875, -15.546875000000, -148.359375000000, 164.031250000000, 1490848963
0.121093750000, 0.082763671875, 0.153076171875, -15.546875000000, -148.359375000000, 164.031250000000, 1490848963
0.121093750000, 0.082763671875, 0.153076171875, -15.546875000000, -148.359375000000, 164.031250000000, 1490848963
0.130371093750, -0.017578125000, 0.113769531250, -123.507812500000, 165.992187500000, 136.562500000000, 1490848963
0.130371093750, -0.017578125000, 0.113769531250, -123.507812500000, 165.992187500000, 136.562500000000, 1490848963
0.130371093750, -0.017578125000, 0.113769531250, -123.507812500000, 165.992187500000, 136.562500000000, 1490848963
-0.147460937500, 0.281250000000, 0.236572265625, -189.085937500000, 242.593750000000, 39.476562500000, 1490848963
-0.147460937500, 0.281250000000, 0.236572265625, -189.085937500000, 242.593750000000, 39.476562500000, 1490848963
-0.147460937500, 0.281250000000, 0.236572265625, -189.085937500000, 242.593750000000, 39.476562500000, 1490848963
0.345214843750, 0.325195312500, 0.730712890625, 253.992187500000, -256.000000000000, -118.148437500000, 1490848963
0.345214843750, 0.325195312500, 0.730712890625, 253.992187500000, -256.000000000000, -118.148437500000, 1490848963
0.345214843750, 0.325195312500, 0.730712890625, 253.992187500000, -256.000000000000, -118.148437500000, 1490848963
0.345214843750, 0.325195312500, 0.730712890625, 253.992187500000, -256.000000000000, -118.148437500000, 1490848963
0.285400390625, 1.089843750000, -0.287597656250, 253.992187500000, -196.437500000000, 253.992187500000, 1490848963
0.285400390625, 1.089843750000, -0.287597656250, 253.992187500000, -196.437500000000, 253.992187500000, 1490848963
0.285400390625, 1.089843750000, -0.287597656250, 253.992187500000, -196.437500000000, 253.992187500000, 1490848963
0.136230468750, -0.041259765625, 0.290771484375, 253.992187500000, -256.000000000000, 253.992187500000, 1490848963
0.136230468750, -0.041259765625, 0.290771484375, 253.992187500000, -256.000000000000, 253.992187500000, 1490848963
0.136230468750, -0.041259765625, 0.290771484375, 253.992187500000, -256.000000000000, 253.992187500000, 1490848963
0.156738281250, -0.055175781250, 0.265136718750, 253.992187500000, 78.171875000000, 253.992187500000, 1490848963
0.156738281250, -0.055175781250, 0.265136718750, 253.992187500000, 78.171875000000, 253.992187500000, 1490848963
0.156738281250, -0.055175781250, 0.265136718750, 253.992187500000, 78.171875000000, 253.992187500000, 1490848963
0.123535156250, -0.885009765625, 0.202148437500, -102.976562500000, 253.992187500000, -132.890625000000, 1490848963
0.123535156250, -0.885009765625, 0.202148437500, -102.976562500000, 253.992187500000, -132.890625000000, 1490848963
0.123535156250, -0.885009765625, 0.202148437500, -102.976562500000, 253.992187500000, -132.890625000000, 1490848963
0.123535156250, -0.885009765625, 0.202148437500, -102.976562500000, 253.992187500000, -132.890625000000, 1490848963
-0.367919921875, -1.116455078125, -0.011474609375, 124.835937500000, 24.765625000000, -256.000000000000, 1490848963
-0.367919921875, -1.116455078125, -0.011474609375, 124.835937500000, 24.765625000000, -256.000000000000, 1490848963
-0.367919921875, -1.116455078125, -0.011474609375, 124.835937500000, 24.765625000000, -256.000000000000, 1490848963
0.031494140625, -1.395263671875, 1.013183593750, 253.992187500000, -70.835937500000, 1.140625000000, 1490848963
0.031494140625, -1.395263671875, 1.013183593750, 253.992187500000, -70.835937500000, 1.140625000000, 1490848963
0.031494140625, -1.395263671875, 1.013183593750, 253.992187500000, -70.835937500000, 1.140625000000, 1490848963
1.759277343750, -2.525878906250, 2.359375000000, 253.992187500000, -256.000000000000, -256.000000000000, 1490848963
1.759277343750, -2.525878906250, 2.359375000000, 253.992187500000, -256.000000000000, -256.000000000000, 1490848963
1.759277343750, -2.525878906250, 2.359375000000, 253.992187500000, -256.000000000000, -256.000000000000, 1490848963
0.799072265625, -0.332275390625, 1.030761718750, 44.562500000000, -2.210937500000, -54.351562500000, 1490848963
0.799072265625, -0.332275390625, 1.030761718750, 44.562500000000, -2.210937500000, -54.351562500000, 1490848964
0.275146484375, -0.964355468750, 0.333251953125, -16.031250000000, 26.546875000000, 13.398437500000, 1490848964
0.275146484375, -0.964355468750, 0.333251953125, -16.031250000000, 26.546875000000, 13.398437500000, 1490848964
0.275146484375, -0.964355468750, 0.333251953125, -16.031250000000, 26.546875000000, 13.398437500000, 1490848964
0.275146484375, -0.964355468750, 0.333251953125, -16.031250000000, 26.546875000000, 13.398437500000, 1490848964
0.275146484375, -0.964355468750, 0.333251953125, -16.031250000000, 26.546875000000, 13.398437500000, 1490848964
0.275146484375, -0.964355468750, 0.333251953125, -16.031250000000, 26.546875000000, 13.398437500000, 1490848964
0.158447265625, -0.858886718750, 0.530029296875, 11.921875000000, -7.867187500000, -13.921875000000, 1490848964
0.158447265625, -0.858886718750, 0.530029296875, 11.921875000000, -7.867187500000, -13.921875000000, 1490848964
0.158447265625, -0.858886718750, 0.530029296875, 11.921875000000, -7.867187500000, -13.921875000000, 1490848964
0.158447265625, -0.858886718750, 0.530029296875, 11.921875000000, -7.867187500000, -13.921875000000, 1490848964
0.158447265625, -0.858886718750, 0.530029296875, 11.921875000000, -7.867187500000, -13.921875000000, 1490848964
0.430664062500, -0.936035156250, 0.472900390625, 24.039062500000, -14.109375000000, -24.187500000000, 1490848964
0.430664062500, -0.936035156250, 0.472900390625, 24.039062500000, -14.109375000000, -24.187500000000, 1490848964
0.430664062500, -0.936035156250, 0.472900390625, 24.039062500000, -14.109375000000, -24.187500000000, 1490848964
0.430664062500, -0.936035156250, 0.472900390625, 24.039062500000, -14.109375000000, -24.187500000000, 1490848964
0.236083984375, -0.800292968750, 0.398437500000, -14.421875000000, 17.703125000000, 2.023437500000, 1490848964
0.236083984375, -0.800292968750, 0.398437500000, -14.421875000000, 17.703125000000, 2.023437500000, 1490848964
0.236083984375, -0.800292968750, 0.398437500000, -14.421875000000, 17.703125000000, 2.023437500000, 1490848964
0.226806640625, -0.907470703125, 0.455078125000, -39.585937500000, 41.882812500000, 8.398437500000, 1490848964
0.226806640625, -0.907470703125, 0.455078125000, -39.585937500000, 41.882812500000, 8.398437500000, 1490848964
0.226806640625, -0.907470703125, 0.455078125000, -39.585937500000, 41.882812500000, 8.398437500000, 1490848964
0.236816406250, -0.907226562500, 0.465087890625, -24.562500000000, 13.609375000000, 7.546875000000, 1490848964
0.236816406250, -0.907226562500, 0.465087890625, -24.562500000000, 13.609375000000, 7.546875000000, 1490848964
0.236816406250, -0.907226562500, 0.465087890625, -24.562500000000, 13.609375000000, 7.546875000000, 1490848964
0.421630859375, -0.865234375000, 0.528076171875, 10.359375000000, -48.421875000000, 1.984375000000, 1490848964
0.421630859375, -0.865234375000, 0.528076171875, 10.359375000000, -48.421875000000, 1.984375000000, 1490848964
0.421630859375, -0.865234375000, 0.528076171875, 10.359375000000, -48.421875000000, 1.984375000000, 1490848964
0.421630859375, -0.865234375000, 0.528076171875, 10.359375000000, -48.421875000000, 1.984375000000, 1490848964
0.421630859375, -0.865234375000, 0.528076171875, 10.359375000000, -48.421875000000, 1.984375000000, 1490848964
0.403564453125, -0.905029296875, 0.407226562500, 5.312500000000, -47.265625000000, 3.500000000000, 1490848964
0.350097656250, -0.898925781250, 0.355468750000, -9.195312500000, -38.523437500000, 19.976562500000, 1490848964
0.350097656250, -0.898925781250, 0.355468750000, -9.195312500000, -38.523437500000, 19.976562500000, 1490848964
0.350097656250, -0.898925781250, 0.355468750000, -9.195312500000, -38.523437500000, 19.976562500000, 1490848964
0.350097656250, -0.898925781250, 0.355468750000, -9.195312500000, -38.523437500000, 19.976562500000, 1490848964
0.222167968750, -0.883544921875, 0.355957031250, -18.867187500000, -6.718750000000, 33.453125000000, 1490848964
0.222167968750, -0.883544921875, 0.355957031250, -18.867187500000, -6.718750000000, 33.453125000000, 1490848964
0.222167968750, -0.883544921875, 0.355957031250, -18.867187500000, -6.718750000000, 33.453125000000, 1490848964
0.376220703125, -0.888916015625, 0.388916015625, -17.664062500000, 21.132812500000, 29.093750000000, 1490848964
0.376220703125, -0.888916015625, 0.388916015625, -17.664062500000, 21.132812500000, 29.093750000000, 1490848964
0.376220703125, -0.888916015625, 0.388916015625, -17.664062500000, 21.132812500000, 29.093750000000, 1490848964
0.376220703125, -0.888916015625, 0.388916015625, -17.664062500000, 21.132812500000, 29.093750000000, 1490848964
0.328613281250, -0.887451171875, 0.431396484375, -8.789062500000, 2.101562500000, 37.367187500000, 1490848964
0.328613281250, -0.887451171875, 0.431396484375, -8.789062500000, 2.101562500000, 37.367187500000, 1490848964
0.328613281250, -0.887451171875, 0.431396484375, -8.789062500000, 2.101562500000, 37.367187500000, 1490848964
0.344726562500, -0.716796875000, 0.365234375000, 5.125000000000, -47.554687500000, -3.460937500000, 1490848964
0.344726562500, -0.716796875000, 0.365234375000, 5.125000000000, -47.554687500000, -3.460937500000, 1490848964
0.344726562500, -0.716796875000, 0.365234375000, 5.125000000000, -47.554687500000, -3.460937500000, 1490848964
0.471679687500, -0.766845703125, 0.407470703125, 23.570312500000, -45.843750000000, -34.734375000000, 1490848964
0.471679687500, -0.766845703125, 0.407470703125, 23.570312500000, -45.843750000000, -34.734375000000, 1490848964
0.471679687500, -0.766845703125, 0.407470703125, 23.570312500000, -45.843750000000, -34.734375000000, 1490848964
0.482421875000, -0.876220703125, 0.411132812500, -16.140625000000, 23.585937500000, -12.296875000000, 1490848964
0.482421875000, -0.876220703125, 0.411132812500, -16.140625000000, 23.585937500000, -12.296875000000, 1490848964
0.482421875000, -0.876220703125, 0.411132812500, -16.140625000000, 23.585937500000, -12.296875000000, 1490848964
0.482421875000, -0.876220703125, 0.411132812500, -16.140625000000, 23.585937500000, -12.296875000000, 1490848964
0.303710937500, -0.794433593750, 0.530029296875, -4.054687500000, 16.289062500000, -9.625000000000, 1490848964
0.303710937500, -0.794433593750, 0.530029296875, -4.054687500000, 16.289062500000, -9.625000000000, 1490848964
0.303710937500, -0.794433593750, 0.530029296875, -4.054687500000, 16.289062500000, -9.625000000000, 1490848964
0.303710937500, -0.794433593750, 0.530029296875, -4.054687500000, 16.289062500000, -9.625000000000, 1490848964
0.303710937500, -0.794433593750, 0.530029296875, -4.054687500000, 16.289062500000, -9.625000000000, 1490848964
0.303710937500, -0.794433593750, 0.530029296875, -4.054687500000, 16.289062500000, -9.625000000000, 1490848964
0.356445312500, -0.796142578125, 0.526367187500, -6.273437500000, 6.601562500000, -0.015625000000, 1490848964
0.356445312500, -0.796142578125, 0.526367187500, -6.273437500000, 6.601562500000, -0.015625000000, 1490848964
0.356445312500, -0.796142578125, 0.526367187500, -6.273437500000, 6.601562500000, -0.015625000000, 1490848964
0.343505859375, -0.834716796875, 0.458984375000, -11.656250000000, 7.265625000000, 16.554687500000, 1490848964
0.343505859375, -0.834716796875, 0.458984375000, -11.656250000000, 7.265625000000, 16.554687500000, 1490848964
0.343505859375, -0.834716796875, 0.458984375000, -11.656250000000, 7.265625000000, 16.554687500000, 1490848964
0.343505859375, -0.834716796875, 0.458984375000, -11.656250000000, 7.265625000000, 16.554687500000, 1490848964
0.480712890625, -0.845458984375, 0.503417968750, -5.265625000000, 0.992187500000, 6.843750000000, 1490848964
0.480712890625, -0.845458984375, 0.503417968750, -5.265625000000, 0.992187500000, 6.843750000000, 1490848964
0.480712890625, -0.845458984375, 0.503417968750, -5.265625000000, 0.992187500000, 6.843750000000, 1490848964
0.464111328125, -0.802001953125, 0.369873046875, -3.906250000000, -15.968750000000, 0.093750000000, 1490848965
0.464111328125, -0.802001953125, 0.369873046875, -3.906250000000, -15.968750000000, 0.093750000000, 1490848965
0.464111328125, -0.802001953125, 0.369873046875, -3.906250000000, -15.968750000000, 0.093750000000, 1490848965
0.590576171875, -0.799560546875, 0.357666015625, 0.671875000000, 0.796875000000, -9.578125000000, 1490848965
0.590576171875, -0.799560546875, 0.357666015625, 0.671875000000, 0.796875000000, -9.578125000000, 1490848965
0.590576171875, -0.799560546875, 0.357666015625, 0.671875000000, 0.796875000000, -9.578125000000, 1490848965
0.366699218750, -0.808105468750, 0.412353515625, -1.921875000000, 4.320312500000, -18.835937500000, 1490848965
0.366699218750, -0.808105468750, 0.412353515625, -1.921875000000, 4.320312500000, -18.835937500000, 1490848965
0.366699218750, -0.808105468750, 0.412353515625, -1.921875000000, 4.320312500000, -18.835937500000, 1490848965
0.366699218750, -0.808105468750, 0.412353515625, -1.921875000000, 4.320312500000, -18.835937500000, 1490848965
0.455322265625, -0.830810546875, 0.449707031250, 2.125000000000, -0.531250000000, -14.578125000000, 1490848965
0.455322265625, -0.830810546875, 0.449707031250, 2.125000000000, -0.531250000000, -14.578125000000, 1490848965
0.455322265625, -0.830810546875, 0.449707031250, 2.125000000000, -0.531250000000, -14.578125000000, 1490848965
0.370849609375, -0.824218750000, 0.470703125000, 6.726562500000, -2.851562500000, -8.984375000000, 1490848965
0.370849609375, -0.824218750000, 0.470703125000, 6.726562500000, -2.851562500000, -8.984375000000, 1490848965
0.370849609375, -0.824218750000, 0.470703125000, 6.726562500000, -2.851562500000, -8.984375000000, 1490848965
0.438964843750, -0.810058593750, 0.454833984375, -0.414062500000, -4.757812500000, 2.382812500000, 1490848965
0.438964843750, -0.810058593750, 0.454833984375, -0.414062500000, -4.757812500000, 2.382812500000, 1490848965
0.438964843750, -0.810058593750, 0.454833984375, -0.414062500000, -4.757812500000, 2.382812500000, 1490848965
0.306640625000, -0.882324218750, 0.500488281250, -6.210937500000, -8.179687500000, 1.140625000000, 1490848965
0.306640625000, -0.882324218750, 0.500488281250, -6.210937500000, -8.179687500000, 1.140625000000, 1490848965
0.306640625000, -0.882324218750, 0.500488281250, -6.210937500000, -8.179687500000, 1.140625000000, 1490848965
0.306640625000, -0.882324218750, 0.500488281250, -6.210937500000, -8.179687500000, 1.140625000000, 1490848965
0.463867187500, -0.893310546875, 0.431640625000, -9.820312500000, -13.835937500000, -4.453125000000, 1490848965
0.463867187500, -0.893310546875, 0.431640625000, -9.820312500000, -13.835937500000, -4.453125000000, 1490848965
0.463867187500, -0.893310546875, 0.431640625000, -9.820312500000, -13.835937500000, -4.453125000000, 1490848965
0.429687500000, -0.800537109375, 0.403564453125, -7.398437500000, -23.304687500000, -19.648437500000, 1490848965
0.429687500000, -0.800537109375, 0.403564453125, -7.398437500000, -23.304687500000, -19.648437500000, 1490848965
0.429687500000, -0.800537109375, 0.403564453125, -7.398437500000, -23.304687500000, -19.648437500000, 1490848965
0.519531250000, -0.757080078125, 0.353515625000, -7.085937500000, -19.687500000000, -31.929687500000, 1490848965
0.519531250000, -0.757080078125, 0.353515625000, -7.085937500000, -19.687500000000, -31.929687500000, 1490848965
0.519531250000, -0.757080078125, 0.353515625000, -7.085937500000, -19.687500000000, -31.929687500000, 1490848965
0.372314453125, -0.739013671875, 0.455322265625, -9.703125000000, 19.734375000000, -19.632812500000, 1490848965
0.372314453125, -0.739013671875, 0.455322265625, -9.703125000000, 19.734375000000, -19.632812500000, 1490848965
0.372314453125, -0.739013671875, 0.455322265625, -9.703125000000, 19.734375000000, -19.632812500000, 1490848965
0.372314453125, -0.739013671875, 0.455322265625, -9.703125000000, 19.734375000000, -19.632812500000, 1490848965
0.377929687500, -0.828857421875, 0.461669921875, -15.789062500000, 21.148437500000, -3.507812500000, 1490848965
0.377929687500, -0.828857421875, 0.461669921875, -15.789062500000, 21.148437500000, -3.507812500000, 1490848965
0.377929687500, -0.828857421875, 0.461669921875, -15.789062500000, 21.148437500000, -3.507812500000, 1490848965
0.329833984375, -0.879394531250, 0.503173828125, -7.992187500000, 10.226562500000, -2.726562500000, 1490848965
0.329833984375, -0.879394531250, 0.503173828125, -7.992187500000, 10.226562500000, -2.726562500000, 1490848965
0.329833984375, -0.879394531250, 0.503173828125, -7.992187500000, 10.226562500000, -2.726562500000, 1490848965
0.359130859375, -0.790283203125, 0.415039062500, -5.859375000000, 14.125000000000, 2.718750000000, 1490848965
0.359130859375, -0.790283203125, 0.415039062500, -5.859375000000, 14.125000000000, 2.718750000000, 1490848965
0.359130859375, -0.790283203125, 0.415039062500, -5.859375000000, 14.125000000000, 2.718750000000, 1490848965
0.367187500000, -0.896972656250, 0.356933593750, -8.304687500000, 20.468750000000, -1.265625000000, 1490848965
0.367187500000, -0.896972656250, 0.356933593750, -8.304687500000, 20.468750000000, -1.265625000000, 1490848965
0.367187500000, -0.896972656250, 0.356933593750, -8.304687500000, 20.468750000000, -1.265625000000, 1490848965
0.367187500000, -0.896972656250, 0.356933593750, -8.304687500000, 20.468750000000, -1.265625000000, 1490848965
0.400390625000, -0.961181640625, 0.515380859375, -1.023437500000, 21.164062500000, -7.382812500000, 1490848965
0.400390625000, -0.961181640625, 0.515380859375, -1.023437500000, 21.164062500000, -7.382812500000, 1490848965
0.400390625000, -0.961181640625, 0.515380859375, -1.023437500000, 21.164062500000, -7.382812500000, 1490848965
0.304687500000, -0.876953125000, 0.448974609375, -16.015625000000, 3.523437500000, 10.578125000000, 1490848965
0.304687500000, -0.876953125000, 0.448974609375, -16.015625000000, 3.523437500000, 10.578125000000, 1490848965
0.304687500000, -0.876953125000, 0.448974609375, -16.015625000000, 3.523437500000, 10.578125000000, 1490848965
0.353515625000, -0.783447265625, 0.435302734375, -12.484375000000, -1.718750000000, 0.476562500000, 1490848965
0.353515625000, -0.783447265625, 0.435302734375, -12.484375000000, -1.718750000000, 0.476562500000, 1490848965
0.353515625000, -0.783447265625, 0.435302734375, -12.484375000000, -1.718750000000, 0.476562500000, 1490848965
0.375000000000, -0.958496093750, 0.512451171875, -13.343750000000, 1.617187500000, -3.117187500000, 1490848965
0.375000000000, -0.958496093750, 0.512451171875, -13.343750000000, 1.617187500000, -3.117187500000, 1490848965
0.375000000000, -0.958496093750, 0.512451171875, -13.343750000000, 1.617187500000, -3.117187500000, 1490848965
0.375000000000, -0.958496093750, 0.512451171875, -13.343750000000, 1.617187500000, -3.117187500000, 1490848965
0.384521484375, -0.826171875000, 0.569580078125, -5.523437500000, 1.679687500000, -1.632812500000, 1490848965
0.384521484375, -0.826171875000, 0.569580078125, -5.523437500000, 1.679687500000, -1.632812500000, 1490848965
0.384521484375, -0.826171875000, 0.569580078125, -5.523437500000, 1.679687500000, -1.632812500000, 1490848965
0.350830078125, -0.795410156250, 0.416503906250, -6.054687500000, 3.296875000000, -1.531250000000, 1490848965
0.350830078125, -0.795410156250, 0.416503906250, -6.054687500000, 3.296875000000, -1.531250000000, 1490848965
0.350830078125, -0.795410156250, 0.416503906250, -6.054687500000, 3.296875000000, -1.531250000000, 1490848966
0.388671875000, -0.798095703125, 0.535888671875, -3.742187500000, 3.695312500000, 4.898437500000, 1490848966
0.388671875000, -0.798095703125, 0.535888671875, -3.742187500000, 3.695312500000, 4.898437500000, 1490848966
0.388671875000, -0.798095703125, 0.535888671875, -3.742187500000, 3.695312500000, 4.898437500000, 1490848966
0.366455078125, -0.838623046875, 0.564453125000, -7.343750000000, 2.187500000000, -1.062500000000, 1490848966
0.366455078125, -0.838623046875, 0.564453125000, -7.343750000000, 2.187500000000, -1.062500000000, 1490848966
0.366455078125, -0.838623046875, 0.564453125000, -7.343750000000, 2.187500000000, -1.062500000000, 1490848966
0.366455078125, -0.838623046875, 0.564453125000, -7.343750000000, 2.187500000000, -1.062500000000, 1490848966
0.369384765625, -0.796142578125, 0.454589843750, -7.390625000000, -2.507812500000, -4.015625000000, 1490848966
0.369384765625, -0.796142578125, 0.454589843750, -7.390625000000, -2.507812500000, -4.015625000000, 1490848966
0.369384765625, -0.796142578125, 0.454589843750, -7.390625000000, -2.507812500000, -4.015625000000, 1490848966
0.369384765625, -0.796142578125, 0.454589843750, -7.390625000000, -2.507812500000, -4.015625000000, 1490848966
0.369384765625, -0.796142578125, 0.454589843750, -7.390625000000, -2.507812500000, -4.015625000000, 1490848966
0.369384765625, -0.796142578125, 0.454589843750, -7.390625000000, -2.507812500000, -4.015625000000, 1490848966
0.452148437500, -0.737792968750, 0.464843750000, -4.570312500000, -0.906250000000, -6.406250000000, 1490848966
0.452148437500, -0.737792968750, 0.464843750000, -4.570312500000, -0.906250000000, -6.406250000000, 1490848966
0.452148437500, -0.737792968750, 0.464843750000, -4.570312500000, -0.906250000000, -6.406250000000, 1490848966
0.373046875000, -0.791259765625, 0.419921875000, -8.421875000000, 2.898437500000, -2.281250000000, 1490848966
0.373046875000, -0.791259765625, 0.419921875000, -8.421875000000, 2.898437500000, -2.281250000000, 1490848966
0.373046875000, -0.791259765625, 0.419921875000, -8.421875000000, 2.898437500000, -2.281250000000, 1490848966
0.373046875000, -0.791259765625, 0.419921875000, -8.421875000000, 2.898437500000, -2.281250000000, 1490848966
0.304199218750, -0.730712890625, 0.567626953125, -3.328125000000, 3.062500000000, -0.992187500000, 1490848966
0.304199218750, -0.730712890625, 0.567626953125, -3.328125000000, 3.062500000000, -0.992187500000, 1490848966
0.304199218750, -0.730712890625, 0.567626953125, -3.328125000000, 3.062500000000, -0.992187500000, 1490848966
0.344970703125, -0.820800781250, 0.426269531250, -0.570312500000, 4.671875000000, 2.101562500000, 1490848966
0.344970703125, -0.820800781250, 0.426269531250, -0.570312500000, 4.671875000000, 2.101562500000, 1490848966
0.344970703125, -0.820800781250, 0.426269531250, -0.570312500000, 4.671875000000, 2.101562500000, 1490848966
0.439697265625, -0.901123046875, 0.514892578125, 0.507812500000, 8.523437500000, -3.718750000000, 1490848966
0.439697265625, -0.901123046875, 0.514892578125, 0.507812500000, 8.523437500000, -3.718750000000, 1490848966
0.439697265625, -0.901123046875, 0.514892578125, 0.507812500000, 8.523437500000, -3.718750000000, 1490848966
0.400634765625, -0.816406250000, 0.471435546875, -8.703125000000, 1.851562500000, -5.734375000000, 1490848966
0.400634765625, -0.816406250000, 0.471435546875, -8.703125000000, 1.851562500000, -5.734375000000, 1490848966
0.400634765625, -0.816406250000, 0.471435546875, -8.703125000000, 1.851562500000, -5.734375000000, 1490848966
0.400634765625, -0.816406250000, 0.471435546875, -8.703125000000, 1.851562500000, -5.734375000000, 1490848966
0.347900390625, -0.781494140625, 0.497802734375, -5.843750000000, 2.843750000000, -6.234375000000, 1490848966
0.447753906250, -0.822509765625, 0.589355468750, -6.406250000000, -0.039062500000, -3.617187500000, 1490848966
0.447753906250, -0.822509765625, 0.589355468750, -6.406250000000, -0.039062500000, -3.617187500000, 1490848966
0.447753906250, -0.822509765625, 0.589355468750, -6.406250000000, -0.039062500000, -3.617187500000, 1490848966
0.447753906250, -0.822509765625, 0.589355468750, -6.406250000000, -0.039062500000, -3.617187500000, 1490848966
0.447753906250, -0.822509765625, 0.589355468750, -6.406250000000, -0.039062500000, -3.617187500000, 1490848966
0.401367187500, -0.759277343750, 0.538330078125, -8.351562500000, -0.007812500000, 4.250000000000, 1490848966
0.401367187500, -0.759277343750, 0.538330078125, -8.351562500000, -0.007812500000, 4.250000000000, 1490848966
0.401367187500, -0.759277343750, 0.538330078125, -8.351562500000, -0.007812500000, 4.250000000000, 1490848966
0.474853515625, -0.804443359375, 0.630859375000, -1.968750000000, 2.289062500000, 7.890625000000, 1490848966
0.474853515625, -0.804443359375, 0.630859375000, -1.968750000000, 2.289062500000, 7.890625000000, 1490848966
0.474853515625, -0.804443359375, 0.630859375000, -1.968750000000, 2.289062500000, 7.890625000000, 1490848966
0.474853515625, -0.804443359375, 0.630859375000, -1.968750000000, 2.289062500000, 7.890625000000, 1490848966
0.303466796875, -0.759765625000, 0.516357421875, -5.546875000000, -2.468750000000, 10.914062500000, 1490848966
0.303466796875, -0.759765625000, 0.516357421875, -5.546875000000, -2.468750000000, 10.914062500000, 1490848966
0.303466796875, -0.759765625000, 0.516357421875, -5.546875000000, -2.468750000000, 10.914062500000, 1490848966
0.358642578125, -0.815917968750, 0.521972656250, -5.187500000000, 0.796875000000, -0.351562500000, 1490848966
0.358642578125, -0.815917968750, 0.521972656250, -5.187500000000, 0.796875000000, -0.351562500000, 1490848966
0.358642578125, -0.815917968750, 0.521972656250, -5.187500000000, 0.796875000000, -0.351562500000, 1490848966
0.464843750000, -0.893554687500, 0.589843750000, -10.210937500000, -0.562500000000, -4.039062500000, 1490848966
0.464843750000, -0.893554687500, 0.589843750000, -10.210937500000, -0.562500000000, -4.039062500000, 1490848966
0.464843750000, -0.893554687500, 0.589843750000, -10.210937500000, -0.562500000000, -4.039062500000, 1490848966
0.406005859375, -0.902343750000, 0.479736328125, 0.140625000000, 3.390625000000, -14.453125000000, 1490848966
0.406005859375, -0.902343750000, 0.479736328125, 0.140625000000, 3.390625000000, -14.453125000000, 1490848966
0.406005859375, -0.902343750000, 0.479736328125, 0.140625000000, 3.390625000000, -14.453125000000, 1490848966
0.296875000000, -0.821289062500, 0.492187500000, 0.078125000000, 2.796875000000, -9.687500000000, 1490848966
0.296875000000, -0.821289062500, 0.492187500000, 0.078125000000, 2.796875000000, -9.687500000000, 1490848966
0.296875000000, -0.821289062500, 0.492187500000, 0.078125000000, 2.796875000000, -9.687500000000, 1490848966
0.296875000000, -0.821289062500, 0.492187500000, 0.078125000000, 2.796875000000, -9.687500000000, 1490848966
0.376953125000, -0.855957031250, 0.500000000000, -3.804687500000, 2.875000000000, 1.539062500000, 1490848966
0.376953125000, -0.855957031250, 0.500000000000, -3.804687500000, 2.875000000000, 1.539062500000, 1490848966
0.376953125000, -0.855957031250, 0.500000000000, -3.804687500000, 2.875000000000, 1.539062500000, 1490848966
0.426513671875, -0.808105468750, 0.579589843750, -8.382812500000, 3.679687500000, 6.156250000000, 1490848967
0.426513671875, -0.808105468750, 0.579589843750, -8.382812500000, 3.679687500000, 6.156250000000, 1490848967
0.426513671875, -0.808105468750, 0.579589843750, -8.382812500000, 3.679687500000, 6.156250000000, 1490848967
0.355712890625, -0.894531250000, 0.578125000000, -6.507812500000, -0.140625000000, 1.351562500000, 1490848967
0.355712890625, -0.894531250000, 0.578125000000, -6.507812500000, -0.140625000000, 1.351562500000, 1490848967
0.355712890625, -0.894531250000, 0.578125000000, -6.507812500000, -0.140625000000, 1.351562500000, 1490848967
0.355712890625, -0.894531250000, 0.578125000000, -6.507812500000, -0.140625000000, 1.351562500000, 1490848967
0.307617187500, -0.672607421875, 0.566406250000, -1.398437500000, 0.156250000000, -1.023437500000, 1490848967
0.307617187500, -0.672607421875, 0.566406250000, -1.398437500000, 0.156250000000, -1.023437500000, 1490848967
0.307617187500, -0.672607421875, 0.566406250000, -1.398437500000, 0.156250000000, -1.023437500000, 1490848967
0.424804687500, -0.831542968750, 0.567382812500, -0.109375000000, 2.578125000000, -12.015625000000, 1490848967
0.424804687500, -0.831542968750, 0.567382812500, -0.109375000000, 2.578125000000, -12.015625000000, 1490848967
0.424804687500, -0.831542968750, 0.567382812500, -0.109375000000, 2.578125000000, -12.015625000000, 1490848967
0.421630859375, -0.750000000000, 0.488525390625, -1.687500000000, 4.828125000000, -8.476562500000, 1490848967
0.421630859375, -0.750000000000, 0.488525390625, -1.687500000000, 4.828125000000, -8.476562500000, 1490848967
0.421630859375, -0.750000000000, 0.488525390625, -1.687500000000, 4.828125000000, -8.476562500000, 1490848967
0.337402343750, -0.836669921875, 0.573486328125, -4.390625000000, 2.398437500000, -7.757812500000, 1490848967
0.337402343750, -0.836669921875, 0.573486328125, -4.390625000000, 2.398437500000, -7.757812500000, 1490848967
0.337402343750, -0.836669921875, 0.573486328125, -4.390625000000, 2.398437500000, -7.757812500000, 1490848967
0.453857421875, -0.814697265625, 0.519775390625, -4.078125000000, -0.093750000000, -6.320312500000, 1490848967
0.453857421875, -0.814697265625, 0.519775390625, -4.078125000000, -0.093750000000, -6.320312500000, 1490848967
0.453857421875, -0.814697265625, 0.519775390625, -4.078125000000, -0.093750000000, -6.320312500000, 1490848967
0.453857421875, -0.814697265625, 0.519775390625, -4.078125000000, -0.093750000000, -6.320312500000, 1490848967
0.392578125000, -0.803955078125, 0.472412109375, -4.875000000000, 2.804687500000, -1.773437500000, 1490848967
0.284423828125, -0.818115234375, 0.565185546875, -3.406250000000, 2.257812500000, 4.109375000000, 1490848967
0.284423828125, -0.818115234375, 0.565185546875, -3.406250000000, 2.257812500000, 4.109375000000, 1490848967
0.284423828125, -0.818115234375, 0.565185546875, -3.406250000000, 2.257812500000, 4.109375000000, 1490848967
0.411621093750, -0.827636718750, 0.583251953125, -4.078125000000, 1.664062500000, 2.156250000000, 1490848967
0.411621093750, -0.827636718750, 0.583251953125, -4.078125000000, 1.664062500000, 2.156250000000, 1490848967
0.411621093750, -0.827636718750, 0.583251953125, -4.078125000000, 1.664062500000, 2.156250000000, 1490848967
0.411621093750, -0.827636718750, 0.583251953125, -4.078125000000, 1.664062500000, 2.156250000000, 1490848967
0.411621093750, -0.827636718750, 0.583251953125, -4.078125000000, 1.664062500000, 2.156250000000, 1490848967
0.411621093750, -0.827636718750, 0.583251953125, -4.078125000000, 1.664062500000, 2.156250000000, 1490848967
0.358398437500, -0.842529296875, 0.489013671875, -3.804687500000, 1.046875000000, 0.632812500000, 1490848967
0.307373046875, -0.754638671875, 0.581054687500, -6.390625000000, 1.390625000000, -5.890625000000, 1490848967
0.307373046875, -0.754638671875, 0.581054687500, -6.390625000000, 1.390625000000, -5.890625000000, 1490848967
0.307373046875, -0.754638671875, 0.581054687500, -6.390625000000, 1.390625000000, -5.890625000000, 1490848967
0.307373046875, -0.754638671875, 0.581054687500, -6.390625000000, 1.390625000000, -5.890625000000, 1490848967
0.307373046875, -0.754638671875, 0.581054687500, -6.390625000000, 1.390625000000, -5.890625000000, 1490848967
0.394287109375, -0.877929687500, 0.446289062500, -3.132812500000, 4.195312500000, -11.210937500000, 1490848967
0.394287109375, -0.877929687500, 0.446289062500, -3.132812500000, 4.195312500000, -11.210937500000, 1490848967
0.394287109375, -0.877929687500, 0.446289062500, -3.132812500000, 4.195312500000, -11.210937500000, 1490848967
0.302978515625, -0.819824218750, 0.407226562500, -0.679687500000, 3.531250000000, -7.953125000000, 1490848967
0.302978515625, -0.819824218750, 0.407226562500, -0.679687500000, 3.531250000000, -7.953125000000, 1490848967
0.302978515625, -0.819824218750, 0.407226562500, -0.679687500000, 3.531250000000, -7.953125000000, 1490848967
0.302978515625, -0.819824218750, 0.407226562500, -0.679687500000, 3.531250000000, -7.953125000000, 1490848967
0.309082031250, -0.944091796875, 0.469970703125, -6.390625000000, 3.062500000000, -0.921875000000, 1490848967
0.309082031250, -0.944091796875, 0.469970703125, -6.390625000000, 3.062500000000, -0.921875000000, 1490848967
0.309082031250, -0.944091796875, 0.469970703125, -6.390625000000, 3.062500000000, -0.921875000000, 1490848967
0.405273437500, -0.827636718750, 0.500488281250, -3.687500000000, 3.390625000000, 1.960937500000, 1490848967
0.405273437500, -0.827636718750, 0.500488281250, -3.687500000000, 3.390625000000, 1.960937500000, 1490848967
0.405273437500, -0.827636718750, 0.500488281250, -3.687500000000, 3.390625000000, 1.960937500000, 1490848967
0.364257812500, -0.734863281250, 0.457519531250, -7.679687500000, 4.695312500000, 12.421875000000, 1490848967
0.364257812500, -0.734863281250, 0.457519531250, -7.679687500000, 4.695312500000, 12.421875000000, 1490848967
0.364257812500, -0.734863281250, 0.457519531250, -7.679687500000, 4.695312500000, 12.421875000000, 1490848967
0.288574218750, -0.807373046875, 0.487792968750, -6.265625000000, 0.921875000000, -0.984375000000, 1490848967
0.288574218750, -0.807373046875, 0.487792968750, -6.265625000000, 0.921875000000, -0.984375000000, 1490848967
0.288574218750, -0.807373046875, 0.487792968750, -6.265625000000, 0.921875000000, -0.984375000000, 1490848967
0.288574218750, -0.807373046875, 0.487792968750, -6.265625000000, 0.921875000000, -0.984375000000, 1490848967
0.448730468750, -0.810302734375, 0.569580078125, -4.773437500000, 2.789062500000, -7.687500000000, 1490848967
0.448730468750, -0.810302734375, 0.569580078125, -4.773437500000, 2.789062500000, -7.687500000000, 1490848967
0.448730468750, -0.810302734375, 0.569580078125, -4.773437500000, 2.789062500000, -7.687500000000, 1490848967
0.320800781250, -0.801513671875, 0.486083984375, -1.609375000000, 2.804687500000, -9.453125000000, 1490848967
0.320800781250, -0.801513671875, 0.486083984375, -1.609375000000, 2.804687500000, -9.453125000000, 1490848967
0.320800781250, -0.801513671875, 0.486083984375, -1.609375000000, 2.804687500000, -9.453125000000, 1490848967
0.403076171875, -0.833007812500, 0.533691406250, -8.671875000000, -2.117187500000, -1.812500000000, 1490848967
0.403076171875, -0.833007812500, 0.533691406250, -8.671875000000, -2.117187500000, -1.812500000000, 1490848967
0.403076171875, -0.833007812500, 0.533691406250, -8.671875000000, -2.117187500000, -1.812500000000, 1490848968
0.367431640625, -0.823486328125, 0.493164062500, -3.148437500000, -0.750000000000, -2.687500000000, 1490848968
0.367431640625, -0.823486328125, 0.493164062500, -3.148437500000, -0.750000000000, -2.687500000000, 1490848968
0.367431640625, -0.823486328125, 0.493164062500, -3.148437500000, -0.750000000000, -2.687500000000, 1490848968
0.367431640625, -0.823486328125, 0.493164062500, -3.148437500000, -0.750000000000, -2.687500000000, 1490848968
0.391601562500, -0.763183593750, 0.499267578125, -4.093750000000, 2.593750000000, -4.007812500000, 1490848968
0.391601562500, -0.763183593750, 0.499267578125, -4.093750000000, 2.593750000000, -4.007812500000, 1490848968
0.391601562500, -0.763183593750, 0.499267578125, -4.093750000000, 2.593750000000, -4.007812500000, 1490848968
0.298828125000, -0.731201171875, 0.506103515625, -2.898437500000, 2.648437500000, -6.484375000000, 1490848968
0.298828125000, -0.731201171875, 0.506103515625, -2.898437500000, 2.648437500000, -6.484375000000, 1490848968
0.298828125000, -0.731201171875, 0.506103515625, -2.898437500000, 2.648437500000, -6.484375000000, 1490848968
0.427490234375, -0.878173828125, 0.472167968750, -6.992187500000, 0.992187500000, -2.164062500000, 1490848968
0.427490234375, -0.878173828125, 0.472167968750, -6.992187500000, 0.992187500000, -2.164062500000, 1490848968
0.427490234375, -0.878173828125, 0.472167968750, -6.992187500000, 0.992187500000, -2.164062500000, 1490848968
0.451904296875, -0.793701171875, 0.586914062500, -6.968750000000, -0.617187500000, 0.539062500000, 1490848968
0.451904296875, -0.793701171875, 0.586914062500, -6.968750000000, -0.617187500000, 0.539062500000, 1490848968
0.451904296875, -0.793701171875, 0.586914062500, -6.968750000000, -0.617187500000, 0.539062500000, 1490848968
0.395263671875, -0.771972656250, 0.490478515625, -2.742187500000, -2.789062500000, -4.117187500000, 1490848968
0.395263671875, -0.771972656250, 0.490478515625, -2.742187500000, -2.789062500000, -4.117187500000, 1490848968
0.395263671875, -0.771972656250, 0.490478515625, -2.742187500000, -2.789062500000, -4.117187500000, 1490848968
0.365966796875, -0.829345703125, 0.481689453125, -4.429687500000, 1.062500000000, 1.453125000000, 1490848968
0.365966796875, -0.829345703125, 0.481689453125, -4.429687500000, 1.062500000000, 1.453125000000, 1490848968
0.365966796875, -0.829345703125, 0.481689453125, -4.429687500000, 1.062500000000, 1.453125000000, 1490848968
0.365966796875, -0.829345703125, 0.481689453125, -4.429687500000, 1.062500000000, 1.453125000000, 1490848968
0.386474609375, -0.852050781250, 0.592041015625, -3.085937500000, 7.117187500000, -2.109375000000, 1490848968
0.386474609375, -0.852050781250, 0.592041015625, -3.085937500000, 7.117187500000, -2.109375000000, 1490848968
0.386474609375, -0.852050781250, 0.592041015625, -3.085937500000, 7.117187500000, -2.109375000000, 1490848968
0.400634765625, -0.755615234375, 0.557373046875, -7.632812500000, 3.406250000000, 0.453125000000, 1490848968
0.400634765625, -0.755615234375, 0.557373046875, -7.632812500000, 3.406250000000, 0.453125000000, 1490848968
0.400634765625, -0.755615234375, 0.557373046875, -7.632812500000, 3.406250000000, 0.453125000000, 1490848968
0.400634765625, -0.755615234375, 0.557373046875, -7.632812500000, 3.406250000000, 0.453125000000, 1490848968
0.406250000000, -0.741699218750, 0.559570312500, -3.156250000000, 2.406250000000, -4.859375000000, 1490848968
0.406250000000, -0.741699218750, 0.559570312500, -3.156250000000, 2.406250000000, -4.859375000000, 1490848968
0.406250000000, -0.741699218750, 0.559570312500, -3.156250000000, 2.406250000000, -4.859375000000, 1490848968
0.300781250000, -0.737792968750, 0.574218750000, -3.085937500000, 1.546875000000, -1.984375000000, 1490848968
0.300781250000, -0.737792968750, 0.574218750000, -3.085937500000, 1.546875000000, -1.984375000000, 1490848968
0.300781250000, -0.737792968750, 0.574218750000, -3.085937500000, 1.546875000000, -1.984375000000, 1490848968
0.447509765625, -0.754638671875, 0.545654296875, -4.171875000000, 1.421875000000, -3.679687500000, 1490848968
0.447509765625, -0.754638671875, 0.545654296875, -4.171875000000, 1.421875000000, -3.679687500000, 1490848968
0.447509765625, -0.754638671875, 0.545654296875, -4.171875000000, 1.421875000000, -3.679687500000, 1490848968
0.365478515625, -0.803955078125, 0.484375000000, -2.062500000000, 1.921875000000, -4.687500000000, 1490848968
0.365478515625, -0.803955078125, 0.484375000000, -2.062500000000, 1.921875000000, -4.687500000000, 1490848968
0.365478515625, -0.803955078125, 0.484375000000, -2.062500000000, 1.921875000000, -4.687500000000, 1490848968
0.365478515625, -0.803955078125, 0.484375000000, -2.062500000000, 1.921875000000, -4.687500000000, 1490848968
0.466308593750, -0.747070312500, 0.485107421875, -6.992187500000, 0.945312500000, 0.601562500000, 1490848968
0.466308593750, -0.747070312500, 0.485107421875, -6.992187500000, 0.945312500000, 0.601562500000, 1490848968
0.466308593750, -0.747070312500, 0.485107421875, -6.992187500000, 0.945312500000, 0.601562500000, 1490848968
0.450927734375, -0.842773437500, 0.522460937500, -5.093750000000, -0.226562500000, -1.054687500000, 1490848968
0.450927734375, -0.842773437500, 0.522460937500, -5.093750000000, -0.226562500000, -1.054687500000, 1490848968
0.450927734375, -0.842773437500, 0.522460937500, -5.093750000000, -0.226562500000, -1.054687500000, 1490848968
0.350097656250, -0.736083984375, 0.646728515625, -6.328125000000, 2.554687500000, -3.523437500000, 1490848968
0.350097656250, -0.736083984375, 0.646728515625, -6.328125000000, 2.554687500000, -3.523437500000, 1490848968
0.350097656250, -0.736083984375, 0.646728515625, -6.328125000000, 2.554687500000, -3.523437500000, 1490848968
0.376220703125, -0.822021484375, 0.480224609375, -3.125000000000, 2.257812500000, -4.148437500000, 1490848968
0.306884765625, -0.741455078125, 0.480224609375, -4.125000000000, 2.687500000000, -6.570312500000, 1490848968
0.306884765625, -0.741455078125, 0.480224609375, -4.125000000000, 2.687500000000, -6.570312500000, 1490848968
0.306884765625, -0.741455078125, 0.480224609375, -4.125000000000, 2.687500000000, -6.570312500000, 1490848968
0.306884765625, -0.741455078125, 0.480224609375, -4.125000000000, 2.687500000000, -6.570312500000, 1490848968
0.306884765625, -0.741455078125, 0.480224609375, -4.125000000000, 2.687500000000, -6.570312500000, 1490848968
0.306884765625, -0.741455078125, 0.480224609375, -4.125000000000, 2.687500000000, -6.570312500000, 1490848968
0.295898437500, -0.793457031250, 0.572509765625, -3.343750000000, 2.710937500000, -6.210937500000, 1490848968
0.295898437500, -0.793457031250, 0.572509765625, -3.343750000000, 2.710937500000, -6.210937500000, 1490848968
0.295898437500, -0.793457031250, 0.572509765625, -3.343750000000, 2.710937500000, -6.210937500000, 1490848968
0.396240234375, -0.771728515625, 0.476318359375, -3.164062500000, 1.242187500000, 0.140625000000, 1490848968
0.396240234375, -0.771728515625, 0.476318359375, -3.164062500000, 1.242187500000, 0.140625000000, 1490848968
0.396240234375, -0.771728515625, 0.476318359375, -3.164062500000, 1.242187500000, 0.140625000000, 1490848968
0.300781250000, -0.814208984375, 0.588623046875, -2.015625000000, 3.679687500000, -4.882812500000, 1490848969
0.300781250000, -0.814208984375, 0.588623046875, -2.015625000000, 3.679687500000, -4.882812500000, 1490848969
0.300781250000, -0.814208984375, 0.588623046875, -2.015625000000, 3.679687500000, -4.882812500000, 1490848969
0.300781250000, -0.814208984375, 0.588623046875, -2.015625000000, 3.679687500000, -4.882812500000, 1490848969
0.281982421875, -0.891601562500, 0.531738281250, -2.210937500000, 1.484375000000, -3.695312500000, 1490848969
0.281982421875, -0.891601562500, 0.531738281250, -2.210937500000, 1.484375000000, -3.695312500000, 1490848969
0.281982421875, -0.891601562500, 0.531738281250, -2.210937500000, 1.484375000000, -3.695312500000, 1490848969
0.287597656250, -0.751464843750, 0.496337890625, -0.421875000000, 5.921875000000, -1.898437500000, 1490848969
0.287597656250, -0.751464843750, 0.496337890625, -0.421875000000, 5.921875000000, -1.898437500000, 1490848969
0.287597656250, -0.751464843750, 0.496337890625, -0.421875000000, 5.921875000000, -1.898437500000, 1490848969
0.454833984375, -0.854492187500, 0.638916015625, 0.578125000000, 5.445312500000, -4.617187500000, 1490848969
0.454833984375, -0.854492187500, 0.638916015625, 0.578125000000, 5.445312500000, -4.617187500000, 1490848969
0.454833984375, -0.854492187500, 0.638916015625, 0.578125000000, 5.445312500000, -4.617187500000, 1490848969
0.361816406250, -0.881835937500, 0.477539062500, 6.515625000000, -2.054687500000, -0.523437500000, 1490848969
0.361816406250, -0.881835937500, 0.477539062500, 6.515625000000, -2.054687500000, -0.523437500000, 1490848969
0.361816406250, -0.881835937500, 0.477539062500, 6.515625000000, -2.054687500000, -0.523437500000, 1490848969
0.342285156250, -0.779785156250, 0.572265625000, 6.625000000000, 4.171875000000, 6.500000000000, 1490848969
0.342285156250, -0.779785156250, 0.572265625000, 6.625000000000, 4.171875000000, 6.500000000000, 1490848969
0.342285156250, -0.779785156250, 0.572265625000, 6.625000000000, 4.171875000000, 6.500000000000, 1490848969
0.342285156250, -0.779785156250, 0.572265625000, 6.625000000000, 4.171875000000, 6.500000000000, 1490848969
0.304687500000, -0.847412109375, 0.580078125000, 12.234375000000, -21.523437500000, 8.851562500000, 1490848969
0.304687500000, -0.847412109375, 0.580078125000, 12.234375000000, -21.523437500000, 8.851562500000, 1490848969
0.304687500000, -0.847412109375, 0.580078125000, 12.234375000000, -21.523437500000, 8.851562500000, 1490848969
0.313720703125, -0.854980468750, 0.457031250000, 27.562500000000, -38.757812500000, -0.804687500000, 1490848969
0.313720703125, -0.854980468750, 0.457031250000, 27.562500000000, -38.757812500000, -0.804687500000, 1490848969
0.313720703125, -0.854980468750, 0.457031250000, 27.562500000000, -38.757812500000, -0.804687500000, 1490848969
0.447753906250, -0.864746093750, 0.403808593750, 66.437500000000, -80.101562500000, -13.242187500000, 1490848969
0.447753906250, -0.864746093750, 0.403808593750, 66.437500000000, -80.101562500000, -13.242187500000, 1490848969
0.447753906250, -0.864746093750, 0.403808593750, 66.437500000000, -80.101562500000, -13.242187500000, 1490848969
0.447753906250, -0.864746093750, 0.403808593750, 66.437500000000, -80.101562500000, -13.242187500000, 1490848969
0.307373046875, -1.144287109375, 0.334472656250, 80.921875000000, -77.093750000000, -10.812500000000, 1490848969
0.307373046875, -1.144287109375, 0.334472656250, 80.921875000000, -77.093750000000, -10.812500000000, 1490848969
0.307373046875, -1.144287109375, 0.334472656250, 80.921875000000, -77.093750000000, -10.812500000000, 1490848969
0.287597656250, -0.998291015625, 0.238525390625, 88.976562500000, -18.039062500000, -44.804687500000, 1490848969
0.287597656250, -0.998291015625, 0.238525390625, 88.976562500000, -18.039062500000, -44.804687500000, 1490848969
0.287597656250, -0.998291015625, 0.238525390625, 88.976562500000, -18.039062500000, -44.804687500000, 1490848969
