ACC_X,ACC_Y,ACC_Z,G_X,G_Y,G_Z,Unix Time
-0.337402343750, -1.106689453125, 0.053222656250, -74.976562500000, -23.828125000000, 13.312500000000, 1490849201
-0.337402343750, -1.106689453125, 0.053222656250, -74.976562500000, -23.828125000000, 13.312500000000, 1490849201
-0.337402343750, -1.106689453125, 0.053222656250, -74.976562500000, -23.828125000000, 13.312500000000, 1490849201
-0.337402343750, -1.106689453125, 0.053222656250, -74.976562500000, -23.828125000000, 13.312500000000, 1490849201
-0.198486328125, -1.004150390625, -0.020263671875, 7.226562500000, -33.757812500000, 26.085937500000, 1490849201
-0.198486328125, -1.004150390625, -0.020263671875, 7.226562500000, -33.757812500000, 26.085937500000, 1490849201
-0.198486328125, -1.004150390625, -0.020263671875, 7.226562500000, -33.757812500000, 26.085937500000, 1490849201
-0.211669921875, -0.987304687500, 0.100830078125, 33.789062500000, 54.328125000000, -15.414062500000, 1490849201
-0.211669921875, -0.987304687500, 0.100830078125, 33.789062500000, 54.328125000000, -15.414062500000, 1490849201
-0.211669921875, -0.987304687500, 0.100830078125, 33.789062500000, 54.328125000000, -15.414062500000, 1490849201
-0.117675781250, -1.031738281250, 0.057617187500, 42.515625000000, 61.226562500000, -26.039062500000, 1490849201
-0.117675781250, -1.031738281250, 0.057617187500, 42.515625000000, 61.226562500000, -26.039062500000, 1490849201
-0.117675781250, -1.031738281250, 0.057617187500, 42.515625000000, 61.226562500000, -26.039062500000, 1490849201
-0.115234375000, -1.020507812500, 0.135009765625, -21.843750000000, -2.257812500000, 10.539062500000, 1490849201
-0.115234375000, -1.020507812500, 0.135009765625, -21.843750000000, -2.257812500000, 10.539062500000, 1490849201
-0.115234375000, -1.020507812500, 0.135009765625, -21.843750000000, -2.257812500000, 10.539062500000, 1490849201
-0.115234375000, -1.020507812500, 0.135009765625, -21.843750000000, -2.257812500000, 10.539062500000, 1490849201
-0.121337890625, -0.923095703125, 0.020019531250, -31.070312500000, -12.046875000000, -1.195312500000, 1490849201
-0.121337890625, -0.923095703125, 0.020019531250, -31.070312500000, -12.046875000000, -1.195312500000, 1490849201
-0.121337890625, -0.923095703125, 0.020019531250, -31.070312500000, -12.046875000000, -1.195312500000, 1490849201
-0.147216796875, -1.013427734375, -0.028076171875, -3.382812500000, -9.812500000000, 4.398437500000, 1490849201
-0.148193359375, -1.075439453125, 0.048339843750, 7.390625000000, -6.554687500000, 3.640625000000, 1490849201
-0.148193359375, -1.075439453125, 0.048339843750, 7.390625000000, -6.554687500000, 3.640625000000, 1490849201
-0.050048828125, -1.007080078125, 0.086914062500, 21.914062500000, 4.554687500000, 5.257812500000, 1490849201
-0.050048828125, -1.007080078125, 0.086914062500, 21.914062500000, 4.554687500000, 5.257812500000, 1490849201
-0.050048828125, -1.007080078125, 0.086914062500, 21.914062500000, 4.554687500000, 5.257812500000, 1490849201
-0.037353515625, -0.990478515625, -0.008056640625, 13.125000000000, 0.828125000000, 11.429687500000, 1490849201
-0.037353515625, -0.990478515625, -0.008056640625, 13.125000000000, 0.828125000000, 11.429687500000, 1490849201
-0.037353515625, -0.990478515625, -0.008056640625, 13.125000000000, 0.828125000000, 11.429687500000, 1490849201
-0.037353515625, -0.990478515625, -0.008056640625, 13.125000000000, 0.828125000000, 11.429687500000, 1490849201
-0.114501953125, -1.013427734375, 0.045898437500, -9.382812500000, -8.007812500000, 2.195312500000, 1490849202
-0.114501953125, -1.013427734375, 0.045898437500, -9.382812500000, -8.007812500000, 2.195312500000, 1490849202
-0.114501953125, -1.013427734375, 0.045898437500, -9.382812500000, -8.007812500000, 2.195312500000, 1490849202
-0.114501953125, -1.013427734375, 0.045898437500, -9.382812500000, -8.007812500000, 2.195312500000, 1490849202
-0.098876953125, -1.057128906250, -0.024902343750, -3.593750000000, -0.937500000000, -5.812500000000, 1490849202
-0.098876953125, -1.057128906250, -0.024902343750, -3.593750000000, -0.937500000000, -5.812500000000, 1490849202
-0.098876953125, -1.057128906250, -0.024902343750, -3.593750000000, -0.937500000000, -5.812500000000, 1490849202
-0.098876953125, -1.057128906250, -0.024902343750, -3.593750000000, -0.937500000000, -5.812500000000, 1490849202
-0.098876953125, -1.057128906250, -0.024902343750, -3.593750000000, -0.937500000000, -5.812500000000, 1490849202
-0.154541015625, -1.083740234375, -0.008300781250, -6.140625000000, -2.265625000000, -7.515625000000, 1490849202
-0.120361328125, -1.021484375000, 0.043457031250, -10.421875000000, 1.414062500000, -9.921875000000, 1490849202
-0.120361328125, -1.021484375000, 0.043457031250, -10.421875000000, 1.414062500000, -9.921875000000, 1490849202
-0.120361328125, -1.021484375000, 0.043457031250, -10.421875000000, 1.414062500000, -9.921875000000, 1490849202
-0.120361328125, -1.021484375000, 0.043457031250, -10.421875000000, 1.414062500000, -9.921875000000, 1490849202
-0.120361328125, -1.021484375000, 0.043457031250, -10.421875000000, 1.414062500000, -9.921875000000, 1490849202
-0.203125000000, -1.021240234375, 0.045166015625, -7.984375000000, -2.820312500000, -12.664062500000, 1490849202
-0.107177734375, -0.974609375000, 0.068603515625, -7.984375000000, -2.820312500000, -12.664062500000, 1490849202
-0.107177734375, -0.974609375000, 0.068603515625, -7.984375000000, -2.820312500000, -12.664062500000, 1490849202
-0.107177734375, -0.974609375000, 0.068603515625, -7.984375000000, -2.820312500000, -12.664062500000, 1490849202
-0.114257812500, -0.924804687500, 0.087402343750, -7.070312500000, -2.859375000000, -15.453125000000, 1490849202
-0.114257812500, -0.924804687500, 0.087402343750, -7.070312500000, -2.859375000000, -15.453125000000, 1490849202
-0.114257812500, -0.924804687500, 0.087402343750, -7.070312500000, -2.859375000000, -15.453125000000, 1490849202
-0.142822265625, -1.028564453125, 0.091796875000, -11.460937500000, -8.296875000000, -7.562500000000, 1490849202
-0.142822265625, -1.028564453125, 0.091796875000, -11.460937500000, -8.296875000000, -7.562500000000, 1490849202
-0.142822265625, -1.028564453125, 0.091796875000, -11.460937500000, -8.296875000000, -7.562500000000, 1490849202
-0.142822265625, -1.028564453125, 0.091796875000, -11.460937500000, -8.296875000000, -7.562500000000, 1490849202
-0.191162109375, -0.980957031250, -0.002197265625, -9.171875000000, -9.843750000000, -10.210937500000, 1490849202
-0.191162109375, -0.980957031250, -0.002197265625, -9.171875000000, -9.843750000000, -10.210937500000, 1490849202
-0.191162109375, -0.980957031250, -0.002197265625, -9.171875000000, -9.843750000000, -10.210937500000, 1490849202
-0.149658203125, -1.011230468750, -0.015625000000, -17.710937500000, -23.468750000000, -10.343750000000, 1490849202
-0.149658203125, -1.011230468750, -0.015625000000, -17.710937500000, -23.468750000000, -10.343750000000, 1490849202
-0.149658203125, -1.011230468750, -0.015625000000, -17.710937500000, -23.468750000000, -10.343750000000, 1490849202
-0.211669921875, -0.954345703125, 0.119140625000, -14.523437500000, -34.289062500000, -38.312500000000, 1490849202
-0.211669921875, -0.954345703125, 0.119140625000, -14.523437500000, -34.289062500000, -38.312500000000, 1490849202
-0.211669921875, -0.954345703125, 0.119140625000, -14.523437500000, -34.289062500000, -38.312500000000, 1490849202
-0.194580078125, -0.940185546875, 0.041992187500, 14.078125000000, -7.851562500000, -15.828125000000, 1490849202
-0.194580078125, -0.940185546875, 0.041992187500, 14.078125000000, -7.851562500000, -15.828125000000, 1490849202
-0.194580078125, -0.940185546875, 0.041992187500, 14.078125000000, -7.851562500000, -15.828125000000, 1490849202
-0.194580078125, -0.940185546875, 0.041992187500, 14.078125000000, -7.851562500000, -15.828125000000, 1490849202
-0.208984375000, -0.844970703125, 0.129882812500, 2.367187500000, -5.679687500000, -11.210937500000, 1490849202
-0.208984375000, -0.844970703125, 0.129882812500, 2.367187500000, -5.679687500000, -11.210937500000, 1490849202
-0.208984375000, -0.844970703125, 0.129882812500, 2.367187500000, -5.679687500000, -11.210937500000, 1490849202
-0.253906250000, -0.970947265625, 0.152587890625, -20.945312500000, -12.609375000000, -9.750000000000, 1490849202
-0.253906250000, -0.970947265625, 0.152587890625, -20.945312500000, -12.609375000000, -9.750000000000, 1490849202
-0.253906250000, -0.970947265625, 0.152587890625, -20.945312500000, -12.609375000000, -9.750000000000, 1490849202
-0.180664062500, -0.993164062500, 0.083007812500, -20.765625000000, -18.945312500000, -6.914062500000, 1490849202
-0.180664062500, -0.993164062500, 0.083007812500, -20.765625000000, -18.945312500000, -6.914062500000, 1490849202
-0.180664062500, -0.993164062500, 0.083007812500, -20.765625000000, -18.945312500000, -6.914062500000, 1490849202
-0.223632812500, -1.018310546875, -0.000976562500, 3.906250000000, -13.179687500000, -3.460937500000, 1490849202
-0.223632812500, -1.018310546875, -0.000976562500, 3.906250000000, -13.179687500000, -3.460937500000, 1490849202
-0.223632812500, -1.018310546875, -0.000976562500, 3.906250000000, -13.179687500000, -3.460937500000, 1490849202
-0.223632812500, -1.018310546875, -0.000976562500, 3.906250000000, -13.179687500000, -3.460937500000, 1490849202
-0.165283203125, -1.005859375000, 0.117431640625, 15.148437500000, -12.250000000000, -9.562500000000, 1490849202
-0.165283203125, -1.005859375000, 0.117431640625, 15.148437500000, -12.250000000000, -9.562500000000, 1490849202
-0.165283203125, -1.005859375000, 0.117431640625, 15.148437500000, -12.250000000000, -9.562500000000, 1490849202
-0.166748046875, -1.033447265625, 0.052734375000, 1.890625000000, -12.765625000000, -7.906250000000, 1490849202
-0.166748046875, -1.033447265625, 0.052734375000, 1.890625000000, -12.765625000000, -7.906250000000, 1490849202
-0.166748046875, -1.033447265625, 0.052734375000, 1.890625000000, -12.765625000000, -7.906250000000, 1490849202
-0.214599609375, -1.023193359375, 0.099853515625, -6.695312500000, -10.921875000000, -9.789062500000, 1490849202
-0.214599609375, -1.023193359375, 0.099853515625, -6.695312500000, -10.921875000000, -9.789062500000, 1490849202
-0.214599609375, -1.023193359375, 0.099853515625, -6.695312500000, -10.921875000000, -9.789062500000, 1490849202
-0.197509765625, -0.933837890625, 0.147460937500, 0.585937500000, -5.132812500000, -10.875000000000, 1490849202
-0.197509765625, -0.933837890625, 0.147460937500, 0.585937500000, -5.132812500000, -10.875000000000, 1490849202
-0.197509765625, -0.933837890625, 0.147460937500, 0.585937500000, -5.132812500000, -10.875000000000, 1490849202
-0.197509765625, -0.933837890625, 0.147460937500, 0.585937500000, -5.132812500000, -10.875000000000, 1490849202
-0.268066406250, -0.938232421875, 0.055175781250, -5.710937500000, -10.195312500000, -9.601562500000, 1490849202
-0.268066406250, -0.938232421875, 0.055175781250, -5.710937500000, -10.195312500000, -9.601562500000, 1490849202
-0.268066406250, -0.938232421875, 0.055175781250, -5.710937500000, -10.195312500000, -9.601562500000, 1490849202
-0.207519531250, -1.005615234375, 0.038085937500, -5.015625000000, 2.523437500000, -12.132812500000, 1490849203
-0.207519531250, -1.005615234375, 0.038085937500, -5.015625000000, 2.523437500000, -12.132812500000, 1490849203
-0.207519531250, -1.005615234375, 0.038085937500, -5.015625000000, 2.523437500000, -12.132812500000, 1490849203
-0.239746093750, -0.895996093750, 0.085449218750, -3.179687500000, -3.406250000000, -6.828125000000, 1490849203
-0.239746093750, -0.895996093750, 0.085449218750, -3.179687500000, -3.406250000000, -6.828125000000, 1490849203
-0.239746093750, -0.895996093750, 0.085449218750, -3.179687500000, -3.406250000000, -6.828125000000, 1490849203
-0.158691406250, -0.893798828125, 0.093017578125, -7.164062500000, -0.671875000000, -3.687500000000, 1490849203
-0.158691406250, -0.893798828125, 0.093017578125, -7.164062500000, -0.671875000000, -3.687500000000, 1490849203
-0.158691406250, -0.893798828125, 0.093017578125, -7.164062500000, -0.671875000000, -3.687500000000, 1490849203
-0.158691406250, -0.893798828125, 0.093017578125, -7.164062500000, -0.671875000000, -3.687500000000, 1490849203
-0.258789062500, -0.932373046875, 0.128906250000, -7.250000000000, -15.242187500000, -0.960937500000, 1490849203
-0.258789062500, -0.932373046875, 0.128906250000, -7.250000000000, -15.242187500000, -0.960937500000, 1490849203
-0.258789062500, -0.932373046875, 0.128906250000, -7.250000000000, -15.242187500000, -0.960937500000, 1490849203
-0.241210937500, -1.021728515625, 0.059082031250, 2.664062500000, -14.523437500000, -1.460937500000, 1490849203
-0.241210937500, -1.021728515625, 0.059082031250, 2.664062500000, -14.523437500000, -1.460937500000, 1490849203
-0.241210937500, -1.021728515625, 0.059082031250, 2.664062500000, -14.523437500000, -1.460937500000, 1490849203
-0.253417968750, -0.923828125000, 0.188720703125, 4.054687500000, 30.835937500000, -13.687500000000, 1490849203
-0.253417968750, -0.923828125000, 0.188720703125, 4.054687500000, 30.835937500000, -13.687500000000, 1490849203
-0.253417968750, -0.923828125000, 0.188720703125, 4.054687500000, 30.835937500000, -13.687500000000, 1490849203
-0.290527343750, -1.037353515625, 0.192871093750, -11.390625000000, -7.031250000000, 2.492187500000, 1490849203
-0.290527343750, -1.037353515625, 0.192871093750, -11.390625000000, -7.031250000000, 2.492187500000, 1490849203
-0.290527343750, -1.037353515625, 0.192871093750, -11.390625000000, -7.031250000000, 2.492187500000, 1490849203
-0.290527343750, -1.037353515625, 0.192871093750, -11.390625000000, -7.031250000000, 2.492187500000, 1490849203
-0.326171875000, -0.869873046875, 0.067382812500, -32.429687500000, -25.578125000000, 2.812500000000, 1490849203
-0.326171875000, -0.869873046875, 0.067382812500, -32.429687500000, -25.578125000000, 2.812500000000, 1490849203
-0.326171875000, -0.869873046875, 0.067382812500, -32.429687500000, -25.578125000000, 2.812500000000, 1490849203
-0.289550781250, -0.874511718750, 0.090087890625, -0.781250000000, -33.265625000000, 10.617187500000, 1490849203
-0.289550781250, -0.874511718750, 0.090087890625, -0.781250000000, -33.265625000000, 10.617187500000, 1490849203
-0.289550781250, -0.874511718750, 0.090087890625, -0.781250000000, -33.265625000000, 10.617187500000, 1490849203
-0.320800781250, -1.010253906250, 0.138916015625, 35.296875000000, -21.148437500000, -6.843750000000, 1490849203
-0.320800781250, -1.010253906250, 0.138916015625, 35.296875000000, -21.148437500000, -6.843750000000, 1490849203
-0.320800781250, -1.010253906250, 0.138916015625, 35.296875000000, -21.148437500000, -6.843750000000, 1490849203
-0.269531250000, -0.931396484375, 0.117675781250, 31.304687500000, 30.429687500000, -26.578125000000, 1490849203
-0.269531250000, -0.931396484375, 0.117675781250, 31.304687500000, 30.429687500000, -26.578125000000, 1490849203
-0.269531250000, -0.931396484375, 0.117675781250, 31.304687500000, 30.429687500000, -26.578125000000, 1490849203
-0.269531250000, -0.931396484375, 0.117675781250, 31.304687500000, 30.429687500000, -26.578125000000, 1490849203
-0.278076171875, -0.851074218750, 0.182617187500, 24.289062500000, -30.906250000000, -5.601562500000, 1490849203
-0.278076171875, -0.851074218750, 0.182617187500, 24.289062500000, -30.906250000000, -5.601562500000, 1490849203
-0.230468750000, -0.942626953125, 0.076171875000, -25.914062500000, -38.218750000000, 2.992187500000, 1490849203
-0.230468750000, -0.942626953125, 0.076171875000, -25.914062500000, -38.218750000000, 2.992187500000, 1490849203
-0.230468750000, -0.942626953125, 0.076171875000, -25.914062500000, -38.218750000000, 2.992187500000, 1490849203
-0.230468750000, -0.942626953125, 0.076171875000, -25.914062500000, -38.218750000000, 2.992187500000, 1490849203
-0.246093750000, -0.937011718750, 0.087402343750, -16.546875000000, -17.250000000000, -4.015625000000, 1490849203
-0.246093750000, -0.937011718750, 0.087402343750, -16.546875000000, -17.250000000000, -4.015625000000, 1490849203
-0.246093750000, -0.937011718750, 0.087402343750, -16.546875000000, -17.250000000000, -4.015625000000, 1490849203
-0.333251953125, -0.984375000000, 0.143798828125, 22.898437500000, -32.335937500000, -3.031250000000, 1490849203
-0.333251953125, -0.984375000000, 0.143798828125, 22.898437500000, -32.335937500000, -3.031250000000, 1490849203
-0.333251953125, -0.984375000000, 0.143798828125, 22.898437500000, -32.335937500000, -3.031250000000, 1490849203
-0.333251953125, -0.984375000000, 0.143798828125, 22.898437500000, -32.335937500000, -3.031250000000, 1490849203
-0.293945312500, -1.028320312500, 0.155517578125, 26.195312500000, -15.062500000000, -9.726562500000, 1490849203
-0.293945312500, -1.028320312500, 0.155517578125, 26.195312500000, -15.062500000000, -9.726562500000, 1490849203
-0.293945312500, -1.028320312500, 0.155517578125, 26.195312500000, -15.062500000000, -9.726562500000, 1490849203
-0.230224609375, -1.021728515625, 0.058105468750, 5.875000000000, -5.765625000000, -19.179687500000, 1490849203
-0.230224609375, -1.021728515625, 0.058105468750, 5.875000000000, -5.765625000000, -19.179687500000, 1490849203
-0.230224609375, -1.021728515625, 0.058105468750, 5.875000000000, -5.765625000000, -19.179687500000, 1490849203
-0.309814453125, -0.875000000000, 0.116943359375, -7.101562500000, -26.328125000000, -16.601562500000, 1490849203
-0.309814453125, -0.875000000000, 0.116943359375, -7.101562500000, -26.328125000000, -16.601562500000, 1490849203
-0.309814453125, -0.875000000000, 0.116943359375, -7.101562500000, -26.328125000000, -16.601562500000, 1490849203
-0.252685546875, -0.949218750000, -0.001953125000, -8.851562500000, -13.664062500000, -10.023437500000, 1490849203
-0.252685546875, -0.949218750000, -0.001953125000, -8.851562500000, -13.664062500000, -10.023437500000, 1490849203
-0.252685546875, -0.949218750000, -0.001953125000, -8.851562500000, -13.664062500000, -10.023437500000, 1490849203
-0.252685546875, -0.949218750000, -0.001953125000, -8.851562500000, -13.664062500000, -10.023437500000, 1490849203
-0.389160156250, -0.852783203125, 0.105224609375, -1.687500000000, -14.328125000000, -5.531250000000, 1490849203
-0.248291015625, -0.866210937500, 0.081298828125, 7.406250000000, -4.453125000000, -4.992187500000, 1490849203
-0.248291015625, -0.866210937500, 0.081298828125, 7.406250000000, -4.453125000000, -4.992187500000, 1490849204
-0.248291015625, -0.866210937500, 0.081298828125, 7.406250000000, -4.453125000000, -4.992187500000, 1490849204
-0.248291015625, -0.866210937500, 0.081298828125, 7.406250000000, -4.453125000000, -4.992187500000, 1490849204
-0.248291015625, -0.866210937500, 0.081298828125, 7.406250000000, -4.453125000000, -4.992187500000, 1490849204
-0.225830078125, -0.932861328125, 0.047607421875, -0.851562500000, -2.554687500000, -3.742187500000, 1490849204
-0.225830078125, -0.932861328125, 0.047607421875, -0.851562500000, -2.554687500000, -3.742187500000, 1490849204
-0.225830078125, -0.932861328125, 0.047607421875, -0.851562500000, -2.554687500000, -3.742187500000, 1490849204
-0.259277343750, -0.932617187500, -0.024658203125, -4.351562500000, -7.507812500000, 3.546875000000, 1490849204
-0.259277343750, -0.932617187500, -0.024658203125, -4.351562500000, -7.507812500000, 3.546875000000, 1490849204
-0.259277343750, -0.932617187500, -0.024658203125, -4.351562500000, -7.507812500000, 3.546875000000, 1490849204
-0.259277343750, -0.932617187500, -0.024658203125, -4.351562500000, -7.507812500000, 3.546875000000, 1490849204
-0.285888671875, -1.020019531250, 0.085449218750, 0.679687500000, -7.195312500000, -1.429687500000, 1490849204
-0.285888671875, -1.020019531250, 0.085449218750, 0.679687500000, -7.195312500000, -1.429687500000, 1490849204
-0.285888671875, -1.020019531250, 0.085449218750, 0.679687500000, -7.195312500000, -1.429687500000, 1490849204
-0.342041015625, -1.005859375000, 0.078857421875, 9.085937500000, 1.671875000000, 0.000000000000, 1490849204
-0.342041015625, -1.005859375000, 0.078857421875, 9.085937500000, 1.671875000000, 0.000000000000, 1490849204
-0.342041015625, -1.005859375000, 0.078857421875, 9.085937500000, 1.671875000000, 0.000000000000, 1490849204
-0.246337890625, -1.005859375000, 0.019775390625, 6.648437500000, 4.460937500000, -5.328125000000, 1490849204
-0.246337890625, -1.005859375000, 0.019775390625, 6.648437500000, 4.460937500000, -5.328125000000, 1490849204
-0.246337890625, -1.005859375000, 0.019775390625, 6.648437500000, 4.460937500000, -5.328125000000, 1490849204
-0.386718750000, -0.953125000000, 0.087646484375, -1.773437500000, -4.148437500000, 0.453125000000, 1490849204
-0.386718750000, -0.953125000000, 0.087646484375, -1.773437500000, -4.148437500000, 0.453125000000, 1490849204
-0.386718750000, -0.953125000000, 0.087646484375, -1.773437500000, -4.148437500000, 0.453125000000, 1490849204
-0.386718750000, -0.953125000000, 0.087646484375, -1.773437500000, -4.148437500000, 0.453125000000, 1490849204
-0.240722656250, -0.843994140625, 0.093017578125, 18.882812500000, 0.031250000000, 4.765625000000, 1490849204
-0.240722656250, -0.843994140625, 0.093017578125, 18.882812500000, 0.031250000000, 4.765625000000, 1490849204
-0.240722656250, -0.843994140625, 0.093017578125, 18.882812500000, 0.031250000000, 4.765625000000, 1490849204
-0.240722656250, -0.843994140625, 0.093017578125, 18.882812500000, 0.031250000000, 4.765625000000, 1490849204
-0.319824218750, -0.925537109375, 0.077636718750, 14.945312500000, -4.765625000000, 1.789062500000, 1490849204
-0.319824218750, -0.925537109375, 0.077636718750, 14.945312500000, -4.765625000000, 1.789062500000, 1490849204
-0.319824218750, -0.925537109375, 0.077636718750, 14.945312500000, -4.765625000000, 1.789062500000, 1490849204
-0.275390625000, -0.962402343750, -0.012451171875, 18.281250000000, -14.968750000000, 6.687500000000, 1490849204
-0.275390625000, -0.962402343750, -0.012451171875, 18.281250000000, -14.968750000000, 6.687500000000, 1490849204
-0.275390625000, -0.962402343750, -0.012451171875, 18.281250000000, -14.968750000000, 6.687500000000, 1490849204
-0.275390625000, -0.962402343750, -0.012451171875, 18.281250000000, -14.968750000000, 6.687500000000, 1490849204
-0.275390625000, -0.962402343750, -0.012451171875, 18.281250000000, -14.968750000000, 6.687500000000, 1490849204
-0.320068359375, -0.906494140625, -0.047363281250, 12.804687500000, -0.125000000000, 7.750000000000, 1490849204
-0.320068359375, -0.906494140625, -0.047363281250, 12.804687500000, -0.125000000000, 7.750000000000, 1490849204
-0.320068359375, -0.906494140625, -0.047363281250, 12.804687500000, -0.125000000000, 7.750000000000, 1490849204
-0.320068359375, -0.906494140625, -0.047363281250, 12.804687500000, -0.125000000000, 7.750000000000, 1490849204
-0.279785156250, -1.068603515625, -0.036132812500, 1.656250000000, 4.562500000000, 14.664062500000, 1490849204
-0.279785156250, -1.068603515625, -0.036132812500, 1.656250000000, 4.562500000000, 14.664062500000, 1490849204
-0.279785156250, -1.068603515625, -0.036132812500, 1.656250000000, 4.562500000000, 14.664062500000, 1490849204
-0.290039062500, -1.009033203125, -0.147460937500, 13.289062500000, -13.554687500000, 19.593750000000, 1490849204
-0.290039062500, -1.009033203125, -0.147460937500, 13.289062500000, -13.554687500000, 19.593750000000, 1490849204
-0.290039062500, -1.009033203125, -0.147460937500, 13.289062500000, -13.554687500000, 19.593750000000, 1490849204
-0.289550781250, -1.073242187500, -0.048583984375, 13.781250000000, -50.156250000000, 22.820312500000, 1490849204
-0.289550781250, -1.073242187500, -0.048583984375, 13.781250000000, -50.156250000000, 22.820312500000, 1490849204
-0.289550781250, -1.073242187500, -0.048583984375, 13.781250000000, -50.156250000000, 22.820312500000, 1490849204
-0.289550781250, -1.073242187500, -0.048583984375, 13.781250000000, -50.156250000000, 22.820312500000, 1490849204
-0.267578125000, -1.001464843750, -0.136718750000, 8.492187500000, -22.742187500000, 8.414062500000, 1490849204
-0.267578125000, -1.001464843750, -0.136718750000, 8.492187500000, -22.742187500000, 8.414062500000, 1490849204
-0.267578125000, -1.001464843750, -0.136718750000, 8.492187500000, -22.742187500000, 8.414062500000, 1490849204
-0.160156250000, -0.935058593750, -0.099853515625, -7.875000000000, 15.320312500000, -14.281250000000, 1490849204
-0.160156250000, -0.935058593750, -0.099853515625, -7.875000000000, 15.320312500000, -14.281250000000, 1490849204
-0.160156250000, -0.935058593750, -0.099853515625, -7.875000000000, 15.320312500000, -14.281250000000, 1490849204
-0.257324218750, -0.997070312500, -0.136474609375, -9.460937500000, 60.429687500000, -25.218750000000, 1490849204
-0.257324218750, -0.997070312500, -0.136474609375, -9.460937500000, 60.429687500000, -25.218750000000, 1490849204
-0.257324218750, -0.997070312500, -0.136474609375, -9.460937500000, 60.429687500000, -25.218750000000, 1490849204
-0.041503906250, -1.000976562500, -0.149902343750, 11.320312500000, 19.164062500000, -1.273437500000, 1490849204
-0.041503906250, -1.000976562500, -0.149902343750, 11.320312500000, 19.164062500000, -1.273437500000, 1490849204
-0.041503906250, -1.000976562500, -0.149902343750, 11.320312500000, 19.164062500000, -1.273437500000, 1490849204
-0.041503906250, -1.000976562500, -0.149902343750, 11.320312500000, 19.164062500000, -1.273437500000, 1490849204
-0.143310546875, -0.931640625000, -0.053710937500, 13.796875000000, -17.085937500000, 9.195312500000, 1490849204
-0.143310546875, -0.931640625000, -0.053710937500, 13.796875000000, -17.085937500000, 9.195312500000, 1490849204
-0.143310546875, -0.931640625000, -0.053710937500, 13.796875000000, -17.085937500000, 9.195312500000, 1490849204
-0.222900390625, -1.079345703125, -0.132568359375, 14.773437500000, -46.976562500000, 15.703125000000, 1490849204
-0.222900390625, -1.079345703125, -0.132568359375, 14.773437500000, -46.976562500000, 15.703125000000, 1490849204
-0.222900390625, -1.079345703125, -0.132568359375, 14.773437500000, -46.976562500000, 15.703125000000, 1490849204
-0.253906250000, -0.907714843750, 0.020996093750, -2.921875000000, -32.914062500000, 9.554687500000, 1490849205
-0.253906250000, -0.907714843750, 0.020996093750, -2.921875000000, -32.914062500000, 9.554687500000, 1490849205
-0.188720703125, -0.933593750000, -0.123535156250, -6.312500000000, -40.218750000000, 5.757812500000, 1490849205
-0.188720703125, -0.933593750000, -0.123535156250, -6.312500000000, -40.218750000000, 5.757812500000, 1490849205
-0.188720703125, -0.933593750000, -0.123535156250, -6.312500000000, -40.218750000000, 5.757812500000, 1490849205
-0.188720703125, -0.933593750000, -0.123535156250, -6.312500000000, -40.218750000000, 5.757812500000, 1490849205
-0.188720703125, -0.933593750000, -0.123535156250, -6.312500000000, -40.218750000000, 5.757812500000, 1490849205
-0.238525390625, -0.928222656250, -0.097167968750, 20.757812500000, -29.617187500000, -1.968750000000, 1490849205
-0.238525390625, -0.928222656250, -0.097167968750, 20.757812500000, -29.617187500000, -1.968750000000, 1490849205
-0.238525390625, -0.928222656250, -0.097167968750, 20.757812500000, -29.617187500000, -1.968750000000, 1490849205
-0.204833984375, -1.017333984375, -0.135009765625, 7.265625000000, -33.835937500000, -7.531250000000, 1490849205
-0.204833984375, -1.017333984375, -0.135009765625, 7.265625000000, -33.835937500000, -7.531250000000, 1490849205
-0.204833984375, -1.017333984375, -0.135009765625, 7.265625000000, -33.835937500000, -7.531250000000, 1490849205
-0.251464843750, -1.010986328125, -0.128173828125, 3.976562500000, -17.992187500000, -13.437500000000, 1490849205
-0.251464843750, -1.010986328125, -0.128173828125, 3.976562500000, -17.992187500000, -13.437500000000, 1490849205
-0.375244140625, -0.981201171875, -0.075683593750, 5.398437500000, -3.820312500000, -15.007812500000, 1490849205
-0.375244140625, -0.981201171875, -0.075683593750, 5.398437500000, -3.820312500000, -15.007812500000, 1490849205
-0.375244140625, -0.981201171875, -0.075683593750, 5.398437500000, -3.820312500000, -15.007812500000, 1490849205
-0.375244140625, -0.981201171875, -0.075683593750, 5.398437500000, -3.820312500000, -15.007812500000, 1490849205
-0.375244140625, -0.981201171875, -0.075683593750, 5.398437500000, -3.820312500000, -15.007812500000, 1490849205
-0.051025390625, -0.927490234375, -0.050781250000, 6.539062500000, 42.828125000000, -31.867187500000, 1490849205
-0.051025390625, -0.927490234375, -0.050781250000, 6.539062500000, 42.828125000000, -31.867187500000, 1490849205
-0.051025390625, -0.927490234375, -0.050781250000, 6.539062500000, 42.828125000000, -31.867187500000, 1490849205
-0.231201171875, -1.025878906250, 0.013183593750, 4.179687500000, 103.351562500000, -48.960937500000, 1490849205
-0.231201171875, -1.025878906250, 0.013183593750, 4.179687500000, 103.351562500000, -48.960937500000, 1490849205
-0.231201171875, -1.025878906250, 0.013183593750, 4.179687500000, 103.351562500000, -48.960937500000, 1490849205
-0.230712890625, -0.954101562500, -0.062500000000, -13.265625000000, 85.679687500000, -37.234375000000, 1490849205
-0.230712890625, -0.954101562500, -0.062500000000, -13.265625000000, 85.679687500000, -37.234375000000, 1490849205
-0.289794921875, -0.987548828125, -0.054687500000, -38.132812500000, -57.679687500000, 26.023437500000, 1490849205
-0.289794921875, -0.987548828125, -0.054687500000, -38.132812500000, -57.679687500000, 26.023437500000, 1490849205
-0.289794921875, -0.987548828125, -0.054687500000, -38.132812500000, -57.679687500000, 26.023437500000, 1490849205
-0.289794921875, -0.987548828125, -0.054687500000, -38.132812500000, -57.679687500000, 26.023437500000, 1490849205
-0.289794921875, -0.987548828125, -0.054687500000, -38.132812500000, -57.679687500000, 26.023437500000, 1490849205
-0.241943359375, -0.898925781250, -0.041259765625, -2.000000000000, -122.492187500000, 48.500000000000, 1490849205
-0.241943359375, -0.898925781250, -0.041259765625, -2.000000000000, -122.492187500000, 48.500000000000, 1490849205
-0.241943359375, -0.898925781250, -0.041259765625, -2.000000000000, -122.492187500000, 48.500000000000, 1490849205
-0.325439453125, -0.901855468750, 0.014160156250, 0.492187500000, -116.445312500000, 31.109375000000, 1490849205
-0.325439453125, -0.901855468750, 0.014160156250, 0.492187500000, -116.445312500000, 31.109375000000, 1490849205
-0.325439453125, -0.901855468750, 0.014160156250, 0.492187500000, -116.445312500000, 31.109375000000, 1490849205
-0.172119140625, -0.817871093750, -0.019531250000, -7.937500000000, 50.882812500000, -28.804687500000, 1490849205
-0.172119140625, -0.817871093750, -0.019531250000, -7.937500000000, 50.882812500000, -28.804687500000, 1490849205
-0.172119140625, -0.817871093750, -0.019531250000, -7.937500000000, 50.882812500000, -28.804687500000, 1490849205
-0.172119140625, -0.817871093750, -0.019531250000, -7.937500000000, 50.882812500000, -28.804687500000, 1490849205
-0.179931640625, -0.597167968750, -0.006835937500, 10.132812500000, 85.929687500000, -33.132812500000, 1490849205
-0.227294921875, -0.666992187500, 0.056152343750, 12.445312500000, 94.812500000000, -40.828125000000, 1490849205
-0.227294921875, -0.666992187500, 0.056152343750, 12.445312500000, 94.812500000000, -40.828125000000, 1490849205
-0.227294921875, -0.666992187500, 0.056152343750, 12.445312500000, 94.812500000000, -40.828125000000, 1490849205
-0.227294921875, -0.666992187500, 0.056152343750, 12.445312500000, 94.812500000000, -40.828125000000, 1490849205
-0.227294921875, -0.666992187500, 0.056152343750, 12.445312500000, 94.812500000000, -40.828125000000, 1490849205
-0.289062500000, -0.764404296875, 0.105957031250, 20.335937500000, 92.164062500000, -46.320312500000, 1490849205
-0.289062500000, -0.764404296875, 0.105957031250, 20.335937500000, 92.164062500000, -46.320312500000, 1490849205
-0.289062500000, -0.764404296875, 0.105957031250, 20.335937500000, 92.164062500000, -46.320312500000, 1490849205
-0.268554687500, -0.709472656250, 0.218017578125, 12.046875000000, 98.335937500000, -62.460937500000, 1490849205
-0.268554687500, -0.709472656250, 0.218017578125, 12.046875000000, 98.335937500000, -62.460937500000, 1490849205
-0.268554687500, -0.709472656250, 0.218017578125, 12.046875000000, 98.335937500000, -62.460937500000, 1490849205
-0.243896484375, -0.524414062500, 0.133056640625, -55.640625000000, 7.953125000000, -27.273437500000, 1490849205
-0.243896484375, -0.524414062500, 0.133056640625, -55.640625000000, 7.953125000000, -27.273437500000, 1490849205
-0.243896484375, -0.524414062500, 0.133056640625, -55.640625000000, 7.953125000000, -27.273437500000, 1490849205
-0.243896484375, -0.524414062500, 0.133056640625, -55.640625000000, 7.953125000000, -27.273437500000, 1490849205
-0.182617187500, -0.352294921875, 0.218505859375, -66.359375000000, -65.601562500000, 4.546875000000, 1490849205
-0.182617187500, -0.352294921875, 0.218505859375, -66.359375000000, -65.601562500000, 4.546875000000, 1490849205
-0.182617187500, -0.352294921875, 0.218505859375, -66.359375000000, -65.601562500000, 4.546875000000, 1490849205
-0.163818359375, -0.360839843750, 0.112792968750, -19.664062500000, -39.703125000000, 29.218750000000, 1490849205
-0.163818359375, -0.360839843750, 0.112792968750, -19.664062500000, -39.703125000000, 29.218750000000, 1490849205
-0.163818359375, -0.360839843750, 0.112792968750, -19.664062500000, -39.703125000000, 29.218750000000, 1490849205
-0.094970703125, -0.180419921875, 0.202880859375, -9.187500000000, 2.296875000000, 36.531250000000, 1490849205
-0.094970703125, -0.180419921875, 0.202880859375, -9.187500000000, 2.296875000000, 36.531250000000, 1490849205
-0.094970703125, -0.180419921875, 0.202880859375, -9.187500000000, 2.296875000000, 36.531250000000, 1490849206
-0.295654296875, -0.461425781250, 0.008300781250, -89.304687500000, -77.585937500000, 29.804687500000, 1490849206
-0.295654296875, -0.461425781250, 0.008300781250, -89.304687500000, -77.585937500000, 29.804687500000, 1490849206
-0.295654296875, -0.461425781250, 0.008300781250, -89.304687500000, -77.585937500000, 29.804687500000, 1490849206
-0.295654296875, -0.461425781250, 0.008300781250, -89.304687500000, -77.585937500000, 29.804687500000, 1490849206
-1.008544921875, -2.181152343750, -0.224365234375, -256.000000000000, -179.640625000000, 26.210937500000, 1490849206
-1.008544921875, -2.181152343750, -0.224365234375, -256.000000000000, -179.640625000000, 26.210937500000, 1490849206
-1.008544921875, -2.181152343750, -0.224365234375, -256.000000000000, -179.640625000000, 26.210937500000, 1490849206
-0.758544921875, -2.384521484375, 0.321777343750, -74.375000000000, 216.695312500000, -19.562500000000, 1490849206
-0.758544921875, -2.384521484375, 0.321777343750, -74.375000000000, 216.695312500000, -19.562500000000, 1490849206
-0.758544921875, -2.384521484375, 0.321777343750, -74.375000000000, 216.695312500000, -19.562500000000, 1490849206
-0.457763671875, -1.249023437500, -0.315429687500, 181.953125000000, 88.960937500000, -24.671875000000, 1490849206
-0.457763671875, -1.249023437500, -0.315429687500, 181.953125000000, 88.960937500000, -24.671875000000, 1490849206
-0.457763671875, -1.249023437500, -0.315429687500, 181.953125000000, 88.960937500000, -24.671875000000, 1490849206
-0.206298828125, -0.646240234375, -0.079833984375, 174.632812500000, -256.000000000000, 41.554687500000, 1490849206
-0.206298828125, -0.646240234375, -0.079833984375, 174.632812500000, -256.000000000000, 41.554687500000, 1490849206
-0.206298828125, -0.646240234375, -0.079833984375, 174.632812500000, -256.000000000000, 41.554687500000, 1490849206
-0.206298828125, -0.646240234375, -0.079833984375, 174.632812500000, -256.000000000000, 41.554687500000, 1490849206
-0.093017578125, -0.445800781250, 0.032714843750, 145.273437500000, -148.648437500000, 160.000000000000, 1490849206
-0.093017578125, -0.445800781250, 0.032714843750, 145.273437500000, -148.648437500000, 160.000000000000, 1490849206
-0.093017578125, -0.445800781250, 0.032714843750, 145.273437500000, -148.648437500000, 160.000000000000, 1490849206
-0.102783203125, -0.836425781250, -0.027587890625, 53.007812500000, -41.515625000000, 165.640625000000, 1490849206
-0.102783203125, -0.836425781250, -0.027587890625, 53.007812500000, -41.515625000000, 165.640625000000, 1490849206
-0.102783203125, -0.836425781250, -0.027587890625, 53.007812500000, -41.515625000000, 165.640625000000, 1490849206
-0.126953125000, -0.758056640625, -0.067871093750, 9.546875000000, -30.460937500000, 153.875000000000, 1490849206
-0.182128906250, -1.246826171875, 0.026123046875, -73.476562500000, 253.992187500000, 47.437500000000, 1490849206
-0.138916015625, -1.003417968750, 0.063476562500, -40.859375000000, 253.992187500000, 56.625000000000, 1490849206
-0.138916015625, -1.003417968750, 0.063476562500, -40.859375000000, 253.992187500000, 56.625000000000, 1490849206
-0.138916015625, -1.003417968750, 0.063476562500, -40.859375000000, 253.992187500000, 56.625000000000, 1490849206
7.810546875000, -7.691406250000, -0.082519531250, -198.875000000000, 252.828125000000, 253.992187500000, 1490849206
7.810546875000, -7.691406250000, -0.082519531250, -198.875000000000, 252.828125000000, 253.992187500000, 1490849206
7.810546875000, -7.691406250000, -0.082519531250, -198.875000000000, 252.828125000000, 253.992187500000, 1490849206
7.810546875000, -7.691406250000, -0.082519531250, -198.875000000000, 252.828125000000, 253.992187500000, 1490849206
7.810546875000, -7.691406250000, -0.082519531250, -198.875000000000, 252.828125000000, 253.992187500000, 1490849206
0.214843750000, -0.074707031250, -0.108642578125, 132.250000000000, -58.968750000000, 253.992187500000, 1490849206
0.214843750000, -0.074707031250, -0.108642578125, 132.250000000000, -58.968750000000, 253.992187500000, 1490849206
0.214843750000, -0.074707031250, -0.108642578125, 132.250000000000, -58.968750000000, 253.992187500000, 1490849206
0.401855468750, -0.506103515625, -0.410156250000, 32.007812500000, -256.000000000000, 253.992187500000, 1490849206
0.401855468750, -0.506103515625, -0.410156250000, 32.007812500000, -256.000000000000, 253.992187500000, 1490849206
0.401855468750, -0.506103515625, -0.410156250000, 32.007812500000, -256.000000000000, 253.992187500000, 1490849206
2.775146484375, 0.110107421875, -1.148193359375, 98.671875000000, -256.000000000000, 253.992187500000, 1490849206
2.775146484375, 0.110107421875, -1.148193359375, 98.671875000000, -256.000000000000, 253.992187500000, 1490849206
2.775146484375, 0.110107421875, -1.148193359375, 98.671875000000, -256.000000000000, 253.992187500000, 1490849206
2.775146484375, 0.110107421875, -1.148193359375, 98.671875000000, -256.000000000000, 253.992187500000, 1490849206
0.275146484375, 0.174804687500, 0.048095703125, 6.273437500000, -256.000000000000, 38.953125000000, 1490849206
0.275146484375, 0.174804687500, 0.048095703125, 6.273437500000, -256.000000000000, 38.953125000000, 1490849206
0.275146484375, 0.174804687500, 0.048095703125, 6.273437500000, -256.000000000000, 38.953125000000, 1490849206
0.681884765625, 1.051269531250, -0.542968750000, -256.000000000000, -256.000000000000, 174.750000000000, 1490849206
0.681884765625, 1.051269531250, -0.542968750000, -256.000000000000, -256.000000000000, 174.750000000000, 1490849206
0.681884765625, 1.051269531250, -0.542968750000, -256.000000000000, -256.000000000000, 174.750000000000, 1490849206
0.113525390625, 0.477294921875, -1.322753906250, 104.242187500000, 126.718750000000, -9.460937500000, 1490849206
0.113525390625, 0.477294921875, -1.322753906250, 104.242187500000, 126.718750000000, -9.460937500000, 1490849206
0.186035156250, 0.400634765625, -0.974121093750, 14.156250000000, -149.523437500000, 63.632812500000, 1490849206
0.186035156250, 0.400634765625, -0.974121093750, 14.156250000000, -149.523437500000, 63.632812500000, 1490849206
0.186035156250, 0.400634765625, -0.974121093750, 14.156250000000, -149.523437500000, 63.632812500000, 1490849206
0.186035156250, 0.400634765625, -0.974121093750, 14.156250000000, -149.523437500000, 63.632812500000, 1490849206
0.018066406250, 0.312011718750, -1.148925781250, 30.062500000000, -43.492187500000, 28.117187500000, 1490849206
-0.182373046875, 0.257324218750, -0.965820312500, 2.773437500000, 37.929687500000, 3.750000000000, 1490849206
-0.182373046875, 0.257324218750, -0.965820312500, 2.773437500000, 37.929687500000, 3.750000000000, 1490849206
-0.182373046875, 0.257324218750, -0.965820312500, 2.773437500000, 37.929687500000, 3.750000000000, 1490849206
0.202636718750, 0.257568359375, -0.991455078125, 4.937500000000, -11.695312500000, -28.960937500000, 1490849206
0.202636718750, 0.257568359375, -0.991455078125, 4.937500000000, -11.695312500000, -28.960937500000, 1490849206
0.202636718750, 0.257568359375, -0.991455078125, 4.937500000000, -11.695312500000, -28.960937500000, 1490849206
0.106933593750, 0.253906250000, -0.919433593750, 20.664062500000, -2.054687500000, -31.859375000000, 1490849206
0.106933593750, 0.253906250000, -0.919433593750, 20.664062500000, -2.054687500000, -31.859375000000, 1490849206
-0.090576171875, -0.022460937500, -1.720214843750, 21.976562500000, -5.375000000000, -8.382812500000, 1490849207
-0.090576171875, -0.022460937500, -1.720214843750, 21.976562500000, -5.375000000000, -8.382812500000, 1490849207
-0.090576171875, -0.022460937500, -1.720214843750, 21.976562500000, -5.375000000000, -8.382812500000, 1490849207
-0.090576171875, -0.022460937500, -1.720214843750, 21.976562500000, -5.375000000000, -8.382812500000, 1490849207
0.067138671875, 0.257080078125, -1.027587890625, 85.843750000000, 52.101562500000, -27.492187500000, 1490849207
0.156494140625, 0.112792968750, -0.854248046875, -9.070312500000, 9.328125000000, -36.078125000000, 1490849207
0.156494140625, 0.112792968750, -0.854248046875, -9.070312500000, 9.328125000000, -36.078125000000, 1490849207
0.156494140625, 0.112792968750, -0.854248046875, -9.070312500000, 9.328125000000, -36.078125000000, 1490849207
0.054199218750, 0.000976562500, -0.909667968750, -48.789062500000, -11.523437500000, -10.710937500000, 1490849207
0.054199218750, 0.000976562500, -0.909667968750, -48.789062500000, -11.523437500000, -10.710937500000, 1490849207
0.054199218750, 0.000976562500, -0.909667968750, -48.789062500000, -11.523437500000, -10.710937500000, 1490849207
0.032714843750, 0.257080078125, -1.155273437500, 28.101562500000, -0.046875000000, 14.429687500000, 1490849207
0.032714843750, 0.257080078125, -1.155273437500, 28.101562500000, -0.046875000000, 14.429687500000, 1490849207
0.108398437500, 0.187255859375, -0.909667968750, 38.210937500000, -15.195312500000, -14.984375000000, 1490849207
0.108398437500, 0.187255859375, -0.909667968750, 38.210937500000, -15.195312500000, -14.984375000000, 1490849207
0.108398437500, 0.187255859375, -0.909667968750, 38.210937500000, -15.195312500000, -14.984375000000, 1490849207
0.108398437500, 0.187255859375, -0.909667968750, 38.210937500000, -15.195312500000, -14.984375000000, 1490849207
0.108398437500, 0.187255859375, -0.909667968750, 38.210937500000, -15.195312500000, -14.984375000000, 1490849207
0.329833984375, 0.148193359375, -0.996582031250, 1.257812500000, 3.242187500000, -2.726562500000, 1490849207
0.329833984375, 0.148193359375, -0.996582031250, 1.257812500000, 3.242187500000, -2.726562500000, 1490849207
0.329833984375, 0.148193359375, -0.996582031250, 1.257812500000, 3.242187500000, -2.726562500000, 1490849207
0.164794921875, 0.175048828125, -0.983642578125, -3.335937500000, 7.093750000000, -0.812500000000, 1490849207
0.164794921875, 0.175048828125, -0.983642578125, -3.335937500000, 7.093750000000, -0.812500000000, 1490849207
0.164794921875, 0.175048828125, -0.983642578125, -3.335937500000, 7.093750000000, -0.812500000000, 1490849207
0.157226562500, 0.041503906250, -0.786132812500, -35.343750000000, 2.335937500000, 18.312500000000, 1490849207
0.103515625000, 0.032470703125, -1.027832031250, -12.195312500000, 2.273437500000, 1.585937500000, 1490849207
0.103515625000, 0.032470703125, -1.027832031250, -12.195312500000, 2.273437500000, 1.585937500000, 1490849207
0.103515625000, 0.032470703125, -1.027832031250, -12.195312500000, 2.273437500000, 1.585937500000, 1490849207
0.052978515625, -0.014648437500, -0.913330078125, -4.710937500000, 1.796875000000, -4.585937500000, 1490849207
0.052978515625, -0.014648437500, -0.913330078125, -4.710937500000, 1.796875000000, -4.585937500000, 1490849207
0.052978515625, -0.014648437500, -0.913330078125, -4.710937500000, 1.796875000000, -4.585937500000, 1490849207
0.052978515625, -0.014648437500, -0.913330078125, -4.710937500000, 1.796875000000, -4.585937500000, 1490849207
0.052978515625, -0.014648437500, -0.913330078125, -4.710937500000, 1.796875000000, -4.585937500000, 1490849207
0.100830078125, 0.145263671875, -1.013183593750, 8.812500000000, 1.351562500000, 0.734375000000, 1490849207
0.100830078125, 0.145263671875, -1.013183593750, 8.812500000000, 1.351562500000, 0.734375000000, 1490849207
0.100830078125, 0.145263671875, -1.013183593750, 8.812500000000, 1.351562500000, 0.734375000000, 1490849207
0.100830078125, 0.145263671875, -1.013183593750, 8.812500000000, 1.351562500000, 0.734375000000, 1490849207
0.193847656250, 0.205810546875, -1.073730468750, 3.585937500000, -6.820312500000, -4.062500000000, 1490849207
0.193847656250, 0.205810546875, -1.073730468750, 3.585937500000, -6.820312500000, -4.062500000000, 1490849207
0.193847656250, 0.205810546875, -1.073730468750, 3.585937500000, -6.820312500000, -4.062500000000, 1490849207
0.253173828125, 0.108642578125, -0.955322265625, -4.882812500000, -1.093750000000, -6.781250000000, 1490849207
0.253173828125, 0.108642578125, -0.955322265625, -4.882812500000, -1.093750000000, -6.781250000000, 1490849207
0.253173828125, 0.108642578125, -0.955322265625, -4.882812500000, -1.093750000000, -6.781250000000, 1490849207
0.253173828125, 0.108642578125, -0.955322265625, -4.882812500000, -1.093750000000, -6.781250000000, 1490849207
0.163574218750, 0.045166015625, -0.975585937500, 2.773437500000, 0.132812500000, -6.226562500000, 1490849207
0.163574218750, 0.045166015625, -0.975585937500, 2.773437500000, 0.132812500000, -6.226562500000, 1490849207
0.163574218750, 0.045166015625, -0.975585937500, 2.773437500000, 0.132812500000, -6.226562500000, 1490849207
0.195800781250, 0.034423828125, -0.945312500000, 4.570312500000, 1.570312500000, -7.757812500000, 1490849207
0.195800781250, 0.034423828125, -0.945312500000, 4.570312500000, 1.570312500000, -7.757812500000, 1490849207
0.195800781250, 0.034423828125, -0.945312500000, 4.570312500000, 1.570312500000, -7.757812500000, 1490849207
0.257080078125, 0.140869140625, -0.997314453125, 7.421875000000, 1.234375000000, -8.640625000000, 1490849207
0.257080078125, 0.140869140625, -0.997314453125, 7.421875000000, 1.234375000000, -8.640625000000, 1490849207
0.257080078125, 0.140869140625, -0.997314453125, 7.421875000000, 1.234375000000, -8.640625000000, 1490849207
0.157958984375, 0.098388671875, -0.931152343750, 2.835937500000, 4.164062500000, -6.781250000000, 1490849207
0.157958984375, 0.098388671875, -0.931152343750, 2.835937500000, 4.164062500000, -6.781250000000, 1490849207
0.157958984375, 0.098388671875, -0.931152343750, 2.835937500000, 4.164062500000, -6.781250000000, 1490849207
0.157958984375, 0.098388671875, -0.931152343750, 2.835937500000, 4.164062500000, -6.781250000000, 1490849207
0.095214843750, 0.101562500000, -0.973876953125, -5.062500000000, 0.820312500000, -3.289062500000, 1490849207
0.095214843750, 0.101562500000, -0.973876953125, -5.062500000000, 0.820312500000, -3.289062500000, 1490849207
0.095214843750, 0.101562500000, -0.973876953125, -5.062500000000, 0.820312500000, -3.289062500000, 1490849207
0.136474609375, 0.210937500000, -0.936035156250, -5.726562500000, 2.945312500000, -3.640625000000, 1490849207
0.136474609375, 0.210937500000, -0.936035156250, -5.726562500000, 2.945312500000, -3.640625000000, 1490849207
0.136474609375, 0.210937500000, -0.936035156250, -5.726562500000, 2.945312500000, -3.640625000000, 1490849207
0.173583984375, 0.207275390625, -1.027832031250, -4.421875000000, -0.046875000000, -2.343750000000, 1490849207
0.173583984375, 0.207275390625, -1.027832031250, -4.421875000000, -0.046875000000, -2.343750000000, 1490849207
0.173583984375, 0.207275390625, -1.027832031250, -4.421875000000, -0.046875000000, -2.343750000000, 1490849207
0.105712890625, -0.022460937500, -0.989501953125, -3.375000000000, 0.640625000000, -1.234375000000, 1490849207
0.105712890625, -0.022460937500, -0.989501953125, -3.375000000000, 0.640625000000, -1.234375000000, 1490849207
0.105712890625, -0.022460937500, -0.989501953125, -3.375000000000, 0.640625000000, -1.234375000000, 1490849208
0.105712890625, -0.022460937500, -0.989501953125, -3.375000000000, 0.640625000000, -1.234375000000, 1490849208
0.191162109375, 0.203125000000, -1.025878906250, -6.851562500000, -0.679687500000, -1.992187500000, 1490849208
0.191162109375, 0.203125000000, -1.025878906250, -6.851562500000, -0.679687500000, -1.992187500000, 1490849208
0.191162109375, 0.203125000000, -1.025878906250, -6.851562500000, -0.679687500000, -1.992187500000, 1490849208
0.163330078125, 0.210205078125, -0.916992187500, -6.992187500000, 2.875000000000, -3.945312500000, 1490849208
0.163330078125, 0.210205078125, -0.916992187500, -6.992187500000, 2.875000000000, -3.945312500000, 1490849208
0.163330078125, 0.210205078125, -0.916992187500, -6.992187500000, 2.875000000000, -3.945312500000, 1490849208
0.122802734375, 0.146972656250, -1.022460937500, -1.601562500000, 2.960937500000, -2.914062500000, 1490849208
0.122802734375, 0.146972656250, -1.022460937500, -1.601562500000, 2.960937500000, -2.914062500000, 1490849208
0.122802734375, 0.146972656250, -1.022460937500, -1.601562500000, 2.960937500000, -2.914062500000, 1490849208
0.116943359375, 0.044433593750, -0.915527343750, -1.867187500000, -0.914062500000, -1.242187500000, 1490849208
0.116943359375, 0.044433593750, -0.915527343750, -1.867187500000, -0.914062500000, -1.242187500000, 1490849208
0.274902343750, 0.112792968750, -1.023193359375, -2.625000000000, -0.125000000000, 0.007812500000, 1490849208
0.274902343750, 0.112792968750, -1.023193359375, -2.625000000000, -0.125000000000, 0.007812500000, 1490849208
0.274902343750, 0.112792968750, -1.023193359375, -2.625000000000, -0.125000000000, 0.007812500000, 1490849208
0.274902343750, 0.112792968750, -1.023193359375, -2.625000000000, -0.125000000000, 0.007812500000, 1490849208
0.171386718750, 0.146728515625, -1.020263671875, -6.023437500000, 0.781250000000, -2.601562500000, 1490849208
0.171386718750, 0.146728515625, -1.020263671875, -6.023437500000, 0.781250000000, -2.601562500000, 1490849208
0.171386718750, 0.146728515625, -1.020263671875, -6.023437500000, 0.781250000000, -2.601562500000, 1490849208
0.171386718750, 0.146728515625, -1.020263671875, -6.023437500000, 0.781250000000, -2.601562500000, 1490849208
0.115478515625, 0.185302734375, -0.949218750000, -4.867187500000, 0.718750000000, -1.468750000000, 1490849208
0.115478515625, 0.185302734375, -0.949218750000, -4.867187500000, 0.718750000000, -1.468750000000, 1490849208
0.115478515625, 0.185302734375, -0.949218750000, -4.867187500000, 0.718750000000, -1.468750000000, 1490849208
0.127685546875, 0.087646484375, -0.947021484375, -1.164062500000, -0.148437500000, -3.234375000000, 1490849208
0.255615234375, 0.050292968750, -0.918212890625, -3.562500000000, -0.304687500000, -1.835937500000, 1490849208
0.255615234375, 0.050292968750, -0.918212890625, -3.562500000000, -0.304687500000, -1.835937500000, 1490849208
0.255615234375, 0.050292968750, -0.918212890625, -3.562500000000, -0.304687500000, -1.835937500000, 1490849208
0.097656250000, 0.134277343750, -0.906738281250, -3.367187500000, 2.085937500000, 0.281250000000, 1490849208
0.097656250000, 0.134277343750, -0.906738281250, -3.367187500000, 2.085937500000, 0.281250000000, 1490849208
0.097656250000, 0.134277343750, -0.906738281250, -3.367187500000, 2.085937500000, 0.281250000000, 1490849208
0.097656250000, 0.134277343750, -0.906738281250, -3.367187500000, 2.085937500000, 0.281250000000, 1490849208
0.097656250000, 0.134277343750, -0.906738281250, -3.367187500000, 2.085937500000, 0.281250000000, 1490849208
0.190917968750, 0.156494140625, -0.904052734375, -6.257812500000, 2.976562500000, -4.765625000000, 1490849208
0.129638671875, 0.142333984375, -0.969238281250, -3.093750000000, -0.960937500000, -1.679687500000, 1490849208
0.129638671875, 0.142333984375, -0.969238281250, -3.093750000000, -0.960937500000, -1.679687500000, 1490849208
0.129638671875, 0.142333984375, -0.969238281250, -3.093750000000, -0.960937500000, -1.679687500000, 1490849208
0.151855468750, 0.163818359375, -0.925781250000, -4.851562500000, -0.617187500000, -4.085937500000, 1490849208
0.151855468750, 0.163818359375, -0.925781250000, -4.851562500000, -0.617187500000, -4.085937500000, 1490849208
0.151855468750, 0.163818359375, -0.925781250000, -4.851562500000, -0.617187500000, -4.085937500000, 1490849208
0.151855468750, 0.163818359375, -0.925781250000, -4.851562500000, -0.617187500000, -4.085937500000, 1490849208
0.095703125000, 0.176513671875, -1.015136718750, -3.281250000000, 2.218750000000, -1.406250000000, 1490849208
0.095703125000, 0.176513671875, -1.015136718750, -3.281250000000, 2.218750000000, -1.406250000000, 1490849208
0.095703125000, 0.176513671875, -1.015136718750, -3.281250000000, 2.218750000000, -1.406250000000, 1490849208
0.113525390625, 0.094238281250, -0.972412109375, -4.648437500000, 0.515625000000, -2.468750000000, 1490849208
0.113525390625, 0.094238281250, -0.972412109375, -4.648437500000, 0.515625000000, -2.468750000000, 1490849208
0.113525390625, 0.094238281250, -0.972412109375, -4.648437500000, 0.515625000000, -2.468750000000, 1490849208
0.193359375000, 0.100830078125, -1.007568359375, -3.234375000000, 0.367187500000, -3.664062500000, 1490849208
0.193359375000, 0.100830078125, -1.007568359375, -3.234375000000, 0.367187500000, -3.664062500000, 1490849208
0.193359375000, 0.100830078125, -1.007568359375, -3.234375000000, 0.367187500000, -3.664062500000, 1490849208
0.189697265625, 0.201904296875, -0.982910156250, -3.234375000000, -0.718750000000, -4.164062500000, 1490849208
0.189697265625, 0.201904296875, -0.982910156250, -3.234375000000, -0.718750000000, -4.164062500000, 1490849208
0.110351562500, 0.117675781250, -1.024414062500, -4.781250000000, -1.000000000000, -3.031250000000, 1490849208
0.110351562500, 0.117675781250, -1.024414062500, -4.781250000000, -1.000000000000, -3.031250000000, 1490849208
0.110351562500, 0.117675781250, -1.024414062500, -4.781250000000, -1.000000000000, -3.031250000000, 1490849208
0.140380859375, 0.154785156250, -0.968261718750, -4.289062500000, -2.210937500000, -4.343750000000, 1490849208
0.140380859375, 0.154785156250, -0.968261718750, -4.289062500000, -2.210937500000, -4.343750000000, 1490849208
0.140380859375, 0.154785156250, -0.968261718750, -4.289062500000, -2.210937500000, -4.343750000000, 1490849208
0.140380859375, 0.154785156250, -0.968261718750, -4.289062500000, -2.210937500000, -4.343750000000, 1490849208
0.140380859375, 0.154785156250, -0.968261718750, -4.289062500000, -2.210937500000, -4.343750000000, 1490849208
0.203613281250, 0.090820312500, -0.973388671875, -3.523437500000, -0.281250000000, -4.335937500000, 1490849208
0.203613281250, 0.090820312500, -0.973388671875, -3.523437500000, -0.281250000000, -4.335937500000, 1490849208
0.203613281250, 0.090820312500, -0.973388671875, -3.523437500000, -0.281250000000, -4.335937500000, 1490849208
0.156250000000, 0.145019531250, -1.000488281250, -4.390625000000, -0.492187500000, -4.156250000000, 1490849208
0.214599609375, 0.175292968750, -0.914062500000, -3.468750000000, -2.320312500000, -3.773437500000, 1490849209
0.214599609375, 0.175292968750, -0.914062500000, -3.468750000000, -2.320312500000, -3.773437500000, 1490849209
0.214599609375, 0.175292968750, -0.914062500000, -3.468750000000, -2.320312500000, -3.773437500000, 1490849209
0.214599609375, 0.175292968750, -0.914062500000, -3.468750000000, -2.320312500000, -3.773437500000, 1490849209
0.155273437500, 0.120361328125, -0.951904296875, -3.671875000000, 0.914062500000, -1.539062500000, 1490849209
0.155273437500, 0.120361328125, -0.951904296875, -3.671875000000, 0.914062500000, -1.539062500000, 1490849209
0.155273437500, 0.120361328125, -0.951904296875, -3.671875000000, 0.914062500000, -1.539062500000, 1490849209
0.155273437500, 0.120361328125, -0.951904296875, -3.671875000000, 0.914062500000, -1.539062500000, 1490849209
0.210449218750, 0.166503906250, -1.003906250000, -4.679687500000, 0.695312500000, 0.281250000000, 1490849209
0.210449218750, 0.166503906250, -1.003906250000, -4.679687500000, 0.695312500000, 0.281250000000, 1490849209
0.210449218750, 0.166503906250, -1.003906250000, -4.679687500000, 0.695312500000, 0.281250000000, 1490849209
0.210449218750, 0.166503906250, -1.003906250000, -4.679687500000, 0.695312500000, 0.281250000000, 1490849209
0.057373046875, 0.153320312500, -0.985351562500, -3.460937500000, -0.640625000000, -3.382812500000, 1490849209
0.057373046875, 0.153320312500, -0.985351562500, -3.460937500000, -0.640625000000, -3.382812500000, 1490849209
0.057373046875, 0.153320312500, -0.985351562500, -3.460937500000, -0.640625000000, -3.382812500000, 1490849209
0.057373046875, 0.153320312500, -0.985351562500, -3.460937500000, -0.640625000000, -3.382812500000, 1490849209
0.199707031250, 0.040283203125, -1.003906250000, -4.734375000000, -0.210937500000, -3.085937500000, 1490849209
0.199707031250, 0.040283203125, -1.003906250000, -4.734375000000, -0.210937500000, -3.085937500000, 1490849209
0.199707031250, 0.040283203125, -1.003906250000, -4.734375000000, -0.210937500000, -3.085937500000, 1490849209
0.151123046875, 0.107421875000, -0.918212890625, -3.523437500000, 0.570312500000, -1.890625000000, 1490849209
0.151123046875, 0.107421875000, -0.918212890625, -3.523437500000, 0.570312500000, -1.890625000000, 1490849209
0.151123046875, 0.107421875000, -0.918212890625, -3.523437500000, 0.570312500000, -1.890625000000, 1490849209
0.095947265625, 0.188476562500, -0.927490234375, -6.109375000000, -0.632812500000, -1.195312500000, 1490849209
0.095947265625, 0.188476562500, -0.927490234375, -6.109375000000, -0.632812500000, -1.195312500000, 1490849209
0.095947265625, 0.188476562500, -0.927490234375, -6.109375000000, -0.632812500000, -1.195312500000, 1490849209
0.198486328125, 0.096191406250, -0.977050781250, -3.476562500000, -0.570312500000, -4.070312500000, 1490849209
0.198486328125, 0.096191406250, -0.977050781250, -3.476562500000, -0.570312500000, -4.070312500000, 1490849209
0.213623046875, 0.103271484375, -0.918701171875, -3.398437500000, -0.898437500000, -3.609375000000, 1490849209
0.119384765625, 0.198974609375, -1.002929687500, -4.640625000000, -0.382812500000, -2.671875000000, 1490849209
0.119384765625, 0.198974609375, -1.002929687500, -4.640625000000, -0.382812500000, -2.671875000000, 1490849209
0.119384765625, 0.198974609375, -1.002929687500, -4.640625000000, -0.382812500000, -2.671875000000, 1490849209
0.119384765625, 0.198974609375, -1.002929687500, -4.640625000000, -0.382812500000, -2.671875000000, 1490849209
0.111572265625, 0.146484375000, -1.027099609375, -3.062500000000, -0.976562500000, -2.304687500000, 1490849209
0.111572265625, 0.146484375000, -1.027099609375, -3.062500000000, -0.976562500000, -2.304687500000, 1490849209
0.111572265625, 0.146484375000, -1.027099609375, -3.062500000000, -0.976562500000, -2.304687500000, 1490849209
0.123535156250, 0.191162109375, -1.000976562500, -6.015625000000, -0.054687500000, -4.890625000000, 1490849209
0.123535156250, 0.191162109375, -1.000976562500, -6.015625000000, -0.054687500000, -4.890625000000, 1490849209
0.123535156250, 0.191162109375, -1.000976562500, -6.015625000000, -0.054687500000, -4.890625000000, 1490849209
0.279785156250, 0.113037109375, -1.024902343750, -4.703125000000, 1.148437500000, 0.953125000000, 1490849209
0.279785156250, 0.113037109375, -1.024902343750, -4.703125000000, 1.148437500000, 0.953125000000, 1490849209
0.279785156250, 0.113037109375, -1.024902343750, -4.703125000000, 1.148437500000, 0.953125000000, 1490849209
0.279785156250, 0.113037109375, -1.024902343750, -4.703125000000, 1.148437500000, 0.953125000000, 1490849209
0.197998046875, 0.175292968750, -0.920654296875, -3.304687500000, -0.226562500000, -3.507812500000, 1490849209
0.197998046875, 0.175292968750, -0.920654296875, -3.304687500000, -0.226562500000, -3.507812500000, 1490849209
0.197998046875, 0.175292968750, -0.920654296875, -3.304687500000, -0.226562500000, -3.507812500000, 1490849209
0.215332031250, 0.061767578125, -0.974121093750, -4.171875000000, 2.593750000000, -2.039062500000, 1490849209
0.215332031250, 0.061767578125, -0.974121093750, -4.171875000000, 2.593750000000, -2.039062500000, 1490849209
0.215332031250, 0.061767578125, -0.974121093750, -4.171875000000, 2.593750000000, -2.039062500000, 1490849209
0.115478515625, 0.123046875000, -0.933349609375, -4.968750000000, 0.796875000000, -2.882812500000, 1490849209
0.115478515625, 0.123046875000, -0.933349609375, -4.968750000000, 0.796875000000, -2.882812500000, 1490849209
0.115478515625, 0.123046875000, -0.933349609375, -4.968750000000, 0.796875000000, -2.882812500000, 1490849209
0.107910156250, 0.037109375000, -1.010498046875, -4.656250000000, -0.398437500000, -4.359375000000, 1490849209
0.107910156250, 0.037109375000, -1.010498046875, -4.656250000000, -0.398437500000, -4.359375000000, 1490849209
0.107910156250, 0.037109375000, -1.010498046875, -4.656250000000, -0.398437500000, -4.359375000000, 1490849209
0.107910156250, 0.037109375000, -1.010498046875, -4.656250000000, -0.398437500000, -4.359375000000, 1490849209
0.206054687500, 0.208251953125, -1.003173828125, -5.507812500000, -0.421875000000, -1.906250000000, 1490849209
0.206054687500, 0.208251953125, -1.003173828125, -5.507812500000, -0.421875000000, -1.906250000000, 1490849209
0.206054687500, 0.208251953125, -1.003173828125, -5.507812500000, -0.421875000000, -1.906250000000, 1490849209
0.215087890625, 0.099853515625, -0.946533203125, -3.898437500000, -0.101562500000, -1.937500000000, 1490849209
0.215087890625, 0.099853515625, -0.946533203125, -3.898437500000, -0.101562500000, -1.937500000000, 1490849209
0.215087890625, 0.099853515625, -0.946533203125, -3.898437500000, -0.101562500000, -1.937500000000, 1490849209
0.210449218750, 0.150390625000, -0.870605468750, -4.851562500000, -0.265625000000, -1.617187500000, 1490849209
0.210449218750, 0.150390625000, -0.870605468750, -4.851562500000, -0.265625000000, -1.617187500000, 1490849209
0.210449218750, 0.150390625000, -0.870605468750, -4.851562500000, -0.265625000000, -1.617187500000, 1490849209
0.123779296875, 0.206542968750, -1.018066406250, -4.671875000000, 2.468750000000, -4.640625000000, 1490849209
0.123779296875, 0.206542968750, -1.018066406250, -4.671875000000, 2.468750000000, -4.640625000000, 1490849209
0.123779296875, 0.206542968750, -1.018066406250, -4.671875000000, 2.468750000000, -4.640625000000, 1490849209
0.123779296875, 0.206542968750, -1.018066406250, -4.671875000000, 2.468750000000, -4.640625000000, 1490849209
0.202636718750, 0.114990234375, -0.906982421875, -6.515625000000, 2.656250000000, -4.773437500000, 1490849209
0.202636718750, 0.114990234375, -0.906982421875, -6.515625000000, 2.656250000000, -4.773437500000, 1490849209
0.202636718750, 0.114990234375, -0.906982421875, -6.515625000000, 2.656250000000, -4.773437500000, 1490849210
0.163818359375, 0.115478515625, -1.012207031250, -3.781250000000, -0.726562500000, -4.210937500000, 1490849210
0.163818359375, 0.115478515625, -1.012207031250, -3.781250000000, -0.726562500000, -4.210937500000, 1490849210
0.163818359375, 0.115478515625, -1.012207031250, -3.781250000000, -0.726562500000, -4.210937500000, 1490849210
0.111328125000, 0.136474609375, -0.996582031250, -3.648437500000, 2.382812500000, -3.921875000000, 1490849210
0.111328125000, 0.136474609375, -0.996582031250, -3.648437500000, 2.382812500000, -3.921875000000, 1490849210
0.111328125000, 0.136474609375, -0.996582031250, -3.648437500000, 2.382812500000, -3.921875000000, 1490849210
0.168212890625, 0.097656250000, -0.978271484375, -3.406250000000, 0.687500000000, -4.257812500000, 1490849210
0.168212890625, 0.097656250000, -0.978271484375, -3.406250000000, 0.687500000000, -4.257812500000, 1490849210
0.168212890625, 0.097656250000, -0.978271484375, -3.406250000000, 0.687500000000, -4.257812500000, 1490849210
0.168212890625, 0.097656250000, -0.978271484375, -3.406250000000, 0.687500000000, -4.257812500000, 1490849210
0.190673828125, 0.122314453125, -0.988037109375, -3.890625000000, -0.750000000000, -3.140625000000, 1490849210
0.190673828125, 0.122314453125, -0.988037109375, -3.890625000000, -0.750000000000, -3.140625000000, 1490849210
0.190673828125, 0.122314453125, -0.988037109375, -3.890625000000, -0.750000000000, -3.140625000000, 1490849210
0.042480468750, 0.110839843750, -0.907714843750, -4.351562500000, -0.992187500000, -3.507812500000, 1490849210
0.042480468750, 0.110839843750, -0.907714843750, -4.351562500000, -0.992187500000, -3.507812500000, 1490849210
0.042480468750, 0.110839843750, -0.907714843750, -4.351562500000, -0.992187500000, -3.507812500000, 1490849210
0.187255859375, 0.267089843750, -0.929687500000, -3.281250000000, -0.929687500000, -1.554687500000, 1490849210
0.104736328125, 0.114501953125, -0.930419921875, -3.476562500000, 0.398437500000, -1.328125000000, 1490849210
0.104736328125, 0.114501953125, -0.930419921875, -3.476562500000, 0.398437500000, -1.328125000000, 1490849210
0.104736328125, 0.114501953125, -0.930419921875, -3.476562500000, 0.398437500000, -1.328125000000, 1490849210
0.104736328125, 0.114501953125, -0.930419921875, -3.476562500000, 0.398437500000, -1.328125000000, 1490849210
0.104736328125, 0.114501953125, -0.930419921875, -3.476562500000, 0.398437500000, -1.328125000000, 1490849210
0.180419921875, 0.081054687500, -0.871337890625, -3.070312500000, 0.789062500000, 0.406250000000, 1490849210
0.180419921875, 0.081054687500, -0.871337890625, -3.070312500000, 0.789062500000, 0.406250000000, 1490849210
0.180419921875, 0.081054687500, -0.871337890625, -3.070312500000, 0.789062500000, 0.406250000000, 1490849210
0.180419921875, 0.081054687500, -0.871337890625, -3.070312500000, 0.789062500000, 0.406250000000, 1490849210
0.215087890625, 0.036376953125, -1.020019531250, -4.328125000000, -0.898437500000, -4.359375000000, 1490849210
0.215087890625, 0.036376953125, -1.020019531250, -4.328125000000, -0.898437500000, -4.359375000000, 1490849210
0.215087890625, 0.036376953125, -1.020019531250, -4.328125000000, -0.898437500000, -4.359375000000, 1490849210
0.173583984375, 0.050292968750, -0.871093750000, -4.484375000000, 2.781250000000, -1.742187500000, 1490849210
0.173583984375, 0.050292968750, -0.871093750000, -4.484375000000, 2.781250000000, -1.742187500000, 1490849210
0.173583984375, 0.050292968750, -0.871093750000, -4.484375000000, 2.781250000000, -1.742187500000, 1490849210
0.189453125000, 0.210937500000, -0.909667968750, -4.359375000000, 2.695312500000, -1.914062500000, 1490849210
0.189453125000, 0.210937500000, -0.909667968750, -4.359375000000, 2.695312500000, -1.914062500000, 1490849210
0.189453125000, 0.210937500000, -0.909667968750, -4.359375000000, 2.695312500000, -1.914062500000, 1490849210
0.189453125000, 0.210937500000, -0.909667968750, -4.359375000000, 2.695312500000, -1.914062500000, 1490849210
0.237548828125, 0.102783203125, -0.963623046875, -4.492187500000, 0.960937500000, -1.312500000000, 1490849210
0.237548828125, 0.102783203125, -0.963623046875, -4.492187500000, 0.960937500000, -1.312500000000, 1490849210
0.237548828125, 0.102783203125, -0.963623046875, -4.492187500000, 0.960937500000, -1.312500000000, 1490849210
0.162597656250, 0.044677734375, -0.910888671875, -6.179687500000, -0.476562500000, -4.507812500000, 1490849210
0.162597656250, 0.044677734375, -0.910888671875, -6.179687500000, -0.476562500000, -4.507812500000, 1490849210
0.162597656250, 0.044677734375, -0.910888671875, -6.179687500000, -0.476562500000, -4.507812500000, 1490849210
0.210449218750, 0.149169921875, -0.967529296875, -6.546875000000, 2.070312500000, 0.117187500000, 1490849210
0.210449218750, 0.149169921875, -0.967529296875, -6.546875000000, 2.070312500000, 0.117187500000, 1490849210
0.210449218750, 0.149169921875, -0.967529296875, -6.546875000000, 2.070312500000, 0.117187500000, 1490849210
0.115966796875, 0.160156250000, -0.937255859375, -3.968750000000, -0.757812500000, -1.898437500000, 1490849210
0.115966796875, 0.160156250000, -0.937255859375, -3.968750000000, -0.757812500000, -1.898437500000, 1490849210
0.115966796875, 0.160156250000, -0.937255859375, -3.968750000000, -0.757812500000, -1.898437500000, 1490849210
0.115966796875, 0.160156250000, -0.937255859375, -3.968750000000, -0.757812500000, -1.898437500000, 1490849210
0.166748046875, 0.105712890625, -0.998779296875, -4.156250000000, -0.132812500000, -1.101562500000, 1490849210
0.166748046875, 0.105712890625, -0.998779296875, -4.156250000000, -0.132812500000, -1.101562500000, 1490849210
0.166748046875, 0.105712890625, -0.998779296875, -4.156250000000, -0.132812500000, -1.101562500000, 1490849210
0.107666015625, 0.042480468750, -0.912597656250, -4.703125000000, -0.265625000000, 0.453125000000, 1490849210
0.107666015625, 0.042480468750, -0.912597656250, -4.703125000000, -0.265625000000, 0.453125000000, 1490849210
0.107666015625, 0.042480468750, -0.912597656250, -4.703125000000, -0.265625000000, 0.453125000000, 1490849210
0.212646484375, 0.133300781250, -0.933349609375, -3.265625000000, -0.835937500000, -1.796875000000, 1490849210
0.212646484375, 0.133300781250, -0.933349609375, -3.265625000000, -0.835937500000, -1.796875000000, 1490849210
0.212646484375, 0.133300781250, -0.933349609375, -3.265625000000, -0.835937500000, -1.796875000000, 1490849210
0.167480468750, 0.080078125000, -1.067138671875, -3.960937500000, -0.070312500000, -4.710937500000, 1490849210
0.167480468750, 0.080078125000, -1.067138671875, -3.960937500000, -0.070312500000, -4.710937500000, 1490849210
0.167480468750, 0.080078125000, -1.067138671875, -3.960937500000, -0.070312500000, -4.710937500000, 1490849210
0.167480468750, 0.080078125000, -1.067138671875, -3.960937500000, -0.070312500000, -4.710937500000, 1490849210
0.121582031250, 0.194335937500, -0.944580078125, -4.671875000000, 2.851562500000, -2.437500000000, 1490849210
0.121582031250, 0.194335937500, -0.944580078125, -4.671875000000, 2.851562500000, -2.437500000000, 1490849210
0.121582031250, 0.194335937500, -0.944580078125, -4.671875000000, 2.851562500000, -2.437500000000, 1490849210
0.151855468750, 0.208984375000, -0.871826171875, -4.804687500000, -0.640625000000, -1.156250000000, 1490849211
0.151855468750, 0.208984375000, -0.871826171875, -4.804687500000, -0.640625000000, -1.156250000000, 1490849211
0.151855468750, 0.208984375000, -0.871826171875, -4.804687500000, -0.640625000000, -1.156250000000, 1490849211
0.179687500000, 0.143554687500, -0.947265625000, -1.445312500000, -0.703125000000, -4.195312500000, 1490849211
0.179687500000, 0.143554687500, -0.947265625000, -1.445312500000, -0.703125000000, -4.195312500000, 1490849211
0.179687500000, 0.143554687500, -0.947265625000, -1.445312500000, -0.703125000000, -4.195312500000, 1490849211
0.122070312500, 0.229736328125, -0.968017578125, -4.484375000000, -0.296875000000, -4.078125000000, 1490849211
