ACC_X,ACC_Y,ACC_Z,G_X,G_Y,G_Z,Unix Time
0.190917968750, -0.972167968750, 0.278076171875, 15.992187500000, 12.953125000000, 9.335937500000, 1490848755
0.190917968750, -0.972167968750, 0.278076171875, 15.992187500000, 12.953125000000, 9.335937500000, 1490848755
0.190917968750, -0.972167968750, 0.278076171875, 15.992187500000, 12.953125000000, 9.335937500000, 1490848755
0.190917968750, -0.972167968750, 0.278076171875, 15.992187500000, 12.953125000000, 9.335937500000, 1490848755
0.257080078125, -1.022216796875, 0.236083984375, 4.359375000000, 9.296875000000, 6.828125000000, 1490848755
0.092041015625, -0.958496093750, 0.213623046875, -25.835937500000, -1.765625000000, 8.468750000000, 1490848755
0.092041015625, -0.958496093750, 0.213623046875, -25.835937500000, -1.765625000000, 8.468750000000, 1490848755
0.092041015625, -0.958496093750, 0.213623046875, -25.835937500000, -1.765625000000, 8.468750000000, 1490848755
0.092041015625, -0.958496093750, 0.213623046875, -25.835937500000, -1.765625000000, 8.468750000000, 1490848755
0.092041015625, -0.958496093750, 0.213623046875, -25.835937500000, -1.765625000000, 8.468750000000, 1490848755
0.146484375000, -0.910400390625, 0.270263671875, -17.609375000000, 9.648437500000, 6.726562500000, 1490848755
0.146484375000, -0.910400390625, 0.270263671875, -17.609375000000, 9.648437500000, 6.726562500000, 1490848755
0.156738281250, -1.073242187500, 0.205566406250, -13.242187500000, 3.070312500000, 3.585937500000, 1490848755
0.115966796875, -1.024658203125, 0.252197265625, -18.906250000000, 5.742187500000, 12.460937500000, 1490848755
0.115966796875, -1.024658203125, 0.252197265625, -18.906250000000, 5.742187500000, 12.460937500000, 1490848755
0.115966796875, -1.024658203125, 0.252197265625, -18.906250000000, 5.742187500000, 12.460937500000, 1490848755
0.115966796875, -1.024658203125, 0.252197265625, -18.906250000000, 5.742187500000, 12.460937500000, 1490848755
0.124755859375, -0.985107421875, 0.214599609375, -25.382812500000, 14.710937500000, 9.078125000000, 1490848755
0.124755859375, -0.985107421875, 0.214599609375, -25.382812500000, 14.710937500000, 9.078125000000, 1490848755
0.124755859375, -0.985107421875, 0.214599609375, -25.382812500000, 14.710937500000, 9.078125000000, 1490848755
0.096435546875, -0.869873046875, 0.163574218750, -22.296875000000, 13.812500000000, 6.171875000000, 1490848756
0.096435546875, -0.869873046875, 0.163574218750, -22.296875000000, 13.812500000000, 6.171875000000, 1490848756
0.096435546875, -0.869873046875, 0.163574218750, -22.296875000000, 13.812500000000, 6.171875000000, 1490848756
0.265380859375, -0.788085937500, 0.213623046875, -10.000000000000, 14.687500000000, -6.500000000000, 1490848756
0.265380859375, -0.788085937500, 0.213623046875, -10.000000000000, 14.687500000000, -6.500000000000, 1490848756
0.265380859375, -0.788085937500, 0.213623046875, -10.000000000000, 14.687500000000, -6.500000000000, 1490848756
0.199951171875, -0.855712890625, 0.247558593750, -4.023437500000, 14.078125000000, 4.546875000000, 1490848756
0.199951171875, -0.855712890625, 0.247558593750, -4.023437500000, 14.078125000000, 4.546875000000, 1490848756
0.199951171875, -0.855712890625, 0.247558593750, -4.023437500000, 14.078125000000, 4.546875000000, 1490848756
0.199951171875, -0.855712890625, 0.247558593750, -4.023437500000, 14.078125000000, 4.546875000000, 1490848756
0.054443359375, -0.917968750000, 0.239257812500, 0.570312500000, 12.257812500000, 1.382812500000, 1490848756
0.054443359375, -0.917968750000, 0.239257812500, 0.570312500000, 12.257812500000, 1.382812500000, 1490848756
0.170898437500, -0.921142578125, 0.296630859375, 8.921875000000, 6.468750000000, -2.828125000000, 1490848756
0.170898437500, -0.921142578125, 0.296630859375, 8.921875000000, 6.468750000000, -2.828125000000, 1490848756
0.170898437500, -0.921142578125, 0.296630859375, 8.921875000000, 6.468750000000, -2.828125000000, 1490848756
0.170898437500, -0.921142578125, 0.296630859375, 8.921875000000, 6.468750000000, -2.828125000000, 1490848756
0.120605468750, -0.908691406250, 0.287109375000, -0.562500000000, 2.718750000000, -3.867187500000, 1490848756
0.120605468750, -0.908691406250, 0.287109375000, -0.562500000000, 2.718750000000, -3.867187500000, 1490848756
0.120605468750, -0.908691406250, 0.287109375000, -0.562500000000, 2.718750000000, -3.867187500000, 1490848756
0.202636718750, -0.969482421875, 0.271484375000, -7.375000000000, -0.437500000000, -3.046875000000, 1490848756
0.202636718750, -0.969482421875, 0.271484375000, -7.375000000000, -0.437500000000, -3.046875000000, 1490848756
0.202636718750, -0.969482421875, 0.271484375000, -7.375000000000, -0.437500000000, -3.046875000000, 1490848756
0.202636718750, -0.969482421875, 0.271484375000, -7.375000000000, -0.437500000000, -3.046875000000, 1490848756
0.076171875000, -0.977783203125, 0.256835937500, -4.117187500000, 6.742187500000, -5.898437500000, 1490848756
0.076171875000, -0.977783203125, 0.256835937500, -4.117187500000, 6.742187500000, -5.898437500000, 1490848756
0.076171875000, -0.977783203125, 0.256835937500, -4.117187500000, 6.742187500000, -5.898437500000, 1490848756
0.159423828125, -0.916503906250, 0.273193359375, 3.992187500000, -8.078125000000, -5.453125000000, 1490848756
0.159423828125, -0.916503906250, 0.273193359375, 3.992187500000, -8.078125000000, -5.453125000000, 1490848756
0.159423828125, -0.916503906250, 0.273193359375, 3.992187500000, -8.078125000000, -5.453125000000, 1490848756
0.209716796875, -0.921142578125, 0.229980468750, 3.250000000000, 0.070312500000, -6.218750000000, 1490848756
0.209716796875, -0.921142578125, 0.229980468750, 3.250000000000, 0.070312500000, -6.218750000000, 1490848756
0.209716796875, -0.921142578125, 0.229980468750, 3.250000000000, 0.070312500000, -6.218750000000, 1490848756
0.100097656250, -1.031250000000, 0.177978515625, -4.093750000000, -3.101562500000, -6.328125000000, 1490848756
0.100097656250, -1.031250000000, 0.177978515625, -4.093750000000, -3.101562500000, -6.328125000000, 1490848756
0.100097656250, -1.031250000000, 0.177978515625, -4.093750000000, -3.101562500000, -6.328125000000, 1490848756
0.100097656250, -1.031250000000, 0.177978515625, -4.093750000000, -3.101562500000, -6.328125000000, 1490848756
0.200195312500, -1.013183593750, 0.241210937500, -3.585937500000, 1.968750000000, -3.796875000000, 1490848756
0.200195312500, -1.013183593750, 0.241210937500, -3.585937500000, 1.968750000000, -3.796875000000, 1490848756
0.200195312500, -1.013183593750, 0.241210937500, -3.585937500000, 1.968750000000, -3.796875000000, 1490848756
0.270507812500, -0.967529296875, 0.182861328125, -6.617187500000, 3.187500000000, -4.250000000000, 1490848756
0.270507812500, -0.967529296875, 0.182861328125, -6.617187500000, 3.187500000000, -4.250000000000, 1490848756
0.270507812500, -0.967529296875, 0.182861328125, -6.617187500000, 3.187500000000, -4.250000000000, 1490848756
0.213378906250, -0.925048828125, 0.161376953125, -1.023437500000, 2.367187500000, -0.781250000000, 1490848756
0.213378906250, -0.925048828125, 0.161376953125, -1.023437500000, 2.367187500000, -0.781250000000, 1490848756
0.213378906250, -0.925048828125, 0.161376953125, -1.023437500000, 2.367187500000, -0.781250000000, 1490848756
0.216796875000, -0.982421875000, 0.181884765625, 4.796875000000, -1.187500000000, -1.148437500000, 1490848756
0.216796875000, -0.982421875000, 0.181884765625, 4.796875000000, -1.187500000000, -1.148437500000, 1490848756
0.216796875000, -0.982421875000, 0.181884765625, 4.796875000000, -1.187500000000, -1.148437500000, 1490848756
0.216796875000, -0.982421875000, 0.181884765625, 4.796875000000, -1.187500000000, -1.148437500000, 1490848756
0.098876953125, -0.865234375000, 0.264160156250, -7.429687500000, -3.562500000000, -4.046875000000, 1490848756
0.098876953125, -0.865234375000, 0.264160156250, -7.429687500000, -3.562500000000, -4.046875000000, 1490848756
0.098876953125, -0.865234375000, 0.264160156250, -7.429687500000, -3.562500000000, -4.046875000000, 1490848756
0.098876953125, -0.865234375000, 0.264160156250, -7.429687500000, -3.562500000000, -4.046875000000, 1490848756
0.198242187500, -0.954589843750, 0.167724609375, -5.406250000000, 2.789062500000, -0.382812500000, 1490848756
0.198242187500, -0.954589843750, 0.167724609375, -5.406250000000, 2.789062500000, -0.382812500000, 1490848756
0.198242187500, -0.954589843750, 0.167724609375, -5.406250000000, 2.789062500000, -0.382812500000, 1490848756
0.198242187500, -0.954589843750, 0.167724609375, -5.406250000000, 2.789062500000, -0.382812500000, 1490848756
0.198242187500, -0.954589843750, 0.167724609375, -5.406250000000, 2.789062500000, -0.382812500000, 1490848756
0.204833984375, -0.935546875000, 0.186035156250, -6.789062500000, -6.140625000000, -4.257812500000, 1490848756
0.204833984375, -0.935546875000, 0.186035156250, -6.789062500000, -6.140625000000, -4.257812500000, 1490848756
0.204833984375, -0.935546875000, 0.186035156250, -6.789062500000, -6.140625000000, -4.257812500000, 1490848756
0.204833984375, -0.935546875000, 0.186035156250, -6.789062500000, -6.140625000000, -4.257812500000, 1490848756
0.240234375000, -1.007324218750, 0.180175781250, -4.843750000000, -0.562500000000, 2.437500000000, 1490848756
0.240234375000, -1.007324218750, 0.180175781250, -4.843750000000, -0.562500000000, 2.437500000000, 1490848756
0.266357421875, -0.938476562500, 0.275146484375, -0.703125000000, 4.820312500000, -1.679687500000, 1490848757
0.266357421875, -0.938476562500, 0.275146484375, -0.703125000000, 4.820312500000, -1.679687500000, 1490848757
0.266357421875, -0.938476562500, 0.275146484375, -0.703125000000, 4.820312500000, -1.679687500000, 1490848757
0.266357421875, -0.938476562500, 0.275146484375, -0.703125000000, 4.820312500000, -1.679687500000, 1490848757
0.103515625000, -0.916503906250, 0.177734375000, -6.195312500000, -1.328125000000, -4.421875000000, 1490848757
0.103515625000, -0.916503906250, 0.177734375000, -6.195312500000, -1.328125000000, -4.421875000000, 1490848757
0.103515625000, -0.916503906250, 0.177734375000, -6.195312500000, -1.328125000000, -4.421875000000, 1490848757
0.109375000000, -0.849609375000, 0.214599609375, -5.875000000000, -1.398437500000, -2.000000000000, 1490848757
0.109375000000, -0.849609375000, 0.214599609375, -5.875000000000, -1.398437500000, -2.000000000000, 1490848757
0.109375000000, -0.849609375000, 0.214599609375, -5.875000000000, -1.398437500000, -2.000000000000, 1490848757
0.109375000000, -0.849609375000, 0.214599609375, -5.875000000000, -1.398437500000, -2.000000000000, 1490848757
0.199951171875, -1.029541015625, 0.266113281250, 2.242187500000, -0.851562500000, -4.546875000000, 1490848757
0.199951171875, -1.029541015625, 0.266113281250, 2.242187500000, -0.851562500000, -4.546875000000, 1490848757
0.199951171875, -1.029541015625, 0.266113281250, 2.242187500000, -0.851562500000, -4.546875000000, 1490848757
0.167480468750, -1.012695312500, 0.175781250000, -2.156250000000, 4.945312500000, -1.531250000000, 1490848757
0.167480468750, -1.012695312500, 0.175781250000, -2.156250000000, 4.945312500000, -1.531250000000, 1490848757
0.167480468750, -1.012695312500, 0.175781250000, -2.156250000000, 4.945312500000, -1.531250000000, 1490848757
0.199707031250, -0.910156250000, 0.187011718750, -1.898437500000, 2.562500000000, -3.789062500000, 1490848757
0.199707031250, -0.910156250000, 0.187011718750, -1.898437500000, 2.562500000000, -3.789062500000, 1490848757
0.199707031250, -0.910156250000, 0.187011718750, -1.898437500000, 2.562500000000, -3.789062500000, 1490848757
0.181884765625, -1.006591796875, 0.200195312500, -4.546875000000, 1.460937500000, -8.609375000000, 1490848757
0.181884765625, -1.006591796875, 0.200195312500, -4.546875000000, 1.460937500000, -8.609375000000, 1490848757
0.181884765625, -1.006591796875, 0.200195312500, -4.546875000000, 1.460937500000, -8.609375000000, 1490848757
0.181884765625, -1.006591796875, 0.200195312500, -4.546875000000, 1.460937500000, -8.609375000000, 1490848757
0.148925781250, -0.853759765625, 0.218505859375, -4.804687500000, -6.429687500000, -2.468750000000, 1490848757
0.148925781250, -0.853759765625, 0.218505859375, -4.804687500000, -6.429687500000, -2.468750000000, 1490848757
0.148925781250, -0.853759765625, 0.218505859375, -4.804687500000, -6.429687500000, -2.468750000000, 1490848757
0.254150390625, -0.950683593750, 0.162841796875, -3.906250000000, 6.656250000000, -8.968750000000, 1490848757
0.254150390625, -0.950683593750, 0.162841796875, -3.906250000000, 6.656250000000, -8.968750000000, 1490848757
0.254150390625, -0.950683593750, 0.162841796875, -3.906250000000, 6.656250000000, -8.968750000000, 1490848757
0.101806640625, -0.999023437500, 0.331054687500, -0.257812500000, -4.437500000000, -9.562500000000, 1490848757
0.101806640625, -0.999023437500, 0.331054687500, -0.257812500000, -4.437500000000, -9.562500000000, 1490848757
0.101806640625, -0.999023437500, 0.331054687500, -0.257812500000, -4.437500000000, -9.562500000000, 1490848757
0.157714843750, -1.003173828125, 0.168945312500, -7.539062500000, -17.156250000000, 0.937500000000, 1490848757
0.157714843750, -1.003173828125, 0.168945312500, -7.539062500000, -17.156250000000, 0.937500000000, 1490848757
0.157714843750, -1.003173828125, 0.168945312500, -7.539062500000, -17.156250000000, 0.937500000000, 1490848757
0.157714843750, -1.003173828125, 0.168945312500, -7.539062500000, -17.156250000000, 0.937500000000, 1490848757
0.204345703125, -1.014160156250, 0.270507812500, -17.679687500000, 0.312500000000, -2.968750000000, 1490848757
0.204345703125, -1.014160156250, 0.270507812500, -17.679687500000, 0.312500000000, -2.968750000000, 1490848757
0.204345703125, -1.014160156250, 0.270507812500, -17.679687500000, 0.312500000000, -2.968750000000, 1490848757
0.059814453125, -0.950927734375, 0.209228515625, 5.195312500000, 12.859375000000, 1.109375000000, 1490848757
0.059814453125, -0.950927734375, 0.209228515625, 5.195312500000, 12.859375000000, 1.109375000000, 1490848757
0.059814453125, -0.950927734375, 0.209228515625, 5.195312500000, 12.859375000000, 1.109375000000, 1490848757
0.136230468750, -0.981201171875, 0.165039062500, 11.031250000000, 2.164062500000, -12.101562500000, 1490848757
0.136230468750, -0.981201171875, 0.165039062500, 11.031250000000, 2.164062500000, -12.101562500000, 1490848757
0.136230468750, -0.981201171875, 0.165039062500, 11.031250000000, 2.164062500000, -12.101562500000, 1490848757
0.206787109375, -0.911132812500, 0.105712890625, 8.867187500000, 7.429687500000, -5.156250000000, 1490848757
0.206787109375, -0.911132812500, 0.105712890625, 8.867187500000, 7.429687500000, -5.156250000000, 1490848757
0.206787109375, -0.911132812500, 0.105712890625, 8.867187500000, 7.429687500000, -5.156250000000, 1490848757
0.206787109375, -0.911132812500, 0.105712890625, 8.867187500000, 7.429687500000, -5.156250000000, 1490848757
0.165771484375, -1.073974609375, 0.171142578125, 3.445312500000, 15.609375000000, -6.812500000000, 1490848757
0.165771484375, -1.073974609375, 0.171142578125, 3.445312500000, 15.609375000000, -6.812500000000, 1490848757
0.165771484375, -1.073974609375, 0.171142578125, 3.445312500000, 15.609375000000, -6.812500000000, 1490848757
0.097900390625, -0.910400390625, 0.270507812500, 5.664062500000, 15.445312500000, -16.203125000000, 1490848757
0.097900390625, -0.910400390625, 0.270507812500, 5.664062500000, 15.445312500000, -16.203125000000, 1490848757
0.097900390625, -0.910400390625, 0.270507812500, 5.664062500000, 15.445312500000, -16.203125000000, 1490848757
0.084472656250, -1.022460937500, 0.201171875000, -1.859375000000, 1.968750000000, -36.039062500000, 1490848757
0.084472656250, -1.022460937500, 0.201171875000, -1.859375000000, 1.968750000000, -36.039062500000, 1490848757
0.084472656250, -1.022460937500, 0.201171875000, -1.859375000000, 1.968750000000, -36.039062500000, 1490848757
0.080078125000, -1.058105468750, 0.272460937500, -25.101562500000, -44.140625000000, -34.390625000000, 1490848757
0.080078125000, -1.058105468750, 0.272460937500, -25.101562500000, -44.140625000000, -34.390625000000, 1490848757
0.080078125000, -1.058105468750, 0.272460937500, -25.101562500000, -44.140625000000, -34.390625000000, 1490848757
0.080078125000, -1.058105468750, 0.272460937500, -25.101562500000, -44.140625000000, -34.390625000000, 1490848757
0.052001953125, -0.859130859375, 0.066650390625, -4.445312500000, -67.578125000000, -11.023437500000, 1490848757
0.052001953125, -0.859130859375, 0.066650390625, -4.445312500000, -67.578125000000, -11.023437500000, 1490848757
0.052001953125, -0.859130859375, 0.066650390625, -4.445312500000, -67.578125000000, -11.023437500000, 1490848757
0.273925781250, -0.918701171875, 0.141845703125, 18.898437500000, -37.992187500000, 9.070312500000, 1490848757
0.273925781250, -0.918701171875, 0.141845703125, 18.898437500000, -37.992187500000, 9.070312500000, 1490848758
0.273925781250, -0.918701171875, 0.141845703125, 18.898437500000, -37.992187500000, 9.070312500000, 1490848758
0.430175781250, -0.971191406250, 0.210693359375, 43.187500000000, 15.468750000000, -20.554687500000, 1490848758
0.430175781250, -0.971191406250, 0.210693359375, 43.187500000000, 15.468750000000, -20.554687500000, 1490848758
0.430175781250, -0.971191406250, 0.210693359375, 43.187500000000, 15.468750000000, -20.554687500000, 1490848758
0.155517578125, -1.000488281250, 0.288574218750, -30.210937500000, 25.648437500000, -7.500000000000, 1490848758
0.155517578125, -1.000488281250, 0.288574218750, -30.210937500000, 25.648437500000, -7.500000000000, 1490848758
0.155517578125, -1.000488281250, 0.288574218750, -30.210937500000, 25.648437500000, -7.500000000000, 1490848758
0.155517578125, -1.000488281250, 0.288574218750, -30.210937500000, 25.648437500000, -7.500000000000, 1490848758
-0.029785156250, -0.939697265625, 0.042968750000, -61.789062500000, 4.367187500000, -1.546875000000, 1490848758
-0.029785156250, -0.939697265625, 0.042968750000, -61.789062500000, 4.367187500000, -1.546875000000, 1490848758
-0.029785156250, -0.939697265625, 0.042968750000, -61.789062500000, 4.367187500000, -1.546875000000, 1490848758
0.082275390625, -1.058349609375, 0.146240234375, -16.015625000000, -17.382812500000, 4.898437500000, 1490848758
0.082275390625, -1.058349609375, 0.146240234375, -16.015625000000, -17.382812500000, 4.898437500000, 1490848758
0.082275390625, -1.058349609375, 0.146240234375, -16.015625000000, -17.382812500000, 4.898437500000, 1490848758
0.025390625000, -1.083740234375, 0.178466796875, 44.625000000000, 24.140625000000, -16.335937500000, 1490848758
0.025390625000, -1.083740234375, 0.178466796875, 44.625000000000, 24.140625000000, -16.335937500000, 1490848758
0.025390625000, -1.083740234375, 0.178466796875, 44.625000000000, 24.140625000000, -16.335937500000, 1490848758
0.156982421875, -0.882080078125, 0.272460937500, 22.171875000000, 30.843750000000, -15.414062500000, 1490848758
0.156982421875, -0.882080078125, 0.272460937500, 22.171875000000, 30.843750000000, -15.414062500000, 1490848758
0.138671875000, -0.863037109375, 0.117187500000, -27.101562500000, 22.890625000000, 4.078125000000, 1490848758
-0.017578125000, -0.949462890625, 0.198974609375, -45.812500000000, 19.671875000000, 12.078125000000, 1490848758
-0.085205078125, -1.088378906250, 0.095703125000, -35.992187500000, -0.117187500000, 15.539062500000, 1490848758
-0.085205078125, -1.088378906250, 0.095703125000, -35.992187500000, -0.117187500000, 15.539062500000, 1490848758
-0.085205078125, -1.088378906250, 0.095703125000, -35.992187500000, -0.117187500000, 15.539062500000, 1490848758
-0.085205078125, -1.088378906250, 0.095703125000, -35.992187500000, -0.117187500000, 15.539062500000, 1490848758
-0.033691406250, -1.036865234375, 0.127929687500, -28.906250000000, -1.875000000000, 9.929687500000, 1490848758
-0.085449218750, -0.933105468750, 0.092773437500, 3.171875000000, -3.007812500000, -2.304687500000, 1490848758
-0.085449218750, -0.933105468750, 0.092773437500, 3.171875000000, -3.007812500000, -2.304687500000, 1490848758
-0.085449218750, -0.933105468750, 0.092773437500, 3.171875000000, -3.007812500000, -2.304687500000, 1490848758
-0.085449218750, -0.933105468750, 0.092773437500, 3.171875000000, -3.007812500000, -2.304687500000, 1490848758
0.011474609375, -1.023681640625, 0.221191406250, 20.554687500000, 42.062500000000, -13.710937500000, 1490848758
0.011474609375, -1.023681640625, 0.221191406250, 20.554687500000, 42.062500000000, -13.710937500000, 1490848758
0.011474609375, -1.023681640625, 0.221191406250, 20.554687500000, 42.062500000000, -13.710937500000, 1490848758
0.011474609375, -1.023681640625, 0.221191406250, 20.554687500000, 42.062500000000, -13.710937500000, 1490848758
0.054931640625, -0.928710937500, 0.185791015625, -15.484375000000, -0.460937500000, 4.859375000000, 1490848758
0.054931640625, -0.928710937500, 0.185791015625, -15.484375000000, -0.460937500000, 4.859375000000, 1490848758
0.054931640625, -0.928710937500, 0.185791015625, -15.484375000000, -0.460937500000, 4.859375000000, 1490848758
-0.074218750000, -0.916992187500, 0.208740234375, -30.125000000000, -2.406250000000, -4.875000000000, 1490848758
-0.074218750000, -0.916992187500, 0.208740234375, -30.125000000000, -2.406250000000, -4.875000000000, 1490848758
-0.074218750000, -0.916992187500, 0.208740234375, -30.125000000000, -2.406250000000, -4.875000000000, 1490848758
-0.024658203125, -0.981689453125, 0.124267578125, -6.976562500000, 5.140625000000, -5.906250000000, 1490848758
-0.024658203125, -0.981689453125, 0.124267578125, -6.976562500000, 5.140625000000, -5.906250000000, 1490848758
-0.024658203125, -0.981689453125, 0.124267578125, -6.976562500000, 5.140625000000, -5.906250000000, 1490848758
-0.019287109375, -0.927490234375, 0.324707031250, -0.460937500000, 8.476562500000, -7.609375000000, 1490848758
0.217529296875, -0.998046875000, 0.255859375000, -16.382812500000, -10.625000000000, -8.523437500000, 1490848758
0.217529296875, -0.998046875000, 0.255859375000, -16.382812500000, -10.625000000000, -8.523437500000, 1490848758
0.217529296875, -0.998046875000, 0.255859375000, -16.382812500000, -10.625000000000, -8.523437500000, 1490848758
0.217529296875, -0.998046875000, 0.255859375000, -16.382812500000, -10.625000000000, -8.523437500000, 1490848758
0.217529296875, -0.998046875000, 0.255859375000, -16.382812500000, -10.625000000000, -8.523437500000, 1490848758
0.217529296875, -0.998046875000, 0.255859375000, -16.382812500000, -10.625000000000, -8.523437500000, 1490848758
0.052246093750, -0.929687500000, 0.157470703125, -3.210937500000, 17.710937500000, -6.023437500000, 1490848758
0.052246093750, -0.929687500000, 0.157470703125, -3.210937500000, 17.710937500000, -6.023437500000, 1490848758
0.052246093750, -0.929687500000, 0.157470703125, -3.210937500000, 17.710937500000, -6.023437500000, 1490848758
0.007080078125, -0.948486328125, 0.219238281250, -11.226562500000, 12.640625000000, -8.382812500000, 1490848758
0.007080078125, -0.948486328125, 0.219238281250, -11.226562500000, 12.640625000000, -8.382812500000, 1490848758
0.007080078125, -0.948486328125, 0.219238281250, -11.226562500000, 12.640625000000, -8.382812500000, 1490848758
0.015136718750, -0.924316406250, 0.258056640625, -15.187500000000, -20.250000000000, -12.890625000000, 1490848758
0.015136718750, -0.924316406250, 0.258056640625, -15.187500000000, -20.250000000000, -12.890625000000, 1490848758
0.015136718750, -0.924316406250, 0.258056640625, -15.187500000000, -20.250000000000, -12.890625000000, 1490848758
0.015136718750, -0.924316406250, 0.258056640625, -15.187500000000, -20.250000000000, -12.890625000000, 1490848758
0.061767578125, -0.994140625000, 0.204589843750, -15.195312500000, -11.804687500000, -10.734375000000, 1490848758
0.061767578125, -0.994140625000, 0.204589843750, -15.195312500000, -11.804687500000, -10.734375000000, 1490848758
0.061767578125, -0.994140625000, 0.204589843750, -15.195312500000, -11.804687500000, -10.734375000000, 1490848758
0.051025390625, -1.066650390625, 0.209716796875, -14.445312500000, -13.476562500000, -7.734375000000, 1490848758
0.051025390625, -1.066650390625, 0.209716796875, -14.445312500000, -13.476562500000, -7.734375000000, 1490848758
0.051025390625, -1.066650390625, 0.209716796875, -14.445312500000, -13.476562500000, -7.734375000000, 1490848758
0.034667968750, -0.998535156250, -0.002929687500, -7.078125000000, -11.664062500000, -1.750000000000, 1490848759
0.034667968750, -0.998535156250, -0.002929687500, -7.078125000000, -11.664062500000, -1.750000000000, 1490848759
0.034667968750, -0.998535156250, -0.002929687500, -7.078125000000, -11.664062500000, -1.750000000000, 1490848759
0.058105468750, -1.003662109375, 0.056640625000, 2.085937500000, 12.046875000000, -6.625000000000, 1490848759
0.058105468750, -1.003662109375, 0.056640625000, 2.085937500000, 12.046875000000, -6.625000000000, 1490848759
0.058105468750, -1.003662109375, 0.056640625000, 2.085937500000, 12.046875000000, -6.625000000000, 1490848759
0.058105468750, -1.003662109375, 0.056640625000, 2.085937500000, 12.046875000000, -6.625000000000, 1490848759
0.092529296875, -0.938232421875, 0.107666015625, -2.054687500000, 14.953125000000, -4.945312500000, 1490848759
0.092529296875, -0.938232421875, 0.107666015625, -2.054687500000, 14.953125000000, -4.945312500000, 1490848759
0.092529296875, -0.938232421875, 0.107666015625, -2.054687500000, 14.953125000000, -4.945312500000, 1490848759
0.077880859375, -0.912841796875, 0.053955078125, -8.179687500000, 14.484375000000, -4.367187500000, 1490848759
0.077880859375, -0.912841796875, 0.053955078125, -8.179687500000, 14.484375000000, -4.367187500000, 1490848759
0.077880859375, -0.912841796875, 0.053955078125, -8.179687500000, 14.484375000000, -4.367187500000, 1490848759
0.060791015625, -0.982421875000, 0.043945312500, -8.710937500000, 5.828125000000, 8.804687500000, 1490848759
0.060791015625, -0.982421875000, 0.043945312500, -8.710937500000, 5.828125000000, 8.804687500000, 1490848759
0.060791015625, -0.982421875000, 0.043945312500, -8.710937500000, 5.828125000000, 8.804687500000, 1490848759
-0.015625000000, -0.932861328125, 0.110351562500, 15.187500000000, 12.750000000000, -4.375000000000, 1490848759
-0.015625000000, -0.932861328125, 0.110351562500, 15.187500000000, 12.750000000000, -4.375000000000, 1490848759
-0.015625000000, -0.932861328125, 0.110351562500, 15.187500000000, 12.750000000000, -4.375000000000, 1490848759
-0.015625000000, -0.932861328125, 0.110351562500, 15.187500000000, 12.750000000000, -4.375000000000, 1490848759
0.023193359375, -0.856689453125, 0.126953125000, 16.812500000000, 2.421875000000, -4.820312500000, 1490848759
0.023193359375, -0.856689453125, 0.126953125000, 16.812500000000, 2.421875000000, -4.820312500000, 1490848759
0.023193359375, -0.856689453125, 0.126953125000, 16.812500000000, 2.421875000000, -4.820312500000, 1490848759
0.012939453125, -0.925781250000, 0.218750000000, 3.703125000000, -11.687500000000, -4.968750000000, 1490848759
0.012939453125, -0.925781250000, 0.218750000000, 3.703125000000, -11.687500000000, -4.968750000000, 1490848759
0.012939453125, -0.925781250000, 0.218750000000, 3.703125000000, -11.687500000000, -4.968750000000, 1490848759
0.070068359375, -1.023437500000, 0.116699218750, 2.398437500000, -29.710937500000, 0.695312500000, 1490848759
0.070068359375, -1.023437500000, 0.116699218750, 2.398437500000, -29.710937500000, 0.695312500000, 1490848759
0.070068359375, -1.023437500000, 0.116699218750, 2.398437500000, -29.710937500000, 0.695312500000, 1490848759
0.070556640625, -0.714599609375, 0.036865234375, 27.617187500000, -28.328125000000, 0.375000000000, 1490848759
0.070556640625, -0.714599609375, 0.036865234375, 27.617187500000, -28.328125000000, 0.375000000000, 1490848759
0.070556640625, -0.714599609375, 0.036865234375, 27.617187500000, -28.328125000000, 0.375000000000, 1490848759
0.070556640625, -0.714599609375, 0.036865234375, 27.617187500000, -28.328125000000, 0.375000000000, 1490848759
0.032958984375, -0.627441406250, 0.016845703125, 49.851562500000, -41.578125000000, 3.250000000000, 1490848759
0.032958984375, -0.627441406250, 0.016845703125, 49.851562500000, -41.578125000000, 3.250000000000, 1490848759
0.032958984375, -0.627441406250, 0.016845703125, 49.851562500000, -41.578125000000, 3.250000000000, 1490848759
0.097656250000, -0.333496093750, 0.062744140625, 57.257812500000, -45.937500000000, 4.125000000000, 1490848759
0.097656250000, -0.333496093750, 0.062744140625, 57.257812500000, -45.937500000000, 4.125000000000, 1490848759
0.097656250000, -0.333496093750, 0.062744140625, 57.257812500000, -45.937500000000, 4.125000000000, 1490848759
0.022949218750, -0.186035156250, 0.022949218750, 60.320312500000, -51.656250000000, 5.835937500000, 1490848759
0.022949218750, -0.186035156250, 0.022949218750, 60.320312500000, -51.656250000000, 5.835937500000, 1490848759
0.022949218750, -0.186035156250, 0.022949218750, 60.320312500000, -51.656250000000, 5.835937500000, 1490848759
-0.020996093750, -0.378906250000, 0.113525390625, -29.898437500000, -59.593750000000, 14.351562500000, 1490848759
-0.020996093750, -0.378906250000, 0.113525390625, -29.898437500000, -59.593750000000, 14.351562500000, 1490848759
-0.020996093750, -0.378906250000, 0.113525390625, -29.898437500000, -59.593750000000, 14.351562500000, 1490848759
-0.020996093750, -0.378906250000, 0.113525390625, -29.898437500000, -59.593750000000, 14.351562500000, 1490848759
0.081542968750, -0.589843750000, 0.068115234375, -69.265625000000, 6.695312500000, 14.914062500000, 1490848759
0.081542968750, -0.589843750000, 0.068115234375, -69.265625000000, 6.695312500000, 14.914062500000, 1490848759
0.081542968750, -0.589843750000, 0.068115234375, -69.265625000000, 6.695312500000, 14.914062500000, 1490848759
-0.000732421875, -0.491210937500, -0.015869140625, -56.476562500000, 70.546875000000, -29.851562500000, 1490848759
-0.000732421875, -0.491210937500, -0.015869140625, -56.476562500000, 70.546875000000, -29.851562500000, 1490848759
-0.000732421875, -0.491210937500, -0.015869140625, -56.476562500000, 70.546875000000, -29.851562500000, 1490848759
0.020507812500, -0.510986328125, 0.076171875000, -78.593750000000, 46.859375000000, -86.070312500000, 1490848759
0.020507812500, -0.510986328125, 0.076171875000, -78.593750000000, 46.859375000000, -86.070312500000, 1490848759
0.020507812500, -0.510986328125, 0.076171875000, -78.593750000000, 46.859375000000, -86.070312500000, 1490848759
-0.188720703125, -1.101562500000, -0.044921875000, -235.609375000000, 48.687500000000, 8.570312500000, 1490848759
-0.188720703125, -1.101562500000, -0.044921875000, -235.609375000000, 48.687500000000, 8.570312500000, 1490848759
-0.188720703125, -1.101562500000, -0.044921875000, -235.609375000000, 48.687500000000, 8.570312500000, 1490848759
-0.188720703125, -1.101562500000, -0.044921875000, -235.609375000000, 48.687500000000, 8.570312500000, 1490848759
0.259765625000, -3.442626953125, 0.187988281250, -245.046875000000, 195.593750000000, 186.171875000000, 1490848759
0.259765625000, -3.442626953125, 0.187988281250, -245.046875000000, 195.593750000000, 186.171875000000, 1490848759
0.259765625000, -3.442626953125, 0.187988281250, -245.046875000000, 195.593750000000, 186.171875000000, 1490848759
-0.211669921875, -4.605224609375, 0.112060546875, 247.562500000000, -187.156250000000, 13.421875000000, 1490848759
-0.211669921875, -4.605224609375, 0.112060546875, 247.562500000000, -187.156250000000, 13.421875000000, 1490848759
-0.211669921875, -4.605224609375, 0.112060546875, 247.562500000000, -187.156250000000, 13.421875000000, 1490848759
0.302001953125, -3.914306640625, 0.784179687500, 180.812500000000, -256.000000000000, 129.812500000000, 1490848759
0.302001953125, -3.914306640625, 0.784179687500, 180.812500000000, -256.000000000000, 129.812500000000, 1490848759
0.302001953125, -3.914306640625, 0.784179687500, 180.812500000000, -256.000000000000, 129.812500000000, 1490848759
0.153808593750, -0.401367187500, 0.019287109375, -256.000000000000, -169.132812500000, 253.992187500000, 1490848760
0.153808593750, -0.401367187500, 0.019287109375, -256.000000000000, -169.132812500000, 253.992187500000, 1490848760
0.153808593750, -0.401367187500, 0.019287109375, -256.000000000000, -169.132812500000, 253.992187500000, 1490848760
0.153808593750, -0.401367187500, 0.019287109375, -256.000000000000, -169.132812500000, 253.992187500000, 1490848760
0.022216796875, -0.451904296875, 0.149902343750, -256.000000000000, -88.585937500000, 192.718750000000, 1490848760
0.022216796875, -0.451904296875, 0.149902343750, -256.000000000000, -88.585937500000, 192.718750000000, 1490848760
0.022216796875, -0.451904296875, 0.149902343750, -256.000000000000, -88.585937500000, 192.718750000000, 1490848760
-0.142089843750, -0.219238281250, 0.025146484375, -256.000000000000, -29.984375000000, 119.148437500000, 1490848760
-0.142089843750, -0.219238281250, 0.025146484375, -256.000000000000, -29.984375000000, 119.148437500000, 1490848760
-0.142089843750, -0.219238281250, 0.025146484375, -256.000000000000, -29.984375000000, 119.148437500000, 1490848760
0.027343750000, -0.267822265625, 0.029296875000, -187.226562500000, -32.515625000000, 192.179687500000, 1490848760
0.027343750000, -0.267822265625, 0.029296875000, -187.226562500000, -32.515625000000, 192.179687500000, 1490848760
0.027343750000, -0.267822265625, 0.029296875000, -187.226562500000, -32.515625000000, 192.179687500000, 1490848760
-0.072998046875, -0.207519531250, 0.144531250000, -194.070312500000, -63.437500000000, 253.148437500000, 1490848760
-0.072998046875, -0.207519531250, 0.144531250000, -194.070312500000, -63.437500000000, 253.148437500000, 1490848760
-0.072998046875, -0.207519531250, 0.144531250000, -194.070312500000, -63.437500000000, 253.148437500000, 1490848760
-0.072998046875, -0.207519531250, 0.144531250000, -194.070312500000, -63.437500000000, 253.148437500000, 1490848760
-0.001464843750, -0.230224609375, 0.076416015625, -256.000000000000, -64.195312500000, 159.265625000000, 1490848760
-0.001464843750, -0.230224609375, 0.076416015625, -256.000000000000, -64.195312500000, 159.265625000000, 1490848760
-0.001464843750, -0.230224609375, 0.076416015625, -256.000000000000, -64.195312500000, 159.265625000000, 1490848760
0.053222656250, -0.231201171875, 0.012451171875, -256.000000000000, 16.015625000000, 101.992187500000, 1490848760
0.053222656250, -0.231201171875, 0.012451171875, -256.000000000000, 16.015625000000, 101.992187500000, 1490848760
0.053222656250, -0.231201171875, 0.012451171875, -256.000000000000, 16.015625000000, 101.992187500000, 1490848760
0.041015625000, -0.316894531250, -0.009765625000, -58.953125000000, -85.250000000000, -17.023437500000, 1490848760
0.041015625000, -0.316894531250, -0.009765625000, -58.953125000000, -85.250000000000, -17.023437500000, 1490848760
0.041015625000, -0.316894531250, -0.009765625000, -58.953125000000, -85.250000000000, -17.023437500000, 1490848760
0.553466796875, -0.456542968750, -0.043945312500, 189.343750000000, -169.554687500000, -256.000000000000, 1490848760
0.553466796875, -0.456542968750, -0.043945312500, 189.343750000000, -169.554687500000, -256.000000000000, 1490848760
0.553466796875, -0.456542968750, -0.043945312500, 189.343750000000, -169.554687500000, -256.000000000000, 1490848760
0.553466796875, -0.456542968750, -0.043945312500, 189.343750000000, -169.554687500000, -256.000000000000, 1490848760
8.000000000000, 2.575195312500, 8.000000000000, 253.992187500000, 253.992187500000, -256.000000000000, 1490848760
8.000000000000, 2.575195312500, 8.000000000000, 253.992187500000, 253.992187500000, -256.000000000000, 1490848760
8.000000000000, 2.575195312500, 8.000000000000, 253.992187500000, 253.992187500000, -256.000000000000, 1490848760
0.397705078125, -0.074707031250, 0.234863281250, -176.617187500000, -193.500000000000, 40.585937500000, 1490848760
0.397705078125, -0.074707031250, 0.234863281250, -176.617187500000, -193.500000000000, 40.585937500000, 1490848760
0.397705078125, -0.074707031250, 0.234863281250, -176.617187500000, -193.500000000000, 40.585937500000, 1490848760
0.850585937500, -0.753906250000, 0.110107421875, -256.000000000000, 27.375000000000, 55.804687500000, 1490848760
0.850585937500, -0.753906250000, 0.110107421875, -256.000000000000, 27.375000000000, 55.804687500000, 1490848760
0.850585937500, -0.753906250000, 0.110107421875, -256.000000000000, 27.375000000000, 55.804687500000, 1490848760
1.442138671875, -0.379638671875, 0.647705078125, -16.695312500000, 142.710937500000, -130.179687500000, 1490848760
1.442138671875, -0.379638671875, 0.647705078125, -16.695312500000, 142.710937500000, -130.179687500000, 1490848760
1.442138671875, -0.379638671875, 0.647705078125, -16.695312500000, 142.710937500000, -130.179687500000, 1490848760
1.442138671875, -0.379638671875, 0.647705078125, -16.695312500000, 142.710937500000, -130.179687500000, 1490848760
1.309814453125, 0.012451171875, 0.983154296875, 8.546875000000, 99.164062500000, 29.468750000000, 1490848760
1.309814453125, 0.012451171875, 0.983154296875, 8.546875000000, 99.164062500000, 29.468750000000, 1490848760
1.309814453125, 0.012451171875, 0.983154296875, 8.546875000000, 99.164062500000, 29.468750000000, 1490848760
0.628417968750, -0.184570312500, 1.005126953125, -84.828125000000, 53.765625000000, 37.882812500000, 1490848760
0.628417968750, -0.184570312500, 1.005126953125, -84.828125000000, 53.765625000000, 37.882812500000, 1490848760
0.628417968750, -0.184570312500, 1.005126953125, -84.828125000000, 53.765625000000, 37.882812500000, 1490848760
0.237792968750, -0.448242187500, 0.928710937500, -16.203125000000, 18.679687500000, 34.296875000000, 1490848760
0.237792968750, -0.448242187500, 0.928710937500, -16.203125000000, 18.679687500000, 34.296875000000, 1490848760
0.237792968750, -0.448242187500, 0.928710937500, -16.203125000000, 18.679687500000, 34.296875000000, 1490848760
0.448974609375, -0.108886718750, 0.745117187500, 24.125000000000, -33.234375000000, 17.937500000000, 1490848760
0.448974609375, -0.108886718750, 0.745117187500, 24.125000000000, -33.234375000000, 17.937500000000, 1490848760
0.448974609375, -0.108886718750, 0.745117187500, 24.125000000000, -33.234375000000, 17.937500000000, 1490848760
0.448974609375, -0.108886718750, 0.745117187500, 24.125000000000, -33.234375000000, 17.937500000000, 1490848760
0.274658203125, -0.436767578125, 0.698486328125, -49.148437500000, 21.859375000000, 42.195312500000, 1490848760
0.274658203125, -0.436767578125, 0.698486328125, -49.148437500000, 21.859375000000, 42.195312500000, 1490848760
0.274658203125, -0.436767578125, 0.698486328125, -49.148437500000, 21.859375000000, 42.195312500000, 1490848760
0.270263671875, -0.379882812500, 0.756591796875, -2.664062500000, -10.539062500000, -10.953125000000, 1490848760
0.270263671875, -0.379882812500, 0.756591796875, -2.664062500000, -10.539062500000, -10.953125000000, 1490848760
0.270263671875, -0.379882812500, 0.756591796875, -2.664062500000, -10.539062500000, -10.953125000000, 1490848760
0.545654296875, -0.348388671875, 0.803466796875, 70.250000000000, 61.687500000000, -15.015625000000, 1490848760
0.545654296875, -0.348388671875, 0.803466796875, 70.250000000000, 61.687500000000, -15.015625000000, 1490848760
0.545654296875, -0.348388671875, 0.803466796875, 70.250000000000, 61.687500000000, -15.015625000000, 1490848760
0.543945312500, -0.483154296875, 1.212646484375, 27.539062500000, -1.382812500000, 16.515625000000, 1490848761
0.543945312500, -0.483154296875, 1.212646484375, 27.539062500000, -1.382812500000, 16.515625000000, 1490848761
0.543945312500, -0.483154296875, 1.212646484375, 27.539062500000, -1.382812500000, 16.515625000000, 1490848761
0.543945312500, -0.483154296875, 1.212646484375, 27.539062500000, -1.382812500000, 16.515625000000, 1490848761
0.241699218750, -0.352294921875, 0.920166015625, -47.539062500000, -46.210937500000, 40.250000000000, 1490848761
0.241699218750, -0.352294921875, 0.920166015625, -47.539062500000, -46.210937500000, 40.250000000000, 1490848761
0.241699218750, -0.352294921875, 0.920166015625, -47.539062500000, -46.210937500000, 40.250000000000, 1490848761
0.296630859375, -0.449462890625, 0.694091796875, -80.203125000000, -96.625000000000, 13.679687500000, 1490848761
0.296630859375, -0.449462890625, 0.694091796875, -80.203125000000, -96.625000000000, 13.679687500000, 1490848761
0.296630859375, -0.449462890625, 0.694091796875, -80.203125000000, -96.625000000000, 13.679687500000, 1490848761
0.559570312500, -0.233886718750, 0.698974609375, 41.093750000000, 84.046875000000, -40.429687500000, 1490848761
0.559570312500, -0.233886718750, 0.698974609375, 41.093750000000, 84.046875000000, -40.429687500000, 1490848761
0.559570312500, -0.233886718750, 0.698974609375, 41.093750000000, 84.046875000000, -40.429687500000, 1490848761
0.659912109375, -0.501953125000, 1.338623046875, 71.617187500000, 0.937500000000, -17.867187500000, 1490848761
0.659912109375, -0.501953125000, 1.338623046875, 71.617187500000, 0.937500000000, -17.867187500000, 1490848761
0.659912109375, -0.501953125000, 1.338623046875, 71.617187500000, 0.937500000000, -17.867187500000, 1490848761
0.659912109375, -0.501953125000, 1.338623046875, 71.617187500000, 0.937500000000, -17.867187500000, 1490848761
0.445312500000, -0.398925781250, 0.773681640625, -136.187500000000, -70.093750000000, 29.859375000000, 1490848761
0.445312500000, -0.398925781250, 0.773681640625, -136.187500000000, -70.093750000000, 29.859375000000, 1490848761
0.445312500000, -0.398925781250, 0.773681640625, -136.187500000000, -70.093750000000, 29.859375000000, 1490848761
0.264648437500, -0.373291015625, 0.473876953125, -81.640625000000, -75.992187500000, 8.210937500000, 1490848761
0.264648437500, -0.373291015625, 0.473876953125, -81.640625000000, -75.992187500000, 8.210937500000, 1490848761
0.264648437500, -0.373291015625, 0.473876953125, -81.640625000000, -75.992187500000, 8.210937500000, 1490848761
0.522705078125, -0.369140625000, 0.596923828125, 54.335937500000, 53.570312500000, -41.757812500000, 1490848761
0.522705078125, -0.369140625000, 0.596923828125, 54.335937500000, 53.570312500000, -41.757812500000, 1490848761
0.522705078125, -0.369140625000, 0.596923828125, 54.335937500000, 53.570312500000, -41.757812500000, 1490848761
0.475585937500, -0.437011718750, 1.267089843750, 103.695312500000, 39.492187500000, -24.320312500000, 1490848761
0.475585937500, -0.437011718750, 1.267089843750, 103.695312500000, 39.492187500000, -24.320312500000, 1490848761
0.475585937500, -0.437011718750, 1.267089843750, 103.695312500000, 39.492187500000, -24.320312500000, 1490848761
0.475585937500, -0.437011718750, 1.267089843750, 103.695312500000, 39.492187500000, -24.320312500000, 1490848761
0.535644531250, -0.309814453125, 1.075683593750, -59.968750000000, -18.117187500000, 12.820312500000, 1490848761
0.535644531250, -0.309814453125, 1.075683593750, -59.968750000000, -18.117187500000, 12.820312500000, 1490848761
0.535644531250, -0.309814453125, 1.075683593750, -59.968750000000, -18.117187500000, 12.820312500000, 1490848761
0.354736328125, -0.291259765625, 0.612548828125, -82.812500000000, -36.156250000000, 13.109375000000, 1490848761
0.354736328125, -0.291259765625, 0.612548828125, -82.812500000000, -36.156250000000, 13.109375000000, 1490848761
0.354736328125, -0.291259765625, 0.612548828125, -82.812500000000, -36.156250000000, 13.109375000000, 1490848761
0.335937500000, -0.359375000000, 0.604736328125, -7.687500000000, -6.703125000000, -8.703125000000, 1490848761
0.335937500000, -0.359375000000, 0.604736328125, -7.687500000000, -6.703125000000, -8.703125000000, 1490848761
0.335937500000, -0.359375000000, 0.604736328125, -7.687500000000, -6.703125000000, -8.703125000000, 1490848761
0.469970703125, -0.430175781250, 0.934814453125, 50.484375000000, 30.765625000000, -11.601562500000, 1490848761
0.469970703125, -0.430175781250, 0.934814453125, 50.484375000000, 30.765625000000, -11.601562500000, 1490848761
0.469970703125, -0.430175781250, 0.934814453125, 50.484375000000, 30.765625000000, -11.601562500000, 1490848761
0.469970703125, -0.430175781250, 0.934814453125, 50.484375000000, 30.765625000000, -11.601562500000, 1490848761
0.573974609375, -0.510986328125, 1.010498046875, -3.617187500000, 1.523437500000, 4.562500000000, 1490848761
0.573974609375, -0.510986328125, 1.010498046875, -3.617187500000, 1.523437500000, 4.562500000000, 1490848761
0.573974609375, -0.510986328125, 1.010498046875, -3.617187500000, 1.523437500000, 4.562500000000, 1490848761
0.445800781250, -0.332519531250, 0.829833984375, -22.289062500000, -9.960937500000, 4.515625000000, 1490848761
0.445800781250, -0.332519531250, 0.829833984375, -22.289062500000, -9.960937500000, 4.515625000000, 1490848761
0.445800781250, -0.332519531250, 0.829833984375, -22.289062500000, -9.960937500000, 4.515625000000, 1490848761
0.336914062500, -0.355712890625, 0.746337890625, -0.429687500000, -0.414062500000, -2.406250000000, 1490848761
0.336914062500, -0.355712890625, 0.746337890625, -0.429687500000, -0.414062500000, -2.406250000000, 1490848761
0.336914062500, -0.355712890625, 0.746337890625, -0.429687500000, -0.414062500000, -2.406250000000, 1490848761
0.562744140625, -0.462646484375, 0.963134765625, 7.960937500000, 5.062500000000, -6.203125000000, 1490848761
0.562744140625, -0.462646484375, 0.963134765625, 7.960937500000, 5.062500000000, -6.203125000000, 1490848761
0.562744140625, -0.462646484375, 0.963134765625, 7.960937500000, 5.062500000000, -6.203125000000, 1490848761
0.562744140625, -0.462646484375, 0.963134765625, 7.960937500000, 5.062500000000, -6.203125000000, 1490848761
0.521484375000, -0.429443359375, 0.850830078125, -3.789062500000, -0.187500000000, 0.539062500000, 1490848761
0.521484375000, -0.429443359375, 0.850830078125, -3.789062500000, -0.187500000000, 0.539062500000, 1490848761
0.521484375000, -0.429443359375, 0.850830078125, -3.789062500000, -0.187500000000, 0.539062500000, 1490848761
0.458984375000, -0.419433593750, 0.793457031250, -12.648437500000, -0.117187500000, 2.554687500000, 1490848761
0.458984375000, -0.419433593750, 0.793457031250, -12.648437500000, -0.117187500000, 2.554687500000, 1490848761
0.458984375000, -0.419433593750, 0.793457031250, -12.648437500000, -0.117187500000, 2.554687500000, 1490848761
0.439453125000, -0.512451171875, 0.787841796875, -10.117187500000, 0.085937500000, -4.359375000000, 1490848761
0.439453125000, -0.512451171875, 0.787841796875, -10.117187500000, 0.085937500000, -4.359375000000, 1490848761
0.439453125000, -0.512451171875, 0.787841796875, -10.117187500000, 0.085937500000, -4.359375000000, 1490848761
0.463867187500, -0.426513671875, 0.789062500000, -1.851562500000, 4.164062500000, -6.343750000000, 1490848761
0.463867187500, -0.426513671875, 0.789062500000, -1.851562500000, 4.164062500000, -6.343750000000, 1490848761
0.463867187500, -0.426513671875, 0.789062500000, -1.851562500000, 4.164062500000, -6.343750000000, 1490848761
0.463867187500, -0.426513671875, 0.789062500000, -1.851562500000, 4.164062500000, -6.343750000000, 1490848762
0.447753906250, -0.418212890625, 0.895019531250, -5.656250000000, 2.835937500000, -1.882812500000, 1490848762
0.447753906250, -0.418212890625, 0.895019531250, -5.656250000000, 2.835937500000, -1.882812500000, 1490848762
0.447753906250, -0.418212890625, 0.895019531250, -5.656250000000, 2.835937500000, -1.882812500000, 1490848762
0.478271484375, -0.444580078125, 0.781494140625, -7.351562500000, 1.140625000000, -2.054687500000, 1490848762
0.478271484375, -0.444580078125, 0.781494140625, -7.351562500000, 1.140625000000, -2.054687500000, 1490848762
0.478271484375, -0.444580078125, 0.781494140625, -7.351562500000, 1.140625000000, -2.054687500000, 1490848762
0.458984375000, -0.432373046875, 0.878906250000, -5.687500000000, 2.796875000000, -4.101562500000, 1490848762
0.458984375000, -0.432373046875, 0.878906250000, -5.687500000000, 2.796875000000, -4.101562500000, 1490848762
0.458984375000, -0.432373046875, 0.878906250000, -5.687500000000, 2.796875000000, -4.101562500000, 1490848762
0.481445312500, -0.501464843750, 0.905761718750, -1.843750000000, 2.953125000000, -4.101562500000, 1490848762
0.481445312500, -0.501464843750, 0.905761718750, -1.843750000000, 2.953125000000, -4.101562500000, 1490848762
0.481445312500, -0.501464843750, 0.905761718750, -1.843750000000, 2.953125000000, -4.101562500000, 1490848762
0.481445312500, -0.501464843750, 0.905761718750, -1.843750000000, 2.953125000000, -4.101562500000, 1490848762
0.367187500000, -0.447021484375, 0.939453125000, -2.578125000000, 0.742187500000, -4.625000000000, 1490848762
0.367187500000, -0.447021484375, 0.939453125000, -2.578125000000, 0.742187500000, -4.625000000000, 1490848762
0.367187500000, -0.447021484375, 0.939453125000, -2.578125000000, 0.742187500000, -4.625000000000, 1490848762
0.344970703125, -0.504882812500, 0.892089843750, -4.437500000000, 0.234375000000, -2.734375000000, 1490848762
0.344970703125, -0.504882812500, 0.892089843750, -4.437500000000, 0.234375000000, -2.734375000000, 1490848762
0.344970703125, -0.504882812500, 0.892089843750, -4.437500000000, 0.234375000000, -2.734375000000, 1490848762
0.431640625000, -0.462646484375, 0.803222656250, 0.953125000000, -2.460937500000, -1.234375000000, 1490848762
0.431640625000, -0.462646484375, 0.803222656250, 0.953125000000, -2.460937500000, -1.234375000000, 1490848762
0.431640625000, -0.462646484375, 0.803222656250, 0.953125000000, -2.460937500000, -1.234375000000, 1490848762
0.372070312500, -0.372558593750, 0.837158203125, -12.390625000000, -8.523437500000, 3.804687500000, 1490848762
0.372070312500, -0.372558593750, 0.837158203125, -12.390625000000, -8.523437500000, 3.804687500000, 1490848762
0.372070312500, -0.372558593750, 0.837158203125, -12.390625000000, -8.523437500000, 3.804687500000, 1490848762
0.372070312500, -0.372558593750, 0.837158203125, -12.390625000000, -8.523437500000, 3.804687500000, 1490848762
0.441894531250, -0.438232421875, 0.729248046875, -8.195312500000, 2.601562500000, -1.234375000000, 1490848762
0.441894531250, -0.438232421875, 0.729248046875, -8.195312500000, 2.601562500000, -1.234375000000, 1490848762
0.441894531250, -0.438232421875, 0.729248046875, -8.195312500000, 2.601562500000, -1.234375000000, 1490848762
0.454101562500, -0.427734375000, 0.902099609375, -3.742187500000, 2.203125000000, -1.750000000000, 1490848762
0.454101562500, -0.427734375000, 0.902099609375, -3.742187500000, 2.203125000000, -1.750000000000, 1490848762
0.454101562500, -0.427734375000, 0.902099609375, -3.742187500000, 2.203125000000, -1.750000000000, 1490848762
0.528076171875, -0.440917968750, 0.804687500000, -2.320312500000, -4.039062500000, -3.367187500000, 1490848762
0.528076171875, -0.440917968750, 0.804687500000, -2.320312500000, -4.039062500000, -3.367187500000, 1490848762
0.528076171875, -0.440917968750, 0.804687500000, -2.320312500000, -4.039062500000, -3.367187500000, 1490848762
0.524658203125, -0.365478515625, 0.903320312500, -2.960937500000, -6.726562500000, -0.500000000000, 1490848762
0.524658203125, -0.365478515625, 0.903320312500, -2.960937500000, -6.726562500000, -0.500000000000, 1490848762
0.524658203125, -0.365478515625, 0.903320312500, -2.960937500000, -6.726562500000, -0.500000000000, 1490848762
0.524658203125, -0.365478515625, 0.903320312500, -2.960937500000, -6.726562500000, -0.500000000000, 1490848762
0.355468750000, -0.409423828125, 0.806884765625, -10.125000000000, -6.351562500000, -2.398437500000, 1490848762
0.355468750000, -0.409423828125, 0.806884765625, -10.125000000000, -6.351562500000, -2.398437500000, 1490848762
0.355468750000, -0.409423828125, 0.806884765625, -10.125000000000, -6.351562500000, -2.398437500000, 1490848762
0.447265625000, -0.432373046875, 0.841796875000, 1.250000000000, -1.953125000000, -6.609375000000, 1490848762
0.447265625000, -0.432373046875, 0.841796875000, 1.250000000000, -1.953125000000, -6.609375000000, 1490848762
0.447265625000, -0.432373046875, 0.841796875000, 1.250000000000, -1.953125000000, -6.609375000000, 1490848762
0.387207031250, -0.427978515625, 0.837890625000, 0.656250000000, -0.164062500000, -4.812500000000, 1490848762
0.387207031250, -0.427978515625, 0.837890625000, 0.656250000000, -0.164062500000, -4.812500000000, 1490848762
0.387207031250, -0.427978515625, 0.837890625000, 0.656250000000, -0.164062500000, -4.812500000000, 1490848762
0.423339843750, -0.448486328125, 0.899902343750, -3.812500000000, 3.890625000000, -1.953125000000, 1490848762
0.423339843750, -0.448486328125, 0.899902343750, -3.812500000000, 3.890625000000, -1.953125000000, 1490848762
0.423339843750, -0.448486328125, 0.899902343750, -3.812500000000, 3.890625000000, -1.953125000000, 1490848762
0.423339843750, -0.448486328125, 0.899902343750, -3.812500000000, 3.890625000000, -1.953125000000, 1490848762
0.425048828125, -0.288085937500, 0.899414062500, -6.625000000000, 3.117187500000, 0.640625000000, 1490848762
0.425048828125, -0.288085937500, 0.899414062500, -6.625000000000, 3.117187500000, 0.640625000000, 1490848762
0.425048828125, -0.288085937500, 0.899414062500, -6.625000000000, 3.117187500000, 0.640625000000, 1490848762
0.360351562500, -0.380859375000, 0.805175781250, -8.468750000000, -2.992187500000, 2.132812500000, 1490848762
0.360351562500, -0.380859375000, 0.805175781250, -8.468750000000, -2.992187500000, 2.132812500000, 1490848762
0.360351562500, -0.380859375000, 0.805175781250, -8.468750000000, -2.992187500000, 2.132812500000, 1490848762
0.392822265625, -0.530273437500, 0.841796875000, -3.000000000000, -4.820312500000, -3.007812500000, 1490848762
0.392822265625, -0.530273437500, 0.841796875000, -3.000000000000, -4.820312500000, -3.007812500000, 1490848762
0.392822265625, -0.530273437500, 0.841796875000, -3.000000000000, -4.820312500000, -3.007812500000, 1490848762
0.505615234375, -0.456542968750, 0.881835937500, 2.781250000000, -2.343750000000, -6.195312500000, 1490848762
0.505615234375, -0.456542968750, 0.881835937500, 2.781250000000, -2.343750000000, -6.195312500000, 1490848762
0.505615234375, -0.456542968750, 0.881835937500, 2.781250000000, -2.343750000000, -6.195312500000, 1490848762
0.505615234375, -0.456542968750, 0.881835937500, 2.781250000000, -2.343750000000, -6.195312500000, 1490848762
0.525146484375, -0.354248046875, 0.890380859375, -4.468750000000, -0.406250000000, -4.531250000000, 1490848763
0.525146484375, -0.354248046875, 0.890380859375, -4.468750000000, -0.406250000000, -4.531250000000, 1490848763
0.525146484375, -0.354248046875, 0.890380859375, -4.468750000000, -0.406250000000, -4.531250000000, 1490848763
0.410400390625, -0.457519531250, 0.802246093750, -4.828125000000, 0.718750000000, -8.531250000000, 1490848763
0.410400390625, -0.457519531250, 0.802246093750, -4.828125000000, 0.718750000000, -8.531250000000, 1490848763
0.410400390625, -0.457519531250, 0.802246093750, -4.828125000000, 0.718750000000, -8.531250000000, 1490848763
0.371826171875, -0.462646484375, 0.798339843750, -1.578125000000, 4.421875000000, -3.804687500000, 1490848763
0.371826171875, -0.462646484375, 0.798339843750, -1.578125000000, 4.421875000000, -3.804687500000, 1490848763
0.371826171875, -0.462646484375, 0.798339843750, -1.578125000000, 4.421875000000, -3.804687500000, 1490848763
0.408203125000, -0.462402343750, 0.815917968750, -7.835937500000, 4.656250000000, -5.414062500000, 1490848763
0.408203125000, -0.462402343750, 0.815917968750, -7.835937500000, 4.656250000000, -5.414062500000, 1490848763
0.408203125000, -0.462402343750, 0.815917968750, -7.835937500000, 4.656250000000, -5.414062500000, 1490848763
0.408203125000, -0.462402343750, 0.815917968750, -7.835937500000, 4.656250000000, -5.414062500000, 1490848763
0.349853515625, -0.462890625000, 0.829345703125, 2.406250000000, 4.265625000000, -7.320312500000, 1490848763
0.349853515625, -0.462890625000, 0.829345703125, 2.406250000000, 4.265625000000, -7.320312500000, 1490848763
0.349853515625, -0.462890625000, 0.829345703125, 2.406250000000, 4.265625000000, -7.320312500000, 1490848763
0.407470703125, -0.420654296875, 0.938232421875, -4.250000000000, 0.179687500000, -1.695312500000, 1490848763
0.407470703125, -0.420654296875, 0.938232421875, -4.250000000000, 0.179687500000, -1.695312500000, 1490848763
0.407470703125, -0.420654296875, 0.938232421875, -4.250000000000, 0.179687500000, -1.695312500000, 1490848763
0.446044921875, -0.466064453125, 0.811035156250, -1.617187500000, 2.335937500000, -3.578125000000, 1490848763
0.446044921875, -0.466064453125, 0.811035156250, -1.617187500000, 2.335937500000, -3.578125000000, 1490848763
0.446044921875, -0.466064453125, 0.811035156250, -1.617187500000, 2.335937500000, -3.578125000000, 1490848763
0.416748046875, -0.352539062500, 0.801513671875, -6.039062500000, 0.804687500000, -5.023437500000, 1490848763
0.416748046875, -0.352539062500, 0.801513671875, -6.039062500000, 0.804687500000, -5.023437500000, 1490848763
0.416748046875, -0.352539062500, 0.801513671875, -6.039062500000, 0.804687500000, -5.023437500000, 1490848763
0.416748046875, -0.352539062500, 0.801513671875, -6.039062500000, 0.804687500000, -5.023437500000, 1490848763
0.478271484375, -0.527587890625, 0.845703125000, -5.007812500000, -0.546875000000, -2.226562500000, 1490848763
0.478271484375, -0.527587890625, 0.845703125000, -5.007812500000, -0.546875000000, -2.226562500000, 1490848763
0.478271484375, -0.527587890625, 0.845703125000, -5.007812500000, -0.546875000000, -2.226562500000, 1490848763
0.501953125000, -0.394775390625, 0.854980468750, -6.078125000000, 0.015625000000, -1.765625000000, 1490848763
0.501953125000, -0.394775390625, 0.854980468750, -6.078125000000, 0.015625000000, -1.765625000000, 1490848763
0.501953125000, -0.394775390625, 0.854980468750, -6.078125000000, 0.015625000000, -1.765625000000, 1490848763
0.449218750000, -0.409179687500, 0.796386718750, -4.304687500000, -0.281250000000, -4.804687500000, 1490848763
0.449218750000, -0.409179687500, 0.796386718750, -4.304687500000, -0.281250000000, -4.804687500000, 1490848763
0.449218750000, -0.409179687500, 0.796386718750, -4.304687500000, -0.281250000000, -4.804687500000, 1490848763
0.374755859375, -0.500488281250, 0.850585937500, -3.312500000000, -0.296875000000, -5.476562500000, 1490848763
0.374755859375, -0.500488281250, 0.850585937500, -3.312500000000, -0.296875000000, -5.476562500000, 1490848763
0.374755859375, -0.500488281250, 0.850585937500, -3.312500000000, -0.296875000000, -5.476562500000, 1490848763
0.374755859375, -0.500488281250, 0.850585937500, -3.312500000000, -0.296875000000, -5.476562500000, 1490848763
0.487792968750, -0.529052734375, 0.807861328125, -0.726562500000, 4.140625000000, -5.726562500000, 1490848763
0.487792968750, -0.529052734375, 0.807861328125, -0.726562500000, 4.140625000000, -5.726562500000, 1490848763
0.487792968750, -0.529052734375, 0.807861328125, -0.726562500000, 4.140625000000, -5.726562500000, 1490848763
0.438720703125, -0.466552734375, 0.859130859375, -1.859375000000, -1.515625000000, -3.890625000000, 1490848763
0.438720703125, -0.466552734375, 0.859130859375, -1.859375000000, -1.515625000000, -3.890625000000, 1490848763
0.438720703125, -0.466552734375, 0.859130859375, -1.859375000000, -1.515625000000, -3.890625000000, 1490848763
0.418945312500, -0.496826171875, 0.791259765625, -4.023437500000, 1.187500000000, -4.609375000000, 1490848763
0.418945312500, -0.496826171875, 0.791259765625, -4.023437500000, 1.187500000000, -4.609375000000, 1490848763
0.418945312500, -0.496826171875, 0.791259765625, -4.023437500000, 1.187500000000, -4.609375000000, 1490848763
0.474121093750, -0.640380859375, 0.843994140625, -8.929687500000, -0.257812500000, -4.632812500000, 1490848763
0.474121093750, -0.640380859375, 0.843994140625, -8.929687500000, -0.257812500000, -4.632812500000, 1490848763
0.474121093750, -0.640380859375, 0.843994140625, -8.929687500000, -0.257812500000, -4.632812500000, 1490848763
0.474121093750, -0.640380859375, 0.843994140625, -8.929687500000, -0.257812500000, -4.632812500000, 1490848763
0.505126953125, -0.459960937500, 0.892089843750, -5.320312500000, 2.468750000000, -6.007812500000, 1490848763
0.505126953125, -0.459960937500, 0.892089843750, -5.320312500000, 2.468750000000, -6.007812500000, 1490848763
0.505126953125, -0.459960937500, 0.892089843750, -5.320312500000, 2.468750000000, -6.007812500000, 1490848763
0.346191406250, -0.306396484375, 0.795898437500, -5.015625000000, 2.125000000000, -1.218750000000, 1490848763
0.346191406250, -0.306396484375, 0.795898437500, -5.015625000000, 2.125000000000, -1.218750000000, 1490848763
0.346191406250, -0.306396484375, 0.795898437500, -5.015625000000, 2.125000000000, -1.218750000000, 1490848763
0.416503906250, -0.459472656250, 0.808837890625, -3.179687500000, 2.351562500000, -3.289062500000, 1490848763
0.416503906250, -0.459472656250, 0.808837890625, -3.179687500000, 2.351562500000, -3.289062500000, 1490848763
0.416503906250, -0.459472656250, 0.808837890625, -3.179687500000, 2.351562500000, -3.289062500000, 1490848763
0.373779296875, -0.415527343750, 0.801513671875, -1.718750000000, 0.093750000000, -3.265625000000, 1490848763
0.373779296875, -0.415527343750, 0.801513671875, -1.718750000000, 0.093750000000, -3.265625000000, 1490848763
0.373779296875, -0.415527343750, 0.801513671875, -1.718750000000, 0.093750000000, -3.265625000000, 1490848763
0.373779296875, -0.415527343750, 0.801513671875, -1.718750000000, 0.093750000000, -3.265625000000, 1490848763
0.466796875000, -0.419921875000, 0.834716796875, -4.296875000000, 0.523437500000, -3.054687500000, 1490848763
0.466796875000, -0.419921875000, 0.834716796875, -4.296875000000, 0.523437500000, -3.054687500000, 1490848763
0.466796875000, -0.419921875000, 0.834716796875, -4.296875000000, 0.523437500000, -3.054687500000, 1490848763
0.512207031250, -0.508789062500, 0.882568359375, -4.507812500000, 2.281250000000, -3.000000000000, 1490848764
0.512207031250, -0.508789062500, 0.882568359375, -4.507812500000, 2.281250000000, -3.000000000000, 1490848764
0.512207031250, -0.508789062500, 0.882568359375, -4.507812500000, 2.281250000000, -3.000000000000, 1490848764
0.444091796875, -0.409912109375, 0.883056640625, -1.953125000000, -1.039062500000, -2.593750000000, 1490848764
0.444091796875, -0.409912109375, 0.883056640625, -1.953125000000, -1.039062500000, -2.593750000000, 1490848764
0.444091796875, -0.409912109375, 0.883056640625, -1.953125000000, -1.039062500000, -2.593750000000, 1490848764
0.455322265625, -0.374511718750, 0.807128906250, -4.007812500000, 2.750000000000, -4.414062500000, 1490848764
0.455322265625, -0.374511718750, 0.807128906250, -4.007812500000, 2.750000000000, -4.414062500000, 1490848764
0.455322265625, -0.374511718750, 0.807128906250, -4.007812500000, 2.750000000000, -4.414062500000, 1490848764
0.455322265625, -0.374511718750, 0.807128906250, -4.007812500000, 2.750000000000, -4.414062500000, 1490848764
0.413085937500, -0.433349609375, 0.731201171875, -8.406250000000, 0.710937500000, -1.460937500000, 1490848764
0.413085937500, -0.433349609375, 0.731201171875, -8.406250000000, 0.710937500000, -1.460937500000, 1490848764
0.413085937500, -0.433349609375, 0.731201171875, -8.406250000000, 0.710937500000, -1.460937500000, 1490848764
