ACC_X,ACC_Y,ACC_Z,G_X,G_Y,G_Z,Unix Time
0.115966796875, 0.796142578125, -0.362792968750, -1.585937500000, -2.648437500000, -3.367187500000, 1491363127
0.115966796875, 0.796142578125, -0.362792968750, -1.585937500000, -2.648437500000, -3.367187500000, 1491363127
0.115966796875, 0.796142578125, -0.362792968750, -1.585937500000, -2.648437500000, -3.367187500000, 1491363127
0.115966796875, 0.796142578125, -0.362792968750, -1.585937500000, -2.648437500000, -3.367187500000, 1491363127
0.157470703125, 1.002929687500, -0.285400390625, -6.570312500000, 1.351562500000, -1.773437500000, 1491363127
0.157470703125, 1.002929687500, -0.285400390625, -6.570312500000, 1.351562500000, -1.773437500000, 1491363127
0.157470703125, 1.002929687500, -0.285400390625, -6.570312500000, 1.351562500000, -1.773437500000, 1491363127
0.196777343750, 0.874511718750, -0.382080078125, -6.734375000000, -2.679687500000, -1.507812500000, 1491363127
0.196777343750, 0.874511718750, -0.382080078125, -6.734375000000, -2.679687500000, -1.507812500000, 1491363127
0.196777343750, 0.874511718750, -0.382080078125, -6.734375000000, -2.679687500000, -1.507812500000, 1491363127
0.112548828125, 0.906250000000, -0.374511718750, -4.500000000000, -0.851562500000, 0.328125000000, 1491363127
0.112548828125, 0.906250000000, -0.374511718750, -4.500000000000, -0.851562500000, 0.328125000000, 1491363127
0.112548828125, 0.906250000000, -0.374511718750, -4.500000000000, -0.851562500000, 0.328125000000, 1491363127
0.273437500000, 0.896972656250, -0.354736328125, -3.835937500000, -0.382812500000, -1.343750000000, 1491363127
0.273437500000, 0.896972656250, -0.354736328125, -3.835937500000, -0.382812500000, -1.343750000000, 1491363127
0.273437500000, 0.896972656250, -0.354736328125, -3.835937500000, -0.382812500000, -1.343750000000, 1491363127
0.273437500000, 0.896972656250, -0.354736328125, -3.835937500000, -0.382812500000, -1.343750000000, 1491363127
0.194580078125, 0.859130859375, -0.372802734375, -4.906250000000, 0.875000000000, -4.601562500000, 1491363127
0.194580078125, 0.859130859375, -0.372802734375, -4.906250000000, 0.875000000000, -4.601562500000, 1491363127
0.194580078125, 0.859130859375, -0.372802734375, -4.906250000000, 0.875000000000, -4.601562500000, 1491363127
0.120361328125, 0.959472656250, -0.400390625000, -3.109375000000, -0.328125000000, -3.437500000000, 1491363127
0.120361328125, 0.959472656250, -0.400390625000, -3.109375000000, -0.328125000000, -3.437500000000, 1491363127
0.120361328125, 0.959472656250, -0.400390625000, -3.109375000000, -0.328125000000, -3.437500000000, 1491363127
0.190673828125, 0.845947265625, -0.392578125000, -4.984375000000, -0.390625000000, -3.960937500000, 1491363127
0.190673828125, 0.845947265625, -0.392578125000, -4.984375000000, -0.390625000000, -3.960937500000, 1491363127
0.190673828125, 0.845947265625, -0.392578125000, -4.984375000000, -0.390625000000, -3.960937500000, 1491363127
0.163330078125, 0.900146484375, -0.452880859375, -4.421875000000, 0.054687500000, -2.937500000000, 1491363127
0.163330078125, 0.900146484375, -0.452880859375, -4.421875000000, 0.054687500000, -2.937500000000, 1491363127
0.163330078125, 0.900146484375, -0.452880859375, -4.421875000000, 0.054687500000, -2.937500000000, 1491363127
0.163330078125, 0.900146484375, -0.452880859375, -4.421875000000, 0.054687500000, -2.937500000000, 1491363127
0.203125000000, 0.924316406250, -0.385742187500, -3.695312500000, 3.359375000000, -4.546875000000, 1491363127
0.203125000000, 0.924316406250, -0.385742187500, -3.695312500000, 3.359375000000, -4.546875000000, 1491363127
0.203125000000, 0.924316406250, -0.385742187500, -3.695312500000, 3.359375000000, -4.546875000000, 1491363127
0.205078125000, 0.853271484375, -0.325195312500, -3.671875000000, -4.312500000000, -3.484375000000, 1491363127
0.205078125000, 0.853271484375, -0.325195312500, -3.671875000000, -4.312500000000, -3.484375000000, 1491363127
0.205078125000, 0.853271484375, -0.325195312500, -3.671875000000, -4.312500000000, -3.484375000000, 1491363127
0.271728515625, 0.843750000000, -0.350097656250, -4.046875000000, 2.218750000000, 0.226562500000, 1491363127
0.271728515625, 0.843750000000, -0.350097656250, -4.046875000000, 2.218750000000, 0.226562500000, 1491363127
0.271728515625, 0.843750000000, -0.350097656250, -4.046875000000, 2.218750000000, 0.226562500000, 1491363127
0.094238281250, 0.854736328125, -0.449707031250, -4.671875000000, 4.843750000000, -1.148437500000, 1491363127
0.094238281250, 0.854736328125, -0.449707031250, -4.671875000000, 4.843750000000, -1.148437500000, 1491363127
0.094238281250, 0.854736328125, -0.449707031250, -4.671875000000, 4.843750000000, -1.148437500000, 1491363127
0.094238281250, 0.854736328125, -0.449707031250, -4.671875000000, 4.843750000000, -1.148437500000, 1491363127
0.148681640625, 0.965087890625, -0.312255859375, -4.492187500000, -1.890625000000, -1.945312500000, 1491363127
0.148681640625, 0.965087890625, -0.312255859375, -4.492187500000, -1.890625000000, -1.945312500000, 1491363127
0.148681640625, 0.965087890625, -0.312255859375, -4.492187500000, -1.890625000000, -1.945312500000, 1491363127
0.201660156250, 0.870849609375, -0.398925781250, -6.250000000000, 2.867187500000, -4.468750000000, 1491363127
0.201660156250, 0.870849609375, -0.398925781250, -6.250000000000, 2.867187500000, -4.468750000000, 1491363127
0.201660156250, 0.870849609375, -0.398925781250, -6.250000000000, 2.867187500000, -4.468750000000, 1491363127
0.211425781250, 0.928710937500, -0.403564453125, -5.164062500000, 1.195312500000, -1.953125000000, 1491363127
0.211425781250, 0.928710937500, -0.403564453125, -5.164062500000, 1.195312500000, -1.953125000000, 1491363127
0.211425781250, 0.928710937500, -0.403564453125, -5.164062500000, 1.195312500000, -1.953125000000, 1491363127
0.096435546875, 0.853515625000, -0.302246093750, -1.625000000000, -0.750000000000, -3.398437500000, 1491363127
0.096435546875, 0.853515625000, -0.302246093750, -1.625000000000, -0.750000000000, -3.398437500000, 1491363127
0.096435546875, 0.853515625000, -0.302246093750, -1.625000000000, -0.750000000000, -3.398437500000, 1491363127
0.096435546875, 0.853515625000, -0.302246093750, -1.625000000000, -0.750000000000, -3.398437500000, 1491363127
0.125488281250, 0.796630859375, -0.312011718750, -5.960937500000, -0.390625000000, -1.609375000000, 1491363127
0.125488281250, 0.796630859375, -0.312011718750, -5.960937500000, -0.390625000000, -1.609375000000, 1491363127
0.125488281250, 0.796630859375, -0.312011718750, -5.960937500000, -0.390625000000, -1.609375000000, 1491363127
0.099365234375, 0.884277343750, -0.442871093750, -6.398437500000, 0.406250000000, 0.804687500000, 1491363127
0.099365234375, 0.884277343750, -0.442871093750, -6.398437500000, 0.406250000000, 0.804687500000, 1491363127
0.099365234375, 0.884277343750, -0.442871093750, -6.398437500000, 0.406250000000, 0.804687500000, 1491363127
0.208007812500, 0.921630859375, -0.344238281250, -6.156250000000, -0.039062500000, -1.234375000000, 1491363127
0.208007812500, 0.921630859375, -0.344238281250, -6.156250000000, -0.039062500000, -1.234375000000, 1491363127
0.208007812500, 0.921630859375, -0.344238281250, -6.156250000000, -0.039062500000, -1.234375000000, 1491363128
0.203857421875, 0.915039062500, -0.367431640625, -5.351562500000, 0.945312500000, -3.507812500000, 1491363128
0.203857421875, 0.915039062500, -0.367431640625, -5.351562500000, 0.945312500000, -3.507812500000, 1491363128
0.203857421875, 0.915039062500, -0.367431640625, -5.351562500000, 0.945312500000, -3.507812500000, 1491363128
0.203857421875, 0.915039062500, -0.367431640625, -5.351562500000, 0.945312500000, -3.507812500000, 1491363128
0.096191406250, 0.950439453125, -0.373779296875, -6.492187500000, -0.757812500000, -4.875000000000, 1491363128
0.096191406250, 0.950439453125, -0.373779296875, -6.492187500000, -0.757812500000, -4.875000000000, 1491363128
0.096191406250, 0.950439453125, -0.373779296875, -6.492187500000, -0.757812500000, -4.875000000000, 1491363128
0.122070312500, 0.953369140625, -0.446044921875, -3.710937500000, -1.476562500000, -5.609375000000, 1491363128
0.122070312500, 0.953369140625, -0.446044921875, -3.710937500000, -1.476562500000, -5.609375000000, 1491363128
0.122070312500, 0.953369140625, -0.446044921875, -3.710937500000, -1.476562500000, -5.609375000000, 1491363128
0.110839843750, 0.859863281250, -0.321289062500, -6.054687500000, 4.179687500000, -2.585937500000, 1491363128
0.110839843750, 0.859863281250, -0.321289062500, -6.054687500000, 4.179687500000, -2.585937500000, 1491363128
0.110839843750, 0.859863281250, -0.321289062500, -6.054687500000, 4.179687500000, -2.585937500000, 1491363128
0.189208984375, 0.954101562500, -0.403320312500, -8.648437500000, 1.164062500000, -4.679687500000, 1491363128
0.189208984375, 0.954101562500, -0.403320312500, -8.648437500000, 1.164062500000, -4.679687500000, 1491363128
0.189208984375, 0.954101562500, -0.403320312500, -8.648437500000, 1.164062500000, -4.679687500000, 1491363128
0.189208984375, 0.954101562500, -0.403320312500, -8.648437500000, 1.164062500000, -4.679687500000, 1491363128
0.252197265625, 0.910156250000, -0.466552734375, -3.859375000000, -2.664062500000, -8.062500000000, 1491363128
0.252197265625, 0.910156250000, -0.466552734375, -3.859375000000, -2.664062500000, -8.062500000000, 1491363128
0.252197265625, 0.910156250000, -0.466552734375, -3.859375000000, -2.664062500000, -8.062500000000, 1491363128
0.192871093750, 0.949462890625, -0.465820312500, -4.585937500000, 2.859375000000, -6.437500000000, 1491363128
0.192871093750, 0.949462890625, -0.465820312500, -4.585937500000, 2.859375000000, -6.437500000000, 1491363128
0.192871093750, 0.949462890625, -0.465820312500, -4.585937500000, 2.859375000000, -6.437500000000, 1491363128
0.101318359375, 0.965576171875, -0.462890625000, -5.382812500000, -1.968750000000, -5.218750000000, 1491363128
0.101318359375, 0.965576171875, -0.462890625000, -5.382812500000, -1.968750000000, -5.218750000000, 1491363128
0.101318359375, 0.965576171875, -0.462890625000, -5.382812500000, -1.968750000000, -5.218750000000, 1491363128
0.126953125000, 0.874267578125, -0.365478515625, -6.554687500000, -0.273437500000, -4.351562500000, 1491363128
0.126953125000, 0.874267578125, -0.365478515625, -6.554687500000, -0.273437500000, -4.351562500000, 1491363128
0.126953125000, 0.874267578125, -0.365478515625, -6.554687500000, -0.273437500000, -4.351562500000, 1491363128
0.126953125000, 0.874267578125, -0.365478515625, -6.554687500000, -0.273437500000, -4.351562500000, 1491363128
0.251708984375, 0.938232421875, -0.399169921875, -3.125000000000, -0.085937500000, -4.171875000000, 1491363128
0.251708984375, 0.938232421875, -0.399169921875, -3.125000000000, -0.085937500000, -4.171875000000, 1491363128
0.251708984375, 0.938232421875, -0.399169921875, -3.125000000000, -0.085937500000, -4.171875000000, 1491363128
0.171142578125, 1.022460937500, -0.349365234375, -3.679687500000, -2.460937500000, -5.640625000000, 1491363128
0.171142578125, 1.022460937500, -0.349365234375, -3.679687500000, -2.460937500000, -5.640625000000, 1491363128
0.171142578125, 1.022460937500, -0.349365234375, -3.679687500000, -2.460937500000, -5.640625000000, 1491363128
0.203857421875, 1.007568359375, -0.356689453125, -3.539062500000, -0.882812500000, -5.593750000000, 1491363128
0.203857421875, 1.007568359375, -0.356689453125, -3.539062500000, -0.882812500000, -5.593750000000, 1491363128
0.203857421875, 1.007568359375, -0.356689453125, -3.539062500000, -0.882812500000, -5.593750000000, 1491363128
0.166259765625, 0.848876953125, -0.292968750000, -6.492187500000, 2.312500000000, -3.210937500000, 1491363128
0.166259765625, 0.848876953125, -0.292968750000, -6.492187500000, 2.312500000000, -3.210937500000, 1491363128
0.166259765625, 0.848876953125, -0.292968750000, -6.492187500000, 2.312500000000, -3.210937500000, 1491363128
0.166259765625, 0.848876953125, -0.292968750000, -6.492187500000, 2.312500000000, -3.210937500000, 1491363128
0.192138671875, 0.869873046875, -0.445068359375, -5.148437500000, -0.984375000000, -1.257812500000, 1491363128
0.192138671875, 0.869873046875, -0.445068359375, -5.148437500000, -0.984375000000, -1.257812500000, 1491363128
0.192138671875, 0.869873046875, -0.445068359375, -5.148437500000, -0.984375000000, -1.257812500000, 1491363128
0.189208984375, 0.908447265625, -0.305908203125, -3.773437500000, 2.914062500000, -3.882812500000, 1491363128
0.189208984375, 0.908447265625, -0.305908203125, -3.773437500000, 2.914062500000, -3.882812500000, 1491363128
0.189208984375, 0.908447265625, -0.305908203125, -3.773437500000, 2.914062500000, -3.882812500000, 1491363128
0.166748046875, 0.958984375000, -0.352294921875, -4.585937500000, -2.312500000000, -3.328125000000, 1491363128
0.166748046875, 0.958984375000, -0.352294921875, -4.585937500000, -2.312500000000, -3.328125000000, 1491363128
0.166748046875, 0.958984375000, -0.352294921875, -4.585937500000, -2.312500000000, -3.328125000000, 1491363128
0.277099609375, 0.808105468750, -0.367431640625, -3.734375000000, 4.078125000000, -1.851562500000, 1491363128
0.277099609375, 0.808105468750, -0.367431640625, -3.734375000000, 4.078125000000, -1.851562500000, 1491363128
0.277099609375, 0.808105468750, -0.367431640625, -3.734375000000, 4.078125000000, -1.851562500000, 1491363128
0.277099609375, 0.808105468750, -0.367431640625, -3.734375000000, 4.078125000000, -1.851562500000, 1491363128
0.186035156250, 0.909667968750, -0.464111328125, -1.289062500000, -5.843750000000, -4.937500000000, 1491363128
0.186035156250, 0.909667968750, -0.464111328125, -1.289062500000, -5.843750000000, -4.937500000000, 1491363128
0.186035156250, 0.909667968750, -0.464111328125, -1.289062500000, -5.843750000000, -4.937500000000, 1491363128
0.147216796875, 1.004150390625, -0.450927734375, -4.171875000000, 8.445312500000, -2.617187500000, 1491363128
0.147216796875, 1.004150390625, -0.450927734375, -4.171875000000, 8.445312500000, -2.617187500000, 1491363128
0.147216796875, 1.004150390625, -0.450927734375, -4.171875000000, 8.445312500000, -2.617187500000, 1491363128
0.229492187500, 0.869873046875, -0.306884765625, -1.835937500000, -4.234375000000, -7.742187500000, 1491363128
0.229492187500, 0.869873046875, -0.306884765625, -1.835937500000, -4.234375000000, -7.742187500000, 1491363128
0.229492187500, 0.869873046875, -0.306884765625, -1.835937500000, -4.234375000000, -7.742187500000, 1491363128
0.142333984375, 0.872558593750, -0.381591796875, -3.664062500000, 2.148437500000, -4.343750000000, 1491363129
0.142333984375, 0.872558593750, -0.381591796875, -3.664062500000, 2.148437500000, -4.343750000000, 1491363129
0.142333984375, 0.872558593750, -0.381591796875, -3.664062500000, 2.148437500000, -4.343750000000, 1491363129
0.142333984375, 0.872558593750, -0.381591796875, -3.664062500000, 2.148437500000, -4.343750000000, 1491363129
0.130859375000, 0.949218750000, -0.345947265625, -1.828125000000, -0.898437500000, -2.992187500000, 1491363129
0.164062500000, 0.943115234375, -0.406250000000, -1.414062500000, -0.476562500000, -4.773437500000, 1491363129
0.119140625000, 0.928222656250, -0.439453125000, -2.742187500000, -0.484375000000, -4.046875000000, 1491363129
0.119140625000, 0.928222656250, -0.439453125000, -2.742187500000, -0.484375000000, -4.046875000000, 1491363129
0.119140625000, 0.928222656250, -0.439453125000, -2.742187500000, -0.484375000000, -4.046875000000, 1491363129
0.119140625000, 0.928222656250, -0.439453125000, -2.742187500000, -0.484375000000, -4.046875000000, 1491363129
0.141845703125, 0.847167968750, -0.353027343750, -1.570312500000, -0.390625000000, -1.734375000000, 1491363129
0.141845703125, 0.847167968750, -0.353027343750, -1.570312500000, -0.390625000000, -1.734375000000, 1491363129
0.141845703125, 0.847167968750, -0.353027343750, -1.570312500000, -0.390625000000, -1.734375000000, 1491363129
0.239257812500, 0.905517578125, -0.309326171875, -4.890625000000, -0.781250000000, -4.132812500000, 1491363129
0.239257812500, 0.905517578125, -0.309326171875, -4.890625000000, -0.781250000000, -4.132812500000, 1491363129
0.239257812500, 0.905517578125, -0.309326171875, -4.890625000000, -0.781250000000, -4.132812500000, 1491363129
0.239257812500, 0.905517578125, -0.309326171875, -4.890625000000, -0.781250000000, -4.132812500000, 1491363129
0.213867187500, 0.863037109375, -0.441406250000, -3.937500000000, -0.625000000000, -2.968750000000, 1491363129
0.213867187500, 0.863037109375, -0.441406250000, -3.937500000000, -0.625000000000, -2.968750000000, 1491363129
0.213867187500, 0.863037109375, -0.441406250000, -3.937500000000, -0.625000000000, -2.968750000000, 1491363129
0.147216796875, 0.965332031250, -0.385498046875, -3.179687500000, 0.875000000000, -4.656250000000, 1491363129
0.147216796875, 0.965332031250, -0.385498046875, -3.179687500000, 0.875000000000, -4.656250000000, 1491363129
0.147216796875, 0.965332031250, -0.385498046875, -3.179687500000, 0.875000000000, -4.656250000000, 1491363129
0.159423828125, 0.956542968750, -0.384033203125, -4.710937500000, 2.718750000000, -3.359375000000, 1491363129
0.159423828125, 0.956542968750, -0.384033203125, -4.710937500000, 2.718750000000, -3.359375000000, 1491363129
0.159423828125, 0.956542968750, -0.384033203125, -4.710937500000, 2.718750000000, -3.359375000000, 1491363129
0.143310546875, 0.924072265625, -0.414306640625, -4.390625000000, -2.898437500000, -4.156250000000, 1491363129
0.143310546875, 0.924072265625, -0.414306640625, -4.390625000000, -2.898437500000, -4.156250000000, 1491363129
0.143310546875, 0.924072265625, -0.414306640625, -4.390625000000, -2.898437500000, -4.156250000000, 1491363129
0.143310546875, 0.924072265625, -0.414306640625, -4.390625000000, -2.898437500000, -4.156250000000, 1491363129
0.112548828125, 0.937988281250, -0.379394531250, -4.031250000000, 3.929687500000, -1.515625000000, 1491363129
0.112548828125, 0.937988281250, -0.379394531250, -4.031250000000, 3.929687500000, -1.515625000000, 1491363129
0.112548828125, 0.937988281250, -0.379394531250, -4.031250000000, 3.929687500000, -1.515625000000, 1491363129
0.122314453125, 0.850097656250, -0.360839843750, -4.804687500000, -5.804687500000, -4.742187500000, 1491363129
0.122314453125, 0.850097656250, -0.360839843750, -4.804687500000, -5.804687500000, -4.742187500000, 1491363129
0.122314453125, 0.850097656250, -0.360839843750, -4.804687500000, -5.804687500000, -4.742187500000, 1491363129
0.163574218750, 0.869628906250, -0.452148437500, -2.625000000000, 4.781250000000, -1.570312500000, 1491363129
0.163574218750, 0.869628906250, -0.452148437500, -2.625000000000, 4.781250000000, -1.570312500000, 1491363129
0.163574218750, 0.869628906250, -0.452148437500, -2.625000000000, 4.781250000000, -1.570312500000, 1491363129
0.202392578125, 0.943847656250, -0.352783203125, -4.140625000000, 1.093750000000, -2.859375000000, 1491363129
0.202392578125, 0.943847656250, -0.352783203125, -4.140625000000, 1.093750000000, -2.859375000000, 1491363129
0.202392578125, 0.943847656250, -0.352783203125, -4.140625000000, 1.093750000000, -2.859375000000, 1491363129
0.202392578125, 0.943847656250, -0.352783203125, -4.140625000000, 1.093750000000, -2.859375000000, 1491363129
0.211669921875, 0.873779296875, -0.400634765625, -4.320312500000, -2.859375000000, -4.531250000000, 1491363129
0.211669921875, 0.873779296875, -0.400634765625, -4.320312500000, -2.859375000000, -4.531250000000, 1491363129
0.211669921875, 0.873779296875, -0.400634765625, -4.320312500000, -2.859375000000, -4.531250000000, 1491363129
0.212158203125, 0.859130859375, -0.459960937500, -3.132812500000, 0.429687500000, -3.796875000000, 1491363129
0.212158203125, 0.859130859375, -0.459960937500, -3.132812500000, 0.429687500000, -3.796875000000, 1491363129
0.212158203125, 0.859130859375, -0.459960937500, -3.132812500000, 0.429687500000, -3.796875000000, 1491363129
0.184326171875, 0.868896484375, -0.379150390625, -3.070312500000, 0.757812500000, 0.742187500000, 1491363129
0.184326171875, 0.868896484375, -0.379150390625, -3.070312500000, 0.757812500000, 0.742187500000, 1491363129
0.184326171875, 0.868896484375, -0.379150390625, -3.070312500000, 0.757812500000, 0.742187500000, 1491363129
0.144287109375, 0.952880859375, -0.357910156250, -4.570312500000, -2.414062500000, 0.289062500000, 1491363129
0.144287109375, 0.952880859375, -0.357910156250, -4.570312500000, -2.414062500000, 0.289062500000, 1491363129
0.144287109375, 0.952880859375, -0.357910156250, -4.570312500000, -2.414062500000, 0.289062500000, 1491363129
0.144287109375, 0.952880859375, -0.357910156250, -4.687500000000, -1.179687500000, -3.242187500000, 1491363129
0.098632812500, 0.866210937500, -0.448242187500, -4.898437500000, -2.015625000000, -4.273437500000, 1491363129
0.098632812500, 0.866210937500, -0.448242187500, -4.898437500000, -2.015625000000, -4.273437500000, 1491363129
0.098632812500, 0.866210937500, -0.448242187500, -4.898437500000, -2.015625000000, -4.273437500000, 1491363129
0.188720703125, 0.936035156250, -0.403564453125, -4.687500000000, 2.250000000000, -6.476562500000, 1491363129
0.188720703125, 0.936035156250, -0.403564453125, -4.687500000000, 2.250000000000, -6.476562500000, 1491363129
0.188720703125, 0.936035156250, -0.403564453125, -4.687500000000, 2.250000000000, -6.476562500000, 1491363129
0.122802734375, 0.864501953125, -0.381591796875, -2.796875000000, 0.242187500000, -4.882812500000, 1491363129
0.122802734375, 0.864501953125, -0.381591796875, -2.796875000000, 0.242187500000, -4.882812500000, 1491363129
0.122802734375, 0.864501953125, -0.381591796875, -2.796875000000, 0.242187500000, -4.882812500000, 1491363129
0.279541015625, 0.964843750000, -0.340820312500, -1.906250000000, 2.328125000000, -3.421875000000, 1491363129
0.279541015625, 0.964843750000, -0.340820312500, -1.906250000000, 2.328125000000, -3.421875000000, 1491363129
0.279541015625, 0.964843750000, -0.340820312500, -1.906250000000, 2.328125000000, -3.421875000000, 1491363130
0.279541015625, 0.964843750000, -0.340820312500, -1.906250000000, 2.328125000000, -3.421875000000, 1491363130
0.140136718750, 0.967529296875, -0.451660156250, -4.609375000000, 2.656250000000, -1.054687500000, 1491363130
0.140136718750, 0.967529296875, -0.451660156250, -4.609375000000, 2.656250000000, -1.054687500000, 1491363130
0.140136718750, 0.967529296875, -0.451660156250, -4.609375000000, 2.656250000000, -1.054687500000, 1491363130
0.156738281250, 0.926269531250, -0.359863281250, -1.757812500000, 5.046875000000, -1.718750000000, 1491363130
0.156738281250, 0.926269531250, -0.359863281250, -1.757812500000, 5.046875000000, -1.718750000000, 1491363130
0.156738281250, 0.926269531250, -0.359863281250, -1.757812500000, 5.046875000000, -1.718750000000, 1491363130
0.170410156250, 0.853759765625, -0.381835937500, -6.351562500000, -5.140625000000, -3.367187500000, 1491363130
0.170410156250, 0.853759765625, -0.381835937500, -6.351562500000, -5.140625000000, -3.367187500000, 1491363130
0.170410156250, 0.853759765625, -0.381835937500, -6.351562500000, -5.140625000000, -3.367187500000, 1491363130
0.115722656250, 0.919189453125, -0.372802734375, -3.445312500000, -4.046875000000, -6.421875000000, 1491363130
0.115722656250, 0.919189453125, -0.372802734375, -3.445312500000, -4.046875000000, -6.421875000000, 1491363130
0.115722656250, 0.919189453125, -0.372802734375, -3.445312500000, -4.046875000000, -6.421875000000, 1491363130
0.115722656250, 0.919189453125, -0.372802734375, -3.445312500000, -4.046875000000, -6.421875000000, 1491363130
0.097900390625, 0.876464843750, -0.437500000000, -3.343750000000, 3.140625000000, -4.906250000000, 1491363130
0.097900390625, 0.876464843750, -0.437500000000, -3.343750000000, 3.140625000000, -4.906250000000, 1491363130
0.097900390625, 0.876464843750, -0.437500000000, -3.343750000000, 3.140625000000, -4.906250000000, 1491363130
0.145019531250, 0.996093750000, -0.438720703125, -3.656250000000, -0.500000000000, -1.546875000000, 1491363130
0.145019531250, 0.996093750000, -0.438720703125, -3.656250000000, -0.500000000000, -1.546875000000, 1491363130
0.145019531250, 0.996093750000, -0.438720703125, -3.656250000000, -0.500000000000, -1.546875000000, 1491363130
0.148437500000, 0.861083984375, -0.286621093750, -5.078125000000, 1.265625000000, -4.304687500000, 1491363130
0.148437500000, 0.861083984375, -0.286621093750, -5.078125000000, 1.265625000000, -4.304687500000, 1491363130
0.148437500000, 0.861083984375, -0.286621093750, -5.078125000000, 1.265625000000, -4.304687500000, 1491363130
0.117919921875, 0.952636718750, -0.344238281250, -6.304687500000, -0.070312500000, -6.148437500000, 1491363130
0.117919921875, 0.952636718750, -0.344238281250, -6.304687500000, -0.070312500000, -6.148437500000, 1491363130
0.117919921875, 0.952636718750, -0.344238281250, -6.304687500000, -0.070312500000, -6.148437500000, 1491363130
0.117919921875, 0.952636718750, -0.344238281250, -6.304687500000, -0.070312500000, -6.148437500000, 1491363130
0.121826171875, 0.847900390625, -0.354980468750, -5.070312500000, -0.828125000000, -5.742187500000, 1491363130
0.121826171875, 0.847900390625, -0.354980468750, -5.070312500000, -0.828125000000, -5.742187500000, 1491363130
0.121826171875, 0.847900390625, -0.354980468750, -5.070312500000, -0.828125000000, -5.742187500000, 1491363130
0.125000000000, 0.852294921875, -0.358886718750, -5.867187500000, -0.531250000000, -4.750000000000, 1491363130
0.125000000000, 0.852294921875, -0.358886718750, -5.867187500000, -0.531250000000, -4.750000000000, 1491363130
0.125000000000, 0.852294921875, -0.358886718750, -5.867187500000, -0.531250000000, -4.750000000000, 1491363130
0.206054687500, 0.952636718750, -0.350585937500, -8.023437500000, 2.882812500000, -1.382812500000, 1491363130
0.206054687500, 0.952636718750, -0.350585937500, -8.023437500000, 2.882812500000, -1.382812500000, 1491363130
0.206054687500, 0.952636718750, -0.350585937500, -8.023437500000, 2.882812500000, -1.382812500000, 1491363130
0.212158203125, 0.881835937500, -0.346923828125, -6.453125000000, 2.218750000000, -5.523437500000, 1491363130
0.195800781250, 0.941406250000, -0.391113281250, -6.429687500000, -0.867187500000, -1.656250000000, 1491363130
0.166503906250, 0.852539062500, -0.352539062500, -5.164062500000, 2.296875000000, -3.054687500000, 1491363130
0.166503906250, 0.852539062500, -0.352539062500, -5.164062500000, 2.296875000000, -3.054687500000, 1491363130
0.166503906250, 0.852539062500, -0.352539062500, -5.164062500000, 2.296875000000, -3.054687500000, 1491363130
0.166503906250, 0.852539062500, -0.352539062500, -5.164062500000, 2.296875000000, -3.054687500000, 1491363130
0.198486328125, 0.890869140625, -0.371337890625, -6.273437500000, -2.109375000000, -3.718750000000, 1491363130
0.198486328125, 0.890869140625, -0.371337890625, -6.273437500000, -2.109375000000, -3.718750000000, 1491363130
0.198486328125, 0.890869140625, -0.371337890625, -6.273437500000, -2.109375000000, -3.718750000000, 1491363130
0.198486328125, 0.890869140625, -0.371337890625, -6.273437500000, -2.109375000000, -3.718750000000, 1491363130
0.213623046875, 0.857666015625, -0.306396484375, -3.992187500000, 1.257812500000, -4.882812500000, 1491363130
0.213623046875, 0.857666015625, -0.306396484375, -3.992187500000, 1.257812500000, -4.882812500000, 1491363130
0.213623046875, 0.857666015625, -0.306396484375, -3.992187500000, 1.257812500000, -4.882812500000, 1491363130
0.094482421875, 0.859863281250, -0.399169921875, -5.632812500000, -2.750000000000, -3.117187500000, 1491363130
0.094482421875, 0.859863281250, -0.399169921875, -5.632812500000, -2.750000000000, -3.117187500000, 1491363130
0.094482421875, 0.859863281250, -0.399169921875, -5.632812500000, -2.750000000000, -3.117187500000, 1491363130
0.094482421875, 0.859863281250, -0.399169921875, -5.632812500000, -2.750000000000, -3.117187500000, 1491363130
0.188232421875, 0.941162109375, -0.389404296875, -6.382812500000, 2.406250000000, -4.195312500000, 1491363130
0.188232421875, 0.941162109375, -0.389404296875, -6.382812500000, 2.406250000000, -4.195312500000, 1491363130
0.188232421875, 0.941162109375, -0.389404296875, -6.382812500000, 2.406250000000, -4.195312500000, 1491363130
0.210937500000, 0.948242187500, -0.372802734375, -4.406250000000, 0.796875000000, -6.562500000000, 1491363130
0.210937500000, 0.948242187500, -0.372802734375, -4.406250000000, 0.796875000000, -6.562500000000, 1491363130
0.210937500000, 0.948242187500, -0.372802734375, -4.406250000000, 0.796875000000, -6.562500000000, 1491363130
0.210449218750, 0.916015625000, -0.441650390625, -1.632812500000, -2.546875000000, -5.796875000000, 1491363130
0.210449218750, 0.916015625000, -0.441650390625, -1.632812500000, -2.546875000000, -5.796875000000, 1491363130
0.160644531250, 0.942626953125, -0.439208984375, -3.859375000000, 2.187500000000, -1.195312500000, 1491363130
0.103271484375, 0.959716796875, -0.360107421875, -3.406250000000, 2.414062500000, -3.242187500000, 1491363130
0.103271484375, 0.959716796875, -0.360107421875, -3.406250000000, 2.414062500000, -3.242187500000, 1491363130
0.103271484375, 0.959716796875, -0.360107421875, -3.406250000000, 2.414062500000, -3.242187500000, 1491363131
0.103271484375, 0.959716796875, -0.360107421875, -3.406250000000, 2.414062500000, -3.242187500000, 1491363131
0.178710937500, 0.807373046875, -0.401367187500, -4.343750000000, 1.210937500000, -4.398437500000, 1491363131
0.178710937500, 0.807373046875, -0.401367187500, -4.343750000000, 1.210937500000, -4.398437500000, 1491363131
0.178710937500, 0.807373046875, -0.401367187500, -4.343750000000, 1.210937500000, -4.398437500000, 1491363131
0.208740234375, 0.902099609375, -0.413818359375, -1.773437500000, -2.226562500000, -4.007812500000, 1491363131
0.208740234375, 0.902099609375, -0.413818359375, -1.773437500000, -2.226562500000, -4.007812500000, 1491363131
0.208740234375, 0.902099609375, -0.413818359375, -1.773437500000, -2.226562500000, -4.007812500000, 1491363131
0.175537109375, 0.905273437500, -0.466308593750, -2.820312500000, -0.453125000000, -4.890625000000, 1491363131
0.175537109375, 0.905273437500, -0.466308593750, -2.820312500000, -0.453125000000, -4.890625000000, 1491363131
0.175537109375, 0.905273437500, -0.466308593750, -2.820312500000, -0.453125000000, -4.890625000000, 1491363131
0.192871093750, 0.953125000000, -0.343994140625, 0.359375000000, 0.585937500000, -3.382812500000, 1491363131
0.192871093750, 0.953125000000, -0.343994140625, 0.359375000000, 0.585937500000, -3.382812500000, 1491363131
0.192871093750, 0.953125000000, -0.343994140625, 0.359375000000, 0.585937500000, -3.382812500000, 1491363131
0.192871093750, 0.953125000000, -0.343994140625, 0.359375000000, 0.585937500000, -3.382812500000, 1491363131
0.102294921875, 0.940185546875, -0.306396484375, -0.125000000000, -2.406250000000, -4.632812500000, 1491363131
0.102294921875, 0.940185546875, -0.306396484375, -0.125000000000, -2.406250000000, -4.632812500000, 1491363131
0.102294921875, 0.940185546875, -0.306396484375, -0.125000000000, -2.406250000000, -4.632812500000, 1491363131
0.123046875000, 0.927490234375, -0.312255859375, 2.664062500000, 2.148437500000, -4.101562500000, 1491363131
0.123046875000, 0.927490234375, -0.312255859375, 2.664062500000, 2.148437500000, -4.101562500000, 1491363131
0.123046875000, 0.927490234375, -0.312255859375, 2.664062500000, 2.148437500000, -4.101562500000, 1491363131
0.166992187500, 0.943115234375, -0.378173828125, -2.148437500000, 2.359375000000, -1.945312500000, 1491363131
0.174560546875, 0.910888671875, -0.307617187500, 0.492187500000, -0.148437500000, -2.007812500000, 1491363131
0.174560546875, 0.910888671875, -0.307617187500, 0.492187500000, -0.148437500000, -2.007812500000, 1491363131
0.178710937500, 1.023925781250, -0.359619140625, -0.914062500000, -2.609375000000, -2.593750000000, 1491363131
0.178710937500, 1.023925781250, -0.359619140625, -0.914062500000, -2.609375000000, -2.593750000000, 1491363131
0.178710937500, 1.023925781250, -0.359619140625, -0.914062500000, -2.609375000000, -2.593750000000, 1491363131
0.178710937500, 1.023925781250, -0.359619140625, -0.914062500000, -2.609375000000, -2.593750000000, 1491363131
0.178710937500, 1.023925781250, -0.359619140625, -0.914062500000, -2.609375000000, -2.593750000000, 1491363131
0.195312500000, 0.860107421875, -0.379882812500, -0.164062500000, -0.671875000000, -4.171875000000, 1491363131
0.195312500000, 0.860107421875, -0.379882812500, -0.164062500000, -0.671875000000, -4.171875000000, 1491363131
0.195312500000, 0.860107421875, -0.379882812500, -0.164062500000, -0.671875000000, -4.171875000000, 1491363131
0.195312500000, 0.860107421875, -0.379882812500, -0.164062500000, -0.671875000000, -4.171875000000, 1491363131
0.195312500000, 0.860107421875, -0.379882812500, -0.164062500000, -0.671875000000, -4.171875000000, 1491363131
0.199707031250, 0.915527343750, -0.352294921875, -0.593750000000, 4.281250000000, 0.398437500000, 1491363131
0.199707031250, 0.915527343750, -0.352294921875, -0.593750000000, 4.281250000000, 0.398437500000, 1491363131
0.199707031250, 0.915527343750, -0.352294921875, -0.593750000000, 4.281250000000, 0.398437500000, 1491363131
0.102294921875, 0.845703125000, -0.456054687500, -1.320312500000, -2.468750000000, -1.773437500000, 1491363131
0.102294921875, 0.845703125000, -0.456054687500, -1.320312500000, -2.468750000000, -1.773437500000, 1491363131
0.102294921875, 0.845703125000, -0.456054687500, -1.320312500000, -2.468750000000, -1.773437500000, 1491363131
0.102294921875, 0.845703125000, -0.456054687500, -1.320312500000, -2.468750000000, -1.773437500000, 1491363131
0.118896484375, 0.935546875000, -0.505615234375, -8.617187500000, 4.867187500000, 0.828125000000, 1491363131
0.118896484375, 0.935546875000, -0.505615234375, -8.617187500000, 4.867187500000, 0.828125000000, 1491363131
0.118896484375, 0.935546875000, -0.505615234375, -8.617187500000, 4.867187500000, 0.828125000000, 1491363131
0.209228515625, 0.807861328125, -0.466552734375, -2.976562500000, -2.367187500000, -5.007812500000, 1491363131
0.209228515625, 0.807861328125, -0.466552734375, -2.976562500000, -2.367187500000, -5.007812500000, 1491363131
0.209228515625, 0.807861328125, -0.466552734375, -2.976562500000, -2.367187500000, -5.007812500000, 1491363131
0.104003906250, 0.924072265625, -0.473388671875, -5.734375000000, -6.085937500000, -7.054687500000, 1491363131
0.104003906250, 0.924072265625, -0.473388671875, -5.734375000000, -6.085937500000, -7.054687500000, 1491363131
0.104003906250, 0.924072265625, -0.473388671875, -5.734375000000, -6.085937500000, -7.054687500000, 1491363131
0.160644531250, 0.746826171875, -0.312255859375, 12.671875000000, -16.343750000000, -6.914062500000, 1491363131
0.160644531250, 0.746826171875, -0.312255859375, 12.671875000000, -16.343750000000, -6.914062500000, 1491363131
0.160644531250, 0.746826171875, -0.312255859375, 12.671875000000, -16.343750000000, -6.914062500000, 1491363131
0.160644531250, 0.746826171875, -0.312255859375, 12.671875000000, -16.343750000000, -6.914062500000, 1491363131
0.180908203125, 0.812011718750, -0.517578125000, 15.054687500000, -27.226562500000, -15.500000000000, 1491363131
0.180908203125, 0.812011718750, -0.517578125000, 15.054687500000, -27.226562500000, -15.500000000000, 1491363131
0.180908203125, 0.812011718750, -0.517578125000, 15.054687500000, -27.226562500000, -15.500000000000, 1491363131
0.041015625000, 0.844726562500, -0.522949218750, 26.546875000000, -22.820312500000, -15.703125000000, 1491363131
0.041015625000, 0.844726562500, -0.522949218750, 26.546875000000, -22.820312500000, -15.703125000000, 1491363131
0.041015625000, 0.844726562500, -0.522949218750, 26.546875000000, -22.820312500000, -15.703125000000, 1491363131
0.091308593750, 0.838623046875, -0.349853515625, 38.429687500000, -26.867187500000, -19.273437500000, 1491363131
0.091308593750, 0.838623046875, -0.349853515625, 38.429687500000, -26.867187500000, -19.273437500000, 1491363131
0.091308593750, 0.838623046875, -0.349853515625, 38.429687500000, -26.867187500000, -19.273437500000, 1491363131
0.253417968750, 0.841796875000, -0.305664062500, 56.226562500000, -10.625000000000, -7.515625000000, 1491363131
0.253417968750, 0.841796875000, -0.305664062500, 56.226562500000, -10.625000000000, -7.515625000000, 1491363131
0.253417968750, 0.841796875000, -0.305664062500, 56.226562500000, -10.625000000000, -7.515625000000, 1491363131
0.253417968750, 0.841796875000, -0.305664062500, 56.226562500000, -10.625000000000, -7.515625000000, 1491363131
0.152832031250, 0.898925781250, -0.162841796875, 66.390625000000, -21.507812500000, -16.914062500000, 1491363131
0.152832031250, 0.898925781250, -0.162841796875, 66.390625000000, -21.507812500000, -16.914062500000, 1491363132
0.152832031250, 0.898925781250, -0.162841796875, 66.390625000000, -21.507812500000, -16.914062500000, 1491363132
0.138183593750, 0.775146484375, -0.280029296875, 77.882812500000, -18.320312500000, -9.234375000000, 1491363132
0.138183593750, 0.775146484375, -0.280029296875, 77.882812500000, -18.320312500000, -9.234375000000, 1491363132
0.001220703125, 0.976074218750, -0.184570312500, 59.898437500000, -7.367187500000, -16.664062500000, 1491363132
0.001220703125, 0.976074218750, -0.184570312500, 59.898437500000, -7.367187500000, -16.664062500000, 1491363132
0.001220703125, 0.976074218750, -0.184570312500, 59.898437500000, -7.367187500000, -16.664062500000, 1491363132
0.001220703125, 0.976074218750, -0.184570312500, 59.898437500000, -7.367187500000, -16.664062500000, 1491363132
0.078857421875, 0.792236328125, -0.239013671875, 29.984375000000, -36.500000000000, -36.070312500000, 1491363132
0.078857421875, 0.792236328125, -0.239013671875, 29.984375000000, -36.500000000000, -36.070312500000, 1491363132
0.078857421875, 0.792236328125, -0.239013671875, 29.984375000000, -36.500000000000, -36.070312500000, 1491363132
0.078857421875, 0.792236328125, -0.239013671875, 29.984375000000, -36.500000000000, -36.070312500000, 1491363132
-0.175292968750, 0.772460937500, -0.202392578125, 46.351562500000, -24.539062500000, -18.476562500000, 1491363132
-0.175292968750, 0.772460937500, -0.202392578125, 46.351562500000, -24.539062500000, -18.476562500000, 1491363132
-0.175292968750, 0.772460937500, -0.202392578125, 46.351562500000, -24.539062500000, -18.476562500000, 1491363132
-0.175292968750, 0.772460937500, -0.202392578125, 46.351562500000, -24.539062500000, -18.476562500000, 1491363132
-0.128662109375, 0.666503906250, -0.154785156250, 48.648437500000, -12.570312500000, -14.843750000000, 1491363132
-0.157958984375, 0.541748046875, -0.155029296875, 65.671875000000, 24.109375000000, -6.601562500000, 1491363132
-0.157958984375, 0.541748046875, -0.155029296875, 65.671875000000, 24.109375000000, -6.601562500000, 1491363132
-0.157958984375, 0.541748046875, -0.155029296875, 65.671875000000, 24.109375000000, -6.601562500000, 1491363132
-0.137451171875, 0.432861328125, -0.139648437500, 91.250000000000, 3.382812500000, -7.101562500000, 1491363132
-0.049316406250, -0.030029296875, -0.083496093750, 110.070312500000, -34.304687500000, 10.273437500000, 1491363132
-0.049316406250, -0.030029296875, -0.083496093750, 110.070312500000, -34.304687500000, 10.273437500000, 1491363132
-0.049316406250, -0.030029296875, -0.083496093750, 110.070312500000, -34.304687500000, 10.273437500000, 1491363132
-0.049316406250, -0.030029296875, -0.083496093750, 110.070312500000, -34.304687500000, 10.273437500000, 1491363132
-0.021728515625, 0.270996093750, -0.131347656250, 112.164062500000, -9.117187500000, 4.429687500000, 1491363132
-0.021728515625, 0.270996093750, -0.131347656250, 112.164062500000, -9.117187500000, 4.429687500000, 1491363132
-0.021728515625, 0.270996093750, -0.131347656250, 112.164062500000, -9.117187500000, 4.429687500000, 1491363132
0.180664062500, 0.311523437500, 0.016601562500, 5.296875000000, 6.187500000000, -26.367187500000, 1491363132
0.180664062500, 0.311523437500, 0.016601562500, 5.296875000000, 6.187500000000, -26.367187500000, 1491363132
0.180664062500, 0.311523437500, 0.016601562500, 5.296875000000, 6.187500000000, -26.367187500000, 1491363132
0.902832031250, 1.398925781250, -0.110351562500, 37.656250000000, -207.101562500000, -167.226562500000, 1491363132
0.902832031250, 1.398925781250, -0.110351562500, 37.656250000000, -207.101562500000, -167.226562500000, 1491363132
0.902832031250, 1.398925781250, -0.110351562500, 37.656250000000, -207.101562500000, -167.226562500000, 1491363132
0.061767578125, 0.595214843750, -0.285644531250, 228.937500000000, -142.914062500000, -50.437500000000, 1491363132
0.061767578125, 0.595214843750, -0.285644531250, 228.937500000000, -142.914062500000, -50.437500000000, 1491363132
0.061767578125, 0.595214843750, -0.285644531250, 228.937500000000, -142.914062500000, -50.437500000000, 1491363132
0.061767578125, 0.595214843750, -0.285644531250, 228.937500000000, -142.914062500000, -50.437500000000, 1491363132
0.206054687500, 1.078857421875, -0.231201171875, -109.820312500000, 167.718750000000, -148.632812500000, 1491363132
0.206054687500, 1.078857421875, -0.231201171875, -109.820312500000, 167.718750000000, -148.632812500000, 1491363132
0.206054687500, 1.078857421875, -0.231201171875, -109.820312500000, 167.718750000000, -148.632812500000, 1491363132
-0.202392578125, 0.686523437500, 0.013916015625, -256.000000000000, 253.992187500000, 8.632812500000, 1491363132
-0.202392578125, 0.686523437500, 0.013916015625, -256.000000000000, 253.992187500000, 8.632812500000, 1491363132
-0.202392578125, 0.686523437500, 0.013916015625, -256.000000000000, 253.992187500000, 8.632812500000, 1491363132
-0.637207031250, 7.509277343750, 4.791015625000, -256.000000000000, 253.992187500000, 30.640625000000, 1491363132
-0.637207031250, 7.509277343750, 4.791015625000, -256.000000000000, 253.992187500000, 30.640625000000, 1491363132
-0.637207031250, 7.509277343750, 4.791015625000, -256.000000000000, 253.992187500000, 30.640625000000, 1491363132
-0.170166015625, -0.003417968750, -0.043212890625, 91.414062500000, -180.226562500000, 121.750000000000, 1491363132
-0.170166015625, -0.003417968750, -0.043212890625, 91.414062500000, -180.226562500000, 121.750000000000, 1491363132
-0.170166015625, -0.003417968750, -0.043212890625, 91.414062500000, -180.226562500000, 121.750000000000, 1491363132
-0.170166015625, -0.003417968750, -0.043212890625, 91.414062500000, -180.226562500000, 121.750000000000, 1491363132
1.368164062500, -2.618408203125, 0.154541015625, -127.101562500000, -256.000000000000, -256.000000000000, 1491363132
1.368164062500, -2.618408203125, 0.154541015625, -127.101562500000, -256.000000000000, -256.000000000000, 1491363132
1.368164062500, -2.618408203125, 0.154541015625, -127.101562500000, -256.000000000000, -256.000000000000, 1491363132
0.114013671875, 0.026611328125, -0.203857421875, -223.343750000000, 253.992187500000, -251.406250000000, 1491363132
0.114013671875, 0.026611328125, -0.203857421875, -223.343750000000, 253.992187500000, -251.406250000000, 1491363132
0.114013671875, 0.026611328125, -0.203857421875, -223.343750000000, 253.992187500000, -251.406250000000, 1491363132
-1.016113281250, 0.811767578125, 1.238281250000, -256.000000000000, -256.000000000000, 132.953125000000, 1491363132
-1.016113281250, 0.811767578125, 1.238281250000, -256.000000000000, -256.000000000000, 132.953125000000, 1491363132
-1.016113281250, 0.811767578125, 1.238281250000, -256.000000000000, -256.000000000000, 132.953125000000, 1491363132
-0.014648437500, 0.097167968750, 1.294677734375, -124.453125000000, 84.867187500000, -72.625000000000, 1491363132
-0.014648437500, 0.097167968750, 1.294677734375, -124.453125000000, 84.867187500000, -72.625000000000, 1491363132
-0.014648437500, 0.097167968750, 1.294677734375, -124.453125000000, 84.867187500000, -72.625000000000, 1491363132
-0.014648437500, 0.097167968750, 1.294677734375, -124.453125000000, 84.867187500000, -72.625000000000, 1491363132
-0.143310546875, 0.124511718750, 0.723876953125, -35.273437500000, -25.101562500000, -14.773437500000, 1491363132
-0.143310546875, 0.124511718750, 0.723876953125, -35.273437500000, -25.101562500000, -14.773437500000, 1491363132
-0.143310546875, 0.124511718750, 0.723876953125, -35.273437500000, -25.101562500000, -14.773437500000, 1491363132
-0.000488281250, -0.208251953125, 0.832275390625, 96.460937500000, -36.156250000000, 23.257812500000, 1491363133
-0.000488281250, -0.208251953125, 0.832275390625, 96.460937500000, -36.156250000000, 23.257812500000, 1491363133
-0.000488281250, -0.208251953125, 0.832275390625, 96.460937500000, -36.156250000000, 23.257812500000, 1491363133
0.030517578125, -0.092773437500, 1.257324218750, -62.242187500000, -26.148437500000, 51.703125000000, 1491363133
0.030517578125, -0.092773437500, 1.257324218750, -62.242187500000, -26.148437500000, 51.703125000000, 1491363133
0.030517578125, -0.092773437500, 1.257324218750, -62.242187500000, -26.148437500000, 51.703125000000, 1491363133
0.050537109375, -0.188964843750, 0.668212890625, -23.898437500000, 31.562500000000, 94.687500000000, 1491363133
0.050537109375, -0.188964843750, 0.668212890625, -23.898437500000, 31.562500000000, 94.687500000000, 1491363133
0.050537109375, -0.188964843750, 0.668212890625, -23.898437500000, 31.562500000000, 94.687500000000, 1491363133
0.050537109375, -0.188964843750, 0.668212890625, -23.898437500000, 31.562500000000, 94.687500000000, 1491363133
0.197509765625, 0.080322265625, 1.315429687500, 15.625000000000, -26.421875000000, 78.828125000000, 1491363133
0.197509765625, 0.080322265625, 1.315429687500, 15.625000000000, -26.421875000000, 78.828125000000, 1491363133
0.197509765625, 0.080322265625, 1.315429687500, 15.625000000000, -26.421875000000, 78.828125000000, 1491363133
0.166015625000, 0.071289062500, 1.315185546875, -8.125000000000, 10.898437500000, 54.265625000000, 1491363133
-0.021484375000, 0.031982421875, 0.981201171875, -60.257812500000, -1.757812500000, -1.289062500000, 1491363133
-0.021484375000, 0.031982421875, 0.981201171875, -60.257812500000, -1.757812500000, -1.289062500000, 1491363133
-0.021484375000, 0.031982421875, 0.981201171875, -60.257812500000, -1.757812500000, -1.289062500000, 1491363133
-0.021484375000, 0.031982421875, 0.981201171875, -60.257812500000, -1.757812500000, -1.289062500000, 1491363133
-0.021484375000, 0.031982421875, 0.981201171875, -60.257812500000, -1.757812500000, -1.289062500000, 1491363133
0.035888671875, -0.078369140625, 1.022216796875, -50.289062500000, 0.460937500000, -2.523437500000, 1491363133
0.035888671875, -0.078369140625, 1.022216796875, -50.289062500000, 0.460937500000, -2.523437500000, 1491363133
0.035888671875, -0.078369140625, 1.022216796875, -50.289062500000, 0.460937500000, -2.523437500000, 1491363133
0.035888671875, -0.078369140625, 1.022216796875, -50.289062500000, 0.460937500000, -2.523437500000, 1491363133
0.092529296875, 0.071777343750, 0.872314453125, 8.804687500000, -5.351562500000, -3.367187500000, 1491363133
0.092529296875, 0.071777343750, 0.872314453125, 8.804687500000, -5.351562500000, -3.367187500000, 1491363133
0.092529296875, 0.071777343750, 0.872314453125, 8.804687500000, -5.351562500000, -3.367187500000, 1491363133
-0.065429687500, -0.002685546875, 1.007080078125, 19.140625000000, -0.359375000000, -2.726562500000, 1491363133
-0.065429687500, -0.002685546875, 1.007080078125, 19.140625000000, -0.359375000000, -2.726562500000, 1491363133
-0.065429687500, -0.002685546875, 1.007080078125, 19.140625000000, -0.359375000000, -2.726562500000, 1491363133
0.051269531250, 0.023681640625, 1.142089843750, 14.195312500000, 3.546875000000, -1.906250000000, 1491363133
0.051269531250, 0.023681640625, 1.142089843750, 14.195312500000, 3.546875000000, -1.906250000000, 1491363133
0.051269531250, 0.023681640625, 1.142089843750, 14.195312500000, 3.546875000000, -1.906250000000, 1491363133
0.055908203125, 0.022216796875, 1.064208984375, 22.953125000000, -4.890625000000, 0.281250000000, 1491363133
0.055908203125, 0.022216796875, 1.064208984375, 22.953125000000, -4.890625000000, 0.281250000000, 1491363133
0.055908203125, 0.022216796875, 1.064208984375, 22.953125000000, -4.890625000000, 0.281250000000, 1491363133
0.055908203125, 0.022216796875, 1.064208984375, 22.953125000000, -4.890625000000, 0.281250000000, 1491363133
0.072509765625, -0.086669921875, 0.968750000000, 33.250000000000, 9.835937500000, -3.671875000000, 1491363133
0.072509765625, -0.086669921875, 0.968750000000, 33.250000000000, 9.835937500000, -3.671875000000, 1491363133
0.072509765625, -0.086669921875, 0.968750000000, 33.250000000000, 9.835937500000, -3.671875000000, 1491363133
0.072509765625, -0.086669921875, 0.968750000000, 33.250000000000, 9.835937500000, -3.671875000000, 1491363133
0.082275390625, -0.032226562500, 0.989013671875, 7.460937500000, 4.773437500000, -3.562500000000, 1491363133
0.082275390625, -0.032226562500, 0.989013671875, 7.460937500000, 4.773437500000, -3.562500000000, 1491363133
0.082275390625, -0.032226562500, 0.989013671875, 7.460937500000, 4.773437500000, -3.562500000000, 1491363133
0.082275390625, -0.032226562500, 0.989013671875, 7.460937500000, 4.773437500000, -3.562500000000, 1491363133
0.082275390625, -0.032226562500, 0.989013671875, 7.460937500000, 4.773437500000, -3.562500000000, 1491363133
0.040283203125, -0.032714843750, 0.990234375000, 15.617187500000, 12.554687500000, -5.578125000000, 1491363133
0.040283203125, -0.032714843750, 0.990234375000, 15.617187500000, 12.554687500000, -5.578125000000, 1491363133
0.040283203125, -0.032714843750, 0.990234375000, 15.617187500000, 12.554687500000, -5.578125000000, 1491363133
0.040283203125, -0.032714843750, 0.990234375000, 15.617187500000, 12.554687500000, -5.578125000000, 1491363133
-0.006103515625, 0.015136718750, 1.112792968750, -26.687500000000, -6.757812500000, 0.671875000000, 1491363133
-0.006103515625, 0.015136718750, 1.112792968750, -26.687500000000, -6.757812500000, 0.671875000000, 1491363133
-0.006103515625, 0.015136718750, 1.112792968750, -26.687500000000, -6.757812500000, 0.671875000000, 1491363133
0.137207031250, 0.005859375000, 0.969238281250, -10.539062500000, -1.984375000000, -2.984375000000, 1491363133
0.137207031250, 0.005859375000, 0.969238281250, -10.539062500000, -1.984375000000, -2.984375000000, 1491363133
0.137207031250, 0.005859375000, 0.969238281250, -10.539062500000, -1.984375000000, -2.984375000000, 1491363133
-0.017822265625, 0.030273437500, 1.079589843750, -10.031250000000, -2.218750000000, -1.187500000000, 1491363133
-0.017822265625, 0.030273437500, 1.079589843750, -10.031250000000, -2.218750000000, -1.187500000000, 1491363133
-0.017822265625, 0.030273437500, 1.079589843750, -10.031250000000, -2.218750000000, -1.187500000000, 1491363133
0.072509765625, -0.156005859375, 0.854736328125, -13.132812500000, -2.726562500000, -1.468750000000, 1491363133
0.072509765625, -0.156005859375, 0.854736328125, -13.132812500000, -2.726562500000, -1.468750000000, 1491363133
0.072509765625, -0.156005859375, 0.854736328125, -13.132812500000, -2.726562500000, -1.468750000000, 1491363133
0.072509765625, -0.156005859375, 0.854736328125, -13.132812500000, -2.726562500000, -1.468750000000, 1491363133
-0.081298828125, -0.064697265625, 1.082519531250, -6.101562500000, -0.460937500000, -5.273437500000, 1491363133
-0.081298828125, -0.064697265625, 1.082519531250, -6.101562500000, -0.460937500000, -5.273437500000, 1491363133
-0.081298828125, -0.064697265625, 1.082519531250, -6.101562500000, -0.460937500000, -5.273437500000, 1491363133
0.102539062500, -0.055419921875, 1.070800781250, -0.546875000000, 0.187500000000, -4.718750000000, 1491363133
0.102539062500, -0.055419921875, 1.070800781250, -0.546875000000, 0.187500000000, -4.718750000000, 1491363134
0.102539062500, -0.055419921875, 1.070800781250, -0.546875000000, 0.187500000000, -4.718750000000, 1491363134
-0.026123046875, -0.072753906250, 0.986083984375, -6.968750000000, -2.515625000000, -3.046875000000, 1491363134
-0.026123046875, -0.072753906250, 0.986083984375, -6.968750000000, -2.515625000000, -3.046875000000, 1491363134
-0.026123046875, -0.072753906250, 0.986083984375, -6.968750000000, -2.515625000000, -3.046875000000, 1491363134
0.141601562500, -0.003662109375, 1.026611328125, -4.843750000000, 0.109375000000, -1.054687500000, 1491363134
0.141601562500, -0.003662109375, 1.026611328125, -4.843750000000, 0.109375000000, -1.054687500000, 1491363134
0.141601562500, -0.003662109375, 1.026611328125, -4.843750000000, 0.109375000000, -1.054687500000, 1491363134
0.141601562500, -0.003662109375, 1.026611328125, -4.843750000000, 0.109375000000, -1.054687500000, 1491363134
-0.012207031250, -0.086425781250, 0.998291015625, -3.414062500000, -2.421875000000, -4.539062500000, 1491363134
-0.012207031250, -0.086425781250, 0.998291015625, -3.414062500000, -2.421875000000, -4.539062500000, 1491363134
-0.012207031250, -0.086425781250, 0.998291015625, -3.414062500000, -2.421875000000, -4.539062500000, 1491363134
0.155029296875, -0.051757812500, 0.985839843750, -5.960937500000, 2.015625000000, -1.921875000000, 1491363134
0.155029296875, -0.051757812500, 0.985839843750, -5.960937500000, 2.015625000000, -1.921875000000, 1491363134
0.155029296875, -0.051757812500, 0.985839843750, -5.960937500000, 2.015625000000, -1.921875000000, 1491363134
0.087890625000, 0.014160156250, 0.999755859375, -12.593750000000, -0.429687500000, -1.414062500000, 1491363134
-0.010253906250, 0.003662109375, 0.978027343750, -5.054687500000, 0.109375000000, -1.593750000000, 1491363134
-0.010253906250, 0.003662109375, 0.978027343750, -5.054687500000, 0.109375000000, -1.593750000000, 1491363134
-0.010253906250, 0.003662109375, 0.978027343750, -5.054687500000, 0.109375000000, -1.593750000000, 1491363134
-0.010253906250, 0.003662109375, 0.978027343750, -5.054687500000, 0.109375000000, -1.593750000000, 1491363134
-0.010253906250, 0.003662109375, 0.978027343750, -5.054687500000, 0.109375000000, -1.593750000000, 1491363134
0.086425781250, 0.014160156250, 1.025878906250, -0.734375000000, -0.710937500000, -3.734375000000, 1491363134
0.086425781250, 0.014160156250, 1.025878906250, -0.734375000000, -0.710937500000, -3.734375000000, 1491363134
0.086425781250, 0.014160156250, 1.025878906250, -0.734375000000, -0.710937500000, -3.734375000000, 1491363134
0.086425781250, 0.014160156250, 1.025878906250, -0.734375000000, -0.710937500000, -3.734375000000, 1491363134
0.048583984375, 0.005126953125, 0.982666015625, -11.000000000000, 0.250000000000, -4.765625000000, 1491363134
0.048583984375, 0.005126953125, 0.982666015625, -11.000000000000, 0.250000000000, -4.765625000000, 1491363134
0.107910156250, -0.067382812500, 0.986328125000, -5.601562500000, 0.468750000000, -1.632812500000, 1491363134
0.107910156250, -0.067382812500, 0.986328125000, -5.601562500000, 0.468750000000, -1.632812500000, 1491363134
0.107910156250, -0.067382812500, 0.986328125000, -5.601562500000, 0.468750000000, -1.632812500000, 1491363134
0.107910156250, -0.067382812500, 0.986328125000, -5.601562500000, 0.468750000000, -1.632812500000, 1491363134
-0.002197265625, -0.022705078125, 1.081542968750, -4.882812500000, 0.359375000000, 0.070312500000, 1491363134
-0.002197265625, -0.022705078125, 1.081542968750, -4.882812500000, 0.359375000000, 0.070312500000, 1491363134
-0.002197265625, -0.022705078125, 1.081542968750, -4.882812500000, 0.359375000000, 0.070312500000, 1491363134
-0.002197265625, -0.022705078125, 1.081542968750, -4.882812500000, 0.359375000000, 0.070312500000, 1491363134
0.075195312500, -0.066894531250, 0.978759765625, -8.531250000000, -0.976562500000, -3.726562500000, 1491363134
0.075195312500, -0.066894531250, 0.978759765625, -8.531250000000, -0.976562500000, -3.726562500000, 1491363134
0.075195312500, -0.066894531250, 0.978759765625, -8.531250000000, -0.976562500000, -3.726562500000, 1491363134
-0.011718750000, -0.062988281250, 0.999023437500, -5.125000000000, -0.351562500000, -4.937500000000, 1491363134
-0.011718750000, -0.062988281250, 0.999023437500, -5.125000000000, -0.351562500000, -4.937500000000, 1491363134
-0.011718750000, -0.062988281250, 0.999023437500, -5.125000000000, -0.351562500000, -4.937500000000, 1491363134
0.037353515625, 0.071533203125, 1.091308593750, -10.492187500000, 0.945312500000, -5.906250000000, 1491363134
0.079101562500, -0.018798828125, 1.083740234375, -6.812500000000, -2.351562500000, -4.875000000000, 1491363134
0.106445312500, 0.010742187500, 1.021484375000, 0.671875000000, -0.843750000000, -3.390625000000, 1491363134
0.106445312500, 0.010742187500, 1.021484375000, 0.671875000000, -0.843750000000, -3.390625000000, 1491363134
0.106445312500, 0.010742187500, 1.021484375000, 0.671875000000, -0.843750000000, -3.390625000000, 1491363134
0.136474609375, 0.022460937500, 1.073486328125, -5.640625000000, -0.781250000000, -2.671875000000, 1491363134
0.136474609375, 0.022460937500, 1.073486328125, -5.640625000000, -0.781250000000, -2.671875000000, 1491363134
0.136474609375, 0.022460937500, 1.073486328125, -5.640625000000, -0.781250000000, -2.671875000000, 1491363134
0.136474609375, 0.022460937500, 1.073486328125, -5.640625000000, -0.781250000000, -2.671875000000, 1491363134
0.136474609375, 0.022460937500, 1.073486328125, -5.640625000000, -0.781250000000, -2.671875000000, 1491363134
0.068847656250, 0.012451171875, 1.070556640625, -2.039062500000, -0.796875000000, -1.742187500000, 1491363134
0.068847656250, 0.012451171875, 1.070556640625, -2.039062500000, -0.796875000000, -1.742187500000, 1491363134
-0.015380859375, 0.019531250000, 1.075439453125, -5.164062500000, 0.890625000000, -1.562500000000, 1491363134
0.088378906250, 0.011474609375, 1.011474609375, -6.250000000000, -0.546875000000, -5.484375000000, 1491363134
0.088378906250, 0.011474609375, 1.011474609375, -6.250000000000, -0.546875000000, -5.484375000000, 1491363134
0.194091796875, -0.083740234375, 1.068847656250, -8.570312500000, 0.148437500000, -3.578125000000, 1491363134
0.194091796875, -0.083740234375, 1.068847656250, -8.570312500000, 0.148437500000, -3.578125000000, 1491363134
0.194091796875, -0.083740234375, 1.068847656250, -8.570312500000, 0.148437500000, -3.578125000000, 1491363134
0.040527343750, 0.067138671875, 0.999267578125, -8.843750000000, 0.179687500000, -3.617187500000, 1491363134
0.090820312500, -0.013183593750, 1.028564453125, -8.843750000000, 0.179687500000, -3.617187500000, 1491363134
0.090820312500, -0.013183593750, 1.028564453125, -8.843750000000, 0.179687500000, -3.617187500000, 1491363134
0.090820312500, -0.013183593750, 1.028564453125, -8.843750000000, 0.179687500000, -3.617187500000, 1491363134
0.090820312500, -0.013183593750, 1.028564453125, -8.843750000000, 0.179687500000, -3.617187500000, 1491363134
0.090820312500, -0.013183593750, 1.028564453125, -8.843750000000, 0.179687500000, -3.617187500000, 1491363135
0.126708984375, 0.068847656250, 0.989013671875, -8.242187500000, 2.398437500000, -6.460937500000, 1491363135
0.126708984375, 0.068847656250, 0.989013671875, -8.242187500000, 2.398437500000, -6.460937500000, 1491363135
0.126708984375, 0.068847656250, 0.989013671875, -8.242187500000, 2.398437500000, -6.460937500000, 1491363135
0.126708984375, 0.068847656250, 0.989013671875, -8.242187500000, 2.398437500000, -6.460937500000, 1491363135
0.126708984375, 0.068847656250, 0.989013671875, -8.242187500000, 2.398437500000, -6.460937500000, 1491363135
0.083007812500, -0.000244140625, 1.021972656250, -5.054687500000, 2.937500000000, -2.000000000000, 1491363135
0.083007812500, -0.000244140625, 1.021972656250, -5.054687500000, 2.937500000000, -2.000000000000, 1491363135
0.083007812500, -0.000244140625, 1.021972656250, -5.054687500000, 2.937500000000, -2.000000000000, 1491363135
0.083007812500, -0.000244140625, 1.021972656250, -5.054687500000, 2.937500000000, -2.000000000000, 1491363135
0.128662109375, -0.068115234375, 1.092041015625, -5.312500000000, 0.992187500000, -2.476562500000, 1491363135
-0.009765625000, -0.041503906250, 1.067626953125, -6.460937500000, 2.500000000000, -3.242187500000, 1491363135
-0.009765625000, -0.041503906250, 1.067626953125, -6.460937500000, 2.500000000000, -3.242187500000, 1491363135
-0.009765625000, -0.041503906250, 1.067626953125, -6.460937500000, 2.500000000000, -3.242187500000, 1491363135
0.148193359375, 0.017578125000, 1.016845703125, -4.500000000000, 0.046875000000, -3.296875000000, 1491363135
0.082275390625, 0.020507812500, 1.026855468750, -3.640625000000, -0.406250000000, -6.250000000000, 1491363135
0.082275390625, 0.020507812500, 1.026855468750, -3.640625000000, -0.406250000000, -6.250000000000, 1491363135
0.082275390625, 0.020507812500, 1.026855468750, -3.640625000000, -0.406250000000, -6.250000000000, 1491363135
0.082275390625, 0.020507812500, 1.026855468750, -3.640625000000, -0.406250000000, -6.250000000000, 1491363135
0.106445312500, -0.091308593750, 1.015136718750, -4.023437500000, 0.859375000000, -4.984375000000, 1491363135
0.106445312500, -0.091308593750, 1.015136718750, -4.023437500000, 0.859375000000, -4.984375000000, 1491363135
0.106445312500, -0.091308593750, 1.015136718750, -4.023437500000, 0.859375000000, -4.984375000000, 1491363135
0.106445312500, -0.091308593750, 1.015136718750, -4.023437500000, 0.859375000000, -4.984375000000, 1491363135
0.092529296875, -0.090332031250, 1.081542968750, -1.187500000000, -1.695312500000, -3.703125000000, 1491363135
0.092529296875, -0.090332031250, 1.081542968750, -1.187500000000, -1.695312500000, -3.703125000000, 1491363135
0.092529296875, -0.090332031250, 1.081542968750, -1.187500000000, -1.695312500000, -3.703125000000, 1491363135
0.044921875000, -0.082519531250, 1.076904296875, -5.648437500000, 1.101562500000, -4.460937500000, 1491363135
0.044921875000, -0.082519531250, 1.076904296875, -5.648437500000, 1.101562500000, -4.460937500000, 1491363135
0.044921875000, -0.082519531250, 1.076904296875, -5.648437500000, 1.101562500000, -4.460937500000, 1491363135
0.049560546875, 0.069824218750, 0.995605468750, -6.398437500000, -2.687500000000, -3.523437500000, 1491363135
0.029785156250, -0.073974609375, 1.091796875000, -4.492187500000, -0.484375000000, -3.507812500000, 1491363135
0.029785156250, -0.073974609375, 1.091796875000, -4.492187500000, -0.484375000000, -3.507812500000, 1491363135
0.079833984375, 0.008056640625, 1.100585937500, -4.593750000000, 0.320312500000, -4.007812500000, 1491363135
0.079833984375, 0.008056640625, 1.100585937500, -4.593750000000, 0.320312500000, -4.007812500000, 1491363135
0.079833984375, 0.008056640625, 1.100585937500, -4.593750000000, 0.320312500000, -4.007812500000, 1491363135
0.079833984375, 0.008056640625, 1.100585937500, -4.593750000000, 0.320312500000, -4.007812500000, 1491363135
0.079833984375, 0.008056640625, 1.100585937500, -4.593750000000, 0.320312500000, -4.007812500000, 1491363135
0.089843750000, 0.064208984375, 0.982421875000, -3.359375000000, 0.554687500000, -3.648437500000, 1491363135
0.089843750000, 0.064208984375, 0.982421875000, -3.359375000000, 0.554687500000, -3.648437500000, 1491363135
0.089843750000, 0.064208984375, 0.982421875000, -3.359375000000, 0.554687500000, -3.648437500000, 1491363135
0.089843750000, 0.064208984375, 0.982421875000, -3.359375000000, 0.554687500000, -3.648437500000, 1491363135
0.089843750000, 0.064208984375, 0.982421875000, -3.359375000000, 0.554687500000, -3.648437500000, 1491363135
0.014404296875, 0.004150390625, 1.006103515625, -1.468750000000, 0.843750000000, -3.414062500000, 1491363135
0.014404296875, 0.004150390625, 1.006103515625, -1.468750000000, 0.843750000000, -3.414062500000, 1491363135
0.014404296875, 0.004150390625, 1.006103515625, -1.468750000000, 0.843750000000, -3.414062500000, 1491363135
0.129638671875, 0.011474609375, 0.992187500000, -1.851562500000, -2.992187500000, -2.625000000000, 1491363135
0.129638671875, 0.011474609375, 0.992187500000, -1.851562500000, -2.992187500000, -2.625000000000, 1491363135
0.129638671875, 0.011474609375, 0.992187500000, -1.851562500000, -2.992187500000, -2.625000000000, 1491363135
0.129638671875, 0.011474609375, 0.992187500000, -1.851562500000, -2.992187500000, -2.625000000000, 1491363135
0.053222656250, -0.082519531250, 1.007568359375, -6.968750000000, -0.945312500000, -6.320312500000, 1491363135
0.053222656250, -0.082519531250, 1.007568359375, -6.968750000000, -0.945312500000, -6.320312500000, 1491363135
0.053222656250, -0.082519531250, 1.007568359375, -6.968750000000, -0.945312500000, -6.320312500000, 1491363135
-0.022705078125, 0.019287109375, 0.995117187500, -10.234375000000, -0.734375000000, -2.570312500000, 1491363135
-0.022705078125, 0.019287109375, 0.995117187500, -10.234375000000, -0.734375000000, -2.570312500000, 1491363135
-0.022705078125, 0.019287109375, 0.995117187500, -10.234375000000, -0.734375000000, -2.570312500000, 1491363135
0.060546875000, -0.064941406250, 0.928955078125, -0.445312500000, -0.273437500000, -4.742187500000, 1491363135
0.060546875000, -0.064941406250, 0.928955078125, -0.445312500000, -0.273437500000, -4.742187500000, 1491363135
0.137939453125, -0.088867187500, 0.993164062500, -3.304687500000, -0.726562500000, -3.710937500000, 1491363135
0.137939453125, -0.088867187500, 0.993164062500, -3.304687500000, -0.726562500000, -3.710937500000, 1491363135
0.137939453125, -0.088867187500, 0.993164062500, -3.304687500000, -0.726562500000, -3.710937500000, 1491363135
0.137939453125, -0.088867187500, 0.993164062500, -3.304687500000, -0.726562500000, -3.710937500000, 1491363135
0.137939453125, -0.088867187500, 0.993164062500, -3.304687500000, -0.726562500000, -3.710937500000, 1491363135
0.078857421875, 0.006347656250, 0.923583984375, 2.031250000000, -2.195312500000, -1.992187500000, 1491363135
0.078857421875, 0.006347656250, 0.923583984375, 2.031250000000, -2.195312500000, -1.992187500000, 1491363135
0.078857421875, 0.006347656250, 0.923583984375, 2.031250000000, -2.195312500000, -1.992187500000, 1491363135
0.048095703125, 0.004638671875, 1.031005859375, -3.023437500000, 0.085937500000, -3.390625000000, 1491363135
0.048095703125, 0.004638671875, 1.031005859375, -3.023437500000, 0.085937500000, -3.390625000000, 1491363135
0.048095703125, 0.004638671875, 1.031005859375, -3.023437500000, 0.085937500000, -3.390625000000, 1491363135
-0.002685546875, -0.080078125000, 0.991455078125, -8.890625000000, -0.257812500000, -1.343750000000, 1491363135
-0.002685546875, -0.080078125000, 0.991455078125, -8.890625000000, -0.257812500000, -1.343750000000, 1491363135
-0.002685546875, -0.080078125000, 0.991455078125, -8.890625000000, -0.257812500000, -1.343750000000, 1491363136
0.055175781250, -0.091552734375, 1.080566406250, -7.484375000000, 0.718750000000, -3.031250000000, 1491363136
0.055175781250, -0.091552734375, 1.080566406250, -7.484375000000, 0.718750000000, -3.031250000000, 1491363136
0.055175781250, -0.091552734375, 1.080566406250, -7.484375000000, 0.718750000000, -3.031250000000, 1491363136
0.055175781250, -0.091552734375, 1.080566406250, -7.484375000000, 0.718750000000, -3.031250000000, 1491363136
-0.001220703125, -0.084960937500, 1.018310546875, -2.875000000000, 0.000000000000, -6.664062500000, 1491363136
-0.001220703125, -0.084960937500, 1.018310546875, -2.875000000000, 0.000000000000, -6.664062500000, 1491363136
-0.001220703125, -0.084960937500, 1.018310546875, -2.875000000000, 0.000000000000, -6.664062500000, 1491363136
0.129882812500, -0.031494140625, 0.969482421875, -1.359375000000, -2.140625000000, -3.531250000000, 1491363136
0.129882812500, -0.031494140625, 0.969482421875, -1.359375000000, -2.140625000000, -3.531250000000, 1491363136
0.129882812500, -0.031494140625, 0.969482421875, -1.359375000000, -2.140625000000, -3.531250000000, 1491363136
0.067871093750, -0.046875000000, 0.992187500000, -3.679687500000, 1.445312500000, -1.851562500000, 1491363136
0.067871093750, -0.046875000000, 0.992187500000, -3.679687500000, 1.445312500000, -1.851562500000, 1491363136
0.067871093750, -0.046875000000, 0.992187500000, -3.679687500000, 1.445312500000, -1.851562500000, 1491363136
0.072021484375, 0.027343750000, 1.064208984375, -4.710937500000, -0.773437500000, -6.085937500000, 1491363136
0.072021484375, 0.027343750000, 1.064208984375, -4.710937500000, -0.773437500000, -6.085937500000, 1491363136
0.072021484375, 0.027343750000, 1.064208984375, -4.710937500000, -0.773437500000, -6.085937500000, 1491363136
0.072021484375, 0.027343750000, 1.064208984375, -4.710937500000, -0.773437500000, -6.085937500000, 1491363136
0.134277343750, -0.061035156250, 0.980712890625, -7.429687500000, 2.257812500000, -1.054687500000, 1491363136
0.134277343750, -0.061035156250, 0.980712890625, -7.429687500000, 2.257812500000, -1.054687500000, 1491363136
0.134277343750, -0.061035156250, 0.980712890625, -7.429687500000, 2.257812500000, -1.054687500000, 1491363136
0.137695312500, -0.001464843750, 1.038574218750, 0.007812500000, 2.265625000000, -4.257812500000, 1491363136
0.137695312500, -0.001464843750, 1.038574218750, 0.007812500000, 2.265625000000, -4.257812500000, 1491363136
0.137695312500, -0.001464843750, 1.038574218750, 0.007812500000, 2.265625000000, -4.257812500000, 1491363136
0.137695312500, -0.001464843750, 1.038574218750, 0.007812500000, 2.265625000000, -4.257812500000, 1491363136
0.045898437500, -0.069580078125, 1.085937500000, -1.398437500000, -2.382812500000, -3.945312500000, 1491363136
0.044677734375, -0.073486328125, 1.034179687500, -1.398437500000, -2.382812500000, -3.945312500000, 1491363136
0.044677734375, -0.073486328125, 1.034179687500, -1.398437500000, -2.382812500000, -3.945312500000, 1491363136
0.044677734375, -0.073486328125, 1.034179687500, -1.398437500000, -2.382812500000, -3.945312500000, 1491363136
0.044677734375, -0.073486328125, 1.034179687500, -1.398437500000, -2.382812500000, -3.945312500000, 1491363136
0.044677734375, -0.073486328125, 1.034179687500, -1.398437500000, -2.382812500000, -3.945312500000, 1491363136
0.072265625000, 0.021240234375, 1.084472656250, -1.234375000000, 0.710937500000, -2.968750000000, 1491363136
0.072265625000, 0.021240234375, 1.084472656250, -1.234375000000, 0.710937500000, -2.968750000000, 1491363136
0.072265625000, 0.021240234375, 1.084472656250, -1.234375000000, 0.710937500000, -2.968750000000, 1491363136
0.072021484375, -0.154296875000, 1.059570312500, -4.601562500000, 2.656250000000, -1.875000000000, 1491363136
0.126220703125, -0.000488281250, 1.078613281250, -3.640625000000, -2.468750000000, -3.523437500000, 1491363136
0.126220703125, -0.000488281250, 1.078613281250, -3.640625000000, -2.468750000000, -3.523437500000, 1491363136
0.126220703125, -0.000488281250, 1.078613281250, -3.640625000000, -2.468750000000, -3.523437500000, 1491363136
0.126220703125, -0.000488281250, 1.078613281250, -3.640625000000, -2.468750000000, -3.523437500000, 1491363136
0.126220703125, -0.000488281250, 1.078613281250, -3.640625000000, -2.468750000000, -3.523437500000, 1491363136
0.077392578125, 0.021484375000, 0.969970703125, -6.781250000000, 0.382812500000, -1.937500000000, 1491363136
0.077392578125, 0.021484375000, 0.969970703125, -6.781250000000, 0.382812500000, -1.937500000000, 1491363136
0.077392578125, 0.021484375000, 0.969970703125, -6.781250000000, 0.382812500000, -1.937500000000, 1491363136
0.077392578125, 0.021484375000, 0.969970703125, -6.781250000000, 0.382812500000, -1.937500000000, 1491363136
0.123291015625, 0.017333984375, 0.970703125000, -2.359375000000, -1.062500000000, -1.898437500000, 1491363136
0.123291015625, 0.017333984375, 0.970703125000, -2.359375000000, -1.062500000000, -1.898437500000, 1491363136
0.123291015625, 0.017333984375, 0.970703125000, -2.359375000000, -1.062500000000, -1.898437500000, 1491363136
-0.000488281250, 0.029541015625, 0.969970703125, -3.882812500000, -2.179687500000, -1.851562500000, 1491363136
-0.000488281250, 0.029541015625, 0.969970703125, -3.882812500000, -2.179687500000, -1.851562500000, 1491363136
-0.000488281250, 0.029541015625, 0.969970703125, -3.882812500000, -2.179687500000, -1.851562500000, 1491363136
-0.009765625000, -0.077636718750, 1.090087890625, -6.468750000000, 0.617187500000, -3.296875000000, 1491363136
-0.009765625000, -0.077636718750, 1.090087890625, -6.468750000000, 0.617187500000, -3.296875000000, 1491363136
-0.009765625000, -0.077636718750, 1.090087890625, -6.468750000000, 0.617187500000, -3.296875000000, 1491363136
0.088134765625, -0.087158203125, 1.063964843750, -6.664062500000, -1.195312500000, -7.484375000000, 1491363136
0.088134765625, -0.087158203125, 1.063964843750, -6.664062500000, -1.195312500000, -7.484375000000, 1491363136
0.088134765625, -0.087158203125, 1.063964843750, -6.664062500000, -1.195312500000, -7.484375000000, 1491363136
0.088134765625, -0.087158203125, 1.063964843750, -6.664062500000, -1.195312500000, -7.484375000000, 1491363136
0.088623046875, -0.146240234375, 1.035888671875, -4.867187500000, 2.007812500000, -3.445312500000, 1491363136
0.088623046875, -0.146240234375, 1.035888671875, -4.867187500000, 2.007812500000, -3.445312500000, 1491363136
0.088623046875, -0.146240234375, 1.035888671875, -4.867187500000, 2.007812500000, -3.445312500000, 1491363136
0.044921875000, 0.004150390625, 1.067871093750, -1.101562500000, -0.656250000000, -3.421875000000, 1491363136
0.044921875000, 0.004150390625, 1.067871093750, -1.101562500000, -0.656250000000, -3.421875000000, 1491363136
0.044921875000, 0.004150390625, 1.067871093750, -1.101562500000, -0.656250000000, -3.421875000000, 1491363136
0.141357421875, 0.026855468750, 0.990234375000, -2.671875000000, 2.296875000000, -4.640625000000, 1491363136
0.141357421875, 0.026855468750, 0.990234375000, -2.671875000000, 2.296875000000, -4.640625000000, 1491363136
0.141357421875, 0.026855468750, 0.990234375000, -2.671875000000, 2.296875000000, -4.640625000000, 1491363136
0.149902343750, -0.064208984375, 1.045898437500, 0.468750000000, -0.546875000000, -1.828125000000, 1491363137
0.149902343750, -0.064208984375, 1.045898437500, 0.468750000000, -0.546875000000, -1.828125000000, 1491363137
0.149902343750, -0.064208984375, 1.045898437500, 0.468750000000, -0.546875000000, -1.828125000000, 1491363137
0.149902343750, -0.064208984375, 1.045898437500, 0.468750000000, -0.546875000000, -1.828125000000, 1491363137
0.143554687500, -0.023925781250, 1.009521484375, -8.617187500000, 0.390625000000, -1.351562500000, 1491363137
0.143554687500, -0.023925781250, 1.009521484375, -8.617187500000, 0.390625000000, -1.351562500000, 1491363137
0.143554687500, -0.023925781250, 1.009521484375, -8.617187500000, 0.390625000000, -1.351562500000, 1491363137
0.050048828125, 0.024658203125, 0.987548828125, -5.414062500000, 2.085937500000, -1.859375000000, 1491363137
0.050048828125, 0.024658203125, 0.987548828125, -5.414062500000, 2.085937500000, -1.859375000000, 1491363137
0.050048828125, 0.024658203125, 0.987548828125, -5.414062500000, 2.085937500000, -1.859375000000, 1491363137
0.063964843750, 0.012451171875, 1.075683593750, -2.218750000000, 0.734375000000, -3.593750000000, 1491363137
0.063964843750, 0.012451171875, 1.075683593750, -2.218750000000, 0.734375000000, -3.593750000000, 1491363137
0.063964843750, 0.012451171875, 1.075683593750, -2.218750000000, 0.734375000000, -3.593750000000, 1491363137
0.036865234375, 0.036865234375, 0.986083984375, 0.031250000000, -0.929687500000, -4.234375000000, 1491363137
0.036865234375, 0.036865234375, 0.986083984375, 0.031250000000, -0.929687500000, -4.234375000000, 1491363137
0.036865234375, 0.036865234375, 0.986083984375, 0.031250000000, -0.929687500000, -4.234375000000, 1491363137
0.036865234375, 0.036865234375, 0.986083984375, 0.031250000000, -0.929687500000, -4.234375000000, 1491363137
-0.018310546875, -0.023925781250, 1.093017578125, -4.343750000000, 0.929687500000, -3.492187500000, 1491363137
-0.018310546875, -0.023925781250, 1.093017578125, -4.343750000000, 0.929687500000, -3.492187500000, 1491363137
-0.018310546875, -0.023925781250, 1.093017578125, -4.343750000000, 0.929687500000, -3.492187500000, 1491363137
0.092773437500, 0.028320312500, 1.025146484375, -3.765625000000, -2.445312500000, -5.335937500000, 1491363137
0.092773437500, 0.028320312500, 1.025146484375, -3.765625000000, -2.445312500000, -5.335937500000, 1491363137
0.092773437500, 0.028320312500, 1.025146484375, -3.765625000000, -2.445312500000, -5.335937500000, 1491363137
0.042480468750, 0.002685546875, 0.931396484375, -6.781250000000, -0.507812500000, -4.953125000000, 1491363137
0.042480468750, 0.002685546875, 0.931396484375, -6.781250000000, -0.507812500000, -4.953125000000, 1491363137
0.042480468750, 0.002685546875, 0.931396484375, -6.781250000000, -0.507812500000, -4.953125000000, 1491363137
0.056152343750, 0.028564453125, 0.970458984375, -5.109375000000, -0.304687500000, -4.812500000000, 1491363137
0.056152343750, 0.028564453125, 0.970458984375, -5.109375000000, -0.304687500000, -4.812500000000, 1491363137
0.056152343750, 0.028564453125, 0.970458984375, -5.109375000000, -0.304687500000, -4.812500000000, 1491363137
0.056152343750, 0.028564453125, 0.970458984375, -5.109375000000, -0.304687500000, -4.812500000000, 1491363137
0.024658203125, -0.150634765625, 0.991699218750, -4.250000000000, 0.890625000000, -4.375000000000, 1491363137
0.024658203125, -0.150634765625, 0.991699218750, -4.250000000000, 0.890625000000, -4.375000000000, 1491363137
0.024658203125, -0.150634765625, 0.991699218750, -4.250000000000, 0.890625000000, -4.375000000000, 1491363137
0.130615234375, 0.017822265625, 1.083984375000, -1.531250000000, -0.046875000000, -4.585937500000, 1491363137
0.130615234375, 0.017822265625, 1.083984375000, -1.531250000000, -0.046875000000, -4.585937500000, 1491363137
0.130615234375, 0.017822265625, 1.083984375000, -1.531250000000, -0.046875000000, -4.585937500000, 1491363137
0.132080078125, -0.075927734375, 0.981445312500, -8.023437500000, 2.335937500000, -4.804687500000, 1491363137
0.132080078125, -0.075927734375, 0.981445312500, -8.023437500000, 2.335937500000, -4.804687500000, 1491363137
0.132080078125, -0.075927734375, 0.981445312500, -8.023437500000, 2.335937500000, -4.804687500000, 1491363137
0.034423828125, -0.064208984375, 1.072265625000, -3.015625000000, -0.687500000000, -3.804687500000, 1491363137
0.034423828125, -0.064208984375, 1.072265625000, -3.015625000000, -0.687500000000, -3.804687500000, 1491363137
0.034423828125, -0.064208984375, 1.072265625000, -3.015625000000, -0.687500000000, -3.804687500000, 1491363137
0.034423828125, -0.064208984375, 1.072265625000, -3.015625000000, -0.687500000000, -3.804687500000, 1491363137
0.097412109375, 0.024902343750, 0.920166015625, -8.359375000000, -0.937500000000, -1.835937500000, 1491363137
0.097412109375, 0.024902343750, 0.920166015625, -8.359375000000, -0.937500000000, -1.835937500000, 1491363137
0.097412109375, 0.024902343750, 0.920166015625, -8.359375000000, -0.937500000000, -1.835937500000, 1491363137
0.131347656250, 0.027343750000, 1.043945312500, -3.664062500000, -0.304687500000, -3.015625000000, 1491363137
0.131347656250, 0.027343750000, 1.043945312500, -3.664062500000, -0.304687500000, -3.015625000000, 1491363137
0.131347656250, 0.027343750000, 1.043945312500, -3.664062500000, -0.304687500000, -3.015625000000, 1491363137
0.046142578125, 0.004638671875, 1.000976562500, -6.851562500000, -0.851562500000, -4.960937500000, 1491363137
0.125732421875, -0.092041015625, 1.022949218750, -4.992187500000, 0.140625000000, 0.515625000000, 1491363137
0.125732421875, -0.092041015625, 1.022949218750, -4.992187500000, 0.140625000000, 0.515625000000, 1491363137
0.125732421875, -0.092041015625, 1.022949218750, -4.992187500000, 0.140625000000, 0.515625000000, 1491363137
0.125732421875, -0.092041015625, 1.022949218750, -4.992187500000, 0.140625000000, 0.515625000000, 1491363137
0.125732421875, -0.092041015625, 1.022949218750, -4.992187500000, 0.140625000000, 0.515625000000, 1491363137
0.057861328125, -0.003662109375, 1.028076171875, -6.703125000000, 0.164062500000, -6.359375000000, 1491363137
0.057861328125, -0.003662109375, 1.028076171875, -6.703125000000, 0.164062500000, -6.359375000000, 1491363137
0.057861328125, -0.003662109375, 1.028076171875, -6.703125000000, 0.164062500000, -6.359375000000, 1491363137
0.057861328125, -0.003662109375, 1.028076171875, -6.703125000000, 0.164062500000, -6.359375000000, 1491363137
0.046386718750, 0.029785156250, 1.063476562500, -3.953125000000, -0.343750000000, -4.695312500000, 1491363137
0.046386718750, 0.029785156250, 1.063476562500, -3.953125000000, -0.343750000000, -4.695312500000, 1491363137
0.046386718750, 0.029785156250, 1.063476562500, -3.953125000000, -0.343750000000, -4.695312500000, 1491363137
0.070800781250, 0.010253906250, 1.001464843750, -3.078125000000, 2.179687500000, -2.531250000000, 1491363137
0.070800781250, 0.010253906250, 1.001464843750, -3.078125000000, 2.179687500000, -2.531250000000, 1491363137
0.070800781250, 0.010253906250, 1.001464843750, -3.078125000000, 2.179687500000, -2.531250000000, 1491363137
0.088623046875, 0.036621093750, 1.042480468750, -3.296875000000, 2.406250000000, -3.109375000000, 1491363138
0.088623046875, 0.036621093750, 1.042480468750, -3.296875000000, 2.406250000000, -3.109375000000, 1491363138
0.088623046875, 0.036621093750, 1.042480468750, -3.296875000000, 2.406250000000, -3.109375000000, 1491363138
0.088623046875, 0.036621093750, 1.042480468750, -3.296875000000, 2.406250000000, -3.109375000000, 1491363138
0.139404296875, 0.025390625000, 1.036621093750, -1.234375000000, 2.148437500000, -3.820312500000, 1491363138
0.139404296875, 0.025390625000, 1.036621093750, -1.234375000000, 2.148437500000, -3.820312500000, 1491363138
0.139404296875, 0.025390625000, 1.036621093750, -1.234375000000, 2.148437500000, -3.820312500000, 1491363138
0.088378906250, -0.034423828125, 1.004150390625, -3.789062500000, 0.750000000000, -1.859375000000, 1491363138
0.088378906250, -0.034423828125, 1.004150390625, -3.789062500000, 0.750000000000, -1.859375000000, 1491363138
0.088378906250, -0.034423828125, 1.004150390625, -3.789062500000, 0.750000000000, -1.859375000000, 1491363138
0.042968750000, 0.006591796875, 0.977783203125, -6.500000000000, -0.984375000000, -1.664062500000, 1491363138
0.042968750000, 0.006591796875, 0.977783203125, -6.500000000000, -0.984375000000, -1.664062500000, 1491363138
0.042968750000, 0.006591796875, 0.977783203125, -6.500000000000, -0.984375000000, -1.664062500000, 1491363138
0.051269531250, -0.002929687500, 0.998046875000, -3.992187500000, 0.406250000000, -5.718750000000, 1491363138
0.051269531250, -0.002929687500, 0.998046875000, -3.992187500000, 0.406250000000, -5.718750000000, 1491363138
0.051269531250, -0.002929687500, 0.998046875000, -3.992187500000, 0.406250000000, -5.718750000000, 1491363138
0.051269531250, -0.002929687500, 0.998046875000, -3.992187500000, 0.406250000000, -5.718750000000, 1491363138
0.072753906250, 0.005859375000, 1.077636718750, -6.414062500000, 2.179687500000, -4.671875000000, 1491363138
0.072753906250, 0.005859375000, 1.077636718750, -6.414062500000, 2.179687500000, -4.671875000000, 1491363138
0.072753906250, 0.005859375000, 1.077636718750, -6.414062500000, 2.179687500000, -4.671875000000, 1491363138
0.149902343750, -0.071044921875, 1.035156250000, -4.171875000000, -0.039062500000, -4.140625000000, 1491363138
0.149902343750, -0.071044921875, 1.035156250000, -4.171875000000, -0.039062500000, -4.140625000000, 1491363138
0.149902343750, -0.071044921875, 1.035156250000, -4.171875000000, -0.039062500000, -4.140625000000, 1491363138
0.039794921875, 0.005126953125, 0.933349609375, -4.179687500000, -0.390625000000, -3.140625000000, 1491363138
0.039794921875, 0.005126953125, 0.933349609375, -4.179687500000, -0.390625000000, -3.140625000000, 1491363138
0.039794921875, 0.005126953125, 0.933349609375, -4.179687500000, -0.390625000000, -3.140625000000, 1491363138
-0.018066406250, -0.023193359375, 0.974365234375, -2.546875000000, -0.296875000000, -3.648437500000, 1491363138
-0.018066406250, -0.023193359375, 0.974365234375, -2.546875000000, -0.296875000000, -3.648437500000, 1491363138
-0.018066406250, -0.023193359375, 0.974365234375, -2.546875000000, -0.296875000000, -3.648437500000, 1491363138
-0.018066406250, -0.023193359375, 0.974365234375, -2.546875000000, -0.296875000000, -3.648437500000, 1491363138
0.093017578125, 0.011230468750, 1.027587890625, -3.945312500000, 0.085937500000, 0.585937500000, 1491363138
0.093017578125, 0.011230468750, 1.027587890625, -3.945312500000, 0.085937500000, 0.585937500000, 1491363138
0.093017578125, 0.011230468750, 1.027587890625, -3.945312500000, 0.085937500000, 0.585937500000, 1491363138
0.070068359375, 0.077392578125, 1.021728515625, -5.609375000000, 0.718750000000, -2.507812500000, 1491363138
0.070068359375, 0.077392578125, 1.021728515625, -5.609375000000, 0.718750000000, -2.507812500000, 1491363138
0.070068359375, 0.077392578125, 1.021728515625, -5.609375000000, 0.718750000000, -2.507812500000, 1491363138
0.125732421875, 0.012695312500, 1.007812500000, -1.335937500000, 0.328125000000, -3.375000000000, 1491363138
0.125732421875, 0.012695312500, 1.007812500000, -1.335937500000, 0.328125000000, -3.375000000000, 1491363138
0.125732421875, 0.012695312500, 1.007812500000, -1.335937500000, 0.328125000000, -3.375000000000, 1491363138
0.072021484375, -0.012695312500, 0.995605468750, -4.625000000000, -0.882812500000, -4.554687500000, 1491363138
0.072021484375, -0.012695312500, 0.995605468750, -4.625000000000, -0.882812500000, -4.554687500000, 1491363138
0.072021484375, -0.012695312500, 0.995605468750, -4.625000000000, -0.882812500000, -4.554687500000, 1491363138
0.072021484375, -0.012695312500, 0.995605468750, -4.625000000000, -0.882812500000, -4.554687500000, 1491363138
0.150878906250, -0.031250000000, 1.068115234375, -3.273437500000, 0.406250000000, -3.171875000000, 1491363138
0.150878906250, -0.031250000000, 1.068115234375, -3.273437500000, 0.406250000000, -3.171875000000, 1491363138
0.150878906250, -0.031250000000, 1.068115234375, -3.273437500000, 0.406250000000, -3.171875000000, 1491363138
0.153808593750, 0.017089843750, 0.993652343750, -6.687500000000, -0.125000000000, -4.031250000000, 1491363138
0.153808593750, 0.017089843750, 0.993652343750, -6.687500000000, -0.125000000000, -4.031250000000, 1491363138
0.153808593750, 0.017089843750, 0.993652343750, -6.687500000000, -0.125000000000, -4.031250000000, 1491363138
0.117431640625, 0.023681640625, 1.026367187500, -2.320312500000, -0.750000000000, -3.312500000000, 1491363138
0.117431640625, 0.023681640625, 1.026367187500, -2.320312500000, -0.750000000000, -3.312500000000, 1491363138
0.117431640625, 0.023681640625, 1.026367187500, -2.320312500000, -0.750000000000, -3.312500000000, 1491363138
0.042968750000, -0.076416015625, 1.031982421875, 0.664062500000, 2.328125000000, -4.875000000000, 1491363138
0.042968750000, -0.076416015625, 1.031982421875, 0.664062500000, 2.328125000000, -4.875000000000, 1491363138
0.042968750000, -0.076416015625, 1.031982421875, 0.664062500000, 2.328125000000, -4.875000000000, 1491363138
0.042968750000, -0.076416015625, 1.031982421875, 0.664062500000, 2.328125000000, -4.875000000000, 1491363138
0.036865234375, -0.068115234375, 1.020019531250, -1.632812500000, 0.601562500000, -4.812500000000, 1491363138
0.036865234375, -0.068115234375, 1.020019531250, -1.632812500000, 0.601562500000, -4.812500000000, 1491363138
0.036865234375, -0.068115234375, 1.020019531250, -1.632812500000, 0.601562500000, -4.812500000000, 1491363138
0.079101562500, -0.013671875000, 0.970947265625, -10.117187500000, 2.554687500000, -4.554687500000, 1491363138
0.079101562500, -0.013671875000, 0.970947265625, -10.117187500000, 2.554687500000, -4.554687500000, 1491363138
0.079101562500, -0.013671875000, 0.970947265625, -10.117187500000, 2.554687500000, -4.554687500000, 1491363138
0.108886718750, 0.069335937500, 0.979736328125, -9.507812500000, -2.125000000000, -6.062500000000, 1491363138
0.108886718750, 0.069335937500, 0.979736328125, -9.507812500000, -2.125000000000, -6.062500000000, 1491363138
0.108886718750, 0.069335937500, 0.979736328125, -9.507812500000, -2.125000000000, -6.062500000000, 1491363138
0.006347656250, -0.079345703125, 1.069824218750, -10.195312500000, 1.023437500000, -3.250000000000, 1491363138
0.006347656250, -0.079345703125, 1.069824218750, -10.195312500000, 1.023437500000, -3.250000000000, 1491363138
0.006347656250, -0.079345703125, 1.069824218750, -10.195312500000, 1.023437500000, -3.250000000000, 1491363138
0.006347656250, -0.079345703125, 1.069824218750, -10.195312500000, 1.023437500000, -3.250000000000, 1491363138
0.083496093750, 0.000732421875, 1.019287109375, -2.851562500000, 4.585937500000, -6.015625000000, 1491363139
0.083496093750, 0.000732421875, 1.019287109375, -2.851562500000, 4.585937500000, -6.015625000000, 1491363139
0.083496093750, 0.000732421875, 1.019287109375, -2.851562500000, 4.585937500000, -6.015625000000, 1491363139
0.060791015625, 0.063720703125, 0.960205078125, -4.968750000000, 4.554687500000, -3.804687500000, 1491363139
0.060791015625, 0.063720703125, 0.960205078125, -4.968750000000, 4.554687500000, -3.804687500000, 1491363139
0.060791015625, 0.063720703125, 0.960205078125, -4.968750000000, 4.554687500000, -3.804687500000, 1491363139
0.067382812500, -0.035644531250, 1.022705078125, -27.289062500000, 1.007812500000, -0.640625000000, 1491363139
0.067382812500, -0.035644531250, 1.022705078125, -27.289062500000, 1.007812500000, -0.640625000000, 1491363139
0.067382812500, -0.035644531250, 1.022705078125, -27.289062500000, 1.007812500000, -0.640625000000, 1491363139
-0.024902343750, 0.065429687500, 1.092285156250, -36.843750000000, -9.250000000000, 0.859375000000, 1491363139
-0.024902343750, 0.065429687500, 1.092285156250, -36.843750000000, -9.250000000000, 0.859375000000, 1491363139
-0.024902343750, 0.065429687500, 1.092285156250, -36.843750000000, -9.250000000000, 0.859375000000, 1491363139
-0.024902343750, 0.065429687500, 1.092285156250, -36.843750000000, -9.250000000000, 0.859375000000, 1491363139
0.091308593750, 0.031494140625, 0.937500000000, -30.335937500000, -7.859375000000, -8.867187500000, 1491363139
0.091308593750, 0.031494140625, 0.937500000000, -30.335937500000, -7.859375000000, -8.867187500000, 1491363139
0.091308593750, 0.031494140625, 0.937500000000, -30.335937500000, -7.859375000000, -8.867187500000, 1491363139
0.255615234375, 0.009521484375, 1.162597656250, -58.898437500000, 19.820312500000, -16.281250000000, 1491363139
0.255615234375, 0.009521484375, 1.162597656250, -58.898437500000, 19.820312500000, -16.281250000000, 1491363139
0.255615234375, 0.009521484375, 1.162597656250, -58.898437500000, 19.820312500000, -16.281250000000, 1491363139
0.043701171875, -0.072265625000, 0.837646484375, 19.062500000000, -15.953125000000, 10.070312500000, 1491363139
0.043701171875, -0.072265625000, 0.837646484375, 19.062500000000, -15.953125000000, 10.070312500000, 1491363139
0.043701171875, -0.072265625000, 0.837646484375, 19.062500000000, -15.953125000000, 10.070312500000, 1491363139
0.020507812500, 0.113525390625, 1.058105468750, 78.632812500000, 11.835937500000, -6.867187500000, 1491363139
0.020507812500, 0.113525390625, 1.058105468750, 78.632812500000, 11.835937500000, -6.867187500000, 1491363139
0.020507812500, 0.113525390625, 1.058105468750, 78.632812500000, 11.835937500000, -6.867187500000, 1491363139
0.020507812500, 0.113525390625, 1.058105468750, 78.632812500000, 11.835937500000, -6.867187500000, 1491363139
-0.011962890625, -0.023193359375, 1.269531250000, 94.937500000000, 16.289062500000, -3.742187500000, 1491363139
-0.011962890625, -0.023193359375, 1.269531250000, 94.937500000000, 16.289062500000, -3.742187500000, 1491363139
-0.011962890625, -0.023193359375, 1.269531250000, 94.937500000000, 16.289062500000, -3.742187500000, 1491363139
-0.030029296875, 0.093505859375, 0.911132812500, -21.320312500000, 4.242187500000, 2.921875000000, 1491363139
-0.030029296875, 0.093505859375, 0.911132812500, -21.320312500000, 4.242187500000, 2.921875000000, 1491363139
-0.030029296875, 0.093505859375, 0.911132812500, -21.320312500000, 4.242187500000, 2.921875000000, 1491363139
0.147460937500, -0.009033203125, 0.915283203125, -44.054687500000, -29.429687500000, -1.046875000000, 1491363139
0.147460937500, -0.009033203125, 0.915283203125, -44.054687500000, -29.429687500000, -1.046875000000, 1491363139
0.147460937500, -0.009033203125, 0.915283203125, -44.054687500000, -29.429687500000, -1.046875000000, 1491363139
0.168212890625, -0.000244140625, 0.805664062500, -39.710937500000, -0.265625000000, -1.085937500000, 1491363139
0.168212890625, -0.000244140625, 0.805664062500, -39.710937500000, -0.265625000000, -1.085937500000, 1491363139
0.168212890625, -0.000244140625, 0.805664062500, -39.710937500000, -0.265625000000, -1.085937500000, 1491363139
0.168212890625, -0.000244140625, 0.805664062500, -39.710937500000, -0.265625000000, -1.085937500000, 1491363139
