ACC_X,ACC_Y,ACC_Z,G_X,G_Y,G_Z,Unix Time
-0.018310546875, 0.901611328125, -0.460449218750, -1.093750000000, -2.101562500000, -7.179687500000, 1491363370
-0.018310546875, 0.901611328125, -0.460449218750, -1.093750000000, -2.101562500000, -7.179687500000, 1491363370
-0.018310546875, 0.901611328125, -0.460449218750, -1.093750000000, -2.101562500000, -7.179687500000, 1491363370
0.078125000000, 0.961669921875, -0.429199218750, -1.601562500000, 2.289062500000, -4.007812500000, 1491363370
0.078125000000, 0.961669921875, -0.429199218750, -1.601562500000, 2.289062500000, -4.007812500000, 1491363370
0.078125000000, 0.961669921875, -0.429199218750, -1.601562500000, 2.289062500000, -4.007812500000, 1491363370
0.024169921875, 0.865478515625, -0.419921875000, -2.796875000000, -2.781250000000, -8.250000000000, 1491363370
0.024169921875, 0.865478515625, -0.419921875000, -2.796875000000, -2.781250000000, -8.250000000000, 1491363370
0.024169921875, 0.865478515625, -0.419921875000, -2.796875000000, -2.781250000000, -8.250000000000, 1491363370
0.020507812500, 0.858154296875, -0.368408203125, -4.523437500000, -1.921875000000, -8.867187500000, 1491363370
0.050292968750, 0.875000000000, -0.446289062500, -4.523437500000, -1.921875000000, -8.867187500000, 1491363370
0.050292968750, 0.875000000000, -0.446289062500, -4.523437500000, -1.921875000000, -8.867187500000, 1491363370
0.050292968750, 0.875000000000, -0.446289062500, -4.523437500000, -1.921875000000, -8.867187500000, 1491363370
0.074218750000, 0.883300781250, -0.412109375000, -3.117187500000, -4.710937500000, -5.039062500000, 1491363370
0.074218750000, 0.883300781250, -0.412109375000, -3.117187500000, -4.710937500000, -5.039062500000, 1491363370
0.074218750000, 0.883300781250, -0.412109375000, -3.117187500000, -4.710937500000, -5.039062500000, 1491363370
0.089111328125, 0.797119140625, -0.372314453125, -1.914062500000, -4.617187500000, -6.640625000000, 1491363370
0.089111328125, 0.797119140625, -0.372314453125, -1.914062500000, -4.617187500000, -6.640625000000, 1491363370
0.089111328125, 0.797119140625, -0.372314453125, -1.914062500000, -4.617187500000, -6.640625000000, 1491363370
0.044921875000, 0.904052734375, -0.465332031250, -1.531250000000, -2.968750000000, -3.265625000000, 1491363370
0.044921875000, 0.904052734375, -0.465332031250, -1.531250000000, -2.968750000000, -3.265625000000, 1491363370
0.044921875000, 0.904052734375, -0.465332031250, -1.531250000000, -2.968750000000, -3.265625000000, 1491363370
0.044921875000, 0.904052734375, -0.465332031250, -1.531250000000, -2.968750000000, -3.265625000000, 1491363370
-0.008789062500, 0.964355468750, -0.421630859375, -3.226562500000, -4.593750000000, -2.750000000000, 1491363370
0.033691406250, 0.960449218750, -0.446533203125, -9.710937500000, -5.679687500000, -4.632812500000, 1491363370
0.033691406250, 0.960449218750, -0.446533203125, -9.710937500000, -5.679687500000, -4.632812500000, 1491363370
0.033691406250, 0.960449218750, -0.446533203125, -9.710937500000, -5.679687500000, -4.632812500000, 1491363370
0.033691406250, 0.960449218750, -0.446533203125, -9.710937500000, -5.679687500000, -4.632812500000, 1491363370
0.073242187500, 0.895263671875, -0.500000000000, -10.976562500000, -6.859375000000, -1.867187500000, 1491363370
0.073242187500, 0.895263671875, -0.500000000000, -10.976562500000, -6.859375000000, -1.867187500000, 1491363370
0.026855468750, 0.928955078125, -0.462890625000, -3.789062500000, -4.812500000000, -5.007812500000, 1491363370
0.026855468750, 0.928955078125, -0.462890625000, -3.789062500000, -4.812500000000, -5.007812500000, 1491363370
0.026855468750, 0.928955078125, -0.462890625000, -3.789062500000, -4.812500000000, -5.007812500000, 1491363370
0.026855468750, 0.928955078125, -0.462890625000, -3.789062500000, -4.812500000000, -5.007812500000, 1491363370
0.026855468750, 0.928955078125, -0.462890625000, -3.789062500000, -4.812500000000, -5.007812500000, 1491363370
0.026855468750, 0.928955078125, -0.462890625000, -3.789062500000, -4.812500000000, -5.007812500000, 1491363370
0.013183593750, 0.926757812500, -0.435058593750, -8.859375000000, -3.765625000000, -1.796875000000, 1491363370
-0.071289062500, 0.783203125000, -0.411132812500, -8.085937500000, 1.007812500000, -0.398437500000, 1491363370
-0.071289062500, 0.783203125000, -0.411132812500, -8.085937500000, 1.007812500000, -0.398437500000, 1491363370
0.044677734375, 0.862060546875, -0.475097656250, -4.671875000000, -1.523437500000, 0.468750000000, 1491363370
0.078613281250, 0.810302734375, -0.407958984375, -2.375000000000, 1.906250000000, -0.453125000000, 1491363370
0.078613281250, 0.810302734375, -0.407958984375, -2.375000000000, 1.906250000000, -0.453125000000, 1491363370
0.078613281250, 0.810302734375, -0.407958984375, -2.375000000000, 1.906250000000, -0.453125000000, 1491363370
0.078613281250, 0.810302734375, -0.407958984375, -2.375000000000, 1.906250000000, -0.453125000000, 1491363370
0.078613281250, 0.810302734375, -0.407958984375, -2.375000000000, 1.906250000000, -0.453125000000, 1491363370
0.078613281250, 0.810302734375, -0.407958984375, -2.375000000000, 1.906250000000, -0.453125000000, 1491363370
0.078613281250, 0.810302734375, -0.407958984375, -2.375000000000, 1.906250000000, -0.453125000000, 1491363370
0.059570312500, 0.834960937500, -0.439941406250, -4.507812500000, -2.789062500000, -0.171875000000, 1491363370
0.059570312500, 0.834960937500, -0.439941406250, -4.507812500000, -2.789062500000, -0.171875000000, 1491363370
0.059570312500, 0.834960937500, -0.439941406250, -4.507812500000, -2.789062500000, -0.171875000000, 1491363370
0.059570312500, 0.834960937500, -0.439941406250, -4.507812500000, -2.789062500000, -0.171875000000, 1491363370
0.059570312500, 0.834960937500, -0.439941406250, -4.507812500000, -2.789062500000, -0.171875000000, 1491363370
0.028564453125, 0.881103515625, -0.421142578125, -4.054687500000, 6.781250000000, -0.562500000000, 1491363370
0.028564453125, 0.881103515625, -0.421142578125, -4.054687500000, 6.781250000000, -0.562500000000, 1491363370
0.028564453125, 0.881103515625, -0.421142578125, -4.054687500000, 6.781250000000, -0.562500000000, 1491363370
0.004882812500, 0.856933593750, -0.407958984375, -4.460937500000, 1.359375000000, 4.289062500000, 1491363370
0.004882812500, 0.856933593750, -0.407958984375, -4.460937500000, 1.359375000000, 4.289062500000, 1491363370
0.004882812500, 0.856933593750, -0.407958984375, -4.460937500000, 1.359375000000, 4.289062500000, 1491363370
0.027832031250, 0.919677734375, -0.419433593750, -6.039062500000, 1.437500000000, 0.414062500000, 1491363370
0.027832031250, 0.919677734375, -0.419433593750, -6.039062500000, 1.437500000000, 0.414062500000, 1491363370
0.027832031250, 0.919677734375, -0.419433593750, -6.039062500000, 1.437500000000, 0.414062500000, 1491363370
0.027832031250, 0.919677734375, -0.419433593750, -6.039062500000, 1.437500000000, 0.414062500000, 1491363370
-0.028564453125, 0.853759765625, -0.501708984375, -3.890625000000, 4.734375000000, -4.570312500000, 1491363370
-0.028564453125, 0.853759765625, -0.501708984375, -3.890625000000, 4.734375000000, -4.570312500000, 1491363370
-0.028564453125, 0.853759765625, -0.501708984375, -3.890625000000, 4.734375000000, -4.570312500000, 1491363370
-0.079101562500, 0.853027343750, -0.435302734375, -3.390625000000, 2.546875000000, -0.945312500000, 1491363371
-0.079101562500, 0.853027343750, -0.435302734375, -3.390625000000, 2.546875000000, -0.945312500000, 1491363371
-0.079101562500, 0.853027343750, -0.435302734375, -3.390625000000, 2.546875000000, -0.945312500000, 1491363371
0.087158203125, 0.854980468750, -0.458984375000, -5.398437500000, 3.851562500000, -1.843750000000, 1491363371
0.087158203125, 0.854980468750, -0.458984375000, -5.398437500000, 3.851562500000, -1.843750000000, 1491363371
0.087158203125, 0.854980468750, -0.458984375000, -5.398437500000, 3.851562500000, -1.843750000000, 1491363371
-0.011474609375, 0.946777343750, -0.515136718750, -4.828125000000, 6.609375000000, 0.359375000000, 1491363371
-0.011474609375, 0.946777343750, -0.515136718750, -4.828125000000, 6.609375000000, 0.359375000000, 1491363371
-0.011474609375, 0.946777343750, -0.515136718750, -4.828125000000, 6.609375000000, 0.359375000000, 1491363371
-0.011474609375, 0.946777343750, -0.515136718750, -4.828125000000, 6.609375000000, 0.359375000000, 1491363371
0.013916015625, 0.872802734375, -0.481689453125, -5.070312500000, 1.968750000000, -6.578125000000, 1491363371
0.013916015625, 0.872802734375, -0.481689453125, -5.070312500000, 1.968750000000, -6.578125000000, 1491363371
0.013916015625, 0.872802734375, -0.481689453125, -5.070312500000, 1.968750000000, -6.578125000000, 1491363371
0.028808593750, 0.868652343750, -0.474853515625, -5.242187500000, 4.328125000000, -8.406250000000, 1491363371
0.028808593750, 0.868652343750, -0.474853515625, -5.242187500000, 4.328125000000, -8.406250000000, 1491363371
-0.006347656250, 0.898193359375, -0.468261718750, -8.703125000000, 2.148437500000, -4.781250000000, 1491363371
-0.006347656250, 0.898193359375, -0.468261718750, -8.703125000000, 2.148437500000, -4.781250000000, 1491363371
-0.006347656250, 0.898193359375, -0.468261718750, -8.703125000000, 2.148437500000, -4.781250000000, 1491363371
-0.006347656250, 0.898193359375, -0.468261718750, -8.703125000000, 2.148437500000, -4.781250000000, 1491363371
-0.010253906250, 0.906982421875, -0.419433593750, -6.460937500000, -2.679687500000, -6.156250000000, 1491363371
-0.010253906250, 0.906982421875, -0.419433593750, -6.460937500000, -2.679687500000, -6.156250000000, 1491363371
-0.010253906250, 0.906982421875, -0.419433593750, -6.460937500000, -2.679687500000, -6.156250000000, 1491363371
-0.010253906250, 0.906982421875, -0.419433593750, -6.460937500000, -2.679687500000, -6.156250000000, 1491363371
0.031005859375, 0.851318359375, -0.510009765625, -4.460937500000, -7.250000000000, -9.554687500000, 1491363371
0.031005859375, 0.851318359375, -0.510009765625, -4.460937500000, -7.250000000000, -9.554687500000, 1491363371
0.031005859375, 0.851318359375, -0.510009765625, -4.460937500000, -7.250000000000, -9.554687500000, 1491363371
-0.016845703125, 0.881103515625, -0.503417968750, -1.937500000000, 4.250000000000, -4.140625000000, 1491363371
-0.016845703125, 0.881103515625, -0.503417968750, -1.937500000000, 4.250000000000, -4.140625000000, 1491363371
-0.016845703125, 0.881103515625, -0.503417968750, -1.937500000000, 4.250000000000, -4.140625000000, 1491363371
-0.028320312500, 0.959960937500, -0.531005859375, -3.562500000000, 0.242187500000, -7.804687500000, 1491363371
-0.028320312500, 0.959960937500, -0.531005859375, -3.562500000000, 0.242187500000, -7.804687500000, 1491363371
-0.028320312500, 0.959960937500, -0.531005859375, -3.562500000000, 0.242187500000, -7.804687500000, 1491363371
0.010009765625, 0.868896484375, -0.443603515625, -3.398437500000, -2.398437500000, -8.390625000000, 1491363371
0.010009765625, 0.868896484375, -0.443603515625, -3.398437500000, -2.398437500000, -8.390625000000, 1491363371
0.010009765625, 0.868896484375, -0.443603515625, -3.398437500000, -2.398437500000, -8.390625000000, 1491363371
0.010009765625, 0.868896484375, -0.443603515625, -3.398437500000, -2.398437500000, -8.390625000000, 1491363371
-0.019042968750, 0.897460937500, -0.529541015625, -1.234375000000, 1.562500000000, -6.156250000000, 1491363371
-0.019042968750, 0.897460937500, -0.529541015625, -1.234375000000, 1.562500000000, -6.156250000000, 1491363371
-0.019042968750, 0.897460937500, -0.529541015625, -1.234375000000, 1.562500000000, -6.156250000000, 1491363371
0.029052734375, 0.882568359375, -0.407470703125, -5.046875000000, -0.828125000000, -14.046875000000, 1491363371
0.029052734375, 0.882568359375, -0.407470703125, -5.046875000000, -0.828125000000, -14.046875000000, 1491363371
0.029052734375, 0.882568359375, -0.407470703125, -5.046875000000, -0.828125000000, -14.046875000000, 1491363371
0.000976562500, 0.847656250000, -0.415771484375, -1.648437500000, -6.171875000000, -5.609375000000, 1491363371
0.000976562500, 0.847656250000, -0.415771484375, -1.648437500000, -6.171875000000, -5.609375000000, 1491363371
0.000976562500, 0.847656250000, -0.415771484375, -1.648437500000, -6.171875000000, -5.609375000000, 1491363371
0.072998046875, 0.858398437500, -0.416992187500, -1.742187500000, 0.859375000000, -6.296875000000, 1491363371
0.072998046875, 0.858398437500, -0.416992187500, -1.742187500000, 0.859375000000, -6.296875000000, 1491363371
0.072998046875, 0.858398437500, -0.416992187500, -1.742187500000, 0.859375000000, -6.296875000000, 1491363371
0.072998046875, 0.858398437500, -0.416992187500, -1.742187500000, 0.859375000000, -6.296875000000, 1491363371
-0.017333984375, 0.799560546875, -0.448730468750, -5.015625000000, -2.000000000000, -6.726562500000, 1491363371
-0.017333984375, 0.799560546875, -0.448730468750, -5.015625000000, -2.000000000000, -6.726562500000, 1491363371
-0.017333984375, 0.799560546875, -0.448730468750, -5.015625000000, -2.000000000000, -6.726562500000, 1491363371
0.023681640625, 0.909423828125, -0.406250000000, -1.765625000000, -2.609375000000, -10.328125000000, 1491363371
0.023681640625, 0.909423828125, -0.406250000000, -1.765625000000, -2.609375000000, -10.328125000000, 1491363371
0.023681640625, 0.909423828125, -0.406250000000, -1.765625000000, -2.609375000000, -10.328125000000, 1491363371
-0.075439453125, 0.942382812500, -0.429687500000, -4.945312500000, 2.593750000000, -3.007812500000, 1491363371
-0.075439453125, 0.942382812500, -0.429687500000, -4.945312500000, 2.593750000000, -3.007812500000, 1491363371
-0.075439453125, 0.942382812500, -0.429687500000, -4.945312500000, 2.593750000000, -3.007812500000, 1491363371
0.008300781250, 0.907470703125, -0.529541015625, -3.804687500000, -8.757812500000, -13.460937500000, 1491363371
0.008300781250, 0.907470703125, -0.529541015625, -3.804687500000, -8.757812500000, -13.460937500000, 1491363371
0.008300781250, 0.907470703125, -0.529541015625, -3.804687500000, -8.757812500000, -13.460937500000, 1491363371
0.008300781250, 0.907470703125, -0.529541015625, -3.804687500000, -8.757812500000, -13.460937500000, 1491363371
-0.005859375000, 0.810546875000, -0.414062500000, -4.140625000000, 0.804687500000, -6.390625000000, 1491363371
-0.005859375000, 0.810546875000, -0.414062500000, -4.140625000000, 0.804687500000, -6.390625000000, 1491363371
-0.005859375000, 0.810546875000, -0.414062500000, -4.140625000000, 0.804687500000, -6.390625000000, 1491363371
-0.003173828125, 0.849365234375, -0.437011718750, -2.859375000000, 3.539062500000, -0.242187500000, 1491363371
-0.003173828125, 0.849365234375, -0.437011718750, -2.859375000000, 3.539062500000, -0.242187500000, 1491363372
-0.003173828125, 0.849365234375, -0.437011718750, -2.859375000000, 3.539062500000, -0.242187500000, 1491363372
0.075683593750, 0.874755859375, -0.503662109375, -3.593750000000, 2.687500000000, -4.148437500000, 1491363372
0.075683593750, 0.874755859375, -0.503662109375, -3.593750000000, 2.687500000000, -4.148437500000, 1491363372
0.075683593750, 0.874755859375, -0.503662109375, -3.593750000000, 2.687500000000, -4.148437500000, 1491363372
0.051757812500, 0.857177734375, -0.422363281250, -4.429687500000, 0.929687500000, -1.585937500000, 1491363372
0.051757812500, 0.857177734375, -0.422363281250, -4.429687500000, 0.929687500000, -1.585937500000, 1491363372
0.051757812500, 0.857177734375, -0.422363281250, -4.429687500000, 0.929687500000, -1.585937500000, 1491363372
0.051757812500, 0.857177734375, -0.422363281250, -4.429687500000, 0.929687500000, -1.585937500000, 1491363372
0.052001953125, 0.874755859375, -0.417236328125, -6.351562500000, -0.195312500000, -4.882812500000, 1491363372
0.052001953125, 0.874755859375, -0.417236328125, -6.351562500000, -0.195312500000, -4.882812500000, 1491363372
0.052001953125, 0.874755859375, -0.417236328125, -6.351562500000, -0.195312500000, -4.882812500000, 1491363372
0.007812500000, 0.854248046875, -0.436279296875, -6.046875000000, -0.914062500000, -7.000000000000, 1491363372
0.007812500000, 0.854248046875, -0.436279296875, -6.046875000000, -0.914062500000, -7.000000000000, 1491363372
0.007812500000, 0.854248046875, -0.436279296875, -6.046875000000, -0.914062500000, -7.000000000000, 1491363372
0.085449218750, 0.862548828125, -0.433593750000, -5.023437500000, 1.601562500000, -3.171875000000, 1491363372
0.085449218750, 0.862548828125, -0.433593750000, -5.023437500000, 1.601562500000, -3.171875000000, 1491363372
0.085449218750, 0.862548828125, -0.433593750000, -5.023437500000, 1.601562500000, -3.171875000000, 1491363372
0.087646484375, 0.922851562500, -0.430175781250, -8.000000000000, -3.625000000000, -7.687500000000, 1491363372
0.087646484375, 0.922851562500, -0.430175781250, -8.000000000000, -3.625000000000, -7.687500000000, 1491363372
0.087646484375, 0.922851562500, -0.430175781250, -8.000000000000, -3.625000000000, -7.687500000000, 1491363372
0.087646484375, 0.922851562500, -0.430175781250, -8.000000000000, -3.625000000000, -7.687500000000, 1491363372
0.031738281250, 0.904541015625, -0.482666015625, -4.070312500000, 3.968750000000, -2.882812500000, 1491363372
0.031738281250, 0.904541015625, -0.482666015625, -4.070312500000, 3.968750000000, -2.882812500000, 1491363372
0.031738281250, 0.904541015625, -0.482666015625, -4.070312500000, 3.968750000000, -2.882812500000, 1491363372
0.048828125000, 0.846923828125, -0.420410156250, -6.046875000000, -2.054687500000, -5.375000000000, 1491363372
0.048828125000, 0.846923828125, -0.420410156250, -6.046875000000, -2.054687500000, -5.375000000000, 1491363372
0.048828125000, 0.846923828125, -0.420410156250, -6.046875000000, -2.054687500000, -5.375000000000, 1491363372
0.129638671875, 0.896972656250, -0.432373046875, -4.679687500000, 6.210937500000, -3.445312500000, 1491363372
0.129638671875, 0.896972656250, -0.432373046875, -4.679687500000, 6.210937500000, -3.445312500000, 1491363372
0.129638671875, 0.896972656250, -0.432373046875, -4.679687500000, 6.210937500000, -3.445312500000, 1491363372
0.092041015625, 0.846679687500, -0.518554687500, -3.656250000000, 0.156250000000, -8.148437500000, 1491363372
0.092041015625, 0.846679687500, -0.518554687500, -3.656250000000, 0.156250000000, -8.148437500000, 1491363372
0.092041015625, 0.846679687500, -0.518554687500, -3.656250000000, 0.156250000000, -8.148437500000, 1491363372
0.092041015625, 0.846679687500, -0.518554687500, -3.656250000000, 0.156250000000, -8.148437500000, 1491363372
-0.023925781250, 0.957763671875, -0.471435546875, -4.445312500000, 4.148437500000, -4.750000000000, 1491363372
-0.023925781250, 0.957763671875, -0.471435546875, -4.445312500000, 4.148437500000, -4.750000000000, 1491363372
-0.023925781250, 0.957763671875, -0.471435546875, -4.445312500000, 4.148437500000, -4.750000000000, 1491363372
-0.023925781250, 0.957763671875, -0.471435546875, -4.445312500000, 4.148437500000, -4.750000000000, 1491363372
-0.023925781250, 0.957763671875, -0.471435546875, -4.445312500000, 4.148437500000, -4.750000000000, 1491363372
-0.023925781250, 0.957763671875, -0.471435546875, -4.445312500000, 4.148437500000, -4.750000000000, 1491363372
0.018554687500, 0.866699218750, -0.453369140625, -4.273437500000, -0.281250000000, -4.625000000000, 1491363372
0.018554687500, 0.866699218750, -0.453369140625, -4.273437500000, -0.281250000000, -4.625000000000, 1491363372
0.018554687500, 0.866699218750, -0.453369140625, -4.273437500000, -0.281250000000, -4.625000000000, 1491363372
0.074707031250, 0.876953125000, -0.516113281250, -4.382812500000, 2.539062500000, -4.156250000000, 1491363372
0.074707031250, 0.876953125000, -0.516113281250, -4.382812500000, 2.539062500000, -4.156250000000, 1491363372
0.074707031250, 0.876953125000, -0.516113281250, -4.382812500000, 2.539062500000, -4.156250000000, 1491363372
0.074707031250, 0.876953125000, -0.516113281250, -4.382812500000, 2.539062500000, -4.156250000000, 1491363372
0.065429687500, 0.933105468750, -0.432128906250, -3.140625000000, 2.242187500000, -4.703125000000, 1491363372
0.065429687500, 0.933105468750, -0.432128906250, -3.140625000000, 2.242187500000, -4.703125000000, 1491363372
0.065429687500, 0.933105468750, -0.432128906250, -3.140625000000, 2.242187500000, -4.703125000000, 1491363372
0.068115234375, 0.853515625000, -0.373535156250, -1.101562500000, -0.218750000000, -4.539062500000, 1491363372
0.068115234375, 0.853515625000, -0.373535156250, -1.101562500000, -0.218750000000, -4.539062500000, 1491363372
0.068115234375, 0.853515625000, -0.373535156250, -1.101562500000, -0.218750000000, -4.539062500000, 1491363372
0.084716796875, 0.810058593750, -0.503417968750, -4.132812500000, 1.640625000000, -3.773437500000, 1491363372
0.084716796875, 0.810058593750, -0.503417968750, -4.132812500000, 1.640625000000, -3.773437500000, 1491363372
0.084716796875, 0.810058593750, -0.503417968750, -4.132812500000, 1.640625000000, -3.773437500000, 1491363372
0.040771484375, 0.881347656250, -0.374023437500, -3.390625000000, -0.250000000000, -4.859375000000, 1491363372
0.040771484375, 0.881347656250, -0.374023437500, -3.390625000000, -0.250000000000, -4.859375000000, 1491363372
0.040771484375, 0.881347656250, -0.374023437500, -3.390625000000, -0.250000000000, -4.859375000000, 1491363372
0.040771484375, 0.881347656250, -0.374023437500, -3.390625000000, -0.250000000000, -4.859375000000, 1491363372
-0.028808593750, 0.968505859375, -0.517089843750, -2.265625000000, 4.460937500000, -4.007812500000, 1491363372
-0.028808593750, 0.968505859375, -0.517089843750, -2.265625000000, 4.460937500000, -4.007812500000, 1491363372
-0.028808593750, 0.968505859375, -0.517089843750, -2.265625000000, 4.460937500000, -4.007812500000, 1491363372
0.132568359375, 0.939453125000, -0.515869140625, -3.625000000000, -2.210937500000, -4.500000000000, 1491363372
0.132568359375, 0.939453125000, -0.515869140625, -3.625000000000, -2.210937500000, -4.500000000000, 1491363372
0.132568359375, 0.939453125000, -0.515869140625, -3.625000000000, -2.210937500000, -4.500000000000, 1491363372
-0.015869140625, 0.854492187500, -0.482666015625, -2.406250000000, -0.171875000000, -3.015625000000, 1491363373
-0.015869140625, 0.854492187500, -0.482666015625, -2.406250000000, -0.171875000000, -3.015625000000, 1491363373
-0.015869140625, 0.854492187500, -0.482666015625, -2.406250000000, -0.171875000000, -3.015625000000, 1491363373
0.012939453125, 0.851562500000, -0.507568359375, -5.421875000000, -1.726562500000, -4.875000000000, 1491363373
0.012939453125, 0.851562500000, -0.507568359375, -5.421875000000, -1.726562500000, -4.875000000000, 1491363373
0.012939453125, 0.851562500000, -0.507568359375, -5.421875000000, -1.726562500000, -4.875000000000, 1491363373
0.012939453125, 0.851562500000, -0.507568359375, -5.421875000000, -1.726562500000, -4.875000000000, 1491363373
0.046875000000, 0.904785156250, -0.504882812500, -6.460937500000, 2.421875000000, -1.398437500000, 1491363373
0.046875000000, 0.904785156250, -0.504882812500, -6.460937500000, 2.421875000000, -1.398437500000, 1491363373
0.046875000000, 0.904785156250, -0.504882812500, -6.460937500000, 2.421875000000, -1.398437500000, 1491363373
0.036621093750, 0.956542968750, -0.454101562500, -6.914062500000, -0.609375000000, -6.671875000000, 1491363373
0.036621093750, 0.956542968750, -0.454101562500, -6.914062500000, -0.609375000000, -6.671875000000, 1491363373
0.036621093750, 0.956542968750, -0.454101562500, -6.914062500000, -0.609375000000, -6.671875000000, 1491363373
0.083251953125, 0.928710937500, -0.425537109375, -6.718750000000, 1.218750000000, -1.812500000000, 1491363373
-0.025634765625, 0.915527343750, -0.418945312500, -6.570312500000, -2.320312500000, -1.187500000000, 1491363373
-0.025634765625, 0.915527343750, -0.418945312500, -6.570312500000, -2.320312500000, -1.187500000000, 1491363373
-0.025634765625, 0.915527343750, -0.418945312500, -6.570312500000, -2.320312500000, -1.187500000000, 1491363373
-0.025634765625, 0.915527343750, -0.418945312500, -6.570312500000, -2.320312500000, -1.187500000000, 1491363373
0.073242187500, 0.880371093750, -0.514160156250, -3.921875000000, 2.101562500000, -2.539062500000, 1491363373
0.073242187500, 0.880371093750, -0.514160156250, -3.921875000000, 2.101562500000, -2.539062500000, 1491363373
0.083984375000, 0.873535156250, -0.420410156250, -3.921875000000, 2.148437500000, -2.671875000000, 1491363373
-0.025634765625, 0.903076171875, -0.501953125000, -6.828125000000, -0.695312500000, -4.390625000000, 1491363373
-0.025634765625, 0.903076171875, -0.501953125000, -6.828125000000, -0.695312500000, -4.390625000000, 1491363373
-0.025634765625, 0.903076171875, -0.501953125000, -6.828125000000, -0.695312500000, -4.390625000000, 1491363373
0.087158203125, 0.948730468750, -0.503417968750, -6.984375000000, 2.078125000000, -4.578125000000, 1491363373
0.087158203125, 0.948730468750, -0.503417968750, -6.984375000000, 2.078125000000, -4.578125000000, 1491363373
0.087158203125, 0.948730468750, -0.503417968750, -6.984375000000, 2.078125000000, -4.578125000000, 1491363373
0.087158203125, 0.948730468750, -0.503417968750, -6.984375000000, 2.078125000000, -4.578125000000, 1491363373
0.087158203125, 0.948730468750, -0.503417968750, -6.984375000000, 2.078125000000, -4.578125000000, 1491363373
-0.020507812500, 0.831298828125, -0.487060546875, -6.250000000000, 2.515625000000, -1.234375000000, 1491363373
-0.020507812500, 0.831298828125, -0.487060546875, -6.250000000000, 2.515625000000, -1.234375000000, 1491363373
-0.020507812500, 0.831298828125, -0.487060546875, -6.250000000000, 2.515625000000, -1.234375000000, 1491363373
-0.020507812500, 0.831298828125, -0.487060546875, -6.250000000000, 2.515625000000, -1.234375000000, 1491363373
0.073486328125, 0.902343750000, -0.476806640625, -8.015625000000, -2.617187500000, -3.671875000000, 1491363373
0.073486328125, 0.902343750000, -0.476806640625, -8.015625000000, -2.617187500000, -3.671875000000, 1491363373
0.073486328125, 0.902343750000, -0.476806640625, -8.015625000000, -2.617187500000, -3.671875000000, 1491363373
-0.009765625000, 1.009765625000, -0.474609375000, -3.210937500000, 2.796875000000, -4.835937500000, 1491363373
-0.009765625000, 1.009765625000, -0.474609375000, -3.210937500000, 2.796875000000, -4.835937500000, 1491363373
-0.009765625000, 1.009765625000, -0.474609375000, -3.210937500000, 2.796875000000, -4.835937500000, 1491363373
-0.007324218750, 0.854492187500, -0.406250000000, -5.546875000000, 1.859375000000, -4.523437500000, 1491363373
-0.007324218750, 0.854492187500, -0.406250000000, -5.546875000000, 1.859375000000, -4.523437500000, 1491363373
-0.007324218750, 0.854492187500, -0.406250000000, -5.546875000000, 1.859375000000, -4.523437500000, 1491363373
0.077148437500, 0.902587890625, -0.496826171875, -6.921875000000, 4.929687500000, -1.984375000000, 1491363373
0.077148437500, 0.902587890625, -0.496826171875, -6.921875000000, 4.929687500000, -1.984375000000, 1491363373
0.077148437500, 0.902587890625, -0.496826171875, -6.921875000000, 4.929687500000, -1.984375000000, 1491363373
0.077148437500, 0.902587890625, -0.496826171875, -6.921875000000, 4.929687500000, -1.984375000000, 1491363373
-0.013916015625, 0.799072265625, -0.460937500000, -5.382812500000, 2.476562500000, -1.414062500000, 1491363373
-0.013916015625, 0.799072265625, -0.460937500000, -5.382812500000, 2.476562500000, -1.414062500000, 1491363373
-0.013916015625, 0.799072265625, -0.460937500000, -5.382812500000, 2.476562500000, -1.414062500000, 1491363373
0.024902343750, 0.805175781250, -0.421875000000, -6.968750000000, 4.531250000000, -1.679687500000, 1491363373
0.024902343750, 0.805175781250, -0.421875000000, -6.968750000000, 4.531250000000, -1.679687500000, 1491363373
0.024902343750, 0.805175781250, -0.421875000000, -6.968750000000, 4.531250000000, -1.679687500000, 1491363373
0.031982421875, 0.946533203125, -0.473388671875, -4.992187500000, 2.429687500000, -3.140625000000, 1491363373
0.031982421875, 0.946533203125, -0.473388671875, -4.992187500000, 2.429687500000, -3.140625000000, 1491363373
0.031982421875, 0.946533203125, -0.473388671875, -4.992187500000, 2.429687500000, -3.140625000000, 1491363373
0.100341796875, 0.937744140625, -0.510253906250, -1.539062500000, 2.476562500000, -4.671875000000, 1491363373
0.100341796875, 0.937744140625, -0.510253906250, -1.539062500000, 2.476562500000, -4.671875000000, 1491363373
-0.014160156250, 0.886718750000, -0.510742187500, -4.460937500000, 1.289062500000, -2.687500000000, 1491363373
-0.014160156250, 0.886718750000, -0.510742187500, -4.460937500000, 1.289062500000, -2.687500000000, 1491363373
-0.014160156250, 0.886718750000, -0.510742187500, -4.460937500000, 1.289062500000, -2.687500000000, 1491363373
-0.014160156250, 0.886718750000, -0.510742187500, -4.460937500000, 1.289062500000, -2.687500000000, 1491363373
-0.007812500000, 0.890869140625, -0.515869140625, -1.468750000000, 1.320312500000, -1.617187500000, 1491363373
-0.007812500000, 0.890869140625, -0.515869140625, -1.468750000000, 1.320312500000, -1.617187500000, 1491363373
-0.007812500000, 0.890869140625, -0.515869140625, -1.468750000000, 1.320312500000, -1.617187500000, 1491363373
-0.007812500000, 0.890869140625, -0.515869140625, -1.468750000000, 1.320312500000, -1.617187500000, 1491363373
-0.026367187500, 0.870849609375, -0.371093750000, -1.796875000000, -0.796875000000, -3.625000000000, 1491363373
-0.026367187500, 0.870849609375, -0.371093750000, -1.796875000000, -0.796875000000, -3.625000000000, 1491363373
-0.026367187500, 0.870849609375, -0.371093750000, -1.796875000000, -0.796875000000, -3.625000000000, 1491363374
0.034667968750, 0.847167968750, -0.429443359375, -2.914062500000, 1.250000000000, 0.531250000000, 1491363374
0.034667968750, 0.847167968750, -0.429443359375, -2.914062500000, 1.250000000000, 0.531250000000, 1491363374
0.034667968750, 0.847167968750, -0.429443359375, -2.914062500000, 1.250000000000, 0.531250000000, 1491363374
0.034667968750, 0.847167968750, -0.429443359375, -2.914062500000, 1.250000000000, 0.531250000000, 1491363374
0.012207031250, 0.869628906250, -0.511230468750, -2.445312500000, 2.468750000000, -3.359375000000, 1491363374
0.012207031250, 0.869628906250, -0.511230468750, -2.445312500000, 2.468750000000, -3.359375000000, 1491363374
0.012207031250, 0.869628906250, -0.511230468750, -2.445312500000, 2.468750000000, -3.359375000000, 1491363374
0.134521484375, 0.956542968750, -0.426269531250, -3.476562500000, 0.117187500000, -6.648437500000, 1491363374
0.134521484375, 0.956542968750, -0.426269531250, -3.476562500000, 0.117187500000, -6.648437500000, 1491363374
0.024414062500, 0.923828125000, -0.519287109375, -2.046875000000, 3.640625000000, 2.000000000000, 1491363374
0.024414062500, 0.923828125000, -0.519287109375, -2.046875000000, 3.640625000000, 2.000000000000, 1491363374
0.024414062500, 0.923828125000, -0.519287109375, -2.046875000000, 3.640625000000, 2.000000000000, 1491363374
0.024414062500, 0.923828125000, -0.519287109375, -2.046875000000, 3.640625000000, 2.000000000000, 1491363374
0.062255859375, 0.883789062500, -0.412597656250, -1.625000000000, 0.859375000000, -3.312500000000, 1491363374
0.062255859375, 0.883789062500, -0.412597656250, -1.625000000000, 0.859375000000, -3.312500000000, 1491363374
0.062255859375, 0.883789062500, -0.412597656250, -1.625000000000, 0.859375000000, -3.312500000000, 1491363374
0.062255859375, 0.883789062500, -0.412597656250, -1.625000000000, 0.859375000000, -3.312500000000, 1491363374
0.088867187500, 0.859130859375, -0.425048828125, -1.718750000000, 3.179687500000, -6.703125000000, 1491363374
0.088867187500, 0.859130859375, -0.425048828125, -1.718750000000, 3.179687500000, -6.703125000000, 1491363374
0.088867187500, 0.859130859375, -0.425048828125, -1.718750000000, 3.179687500000, -6.703125000000, 1491363374
0.076416015625, 0.848876953125, -0.523925781250, -1.492187500000, -2.367187500000, -3.734375000000, 1491363374
0.076416015625, 0.848876953125, -0.523925781250, -1.492187500000, -2.367187500000, -3.734375000000, 1491363374
0.076416015625, 0.848876953125, -0.523925781250, -1.492187500000, -2.367187500000, -3.734375000000, 1491363374
0.071044921875, 0.955078125000, -0.415527343750, -4.078125000000, -0.742187500000, -1.062500000000, 1491363374
0.071044921875, 0.955078125000, -0.415527343750, -4.078125000000, -0.742187500000, -1.062500000000, 1491363374
0.071044921875, 0.955078125000, -0.415527343750, -4.078125000000, -0.742187500000, -1.062500000000, 1491363374
-0.006347656250, 0.868896484375, -0.445800781250, -2.796875000000, 2.164062500000, -1.906250000000, 1491363374
-0.006347656250, 0.868896484375, -0.445800781250, -2.796875000000, 2.164062500000, -1.906250000000, 1491363374
-0.006347656250, 0.868896484375, -0.445800781250, -2.796875000000, 2.164062500000, -1.906250000000, 1491363374
-0.006347656250, 0.868896484375, -0.445800781250, -2.796875000000, 2.164062500000, -1.906250000000, 1491363374
0.147949218750, 0.966064453125, -0.526855468750, -4.875000000000, 2.031250000000, -1.367187500000, 1491363374
0.147949218750, 0.966064453125, -0.526855468750, -4.875000000000, 2.031250000000, -1.367187500000, 1491363374
0.147949218750, 0.966064453125, -0.526855468750, -4.875000000000, 2.031250000000, -1.367187500000, 1491363374
0.102050781250, 0.899414062500, -0.416503906250, -1.781250000000, -4.765625000000, -1.523437500000, 1491363374
0.102050781250, 0.899414062500, -0.416503906250, -1.781250000000, -4.765625000000, -1.523437500000, 1491363374
0.102050781250, 0.899414062500, -0.416503906250, -1.781250000000, -4.765625000000, -1.523437500000, 1491363374
0.044189453125, 0.916992187500, -0.418945312500, 0.101562500000, -2.226562500000, -1.093750000000, 1491363374
0.044189453125, 0.916992187500, -0.418945312500, 0.101562500000, -2.226562500000, -1.093750000000, 1491363374
0.044189453125, 0.916992187500, -0.418945312500, 0.101562500000, -2.226562500000, -1.093750000000, 1491363374
0.044433593750, 0.807373046875, -0.448974609375, -2.179687500000, -6.656250000000, -3.562500000000, 1491363374
0.044433593750, 0.807373046875, -0.448974609375, -2.179687500000, -6.656250000000, -3.562500000000, 1491363374
0.044433593750, 0.807373046875, -0.448974609375, -2.179687500000, -6.656250000000, -3.562500000000, 1491363374
0.044433593750, 0.807373046875, -0.448974609375, -2.179687500000, -6.656250000000, -3.562500000000, 1491363374
0.127441406250, 0.787597656250, -0.470947265625, -3.101562500000, 0.750000000000, 7.367187500000, 1491363374
0.127441406250, 0.787597656250, -0.470947265625, -3.101562500000, 0.750000000000, 7.367187500000, 1491363374
0.127441406250, 0.787597656250, -0.470947265625, -3.101562500000, 0.750000000000, 7.367187500000, 1491363374
0.363769531250, 0.994628906250, -0.628417968750, 16.726562500000, 9.914062500000, 18.984375000000, 1491363374
0.363769531250, 0.994628906250, -0.628417968750, 16.726562500000, 9.914062500000, 18.984375000000, 1491363374
0.363769531250, 0.994628906250, -0.628417968750, 16.726562500000, 9.914062500000, 18.984375000000, 1491363374
0.652832031250, 0.927246093750, -0.548095703125, -4.648437500000, -66.898437500000, 14.695312500000, 1491363374
0.652832031250, 0.927246093750, -0.548095703125, -4.648437500000, -66.898437500000, 14.695312500000, 1491363374
0.652832031250, 0.927246093750, -0.548095703125, -4.648437500000, -66.898437500000, 14.695312500000, 1491363374
0.983154296875, 0.681152343750, -0.934326171875, 43.632812500000, -95.335937500000, 22.640625000000, 1491363374
0.983154296875, 0.681152343750, -0.934326171875, 43.632812500000, -95.335937500000, 22.640625000000, 1491363374
0.983154296875, 0.681152343750, -0.934326171875, 43.632812500000, -95.335937500000, 22.640625000000, 1491363374
0.152832031250, 0.215820312500, -0.027099609375, 103.890625000000, -256.000000000000, -44.414062500000, 1491363374
0.152832031250, 0.215820312500, -0.027099609375, 103.890625000000, -256.000000000000, -44.414062500000, 1491363374
0.152832031250, 0.215820312500, -0.027099609375, 103.890625000000, -256.000000000000, -44.414062500000, 1491363374
0.152832031250, 0.215820312500, -0.027099609375, 103.890625000000, -256.000000000000, -44.414062500000, 1491363374
0.159667968750, 0.348632812500, -0.166748046875, 157.898437500000, -256.000000000000, 60.125000000000, 1491363374
0.159667968750, 0.348632812500, -0.166748046875, 157.898437500000, -256.000000000000, 60.125000000000, 1491363374
0.159667968750, 0.348632812500, -0.166748046875, 157.898437500000, -256.000000000000, 60.125000000000, 1491363374
0.457519531250, 0.555175781250, -0.128662109375, 65.562500000000, -256.000000000000, -26.906250000000, 1491363374
0.457519531250, 0.555175781250, -0.128662109375, 65.562500000000, -256.000000000000, -26.906250000000, 1491363374
0.457519531250, 0.555175781250, -0.128662109375, 65.562500000000, -256.000000000000, -26.906250000000, 1491363374
0.571044921875, 0.843994140625, -0.508544921875, 85.742187500000, 22.796875000000, 40.703125000000, 1491363375
0.571044921875, 0.843994140625, -0.508544921875, 85.742187500000, 22.796875000000, 40.703125000000, 1491363375
0.571044921875, 0.843994140625, -0.508544921875, 85.742187500000, 22.796875000000, 40.703125000000, 1491363375
0.571044921875, 0.843994140625, -0.508544921875, 85.742187500000, 22.796875000000, 40.703125000000, 1491363375
0.062011718750, 0.771484375000, -0.384521484375, 0.398437500000, -130.570312500000, -70.757812500000, 1491363375
0.062011718750, 0.771484375000, -0.384521484375, 0.398437500000, -130.570312500000, -70.757812500000, 1491363375
0.062011718750, 0.771484375000, -0.384521484375, 0.398437500000, -130.570312500000, -70.757812500000, 1491363375
-0.122558593750, 0.168701171875, -0.155761718750, 79.328125000000, 46.585937500000, 24.867187500000, 1491363375
-0.122558593750, 0.168701171875, -0.155761718750, 79.328125000000, 46.585937500000, 24.867187500000, 1491363375
-0.122558593750, 0.168701171875, -0.155761718750, 79.328125000000, 46.585937500000, 24.867187500000, 1491363375
-0.115478515625, -0.011962890625, -0.034423828125, 73.203125000000, 39.835937500000, 47.187500000000, 1491363375
-0.115478515625, -0.011962890625, -0.034423828125, 73.203125000000, 39.835937500000, 47.187500000000, 1491363375
-0.115478515625, -0.011962890625, -0.034423828125, 73.203125000000, 39.835937500000, 47.187500000000, 1491363375
-0.089355468750, -0.049560546875, -0.027343750000, -16.023437500000, 13.757812500000, -25.976562500000, 1491363375
-0.089355468750, -0.049560546875, -0.027343750000, -16.023437500000, 13.757812500000, -25.976562500000, 1491363375
-0.089355468750, -0.049560546875, -0.027343750000, -16.023437500000, 13.757812500000, -25.976562500000, 1491363375
-0.089355468750, -0.049560546875, -0.027343750000, -16.023437500000, 13.757812500000, -25.976562500000, 1491363375
0.124755859375, 0.879394531250, -0.167480468750, -211.531250000000, -14.804687500000, -90.507812500000, 1491363375
0.124755859375, 0.879394531250, -0.167480468750, -211.531250000000, -14.804687500000, -90.507812500000, 1491363375
0.124755859375, 0.879394531250, -0.167480468750, -211.531250000000, -14.804687500000, -90.507812500000, 1491363375
0.119384765625, 0.988769531250, -0.190673828125, -256.000000000000, 177.062500000000, -256.000000000000, 1491363375
0.119384765625, 0.988769531250, -0.190673828125, -256.000000000000, 177.062500000000, -256.000000000000, 1491363375
0.119384765625, 0.988769531250, -0.190673828125, -256.000000000000, 177.062500000000, -256.000000000000, 1491363375
-0.159423828125, 2.186767578125, -0.839843750000, -38.148437500000, 253.992187500000, 187.070312500000, 1491363375
-0.159423828125, 2.186767578125, -0.839843750000, -38.148437500000, 253.992187500000, 187.070312500000, 1491363375
-0.159423828125, 2.186767578125, -0.839843750000, -38.148437500000, 253.992187500000, 187.070312500000, 1491363375
-1.335205078125, 2.859375000000, -1.474853515625, 144.000000000000, -120.812500000000, 16.953125000000, 1491363375
-1.335205078125, 2.859375000000, -1.474853515625, 144.000000000000, -120.812500000000, 16.953125000000, 1491363375
-1.335205078125, 2.859375000000, -1.474853515625, 144.000000000000, -120.812500000000, 16.953125000000, 1491363375
-1.335205078125, 2.859375000000, -1.474853515625, 144.000000000000, -120.812500000000, 16.953125000000, 1491363375
-1.248535156250, 1.753662109375, -0.345458984375, 6.953125000000, 253.992187500000, 123.734375000000, 1491363375
-1.248535156250, 1.753662109375, -0.345458984375, 6.953125000000, 253.992187500000, 123.734375000000, 1491363375
-1.248535156250, 1.753662109375, -0.345458984375, 6.953125000000, 253.992187500000, 123.734375000000, 1491363375
-7.937255859375, 5.092773437500, -3.343017578125, -256.000000000000, 253.992187500000, 253.992187500000, 1491363375
-7.937255859375, 5.092773437500, -3.343017578125, -256.000000000000, 253.992187500000, 253.992187500000, 1491363375
-7.937255859375, 5.092773437500, -3.343017578125, -256.000000000000, 253.992187500000, 253.992187500000, 1491363375
0.506347656250, -0.204345703125, 0.201660156250, -256.000000000000, 253.992187500000, -210.453125000000, 1491363375
0.031494140625, 0.075927734375, 0.059814453125, 192.710937500000, -204.843750000000, 59.992187500000, 1491363375
-1.856933593750, 1.100341796875, -1.015136718750, -256.000000000000, -136.210937500000, 110.070312500000, 1491363375
-1.856933593750, 1.100341796875, -1.015136718750, -256.000000000000, -136.210937500000, 110.070312500000, 1491363375
-1.856933593750, 1.100341796875, -1.015136718750, -256.000000000000, -136.210937500000, 110.070312500000, 1491363375
-1.856933593750, 1.100341796875, -1.015136718750, -256.000000000000, -136.210937500000, 110.070312500000, 1491363375
-1.856933593750, 1.100341796875, -1.015136718750, -256.000000000000, -136.210937500000, 110.070312500000, 1491363375
-1.856933593750, 1.100341796875, -1.015136718750, -256.000000000000, -136.210937500000, 110.070312500000, 1491363375
-0.058593750000, -0.021728515625, 0.190917968750, 60.625000000000, 144.843750000000, 162.609375000000, 1491363375
-0.414794921875, -0.025634765625, 0.100341796875, -83.507812500000, 253.992187500000, -26.351562500000, 1491363375
-0.713867187500, 0.058349609375, 0.040283203125, 2.289062500000, 253.992187500000, -5.773437500000, 1491363375
-0.713867187500, 0.058349609375, 0.040283203125, 2.289062500000, 253.992187500000, -5.773437500000, 1491363375
-0.713867187500, 0.058349609375, 0.040283203125, 2.289062500000, 253.992187500000, -5.773437500000, 1491363375
-0.713867187500, 0.058349609375, 0.040283203125, 2.289062500000, 253.992187500000, -5.773437500000, 1491363375
-0.713867187500, 0.058349609375, 0.040283203125, 2.289062500000, 253.992187500000, -5.773437500000, 1491363375
-0.409912109375, -0.160400390625, 0.053710937500, 25.000000000000, 34.812500000000, -16.390625000000, 1491363375
-0.432617187500, -0.310791015625, 0.089599609375, 143.726562500000, -161.585937500000, -48.828125000000, 1491363375
-0.432617187500, -0.310791015625, 0.089599609375, 143.726562500000, -161.585937500000, -48.828125000000, 1491363375
-0.432617187500, -0.310791015625, 0.089599609375, 143.726562500000, -161.585937500000, -48.828125000000, 1491363375
-0.432617187500, -0.310791015625, 0.089599609375, 143.726562500000, -161.585937500000, -48.828125000000, 1491363375
-0.432617187500, -0.310791015625, 0.089599609375, 143.726562500000, -161.585937500000, -48.828125000000, 1491363375
-0.432617187500, -0.310791015625, 0.089599609375, 143.726562500000, -161.585937500000, -48.828125000000, 1491363375
-0.432617187500, -0.310791015625, 0.089599609375, 143.726562500000, -161.585937500000, -48.828125000000, 1491363375
-0.432617187500, -0.310791015625, 0.089599609375, 143.726562500000, -161.585937500000, -48.828125000000, 1491363375
-1.303466796875, -0.406005859375, -1.855957031250, -112.617187500000, -256.000000000000, -256.000000000000, 1491363375
-1.303466796875, -0.406005859375, -1.855957031250, -112.617187500000, -256.000000000000, -256.000000000000, 1491363375
-1.303466796875, -0.406005859375, -1.855957031250, -112.617187500000, -256.000000000000, -256.000000000000, 1491363375
-1.303466796875, -0.406005859375, -1.855957031250, -112.617187500000, -256.000000000000, -256.000000000000, 1491363375
-1.206298828125, 0.269287109375, 0.006103515625, -256.000000000000, 69.351562500000, 15.679687500000, 1491363375
-1.206298828125, 0.269287109375, 0.006103515625, -256.000000000000, 69.351562500000, 15.679687500000, 1491363375
-0.577880859375, 0.159912109375, -0.760498046875, -98.351562500000, -84.664062500000, 32.742187500000, 1491363376
-0.577880859375, 0.159912109375, -0.760498046875, -98.351562500000, -84.664062500000, 32.742187500000, 1491363376
-0.577880859375, 0.159912109375, -0.760498046875, -98.351562500000, -84.664062500000, 32.742187500000, 1491363376
-0.577880859375, 0.159912109375, -0.760498046875, -98.351562500000, -84.664062500000, 32.742187500000, 1491363376
-0.577880859375, 0.159912109375, -0.760498046875, -98.351562500000, -84.664062500000, 32.742187500000, 1491363376
-0.577880859375, 0.159912109375, -0.760498046875, -98.351562500000, -84.664062500000, 32.742187500000, 1491363376
-0.279052734375, -0.231933593750, -0.617919921875, 70.117187500000, -21.320312500000, 15.742187500000, 1491363376
-0.279052734375, -0.231933593750, -0.617919921875, 70.117187500000, -21.320312500000, 15.742187500000, 1491363376
-0.279052734375, -0.231933593750, -0.617919921875, 70.117187500000, -21.320312500000, 15.742187500000, 1491363376
-0.461914062500, -0.124755859375, -0.745849609375, 46.734375000000, -71.179687500000, 9.203125000000, 1491363376
-0.461914062500, -0.124755859375, -0.745849609375, 46.734375000000, -71.179687500000, 9.203125000000, 1491363376
-0.461914062500, -0.124755859375, -0.745849609375, 46.734375000000, -71.179687500000, 9.203125000000, 1491363376
-0.488769531250, -0.047851562500, -0.838867187500, 30.976562500000, -54.203125000000, -14.218750000000, 1491363376
-0.488769531250, -0.047851562500, -0.838867187500, 30.976562500000, -54.203125000000, -14.218750000000, 1491363376
-0.488769531250, -0.047851562500, -0.838867187500, 30.976562500000, -54.203125000000, -14.218750000000, 1491363376
-0.488769531250, -0.047851562500, -0.838867187500, 30.976562500000, -54.203125000000, -14.218750000000, 1491363376
-0.529052734375, -0.002929687500, -0.811523437500, 22.914062500000, -12.140625000000, 26.257812500000, 1491363376
-0.529052734375, -0.002929687500, -0.811523437500, 22.914062500000, -12.140625000000, 26.257812500000, 1491363376
-0.529052734375, -0.002929687500, -0.811523437500, 22.914062500000, -12.140625000000, 26.257812500000, 1491363376
-0.504394531250, -0.065673828125, -0.899414062500, -106.500000000000, -72.437500000000, 44.218750000000, 1491363376
-0.504394531250, -0.065673828125, -0.899414062500, -106.500000000000, -72.437500000000, 44.218750000000, 1491363376
-0.504394531250, -0.065673828125, -0.899414062500, -106.500000000000, -72.437500000000, 44.218750000000, 1491363376
-0.161865234375, -0.331298828125, -0.406738281250, -120.390625000000, -37.546875000000, 10.320312500000, 1491363376
-0.161865234375, -0.331298828125, -0.406738281250, -120.390625000000, -37.546875000000, 10.320312500000, 1491363376
-0.161865234375, -0.331298828125, -0.406738281250, -120.390625000000, -37.546875000000, 10.320312500000, 1491363376
-0.834228515625, 0.237792968750, -0.642578125000, 41.757812500000, -46.460937500000, -220.906250000000, 1491363376
-0.834228515625, 0.237792968750, -0.642578125000, 41.757812500000, -46.460937500000, -220.906250000000, 1491363376
-0.834228515625, 0.237792968750, -0.642578125000, 41.757812500000, -46.460937500000, -220.906250000000, 1491363376
-0.834228515625, 0.237792968750, -0.642578125000, 41.757812500000, -46.460937500000, -220.906250000000, 1491363376
-1.043457031250, 0.443847656250, -0.762207031250, 4.492187500000, -43.515625000000, -89.671875000000, 1491363376
-1.043457031250, 0.443847656250, -0.762207031250, 4.492187500000, -43.515625000000, -89.671875000000, 1491363376
-1.043457031250, 0.443847656250, -0.762207031250, 4.492187500000, -43.515625000000, -89.671875000000, 1491363376
-0.951904296875, 0.310791015625, -0.479003906250, 24.687500000000, -76.515625000000, -113.148437500000, 1491363376
-0.951904296875, 0.310791015625, -0.479003906250, 24.687500000000, -76.515625000000, -113.148437500000, 1491363376
-0.951904296875, 0.310791015625, -0.479003906250, 24.687500000000, -76.515625000000, -113.148437500000, 1491363376
-0.701416015625, 0.253173828125, -0.581787109375, -5.640625000000, 15.070312500000, -67.890625000000, 1491363376
-0.701416015625, 0.253173828125, -0.581787109375, -5.640625000000, 15.070312500000, -67.890625000000, 1491363376
-0.701416015625, 0.253173828125, -0.581787109375, -5.640625000000, 15.070312500000, -67.890625000000, 1491363376
-0.515380859375, 0.222656250000, -0.532958984375, 46.500000000000, 34.351562500000, -2.351562500000, 1491363376
-0.715820312500, 0.339843750000, -0.692382812500, 29.171875000000, -4.382812500000, -8.984375000000, 1491363376
-0.715820312500, 0.339843750000, -0.692382812500, 29.171875000000, -4.382812500000, -8.984375000000, 1491363376
-0.715820312500, 0.339843750000, -0.692382812500, 29.171875000000, -4.382812500000, -8.984375000000, 1491363376
-0.715820312500, 0.339843750000, -0.692382812500, 12.945312500000, -32.585937500000, -17.390625000000, 1491363376
-0.755859375000, 0.259765625000, -0.536376953125, 15.734375000000, -31.132812500000, -16.242187500000, 1491363376
-0.755859375000, 0.259765625000, -0.536376953125, 15.734375000000, -31.132812500000, -16.242187500000, 1491363376
-0.755859375000, 0.259765625000, -0.536376953125, 15.734375000000, -31.132812500000, -16.242187500000, 1491363376
-0.755859375000, 0.259765625000, -0.536376953125, 15.734375000000, -31.132812500000, -16.242187500000, 1491363376
-0.755859375000, 0.259765625000, -0.536376953125, 15.734375000000, -31.132812500000, -16.242187500000, 1491363376
-0.750000000000, 0.382080078125, -0.605712890625, 10.742187500000, -35.562500000000, -10.429687500000, 1491363376
-0.750000000000, 0.382080078125, -0.605712890625, 10.742187500000, -35.562500000000, -10.429687500000, 1491363376
-0.750000000000, 0.382080078125, -0.605712890625, 10.742187500000, -35.562500000000, -10.429687500000, 1491363376
-0.677490234375, 0.366943359375, -0.576904296875, 26.773437500000, -42.898437500000, -18.390625000000, 1491363376
-0.677490234375, 0.366943359375, -0.576904296875, 26.773437500000, -42.898437500000, -18.390625000000, 1491363376
-0.677490234375, 0.366943359375, -0.576904296875, 26.773437500000, -42.898437500000, -18.390625000000, 1491363376
-0.677490234375, 0.366943359375, -0.576904296875, 26.773437500000, -42.898437500000, -18.390625000000, 1491363376
-0.771484375000, 0.448974609375, -0.442382812500, 35.007812500000, -55.406250000000, 5.812500000000, 1491363376
-0.771484375000, 0.448974609375, -0.442382812500, 35.007812500000, -55.406250000000, 5.812500000000, 1491363376
-0.771484375000, 0.448974609375, -0.442382812500, 35.007812500000, -55.406250000000, 5.812500000000, 1491363376
-0.839599609375, 0.354736328125, -0.510986328125, 57.039062500000, -39.773437500000, -15.671875000000, 1491363376
-0.839599609375, 0.354736328125, -0.510986328125, 57.039062500000, -39.773437500000, -15.671875000000, 1491363376
-0.839599609375, 0.354736328125, -0.510986328125, 57.039062500000, -39.773437500000, -15.671875000000, 1491363376
-0.909667968750, 0.361083984375, -0.529785156250, 53.804687500000, -56.898437500000, -11.070312500000, 1491363376
-0.820068359375, 0.492187500000, -0.287841796875, 96.984375000000, 37.796875000000, -33.335937500000, 1491363376
-0.820068359375, 0.492187500000, -0.287841796875, 96.984375000000, 37.796875000000, -33.335937500000, 1491363376
-0.820068359375, 0.492187500000, -0.287841796875, 96.984375000000, 37.796875000000, -33.335937500000, 1491363376
-0.820068359375, 0.492187500000, -0.287841796875, 96.984375000000, 37.796875000000, -33.335937500000, 1491363377
-0.786376953125, 0.711181640625, -0.363281250000, 22.226562500000, -46.390625000000, 12.500000000000, 1491363377
-0.786376953125, 0.711181640625, -0.363281250000, 22.226562500000, -46.390625000000, 12.500000000000, 1491363377
-0.786376953125, 0.711181640625, -0.363281250000, 22.226562500000, -46.390625000000, 12.500000000000, 1491363377
-0.786376953125, 0.711181640625, -0.363281250000, 22.226562500000, -46.390625000000, 12.500000000000, 1491363377
-0.786376953125, 0.711181640625, -0.363281250000, 22.226562500000, -46.390625000000, 12.500000000000, 1491363377
-0.661621093750, 0.314697265625, -0.143066406250, 4.421875000000, -65.023437500000, 14.656250000000, 1491363377
-0.661621093750, 0.314697265625, -0.143066406250, 4.421875000000, -65.023437500000, 14.656250000000, 1491363377
-0.661621093750, 0.314697265625, -0.143066406250, 4.421875000000, -65.023437500000, 14.656250000000, 1491363377
-0.881347656250, 0.502685546875, -0.268798828125, -2.359375000000, -6.945312500000, 20.359375000000, 1491363377
-0.881347656250, 0.502685546875, -0.268798828125, -2.359375000000, -6.945312500000, 20.359375000000, 1491363377
-0.881347656250, 0.502685546875, -0.268798828125, -2.359375000000, -6.945312500000, 20.359375000000, 1491363377
-0.781250000000, 0.566406250000, -0.314208984375, -22.953125000000, -2.539062500000, 11.265625000000, 1491363377
-0.781250000000, 0.566406250000, -0.314208984375, -22.953125000000, -2.539062500000, 11.265625000000, 1491363377
-0.781250000000, 0.566406250000, -0.314208984375, -22.953125000000, -2.539062500000, 11.265625000000, 1491363377
-0.781250000000, 0.566406250000, -0.314208984375, -22.953125000000, -2.539062500000, 11.265625000000, 1491363377
-0.819335937500, 0.529541015625, -0.317626953125, -26.484375000000, 5.437500000000, 8.289062500000, 1491363377
-0.819335937500, 0.529541015625, -0.317626953125, -26.484375000000, 5.437500000000, 8.289062500000, 1491363377
-0.819335937500, 0.529541015625, -0.317626953125, -26.484375000000, 5.437500000000, 8.289062500000, 1491363377
-0.819335937500, 0.529541015625, -0.317626953125, -26.484375000000, 5.437500000000, 8.289062500000, 1491363377
-0.819335937500, 0.529541015625, -0.317626953125, -26.484375000000, 5.437500000000, 8.289062500000, 1491363377
-0.820312500000, 0.408935546875, -0.339599609375, -25.429687500000, 8.984375000000, 3.046875000000, 1491363377
-0.820312500000, 0.408935546875, -0.339599609375, -25.429687500000, 8.984375000000, 3.046875000000, 1491363377
-0.820312500000, 0.408935546875, -0.339599609375, -25.429687500000, 8.984375000000, 3.046875000000, 1491363377
-0.820312500000, 0.408935546875, -0.339599609375, -27.835937500000, 0.437500000000, 6.023437500000, 1491363377
-0.808837890625, 0.435058593750, -0.398437500000, -29.648437500000, -5.039062500000, 1.820312500000, 1491363377
-0.808837890625, 0.435058593750, -0.398437500000, -29.648437500000, -5.039062500000, 1.820312500000, 1491363377
-0.808837890625, 0.435058593750, -0.398437500000, -29.648437500000, -5.039062500000, 1.820312500000, 1491363377
-0.825195312500, 0.354492187500, -0.307617187500, -26.140625000000, -3.031250000000, -2.296875000000, 1491363377
-0.825195312500, 0.354492187500, -0.307617187500, -26.140625000000, -3.031250000000, -2.296875000000, 1491363377
-0.825195312500, 0.354492187500, -0.307617187500, -26.140625000000, -3.031250000000, -2.296875000000, 1491363377
-0.825195312500, 0.354492187500, -0.307617187500, -26.140625000000, -3.031250000000, -2.296875000000, 1491363377
-0.804931640625, 0.374755859375, -0.295898437500, -17.593750000000, -0.906250000000, 0.062500000000, 1491363377
-0.804931640625, 0.374755859375, -0.295898437500, -17.593750000000, -0.906250000000, 0.062500000000, 1491363377
-0.804931640625, 0.374755859375, -0.295898437500, -17.593750000000, -0.906250000000, 0.062500000000, 1491363377
-0.844726562500, 0.394042968750, -0.247314453125, -16.164062500000, 1.750000000000, -0.523437500000, 1491363377
-0.844726562500, 0.394042968750, -0.247314453125, -16.164062500000, 1.750000000000, -0.523437500000, 1491363377
-0.740478515625, 0.430908203125, -0.382812500000, -12.507812500000, 1.757812500000, 4.335937500000, 1491363377
-0.740478515625, 0.430908203125, -0.382812500000, -12.507812500000, 1.757812500000, 4.335937500000, 1491363377
-0.740478515625, 0.430908203125, -0.382812500000, -12.507812500000, 1.757812500000, 4.335937500000, 1491363377
-0.740478515625, 0.430908203125, -0.382812500000, -12.507812500000, 1.757812500000, 4.335937500000, 1491363377
-0.740478515625, 0.430908203125, -0.382812500000, -12.507812500000, 1.757812500000, 4.335937500000, 1491363377
-0.802978515625, 0.307617187500, -0.397460937500, -10.921875000000, -1.093750000000, 0.101562500000, 1491363377
-0.802978515625, 0.307617187500, -0.397460937500, -10.921875000000, -1.093750000000, 0.101562500000, 1491363377
-0.802978515625, 0.307617187500, -0.397460937500, -10.921875000000, -1.093750000000, 0.101562500000, 1491363377
-0.834472656250, 0.378173828125, -0.337890625000, -12.828125000000, -4.101562500000, -1.687500000000, 1491363377
-0.834472656250, 0.378173828125, -0.337890625000, -12.828125000000, -4.101562500000, -1.687500000000, 1491363377
-0.898925781250, 0.302490234375, -0.388671875000, -8.281250000000, 2.460937500000, -4.984375000000, 1491363377
-0.799804687500, 0.405273437500, -0.385742187500, -6.171875000000, 4.101562500000, -6.820312500000, 1491363377
-0.799804687500, 0.405273437500, -0.385742187500, -6.171875000000, 4.101562500000, -6.820312500000, 1491363377
-0.799804687500, 0.405273437500, -0.385742187500, -6.171875000000, 4.101562500000, -6.820312500000, 1491363377
-0.799804687500, 0.405273437500, -0.385742187500, -6.171875000000, 4.101562500000, -6.820312500000, 1491363377
-0.891357421875, 0.338623046875, -0.380371093750, -10.203125000000, 4.132812500000, -8.492187500000, 1491363377
-0.891357421875, 0.338623046875, -0.380371093750, -10.203125000000, 4.132812500000, -8.492187500000, 1491363377
-0.891357421875, 0.338623046875, -0.380371093750, -10.203125000000, 4.132812500000, -8.492187500000, 1491363377
-0.891357421875, 0.338623046875, -0.380371093750, -10.203125000000, 4.132812500000, -8.492187500000, 1491363377
-0.891357421875, 0.338623046875, -0.380371093750, -10.203125000000, 4.132812500000, -8.492187500000, 1491363377
-0.891357421875, 0.338623046875, -0.380371093750, -10.203125000000, 4.132812500000, -8.492187500000, 1491363377
-0.727539062500, 0.395263671875, -0.298095703125, -7.765625000000, 3.125000000000, -8.703125000000, 1491363377
-0.839111328125, 0.289794921875, -0.304687500000, -1.507812500000, -1.125000000000, -3.453125000000, 1491363377
-0.839111328125, 0.289794921875, -0.304687500000, -1.507812500000, -1.125000000000, -3.453125000000, 1491363377
-0.839111328125, 0.289794921875, -0.304687500000, -1.507812500000, -1.125000000000, -3.453125000000, 1491363377
-0.839111328125, 0.289794921875, -0.304687500000, -1.507812500000, -1.125000000000, -3.453125000000, 1491363377
-0.839111328125, 0.289794921875, -0.304687500000, -1.507812500000, -1.125000000000, -3.453125000000, 1491363377
-0.839111328125, 0.289794921875, -0.304687500000, -1.507812500000, -1.125000000000, -3.453125000000, 1491363377
-0.773437500000, 0.397705078125, -0.400634765625, 0.937500000000, -0.945312500000, -6.492187500000, 1491363377
-0.773437500000, 0.397705078125, -0.400634765625, 0.937500000000, -0.945312500000, -6.492187500000, 1491363377
-0.773437500000, 0.397705078125, -0.400634765625, 0.937500000000, -0.945312500000, -6.492187500000, 1491363377
-0.866455078125, 0.414794921875, -0.307617187500, -0.617187500000, 0.335937500000, -6.867187500000, 1491363377
-0.866455078125, 0.414794921875, -0.307617187500, -0.617187500000, 0.335937500000, -6.867187500000, 1491363377
-0.866455078125, 0.414794921875, -0.307617187500, -0.617187500000, 0.335937500000, -6.867187500000, 1491363378
-0.742675781250, 0.416992187500, -0.352050781250, -1.039062500000, -0.882812500000, -3.781250000000, 1491363378
-0.841308593750, 0.500000000000, -0.313232421875, -3.679687500000, 0.343750000000, -2.859375000000, 1491363378
-0.793701171875, 0.414794921875, -0.383789062500, -1.539062500000, -0.507812500000, -1.296875000000, 1491363378
-0.840576171875, 0.387695312500, -0.374023437500, -4.234375000000, 0.171875000000, -4.304687500000, 1491363378
-0.840576171875, 0.387695312500, -0.374023437500, -4.234375000000, 0.171875000000, -4.304687500000, 1491363378
-0.840576171875, 0.387695312500, -0.374023437500, -4.234375000000, 0.171875000000, -4.304687500000, 1491363378
-0.840576171875, 0.387695312500, -0.374023437500, -4.234375000000, 0.171875000000, -4.304687500000, 1491363378
-0.840576171875, 0.387695312500, -0.374023437500, -4.234375000000, 0.171875000000, -4.304687500000, 1491363378
-0.840576171875, 0.387695312500, -0.374023437500, -4.234375000000, 0.171875000000, -4.304687500000, 1491363378
-0.840576171875, 0.387695312500, -0.374023437500, -4.234375000000, 0.171875000000, -4.304687500000, 1491363378
-0.842773437500, 0.357177734375, -0.300292968750, -6.101562500000, 2.914062500000, -6.218750000000, 1491363378
-0.843994140625, 0.505859375000, -0.349609375000, -3.726562500000, 2.570312500000, -4.359375000000, 1491363378
-0.843994140625, 0.505859375000, -0.349609375000, -3.726562500000, 2.570312500000, -4.359375000000, 1491363378
-0.843994140625, 0.505859375000, -0.349609375000, -3.726562500000, 2.570312500000, -4.359375000000, 1491363378
-0.843994140625, 0.505859375000, -0.349609375000, -3.726562500000, 2.570312500000, -4.359375000000, 1491363378
-0.843994140625, 0.505859375000, -0.349609375000, -3.726562500000, 2.570312500000, -4.359375000000, 1491363378
-0.788085937500, 0.396728515625, -0.296875000000, -6.562500000000, 0.750000000000, -2.617187500000, 1491363378
-0.788085937500, 0.396728515625, -0.296875000000, -6.562500000000, 0.750000000000, -2.617187500000, 1491363378
-0.788085937500, 0.396728515625, -0.296875000000, -6.562500000000, 0.750000000000, -2.617187500000, 1491363378
-0.768310546875, 0.373291015625, -0.394531250000, -3.601562500000, -0.382812500000, -1.382812500000, 1491363378
-0.768310546875, 0.373291015625, -0.394531250000, -3.601562500000, -0.382812500000, -1.382812500000, 1491363378
-0.849365234375, 0.449218750000, -0.346435546875, -3.867187500000, 2.414062500000, -2.195312500000, 1491363378
-0.849365234375, 0.449218750000, -0.346435546875, -3.867187500000, 2.414062500000, -2.195312500000, 1491363378
-0.849365234375, 0.449218750000, -0.346435546875, -3.867187500000, 2.414062500000, -2.195312500000, 1491363378
-0.849365234375, 0.449218750000, -0.346435546875, -3.867187500000, 2.414062500000, -2.195312500000, 1491363378
-0.849365234375, 0.449218750000, -0.346435546875, -3.867187500000, 2.414062500000, -2.195312500000, 1491363378
-0.797851562500, 0.340087890625, -0.418457031250, -6.460937500000, -0.296875000000, -4.445312500000, 1491363378
-0.797851562500, 0.340087890625, -0.418457031250, -6.460937500000, -0.296875000000, -4.445312500000, 1491363378
-0.797851562500, 0.340087890625, -0.418457031250, -6.460937500000, -0.296875000000, -4.445312500000, 1491363378
-0.746582031250, 0.367919921875, -0.335937500000, -3.984375000000, 0.781250000000, -3.351562500000, 1491363378
-0.746582031250, 0.367919921875, -0.335937500000, -3.984375000000, 0.781250000000, -3.351562500000, 1491363378
-0.746582031250, 0.367919921875, -0.335937500000, -3.984375000000, 0.781250000000, -3.351562500000, 1491363378
-0.790771484375, 0.400878906250, -0.285644531250, -1.710937500000, -2.195312500000, -3.804687500000, 1491363378
-0.790771484375, 0.400878906250, -0.285644531250, -1.710937500000, -2.195312500000, -3.804687500000, 1491363378
-0.790771484375, 0.400878906250, -0.285644531250, -1.710937500000, -2.195312500000, -3.804687500000, 1491363378
-0.790771484375, 0.400878906250, -0.285644531250, -1.710937500000, -2.195312500000, -3.804687500000, 1491363378
-0.875000000000, 0.382324218750, -0.307617187500, -2.000000000000, -1.000000000000, -1.703125000000, 1491363378
-0.875000000000, 0.382324218750, -0.307617187500, -2.000000000000, -1.000000000000, -1.703125000000, 1491363378
-0.875000000000, 0.382324218750, -0.307617187500, -2.000000000000, -1.000000000000, -1.703125000000, 1491363378
-0.802734375000, 0.367675781250, -0.356689453125, -4.257812500000, -2.164062500000, -4.742187500000, 1491363378
-0.802734375000, 0.367675781250, -0.356689453125, -4.257812500000, -2.164062500000, -4.742187500000, 1491363378
-0.802734375000, 0.367675781250, -0.356689453125, -4.257812500000, -2.164062500000, -4.742187500000, 1491363378
-0.785400390625, 0.334716796875, -0.292480468750, -4.476562500000, -1.218750000000, -4.109375000000, 1491363378
-0.785400390625, 0.334716796875, -0.292480468750, -4.476562500000, -1.218750000000, -4.109375000000, 1491363378
-0.785400390625, 0.334716796875, -0.292480468750, -4.476562500000, -1.218750000000, -4.109375000000, 1491363378
-0.794189453125, 0.305664062500, -0.354980468750, -3.437500000000, 0.125000000000, -2.570312500000, 1491363378
-0.794189453125, 0.305664062500, -0.354980468750, -3.437500000000, 0.125000000000, -2.570312500000, 1491363378
-0.794189453125, 0.305664062500, -0.354980468750, -3.437500000000, 0.125000000000, -2.570312500000, 1491363378
-0.794189453125, 0.305664062500, -0.354980468750, -3.437500000000, 0.125000000000, -2.570312500000, 1491363378
-0.794677734375, 0.434570312500, -0.386230468750, -4.726562500000, 0.007812500000, -1.718750000000, 1491363378
-0.794677734375, 0.434570312500, -0.386230468750, -4.726562500000, 0.007812500000, -1.718750000000, 1491363378
-0.794677734375, 0.434570312500, -0.386230468750, -4.726562500000, 0.007812500000, -1.718750000000, 1491363378
-0.744873046875, 0.285888671875, -0.389160156250, -6.453125000000, 0.820312500000, -3.367187500000, 1491363378
-0.744873046875, 0.285888671875, -0.389160156250, -6.453125000000, 0.820312500000, -3.367187500000, 1491363378
-0.744873046875, 0.285888671875, -0.389160156250, -6.453125000000, 0.820312500000, -3.367187500000, 1491363378
-0.801513671875, 0.464111328125, -0.366210937500, -4.835937500000, 2.375000000000, -6.015625000000, 1491363378
-0.801513671875, 0.464111328125, -0.366210937500, -4.835937500000, 2.375000000000, -6.015625000000, 1491363378
-0.801513671875, 0.464111328125, -0.366210937500, -4.835937500000, 2.375000000000, -6.015625000000, 1491363378
-0.817871093750, 0.293212890625, -0.302734375000, -3.117187500000, 0.898437500000, -1.109375000000, 1491363378
-0.840087890625, 0.369140625000, -0.362060546875, -1.718750000000, 2.476562500000, -3.132812500000, 1491363378
-0.840087890625, 0.369140625000, -0.362060546875, -1.718750000000, 2.476562500000, -3.132812500000, 1491363378
-0.840087890625, 0.369140625000, -0.362060546875, -1.718750000000, 2.476562500000, -3.132812500000, 1491363378
-0.840087890625, 0.369140625000, -0.362060546875, -1.718750000000, 2.476562500000, -3.132812500000, 1491363378
-0.878173828125, 0.421630859375, -0.310546875000, -1.328125000000, 1.507812500000, -4.273437500000, 1491363379
-0.878173828125, 0.421630859375, -0.310546875000, -1.328125000000, 1.507812500000, -4.273437500000, 1491363379
-0.878173828125, 0.421630859375, -0.310546875000, -1.328125000000, 1.507812500000, -4.273437500000, 1491363379
-0.878173828125, 0.421630859375, -0.310546875000, -1.328125000000, 1.507812500000, -4.273437500000, 1491363379
-0.878173828125, 0.421630859375, -0.310546875000, -1.328125000000, 1.507812500000, -4.273437500000, 1491363379
-0.784912109375, 0.360107421875, -0.372558593750, -2.929687500000, 2.617187500000, -6.546875000000, 1491363379
-0.784912109375, 0.360107421875, -0.372558593750, -2.929687500000, 2.617187500000, -6.546875000000, 1491363379
-0.784912109375, 0.360107421875, -0.372558593750, -2.929687500000, 2.617187500000, -6.546875000000, 1491363379
-0.793457031250, 0.459472656250, -0.405273437500, -0.515625000000, 3.382812500000, -7.328125000000, 1491363379
-0.793457031250, 0.459472656250, -0.405273437500, -0.515625000000, 3.382812500000, -7.328125000000, 1491363379
-0.793457031250, 0.459472656250, -0.405273437500, -0.515625000000, 3.382812500000, -7.328125000000, 1491363379
-0.793457031250, 0.459472656250, -0.405273437500, -0.515625000000, 3.382812500000, -7.328125000000, 1491363379
-0.793457031250, 0.459472656250, -0.405273437500, -0.515625000000, 3.382812500000, -7.328125000000, 1491363379
-0.793457031250, 0.459472656250, -0.405273437500, -0.515625000000, 3.382812500000, -7.328125000000, 1491363379
-0.810302734375, 0.420410156250, -0.361572265625, -4.515625000000, 4.750000000000, -3.359375000000, 1491363379
-0.810302734375, 0.420410156250, -0.361572265625, -4.515625000000, 4.750000000000, -3.359375000000, 1491363379
-0.810302734375, 0.420410156250, -0.361572265625, -4.515625000000, 4.750000000000, -3.359375000000, 1491363379
-0.810302734375, 0.420410156250, -0.361572265625, -4.515625000000, 4.750000000000, -3.359375000000, 1491363379
-0.748779296875, 0.383300781250, -0.345703125000, -6.351562500000, 1.242187500000, -1.296875000000, 1491363379
-0.748779296875, 0.383300781250, -0.345703125000, -6.351562500000, 1.242187500000, -1.296875000000, 1491363379
-0.819091796875, 0.437500000000, -0.382080078125, -3.992187500000, 0.835937500000, -2.734375000000, 1491363379
-0.883544921875, 0.468017578125, -0.302978515625, -6.812500000000, -0.515625000000, -4.984375000000, 1491363379
-0.883544921875, 0.468017578125, -0.302978515625, -6.812500000000, -0.515625000000, -4.984375000000, 1491363379
-0.883544921875, 0.468017578125, -0.302978515625, -6.812500000000, -0.515625000000, -4.984375000000, 1491363379
-0.883544921875, 0.468017578125, -0.302978515625, -6.812500000000, -0.515625000000, -4.984375000000, 1491363379
-0.793945312500, 0.414306640625, -0.371093750000, -4.171875000000, 3.031250000000, -6.054687500000, 1491363379
-0.793945312500, 0.414306640625, -0.371093750000, -4.171875000000, 3.031250000000, -6.054687500000, 1491363379
-0.793945312500, 0.414306640625, -0.371093750000, -4.171875000000, 3.031250000000, -6.054687500000, 1491363379
-0.791015625000, 0.290283203125, -0.405761718750, -2.359375000000, 6.742187500000, -4.812500000000, 1491363379
-0.791015625000, 0.290283203125, -0.405761718750, -2.359375000000, 6.742187500000, -4.812500000000, 1491363379
-0.791015625000, 0.290283203125, -0.405761718750, -2.359375000000, 6.742187500000, -4.812500000000, 1491363379
-0.808349609375, 0.458740234375, -0.347167968750, -4.359375000000, 3.453125000000, -4.523437500000, 1491363379
-0.808349609375, 0.458740234375, -0.347167968750, -4.359375000000, 3.453125000000, -4.523437500000, 1491363379
-0.843750000000, 0.363037109375, -0.357910156250, -3.546875000000, 0.750000000000, -6.554687500000, 1491363379
-0.843750000000, 0.363037109375, -0.357910156250, -3.546875000000, 0.750000000000, -6.554687500000, 1491363379
-0.843750000000, 0.363037109375, -0.357910156250, -3.546875000000, 0.750000000000, -6.554687500000, 1491363379
-0.843750000000, 0.363037109375, -0.357910156250, -3.546875000000, 0.750000000000, -6.554687500000, 1491363379
-0.788818359375, 0.409912109375, -0.354248046875, -8.789062500000, -4.179687500000, -4.898437500000, 1491363379
-0.788818359375, 0.409912109375, -0.354248046875, -8.789062500000, -4.179687500000, -4.898437500000, 1491363379
-0.788818359375, 0.409912109375, -0.354248046875, -8.789062500000, -4.179687500000, -4.898437500000, 1491363379
-0.788818359375, 0.409912109375, -0.354248046875, -8.789062500000, -4.179687500000, -4.898437500000, 1491363379
-0.829345703125, 0.441894531250, -0.445312500000, -8.609375000000, -4.007812500000, 0.031250000000, 1491363379
-0.829345703125, 0.441894531250, -0.445312500000, -8.609375000000, -4.007812500000, 0.031250000000, 1491363379
-0.829345703125, 0.441894531250, -0.445312500000, -8.609375000000, -4.007812500000, 0.031250000000, 1491363379
-0.833007812500, 0.396972656250, -0.320556640625, -8.773437500000, 0.078125000000, -1.554687500000, 1491363379
-0.833007812500, 0.396972656250, -0.320556640625, -8.773437500000, 0.078125000000, -1.554687500000, 1491363379
-0.786132812500, 0.402832031250, -0.375244140625, -3.953125000000, 0.281250000000, -6.328125000000, 1491363379
-0.786132812500, 0.402832031250, -0.375244140625, -3.953125000000, 0.281250000000, -6.328125000000, 1491363379
-0.786132812500, 0.402832031250, -0.375244140625, -3.953125000000, 0.281250000000, -6.328125000000, 1491363379
-0.786132812500, 0.402832031250, -0.375244140625, -3.953125000000, 0.281250000000, -6.328125000000, 1491363379
-0.786132812500, 0.402832031250, -0.375244140625, -3.953125000000, 0.281250000000, -6.328125000000, 1491363379
-0.882568359375, 0.374267578125, -0.378417968750, -3.359375000000, -0.500000000000, -4.054687500000, 1491363379
-0.882568359375, 0.374267578125, -0.378417968750, -3.359375000000, -0.500000000000, -4.054687500000, 1491363379
-0.882568359375, 0.374267578125, -0.378417968750, -3.359375000000, -0.500000000000, -4.054687500000, 1491363379
-0.841796875000, 0.471679687500, -0.384521484375, -3.179687500000, 0.132812500000, -4.710937500000, 1491363379
-0.841796875000, 0.471679687500, -0.384521484375, -3.179687500000, 0.132812500000, -4.710937500000, 1491363379
-0.841796875000, 0.471679687500, -0.384521484375, -3.179687500000, 0.132812500000, -4.710937500000, 1491363379
-0.797607421875, 0.460693359375, -0.406005859375, -3.718750000000, -2.218750000000, -3.718750000000, 1491363379
-0.797607421875, 0.460693359375, -0.406005859375, -3.718750000000, -2.218750000000, -3.718750000000, 1491363379
-0.797607421875, 0.460693359375, -0.406005859375, -3.718750000000, -2.218750000000, -3.718750000000, 1491363379
-0.730712890625, 0.401367187500, -0.508544921875, -1.453125000000, -2.640625000000, -6.664062500000, 1491363379
-0.730712890625, 0.401367187500, -0.508544921875, -1.453125000000, -2.640625000000, -6.664062500000, 1491363379
-0.730712890625, 0.401367187500, -0.508544921875, -1.453125000000, -2.640625000000, -6.664062500000, 1491363379
-0.730712890625, 0.401367187500, -0.508544921875, -1.453125000000, -2.640625000000, -6.664062500000, 1491363379
-0.766113281250, 0.467773437500, -0.387695312500, -4.421875000000, -0.843750000000, -4.812500000000, 1491363379
-0.766113281250, 0.467773437500, -0.387695312500, -4.421875000000, -0.843750000000, -4.812500000000, 1491363379
-0.766113281250, 0.467773437500, -0.387695312500, -4.421875000000, -0.843750000000, -4.812500000000, 1491363379
-0.800048828125, 0.461914062500, -0.447998046875, -3.617187500000, 0.562500000000, -3.101562500000, 1491363379
-0.800048828125, 0.461914062500, -0.447998046875, -3.617187500000, 0.562500000000, -3.101562500000, 1491363380
-0.800048828125, 0.461914062500, -0.447998046875, -3.617187500000, 0.562500000000, -3.101562500000, 1491363380
-0.743408203125, 0.443115234375, -0.310791015625, -4.312500000000, 2.171875000000, -4.468750000000, 1491363380
-0.743408203125, 0.443115234375, -0.310791015625, -4.312500000000, 2.171875000000, -4.468750000000, 1491363380
-0.743408203125, 0.443115234375, -0.310791015625, -4.312500000000, 2.171875000000, -4.468750000000, 1491363380
-0.833496093750, 0.343994140625, -0.332519531250, -1.765625000000, 2.125000000000, -3.875000000000, 1491363380
-0.833496093750, 0.343994140625, -0.332519531250, -1.765625000000, 2.125000000000, -3.875000000000, 1491363380
-0.833496093750, 0.343994140625, -0.332519531250, -1.765625000000, 2.125000000000, -3.875000000000, 1491363380
-0.833496093750, 0.343994140625, -0.332519531250, -1.765625000000, 2.125000000000, -3.875000000000, 1491363380
-0.832031250000, 0.450683593750, -0.388183593750, -3.546875000000, -0.773437500000, -4.195312500000, 1491363380
-0.832031250000, 0.450683593750, -0.388183593750, -3.546875000000, -0.773437500000, -4.195312500000, 1491363380
-0.832031250000, 0.450683593750, -0.388183593750, -3.546875000000, -0.773437500000, -4.195312500000, 1491363380
-0.732666015625, 0.398925781250, -0.388916015625, -4.390625000000, -2.101562500000, -4.015625000000, 1491363380
-0.732666015625, 0.398925781250, -0.388916015625, -4.390625000000, -2.101562500000, -4.015625000000, 1491363380
-0.732666015625, 0.398925781250, -0.388916015625, -4.390625000000, -2.101562500000, -4.015625000000, 1491363380
-0.854736328125, 0.430664062500, -0.370117187500, -4.835937500000, -0.445312500000, -1.875000000000, 1491363380
-0.854736328125, 0.430664062500, -0.370117187500, -4.835937500000, -0.445312500000, -1.875000000000, 1491363380
-0.854736328125, 0.430664062500, -0.370117187500, -4.835937500000, -0.445312500000, -1.875000000000, 1491363380
-0.817382812500, 0.391357421875, -0.446289062500, -4.945312500000, 2.804687500000, -1.765625000000, 1491363380
-0.817382812500, 0.391357421875, -0.446289062500, -4.945312500000, 2.804687500000, -1.765625000000, 1491363380
-0.817382812500, 0.391357421875, -0.446289062500, -4.945312500000, 2.804687500000, -1.765625000000, 1491363380
-0.817382812500, 0.391357421875, -0.446289062500, -4.945312500000, 2.804687500000, -1.765625000000, 1491363380
-0.881103515625, 0.362548828125, -0.310302734375, -3.226562500000, 2.164062500000, -1.562500000000, 1491363380
-0.881103515625, 0.362548828125, -0.310302734375, -3.226562500000, 2.164062500000, -1.562500000000, 1491363380
-0.881103515625, 0.362548828125, -0.310302734375, -3.226562500000, 2.164062500000, -1.562500000000, 1491363380
-0.834472656250, 0.360107421875, -0.392333984375, -3.179687500000, -2.242187500000, -6.031250000000, 1491363380
-0.834472656250, 0.360107421875, -0.392333984375, -3.179687500000, -2.242187500000, -6.031250000000, 1491363380
-0.834472656250, 0.360107421875, -0.392333984375, -3.179687500000, -2.242187500000, -6.031250000000, 1491363380
-0.883056640625, 0.453369140625, -0.396484375000, -3.640625000000, 1.132812500000, -3.140625000000, 1491363380
-0.883056640625, 0.453369140625, -0.396484375000, -3.640625000000, 1.132812500000, -3.140625000000, 1491363380
-0.883056640625, 0.453369140625, -0.396484375000, -3.640625000000, 1.132812500000, -3.140625000000, 1491363380
-0.748046875000, 0.295410156250, -0.306884765625, -4.210937500000, -0.078125000000, -2.281250000000, 1491363380
-0.748046875000, 0.295410156250, -0.306884765625, -4.210937500000, -0.078125000000, -2.281250000000, 1491363380
-0.748046875000, 0.295410156250, -0.306884765625, -4.210937500000, -0.078125000000, -2.281250000000, 1491363380
-0.748046875000, 0.295410156250, -0.306884765625, -4.210937500000, -0.078125000000, -2.281250000000, 1491363380
-0.753417968750, 0.465087890625, -0.391357421875, -4.757812500000, 0.695312500000, -1.523437500000, 1491363380
-0.753417968750, 0.465087890625, -0.391357421875, -4.757812500000, 0.695312500000, -1.523437500000, 1491363380
-0.753417968750, 0.465087890625, -0.391357421875, -4.757812500000, 0.695312500000, -1.523437500000, 1491363380
-0.816406250000, 0.397705078125, -0.401855468750, -3.148437500000, -0.695312500000, -4.140625000000, 1491363380
-0.816406250000, 0.397705078125, -0.401855468750, -3.148437500000, -0.695312500000, -4.140625000000, 1491363380
-0.816406250000, 0.397705078125, -0.401855468750, -3.148437500000, -0.695312500000, -4.140625000000, 1491363380
-0.889892578125, 0.392089843750, -0.396484375000, -3.390625000000, -2.718750000000, -4.531250000000, 1491363380
-0.889892578125, 0.392089843750, -0.396484375000, -3.390625000000, -2.718750000000, -4.531250000000, 1491363380
-0.889892578125, 0.392089843750, -0.396484375000, -3.390625000000, -2.718750000000, -4.531250000000, 1491363380
-0.798583984375, 0.352539062500, -0.340576171875, -3.242187500000, 0.859375000000, -2.804687500000, 1491363380
-0.798583984375, 0.352539062500, -0.340576171875, -3.242187500000, 0.859375000000, -2.804687500000, 1491363380
-0.798583984375, 0.352539062500, -0.340576171875, -3.242187500000, 0.859375000000, -2.804687500000, 1491363380
-0.798583984375, 0.352539062500, -0.340576171875, -3.242187500000, 0.859375000000, -2.804687500000, 1491363380
-0.875976562500, 0.382568359375, -0.438232421875, -4.328125000000, 0.617187500000, -3.648437500000, 1491363380
-0.875976562500, 0.382568359375, -0.438232421875, -4.328125000000, 0.617187500000, -3.648437500000, 1491363380
-0.875976562500, 0.382568359375, -0.438232421875, -4.328125000000, 0.617187500000, -3.648437500000, 1491363380
-0.803466796875, 0.458740234375, -0.333496093750, -4.156250000000, -0.289062500000, -1.429687500000, 1491363380
-0.803466796875, 0.458740234375, -0.333496093750, -4.156250000000, -0.289062500000, -1.429687500000, 1491363380
-0.803466796875, 0.458740234375, -0.333496093750, -4.156250000000, -0.289062500000, -1.429687500000, 1491363380
-0.840087890625, 0.382812500000, -0.403320312500, -3.914062500000, 0.968750000000, -6.914062500000, 1491363380
-0.840087890625, 0.382812500000, -0.403320312500, -3.914062500000, 0.968750000000, -6.914062500000, 1491363380
-0.840087890625, 0.382812500000, -0.403320312500, -3.914062500000, 0.968750000000, -6.914062500000, 1491363380
-0.778564453125, 0.438964843750, -0.343750000000, -4.851562500000, -0.671875000000, -4.218750000000, 1491363380
-0.778564453125, 0.438964843750, -0.343750000000, -4.851562500000, -0.671875000000, -4.218750000000, 1491363380
-0.778564453125, 0.438964843750, -0.343750000000, -4.851562500000, -0.671875000000, -4.218750000000, 1491363380
-0.778564453125, 0.438964843750, -0.343750000000, -4.851562500000, -0.671875000000, -4.218750000000, 1491363380
-0.813476562500, 0.360107421875, -0.356201171875, -2.398437500000, 0.898437500000, -1.726562500000, 1491363380
-0.813476562500, 0.360107421875, -0.356201171875, -2.398437500000, 0.898437500000, -1.726562500000, 1491363380
-0.813476562500, 0.360107421875, -0.356201171875, -2.398437500000, 0.898437500000, -1.726562500000, 1491363380
-0.885253906250, 0.395263671875, -0.306640625000, -3.250000000000, 2.171875000000, -4.867187500000, 1491363380
-0.885253906250, 0.395263671875, -0.306640625000, -3.250000000000, 2.171875000000, -4.867187500000, 1491363380
-0.885253906250, 0.395263671875, -0.306640625000, -3.250000000000, 2.171875000000, -4.867187500000, 1491363380
-0.815429687500, 0.373291015625, -0.310546875000, -3.968750000000, 2.195312500000, -2.343750000000, 1491363381
-0.815429687500, 0.373291015625, -0.310546875000, -3.968750000000, 2.195312500000, -2.343750000000, 1491363381
-0.815429687500, 0.373291015625, -0.310546875000, -3.968750000000, 2.195312500000, -2.343750000000, 1491363381
-0.761718750000, 0.387451171875, -0.284667968750, -3.156250000000, -0.492187500000, -6.140625000000, 1491363381
-0.761718750000, 0.387451171875, -0.284667968750, -3.156250000000, -0.492187500000, -6.140625000000, 1491363381
-0.879638671875, 0.445312500000, -0.338867187500, -4.140625000000, -0.757812500000, -4.554687500000, 1491363381
-0.825195312500, 0.364501953125, -0.391113281250, -4.140625000000, -0.757812500000, -4.554687500000, 1491363381
-0.825195312500, 0.364501953125, -0.391113281250, -4.140625000000, -0.757812500000, -4.554687500000, 1491363381
-0.825195312500, 0.364501953125, -0.391113281250, -4.140625000000, -0.757812500000, -4.554687500000, 1491363381
-0.825195312500, 0.364501953125, -0.391113281250, -4.140625000000, -0.757812500000, -4.554687500000, 1491363381
-0.738769531250, 0.463378906250, -0.292480468750, -4.109375000000, 0.710937500000, -1.656250000000, 1491363381
-0.738769531250, 0.463378906250, -0.292480468750, -4.109375000000, 0.710937500000, -1.656250000000, 1491363381
-0.738769531250, 0.463378906250, -0.292480468750, -4.109375000000, 0.710937500000, -1.656250000000, 1491363381
-0.885009765625, 0.342773437500, -0.403076171875, -4.679687500000, 0.750000000000, -3.375000000000, 1491363381
-0.885009765625, 0.342773437500, -0.403076171875, -4.679687500000, 0.750000000000, -3.375000000000, 1491363381
-0.885009765625, 0.342773437500, -0.403076171875, -4.679687500000, 0.750000000000, -3.375000000000, 1491363381
-0.904541015625, 0.450927734375, -0.402099609375, -4.687500000000, 0.085937500000, -4.898437500000, 1491363381
-0.795898437500, 0.307861328125, -0.382324218750, -4.687500000000, 0.085937500000, -4.898437500000, 1491363381
-0.795898437500, 0.307861328125, -0.382324218750, -4.687500000000, 0.085937500000, -4.898437500000, 1491363381
-0.795898437500, 0.307861328125, -0.382324218750, -4.687500000000, 0.085937500000, -4.898437500000, 1491363381
-0.878417968750, 0.449707031250, -0.334472656250, -3.023437500000, 0.593750000000, -4.250000000000, 1491363381
-0.878417968750, 0.449707031250, -0.334472656250, -3.023437500000, 0.593750000000, -4.250000000000, 1491363381
-0.878417968750, 0.449707031250, -0.334472656250, -3.023437500000, 0.593750000000, -4.250000000000, 1491363381
-0.789062500000, 0.364501953125, -0.366210937500, -4.421875000000, 0.796875000000, -1.460937500000, 1491363381
-0.789062500000, 0.364501953125, -0.366210937500, -4.421875000000, 0.796875000000, -1.460937500000, 1491363381
-0.789062500000, 0.364501953125, -0.366210937500, -4.421875000000, 0.796875000000, -1.460937500000, 1491363381
-0.815673828125, 0.447265625000, -0.394287109375, -3.546875000000, -0.289062500000, -6.710937500000, 1491363381
-0.815673828125, 0.447265625000, -0.394287109375, -3.546875000000, -0.289062500000, -6.710937500000, 1491363381
-0.815673828125, 0.447265625000, -0.394287109375, -3.546875000000, -0.289062500000, -6.710937500000, 1491363381
-0.843261718750, 0.463623046875, -0.298583984375, -3.554687500000, 0.617187500000, -4.429687500000, 1491363381
-0.843261718750, 0.463623046875, -0.298583984375, -3.554687500000, 0.617187500000, -4.429687500000, 1491363381
-0.843261718750, 0.463623046875, -0.298583984375, -3.554687500000, 0.617187500000, -4.429687500000, 1491363381
-0.843261718750, 0.463623046875, -0.298583984375, -3.554687500000, 0.617187500000, -4.429687500000, 1491363381
-0.723876953125, 0.398681640625, -0.342041015625, -4.250000000000, 0.656250000000, -1.234375000000, 1491363381
-0.723876953125, 0.398681640625, -0.342041015625, -4.250000000000, 0.656250000000, -1.234375000000, 1491363381
-0.723876953125, 0.398681640625, -0.342041015625, -4.250000000000, 0.656250000000, -1.234375000000, 1491363381
-0.893310546875, 0.371337890625, -0.403808593750, -3.531250000000, 0.734375000000, -2.382812500000, 1491363381
-0.893310546875, 0.371337890625, -0.403808593750, -3.531250000000, 0.734375000000, -2.382812500000, 1491363381
-0.893310546875, 0.371337890625, -0.403808593750, -3.531250000000, 0.734375000000, -2.382812500000, 1491363381
-0.787841796875, 0.292480468750, -0.306396484375, -3.234375000000, -0.781250000000, -1.625000000000, 1491363381
-0.787841796875, 0.292480468750, -0.306396484375, -3.234375000000, -0.781250000000, -1.625000000000, 1491363381
-0.787841796875, 0.292480468750, -0.306396484375, -3.234375000000, -0.781250000000, -1.625000000000, 1491363381
-0.897216796875, 0.324951171875, -0.345703125000, -4.914062500000, -0.312500000000, -1.257812500000, 1491363381
-0.806396484375, 0.293945312500, -0.400146484375, -3.031250000000, 0.851562500000, -5.906250000000, 1491363381
-0.806396484375, 0.293945312500, -0.400146484375, -3.031250000000, 0.851562500000, -5.906250000000, 1491363381
-0.806396484375, 0.293945312500, -0.400146484375, -3.031250000000, 0.851562500000, -5.906250000000, 1491363381
-0.819580078125, 0.299804687500, -0.310058593750, -4.953125000000, 2.367187500000, -3.789062500000, 1491363381
-0.819580078125, 0.299804687500, -0.310058593750, -4.953125000000, 2.367187500000, -3.789062500000, 1491363381
-0.819580078125, 0.299804687500, -0.310058593750, -4.953125000000, 2.367187500000, -3.789062500000, 1491363381
-0.819580078125, 0.299804687500, -0.310058593750, -4.953125000000, 2.367187500000, -3.789062500000, 1491363381
-0.835937500000, 0.359863281250, -0.302246093750, -6.390625000000, -0.382812500000, -3.656250000000, 1491363381
-0.841308593750, 0.437744140625, -0.387939453125, -4.101562500000, 2.835937500000, -2.843750000000, 1491363381
-0.841308593750, 0.437744140625, -0.387939453125, -4.101562500000, 2.835937500000, -2.843750000000, 1491363381
-0.841308593750, 0.437744140625, -0.387939453125, -4.101562500000, 2.835937500000, -2.843750000000, 1491363381
-0.841308593750, 0.437744140625, -0.387939453125, -4.101562500000, 2.835937500000, -2.843750000000, 1491363381
-0.786865234375, 0.363769531250, -0.361083984375, -3.820312500000, -0.226562500000, -2.835937500000, 1491363381
-0.786865234375, 0.363769531250, -0.361083984375, -3.820312500000, -0.226562500000, -2.835937500000, 1491363381
-0.786865234375, 0.363769531250, -0.361083984375, -3.820312500000, -0.226562500000, -2.835937500000, 1491363381
-0.786865234375, 0.363769531250, -0.361083984375, -3.820312500000, -0.226562500000, -2.835937500000, 1491363381
-0.786865234375, 0.363769531250, -0.361083984375, -3.820312500000, -0.226562500000, -2.835937500000, 1491363381
-0.786865234375, 0.363769531250, -0.361083984375, -3.820312500000, -0.226562500000, -2.835937500000, 1491363381
-0.786865234375, 0.363769531250, -0.361083984375, -3.820312500000, -0.226562500000, -2.835937500000, 1491363381
-0.719726562500, 0.371826171875, -0.399658203125, -3.382812500000, 2.460937500000, -3.226562500000, 1491363381
-0.719726562500, 0.371826171875, -0.399658203125, -3.382812500000, 2.460937500000, -3.226562500000, 1491363381
-0.719726562500, 0.371826171875, -0.399658203125, -3.382812500000, 2.460937500000, -3.226562500000, 1491363382
-0.967041015625, 0.448730468750, -0.297607421875, -4.484375000000, -0.695312500000, -1.492187500000, 1491363382
-0.967041015625, 0.448730468750, -0.297607421875, -4.484375000000, -0.695312500000, -1.492187500000, 1491363382
-0.967041015625, 0.448730468750, -0.297607421875, -4.484375000000, -0.695312500000, -1.492187500000, 1491363382
-0.967041015625, 0.448730468750, -0.297607421875, -4.484375000000, -0.695312500000, -1.492187500000, 1491363382
-0.967041015625, 0.448730468750, -0.297607421875, -4.484375000000, -0.695312500000, -1.492187500000, 1491363382
-0.967041015625, 0.448730468750, -0.297607421875, -4.484375000000, -0.695312500000, -1.492187500000, 1491363382
-0.809082031250, 0.444335937500, -0.362060546875, -2.835937500000, 0.539062500000, -1.351562500000, 1491363382
-0.809082031250, 0.444335937500, -0.362060546875, -2.835937500000, 0.539062500000, -1.351562500000, 1491363382
-0.809082031250, 0.444335937500, -0.362060546875, -2.835937500000, 0.539062500000, -1.351562500000, 1491363382
-0.809082031250, 0.444335937500, -0.362060546875, -2.835937500000, 0.539062500000, -1.351562500000, 1491363382
-0.811523437500, 0.454345703125, -0.364501953125, -3.539062500000, 0.515625000000, -1.343750000000, 1491363382
-0.811523437500, 0.454345703125, -0.364501953125, -3.539062500000, 0.515625000000, -1.343750000000, 1491363382
-0.811523437500, 0.454345703125, -0.364501953125, -3.539062500000, 0.515625000000, -1.343750000000, 1491363382
-0.815429687500, 0.439697265625, -0.364257812500, -5.039062500000, -0.164062500000, -2.421875000000, 1491363382
-0.815429687500, 0.439697265625, -0.364257812500, -5.039062500000, -0.164062500000, -2.421875000000, 1491363382
-0.815429687500, 0.439697265625, -0.364257812500, -5.039062500000, -0.164062500000, -2.421875000000, 1491363382
-0.810546875000, 0.438720703125, -0.368652343750, -3.601562500000, -0.265625000000, -4.617187500000, 1491363382
-0.810546875000, 0.438720703125, -0.368652343750, -3.601562500000, -0.265625000000, -4.617187500000, 1491363382
-0.810546875000, 0.438720703125, -0.368652343750, -3.601562500000, -0.265625000000, -4.617187500000, 1491363382
-0.810546875000, 0.438720703125, -0.368652343750, -3.601562500000, -0.265625000000, -4.617187500000, 1491363382
-0.945800781250, 0.352294921875, -0.304443359375, -3.156250000000, 2.156250000000, -1.156250000000, 1491363382
-0.945800781250, 0.352294921875, -0.304443359375, -3.156250000000, 2.156250000000, -1.156250000000, 1491363382
-0.945800781250, 0.352294921875, -0.304443359375, -3.156250000000, 2.156250000000, -1.156250000000, 1491363382
-0.802734375000, 0.387451171875, -0.387207031250, -3.382812500000, -0.234375000000, -3.820312500000, 1491363382
-0.802734375000, 0.387451171875, -0.387207031250, -3.382812500000, -0.234375000000, -3.820312500000, 1491363382
-0.802734375000, 0.387451171875, -0.387207031250, -3.382812500000, -0.234375000000, -3.820312500000, 1491363382
-0.767333984375, 0.345947265625, -0.382080078125, -3.851562500000, 2.085937500000, -1.968750000000, 1491363382
-0.767333984375, 0.345947265625, -0.382080078125, -3.851562500000, 2.085937500000, -1.968750000000, 1491363382
-0.767333984375, 0.345947265625, -0.382080078125, -3.851562500000, 2.085937500000, -1.968750000000, 1491363382
-0.847412109375, 0.388427734375, -0.385253906250, -3.429687500000, 0.484375000000, -4.578125000000, 1491363382
-0.847412109375, 0.388427734375, -0.385253906250, -3.429687500000, 0.484375000000, -4.578125000000, 1491363382
-0.847412109375, 0.388427734375, -0.385253906250, -3.429687500000, 0.484375000000, -4.578125000000, 1491363382
-0.847412109375, 0.388427734375, -0.385253906250, -3.429687500000, 0.484375000000, -4.578125000000, 1491363382
