ACC_X,ACC_Y,ACC_Z,G_X,G_Y,G_Z,Unix Time
0.073974609375, 0.872802734375, -0.371826171875, -8.070312500000, -0.609375000000, -3.390625000000, 1491363064
0.073974609375, 0.872802734375, -0.371826171875, -8.070312500000, -0.609375000000, -3.390625000000, 1491363064
0.073974609375, 0.872802734375, -0.371826171875, -8.070312500000, -0.609375000000, -3.390625000000, 1491363064
0.073974609375, 0.872802734375, -0.371826171875, -8.070312500000, -0.609375000000, -3.390625000000, 1491363064
0.041259765625, 0.954101562500, -0.355224609375, -5.007812500000, 2.328125000000, -1.914062500000, 1491363064
0.041259765625, 0.954101562500, -0.355224609375, -5.007812500000, 2.328125000000, -1.914062500000, 1491363064
0.041259765625, 0.954101562500, -0.355224609375, -5.007812500000, 2.328125000000, -1.914062500000, 1491363064
0.012695312500, 0.964843750000, -0.439697265625, -2.664062500000, 2.523437500000, -3.898437500000, 1491363064
0.078857421875, 0.944091796875, -0.346435546875, -1.992187500000, -2.164062500000, -1.218750000000, 1491363064
0.078857421875, 0.944091796875, -0.346435546875, -1.992187500000, -2.164062500000, -1.218750000000, 1491363064
0.078857421875, 0.944091796875, -0.346435546875, -1.992187500000, -2.164062500000, -1.218750000000, 1491363064
0.078857421875, 0.944091796875, -0.346435546875, -1.992187500000, -2.164062500000, -1.218750000000, 1491363064
0.126464843750, 0.949707031250, -0.343994140625, -4.156250000000, -0.757812500000, -2.437500000000, 1491363064
0.126464843750, 0.949707031250, -0.343994140625, -4.156250000000, -0.757812500000, -2.437500000000, 1491363064
-0.065917968750, 0.937744140625, -0.380859375000, -1.335937500000, 1.742187500000, -0.500000000000, 1491363064
-0.065917968750, 0.937744140625, -0.380859375000, -1.335937500000, 1.742187500000, -0.500000000000, 1491363064
-0.065917968750, 0.937744140625, -0.380859375000, -1.335937500000, 1.742187500000, -0.500000000000, 1491363064
-0.065917968750, 0.937744140625, -0.380859375000, -1.335937500000, 1.742187500000, -0.500000000000, 1491363064
-0.065917968750, 0.937744140625, -0.380859375000, -1.335937500000, 1.742187500000, -0.500000000000, 1491363064
0.127441406250, 1.018310546875, -0.397949218750, -4.007812500000, 2.601562500000, 0.367187500000, 1491363064
0.046142578125, 0.848388671875, -0.397460937500, -4.734375000000, -0.218750000000, -4.359375000000, 1491363064
0.046142578125, 0.848388671875, -0.397460937500, -4.734375000000, -0.218750000000, -4.359375000000, 1491363064
0.046142578125, 0.848388671875, -0.397460937500, -4.734375000000, -0.218750000000, -4.359375000000, 1491363064
0.075439453125, 0.965576171875, -0.332275390625, -4.429687500000, -2.945312500000, -4.765625000000, 1491363064
0.075439453125, 0.965576171875, -0.332275390625, -4.429687500000, -2.945312500000, -4.765625000000, 1491363064
0.075439453125, 0.965576171875, -0.332275390625, -4.429687500000, -2.945312500000, -4.765625000000, 1491363064
0.050292968750, 0.854003906250, -0.361816406250, -3.054687500000, 1.156250000000, -1.781250000000, 1491363064
0.050292968750, 0.854003906250, -0.361816406250, -3.054687500000, 1.156250000000, -1.781250000000, 1491363064
0.050292968750, 0.854003906250, -0.361816406250, -3.054687500000, 1.156250000000, -1.781250000000, 1491363064
0.050292968750, 0.854003906250, -0.361816406250, -3.054687500000, 1.156250000000, -1.781250000000, 1491363064
0.052246093750, 0.913085937500, -0.305664062500, -4.203125000000, 3.632812500000, -4.531250000000, 1491363064
0.052246093750, 0.913085937500, -0.305664062500, -4.203125000000, 3.632812500000, -4.531250000000, 1491363064
0.052246093750, 0.913085937500, -0.305664062500, -4.203125000000, 3.632812500000, -4.531250000000, 1491363064
0.074218750000, 0.942138671875, -0.370361328125, -4.539062500000, -2.531250000000, -4.679687500000, 1491363065
0.074218750000, 0.942138671875, -0.370361328125, -4.539062500000, -2.531250000000, -4.679687500000, 1491363065
0.074218750000, 0.942138671875, -0.370361328125, -4.539062500000, -2.531250000000, -4.679687500000, 1491363065
0.073730468750, 0.872070312500, -0.340820312500, -4.570312500000, -0.062500000000, -3.343750000000, 1491363065
0.073730468750, 0.872070312500, -0.340820312500, -4.570312500000, -0.062500000000, -3.343750000000, 1491363065
0.073730468750, 0.872070312500, -0.340820312500, -4.570312500000, -0.062500000000, -3.343750000000, 1491363065
0.045410156250, 1.000976562500, -0.381591796875, -3.695312500000, 2.750000000000, -3.562500000000, 1491363065
0.045410156250, 1.000976562500, -0.381591796875, -3.695312500000, 2.750000000000, -3.562500000000, 1491363065
0.045410156250, 1.000976562500, -0.381591796875, -3.695312500000, 2.750000000000, -3.562500000000, 1491363065
0.045410156250, 1.000976562500, -0.381591796875, -3.695312500000, 2.750000000000, -3.562500000000, 1491363065
0.052490234375, 0.959716796875, -0.403320312500, -4.148437500000, 1.062500000000, -3.281250000000, 1491363065
0.052490234375, 0.959716796875, -0.403320312500, -4.148437500000, 1.062500000000, -3.281250000000, 1491363065
0.052490234375, 0.959716796875, -0.403320312500, -4.148437500000, 1.062500000000, -3.281250000000, 1491363065
0.041015625000, 0.947998046875, -0.403808593750, -4.843750000000, 0.343750000000, -1.625000000000, 1491363065
0.041015625000, 0.947998046875, -0.403808593750, -4.843750000000, 0.343750000000, -1.625000000000, 1491363065
0.041015625000, 0.947998046875, -0.403808593750, -4.843750000000, 0.343750000000, -1.625000000000, 1491363065
0.038818359375, 1.004638671875, -0.370361328125, -4.320312500000, -0.687500000000, -4.578125000000, 1491363065
0.038818359375, 1.004638671875, -0.370361328125, -4.320312500000, -0.687500000000, -4.578125000000, 1491363065
0.038818359375, 1.004638671875, -0.370361328125, -4.320312500000, -0.687500000000, -4.578125000000, 1491363065
0.035888671875, 0.858642578125, -0.356689453125, -4.882812500000, 0.695312500000, -6.109375000000, 1491363065
0.035888671875, 0.858642578125, -0.356689453125, -4.882812500000, 0.695312500000, -6.109375000000, 1491363065
0.035888671875, 0.858642578125, -0.356689453125, -4.882812500000, 0.695312500000, -6.109375000000, 1491363065
0.035888671875, 0.858642578125, -0.356689453125, -4.882812500000, 0.695312500000, -6.109375000000, 1491363065
0.071777343750, 0.926513671875, -0.401611328125, -6.242187500000, -0.898437500000, -4.585937500000, 1491363065
0.071777343750, 0.926513671875, -0.401611328125, -6.242187500000, -0.898437500000, -4.585937500000, 1491363065
0.071777343750, 0.926513671875, -0.401611328125, -6.242187500000, -0.898437500000, -4.585937500000, 1491363065
0.077392578125, 0.854980468750, -0.379150390625, -4.382812500000, 2.804687500000, -1.992187500000, 1491363065
0.077392578125, 0.854980468750, -0.379150390625, -4.382812500000, 2.804687500000, -1.992187500000, 1491363065
0.077392578125, 0.854980468750, -0.379150390625, -4.382812500000, 2.804687500000, -1.992187500000, 1491363065
0.142578125000, 0.959228515625, -0.303710937500, -3.148437500000, 2.601562500000, 0.382812500000, 1491363065
0.142578125000, 0.959228515625, -0.303710937500, -3.148437500000, 2.601562500000, 0.382812500000, 1491363065
0.142578125000, 0.959228515625, -0.303710937500, -3.148437500000, 2.601562500000, 0.382812500000, 1491363065
0.143798828125, 0.958984375000, -0.356933593750, -4.062500000000, 2.281250000000, -1.593750000000, 1491363065
0.143798828125, 0.958984375000, -0.356933593750, -4.062500000000, 2.281250000000, -1.593750000000, 1491363065
0.143798828125, 0.958984375000, -0.356933593750, -4.062500000000, 2.281250000000, -1.593750000000, 1491363065
0.143798828125, 0.958984375000, -0.356933593750, -4.062500000000, 2.281250000000, -1.593750000000, 1491363065
0.093750000000, 0.961181640625, -0.369873046875, -3.570312500000, -0.507812500000, -4.453125000000, 1491363065
0.093750000000, 0.961181640625, -0.369873046875, -3.570312500000, -0.507812500000, -4.453125000000, 1491363065
0.093750000000, 0.961181640625, -0.369873046875, -3.570312500000, -0.507812500000, -4.453125000000, 1491363065
-0.023925781250, 0.969238281250, -0.362548828125, -3.093750000000, -1.031250000000, -1.445312500000, 1491363065
-0.023925781250, 0.969238281250, -0.362548828125, -3.093750000000, -1.031250000000, -1.445312500000, 1491363065
-0.023925781250, 0.969238281250, -0.362548828125, -3.093750000000, -1.031250000000, -1.445312500000, 1491363065
0.040039062500, 0.793945312500, -0.308105468750, -2.851562500000, 3.671875000000, -3.843750000000, 1491363065
0.040039062500, 0.793945312500, -0.308105468750, -2.851562500000, 3.671875000000, -3.843750000000, 1491363065
0.040039062500, 0.793945312500, -0.308105468750, -2.851562500000, 3.671875000000, -3.843750000000, 1491363065
0.087646484375, 0.926757812500, -0.384765625000, -1.523437500000, 2.468750000000, -2.007812500000, 1491363065
0.087646484375, 0.926757812500, -0.384765625000, -1.523437500000, 2.468750000000, -2.007812500000, 1491363065
0.087646484375, 0.926757812500, -0.384765625000, -1.523437500000, 2.468750000000, -2.007812500000, 1491363065
0.087646484375, 0.926757812500, -0.384765625000, -1.523437500000, 2.468750000000, -2.007812500000, 1491363065
0.144531250000, 0.944091796875, -0.304199218750, -1.601562500000, 8.054687500000, 4.226562500000, 1491363065
0.144531250000, 0.944091796875, -0.304199218750, -1.601562500000, 8.054687500000, 4.226562500000, 1491363065
0.144531250000, 0.944091796875, -0.304199218750, -1.601562500000, 8.054687500000, 4.226562500000, 1491363065
-0.001953125000, 0.961669921875, -0.449462890625, -3.257812500000, 8.195312500000, 1.617187500000, 1491363065
-0.001953125000, 0.961669921875, -0.449462890625, -3.257812500000, 8.195312500000, 1.617187500000, 1491363065
-0.001953125000, 0.961669921875, -0.449462890625, -3.257812500000, 8.195312500000, 1.617187500000, 1491363065
-0.028320312500, 0.867431640625, -0.304931640625, -0.609375000000, 14.640625000000, 9.554687500000, 1491363065
-0.028320312500, 0.867431640625, -0.304931640625, -0.609375000000, 14.640625000000, 9.554687500000, 1491363065
-0.028320312500, 0.867431640625, -0.304931640625, -0.609375000000, 14.640625000000, 9.554687500000, 1491363065
0.060302734375, 0.857910156250, -0.339355468750, 0.382812500000, 16.023437500000, 1.742187500000, 1491363065
0.060302734375, 0.857910156250, -0.339355468750, 0.382812500000, 16.023437500000, 1.742187500000, 1491363065
0.060302734375, 0.857910156250, -0.339355468750, 0.382812500000, 16.023437500000, 1.742187500000, 1491363065
0.060302734375, 0.857910156250, -0.339355468750, 0.382812500000, 16.023437500000, 1.742187500000, 1491363065
0.062500000000, 0.923828125000, -0.249755859375, -3.828125000000, 3.664062500000, -1.296875000000, 1491363065
0.062500000000, 0.923828125000, -0.249755859375, -3.828125000000, 3.664062500000, -1.296875000000, 1491363065
0.062500000000, 0.923828125000, -0.249755859375, -3.828125000000, 3.664062500000, -1.296875000000, 1491363065
0.060302734375, 0.856933593750, -0.396484375000, -6.796875000000, 6.242187500000, -3.406250000000, 1491363066
-0.006591796875, 1.019287109375, -0.378906250000, -7.210937500000, 0.257812500000, -4.640625000000, 1491363066
-0.006591796875, 1.019287109375, -0.378906250000, -7.210937500000, 0.257812500000, -4.640625000000, 1491363066
-0.006591796875, 1.019287109375, -0.378906250000, -7.210937500000, 0.257812500000, -4.640625000000, 1491363066
-0.006591796875, 1.019287109375, -0.378906250000, -7.210937500000, 0.257812500000, -4.640625000000, 1491363066
0.091552734375, 0.895996093750, -0.394042968750, -10.593750000000, -1.320312500000, -3.421875000000, 1491363066
-0.014160156250, 0.908935546875, -0.321533203125, -8.914062500000, -1.492187500000, -3.265625000000, 1491363066
-0.014160156250, 0.908935546875, -0.321533203125, -8.914062500000, -1.492187500000, -3.265625000000, 1491363066
-0.014160156250, 0.908935546875, -0.321533203125, -8.914062500000, -1.492187500000, -3.265625000000, 1491363066
-0.014160156250, 0.908935546875, -0.321533203125, -8.914062500000, -1.492187500000, -3.265625000000, 1491363066
0.047119140625, 1.014648437500, -0.396972656250, -8.328125000000, -2.968750000000, -6.648437500000, 1491363066
0.047119140625, 1.014648437500, -0.396972656250, -8.328125000000, -2.968750000000, -6.648437500000, 1491363066
0.047119140625, 1.014648437500, -0.396972656250, -8.328125000000, -2.968750000000, -6.648437500000, 1491363066
0.032470703125, 0.943603515625, -0.398437500000, -8.554687500000, -2.390625000000, -6.906250000000, 1491363066
0.032470703125, 0.943603515625, -0.398437500000, -8.554687500000, -2.390625000000, -6.906250000000, 1491363066
0.032470703125, 0.943603515625, -0.398437500000, -8.554687500000, -2.390625000000, -6.906250000000, 1491363066
0.081054687500, 0.906494140625, -0.377685546875, -5.703125000000, -2.164062500000, -6.843750000000, 1491363066
0.081054687500, 0.906494140625, -0.377685546875, -5.703125000000, -2.164062500000, -6.843750000000, 1491363066
0.017089843750, 1.029541015625, -0.282226562500, -8.328125000000, -2.554687500000, -3.234375000000, 1491363066
0.017089843750, 1.029541015625, -0.282226562500, -8.328125000000, -2.554687500000, -3.234375000000, 1491363066
0.017089843750, 1.029541015625, -0.282226562500, -8.328125000000, -2.554687500000, -3.234375000000, 1491363066
0.017089843750, 1.029541015625, -0.282226562500, -8.328125000000, -2.554687500000, -3.234375000000, 1491363066
0.017089843750, 1.029541015625, -0.282226562500, -8.328125000000, -2.554687500000, -3.234375000000, 1491363066
0.011474609375, 0.895996093750, -0.302734375000, -6.937500000000, -1.890625000000, -3.031250000000, 1491363066
0.011474609375, 0.895996093750, -0.302734375000, -6.937500000000, -1.890625000000, -3.031250000000, 1491363066
0.011474609375, 0.895996093750, -0.302734375000, -6.937500000000, -1.890625000000, -3.031250000000, 1491363066
0.101074218750, 0.866943359375, -0.397949218750, -6.812500000000, 1.992187500000, -1.648437500000, 1491363066
0.101074218750, 0.866943359375, -0.397949218750, -6.812500000000, 1.992187500000, -1.648437500000, 1491363066
0.101074218750, 0.866943359375, -0.397949218750, -6.812500000000, 1.992187500000, -1.648437500000, 1491363066
0.084472656250, 0.920898437500, -0.404541015625, -4.843750000000, 1.875000000000, -3.000000000000, 1491363066
0.084472656250, 0.920898437500, -0.404541015625, -4.843750000000, 1.875000000000, -3.000000000000, 1491363066
0.084472656250, 0.920898437500, -0.404541015625, -4.843750000000, 1.875000000000, -3.000000000000, 1491363066
-0.008056640625, 0.855712890625, -0.352294921875, -3.843750000000, 0.843750000000, -2.492187500000, 1491363066
-0.008056640625, 0.855712890625, -0.352294921875, -3.843750000000, 0.843750000000, -2.492187500000, 1491363066
-0.008056640625, 0.855712890625, -0.352294921875, -3.843750000000, 0.843750000000, -2.492187500000, 1491363066
-0.008056640625, 0.855712890625, -0.352294921875, -3.843750000000, 0.843750000000, -2.492187500000, 1491363066
0.059814453125, 0.909423828125, -0.299804687500, -6.062500000000, 2.679687500000, 0.171875000000, 1491363066
0.059814453125, 0.909423828125, -0.299804687500, -6.062500000000, 2.679687500000, 0.171875000000, 1491363066
0.059814453125, 0.909423828125, -0.299804687500, -6.062500000000, 2.679687500000, 0.171875000000, 1491363066
-0.005859375000, 0.856201171875, -0.399169921875, -5.023437500000, 1.335937500000, -1.023437500000, 1491363066
-0.005859375000, 0.856201171875, -0.399169921875, -5.023437500000, 1.335937500000, -1.023437500000, 1491363066
-0.005859375000, 0.856201171875, -0.399169921875, -5.023437500000, 1.335937500000, -1.023437500000, 1491363066
0.053466796875, 0.969970703125, -0.391357421875, -5.414062500000, -2.835937500000, -1.695312500000, 1491363066
0.053466796875, 0.969970703125, -0.391357421875, -5.414062500000, -2.835937500000, -1.695312500000, 1491363066
0.128662109375, 0.955566406250, -0.387939453125, -3.476562500000, -1.257812500000, -4.382812500000, 1491363066
0.128662109375, 0.955566406250, -0.387939453125, -3.476562500000, -1.257812500000, -4.382812500000, 1491363066
0.128662109375, 0.955566406250, -0.387939453125, -3.476562500000, -1.257812500000, -4.382812500000, 1491363066
0.128662109375, 0.955566406250, -0.387939453125, -3.476562500000, -1.257812500000, -4.382812500000, 1491363066
0.128662109375, 0.955566406250, -0.387939453125, -3.476562500000, -1.257812500000, -4.382812500000, 1491363066
0.058349609375, 0.859130859375, -0.350830078125, -6.820312500000, -6.656250000000, -3.789062500000, 1491363066
0.058349609375, 0.859130859375, -0.350830078125, -6.820312500000, -6.656250000000, -3.789062500000, 1491363066
0.058349609375, 0.859130859375, -0.350830078125, -6.820312500000, -6.656250000000, -3.789062500000, 1491363066
0.088623046875, 0.929199218750, -0.500488281250, -5.062500000000, -1.632812500000, -4.031250000000, 1491363066
0.088623046875, 0.929199218750, -0.500488281250, -5.062500000000, -1.632812500000, -4.031250000000, 1491363066
0.088623046875, 0.929199218750, -0.500488281250, -5.062500000000, -1.632812500000, -4.031250000000, 1491363066
0.077392578125, 0.908203125000, -0.358154296875, -6.484375000000, -2.781250000000, -4.781250000000, 1491363066
0.077392578125, 0.908203125000, -0.358154296875, -6.484375000000, -2.781250000000, -4.781250000000, 1491363066
0.077392578125, 0.908203125000, -0.358154296875, -6.484375000000, -2.781250000000, -4.781250000000, 1491363066
0.058593750000, 0.900634765625, -0.401855468750, -6.203125000000, 0.664062500000, -3.195312500000, 1491363066
0.058593750000, 0.900634765625, -0.401855468750, -6.203125000000, 0.664062500000, -3.195312500000, 1491363066
0.058593750000, 0.900634765625, -0.401855468750, -6.203125000000, 0.664062500000, -3.195312500000, 1491363066
0.058593750000, 0.900634765625, -0.401855468750, -6.203125000000, 0.664062500000, -3.195312500000, 1491363066
0.131591796875, 0.957763671875, -0.437988281250, -3.820312500000, 0.289062500000, -3.351562500000, 1491363066
0.131591796875, 0.957763671875, -0.437988281250, -3.820312500000, 0.289062500000, -3.351562500000, 1491363066
0.131591796875, 0.957763671875, -0.437988281250, -3.820312500000, 0.289062500000, -3.351562500000, 1491363066
0.087646484375, 0.939208984375, -0.372070312500, -3.015625000000, -1.023437500000, -1.875000000000, 1491363066
0.087646484375, 0.939208984375, -0.372070312500, -3.015625000000, -1.023437500000, -1.875000000000, 1491363066
0.087646484375, 0.939208984375, -0.372070312500, -3.015625000000, -1.023437500000, -1.875000000000, 1491363066
0.085937500000, 0.872558593750, -0.392089843750, -2.000000000000, -1.546875000000, -4.484375000000, 1491363067
0.085937500000, 0.872558593750, -0.392089843750, -2.000000000000, -1.546875000000, -4.484375000000, 1491363067
0.085937500000, 0.872558593750, -0.392089843750, -2.000000000000, -1.546875000000, -4.484375000000, 1491363067
0.072265625000, 0.964843750000, -0.380371093750, -4.312500000000, -1.617187500000, -3.460937500000, 1491363067
0.072265625000, 0.964843750000, -0.380371093750, -4.312500000000, -1.617187500000, -3.460937500000, 1491363067
0.072265625000, 0.964843750000, -0.380371093750, -4.312500000000, -1.617187500000, -3.460937500000, 1491363067
0.072265625000, 0.964843750000, -0.380371093750, -4.312500000000, -1.617187500000, -3.460937500000, 1491363067
0.041015625000, 0.883789062500, -0.402587890625, -3.195312500000, 2.328125000000, -3.906250000000, 1491363067
0.041015625000, 0.883789062500, -0.402587890625, -3.195312500000, 2.328125000000, -3.906250000000, 1491363067
0.041015625000, 0.883789062500, -0.402587890625, -3.195312500000, 2.328125000000, -3.906250000000, 1491363067
0.056152343750, 0.799804687500, -0.310546875000, -4.789062500000, 2.648437500000, -1.859375000000, 1491363067
0.056152343750, 0.799804687500, -0.310546875000, -4.789062500000, 2.648437500000, -1.859375000000, 1491363067
0.056152343750, 0.799804687500, -0.310546875000, -4.789062500000, 2.648437500000, -1.859375000000, 1491363067
0.199707031250, 0.928955078125, -0.357421875000, -3.289062500000, -0.406250000000, -6.375000000000, 1491363067
0.199707031250, 0.928955078125, -0.357421875000, -3.289062500000, -0.406250000000, -6.375000000000, 1491363067
0.199707031250, 0.928955078125, -0.357421875000, -3.289062500000, -0.406250000000, -6.375000000000, 1491363067
0.037109375000, 0.876220703125, -0.405761718750, -1.835937500000, -0.570312500000, -3.445312500000, 1491363067
0.037109375000, 0.876220703125, -0.405761718750, -1.835937500000, -0.570312500000, -3.445312500000, 1491363067
0.037109375000, 0.876220703125, -0.405761718750, -1.835937500000, -0.570312500000, -3.445312500000, 1491363067
0.037109375000, 0.876220703125, -0.405761718750, -1.835937500000, -0.570312500000, -3.445312500000, 1491363067
0.081787109375, 0.857421875000, -0.294433593750, -4.906250000000, 0.468750000000, -3.390625000000, 1491363067
0.081787109375, 0.857421875000, -0.294433593750, -4.906250000000, 0.468750000000, -3.390625000000, 1491363067
0.081787109375, 0.857421875000, -0.294433593750, -4.906250000000, 0.468750000000, -3.390625000000, 1491363067
0.032958984375, 0.873779296875, -0.405029296875, -5.578125000000, 2.179687500000, -4.773437500000, 1491363067
0.032958984375, 0.873779296875, -0.405029296875, -5.578125000000, 2.179687500000, -4.773437500000, 1491363067
0.032958984375, 0.873779296875, -0.405029296875, -5.578125000000, 2.179687500000, -4.773437500000, 1491363067
0.049804687500, 0.859619140625, -0.312011718750, -4.968750000000, 1.132812500000, -4.421875000000, 1491363067
0.049804687500, 0.859619140625, -0.312011718750, -4.968750000000, 1.132812500000, -4.421875000000, 1491363067
0.049804687500, 0.859619140625, -0.312011718750, -4.968750000000, 1.132812500000, -4.421875000000, 1491363067
0.075927734375, 0.902099609375, -0.385253906250, -4.734375000000, -0.445312500000, -4.398437500000, 1491363067
0.075927734375, 0.902099609375, -0.385253906250, -4.734375000000, -0.445312500000, -4.398437500000, 1491363067
0.075927734375, 0.902099609375, -0.385253906250, -4.734375000000, -0.445312500000, -4.398437500000, 1491363067
0.075927734375, 0.902099609375, -0.385253906250, -4.734375000000, -0.445312500000, -4.398437500000, 1491363067
0.065917968750, 0.915039062500, -0.390625000000, -4.742187500000, 2.000000000000, -1.703125000000, 1491363067
0.065917968750, 0.915039062500, -0.390625000000, -4.742187500000, 2.000000000000, -1.703125000000, 1491363067
0.065917968750, 0.915039062500, -0.390625000000, -4.742187500000, 2.000000000000, -1.703125000000, 1491363067
0.069824218750, 0.939208984375, -0.354248046875, -2.578125000000, -0.273437500000, -2.187500000000, 1491363067
0.069824218750, 0.939208984375, -0.354248046875, -2.578125000000, -0.273437500000, -2.187500000000, 1491363067
0.069824218750, 0.939208984375, -0.354248046875, -2.578125000000, -0.273437500000, -2.187500000000, 1491363067
0.033203125000, 0.944335937500, -0.379882812500, -4.578125000000, -0.726562500000, -3.359375000000, 1491363067
0.033203125000, 0.944335937500, -0.379882812500, -4.578125000000, -0.726562500000, -3.359375000000, 1491363067
0.033203125000, 0.944335937500, -0.379882812500, -4.578125000000, -0.726562500000, -3.359375000000, 1491363067
0.061767578125, 0.894287109375, -0.414550781250, 2.101562500000, 4.750000000000, -2.820312500000, 1491363067
0.061767578125, 0.894287109375, -0.414550781250, 2.101562500000, 4.750000000000, -2.820312500000, 1491363067
0.061767578125, 0.894287109375, -0.414550781250, 2.101562500000, 4.750000000000, -2.820312500000, 1491363067
0.061767578125, 0.894287109375, -0.414550781250, 2.101562500000, 4.750000000000, -2.820312500000, 1491363067
0.106689453125, 0.933593750000, -0.295410156250, -2.750000000000, -2.664062500000, -6.562500000000, 1491363067
0.106689453125, 0.933593750000, -0.295410156250, -2.750000000000, -2.664062500000, -6.562500000000, 1491363067
0.106689453125, 0.933593750000, -0.295410156250, -2.750000000000, -2.664062500000, -6.562500000000, 1491363067
0.045410156250, 1.007812500000, -0.365478515625, 0.062500000000, 4.015625000000, -2.164062500000, 1491363067
0.045410156250, 1.007812500000, -0.365478515625, 0.062500000000, 4.015625000000, -2.164062500000, 1491363067
0.045410156250, 1.007812500000, -0.365478515625, 0.062500000000, 4.015625000000, -2.164062500000, 1491363067
0.056396484375, 0.870849609375, -0.403320312500, -4.539062500000, -4.171875000000, -1.648437500000, 1491363067
0.056396484375, 0.870849609375, -0.403320312500, -4.539062500000, -4.171875000000, -1.648437500000, 1491363067
0.056396484375, 0.870849609375, -0.403320312500, -4.539062500000, -4.171875000000, -1.648437500000, 1491363067
0.059814453125, 0.850341796875, -0.344726562500, -0.742187500000, 4.976562500000, -6.078125000000, 1491363067
0.059814453125, 0.850341796875, -0.344726562500, -0.742187500000, 4.976562500000, -6.078125000000, 1491363067
0.059814453125, 0.850341796875, -0.344726562500, -0.742187500000, 4.976562500000, -6.078125000000, 1491363067
0.059814453125, 0.850341796875, -0.344726562500, -0.742187500000, 4.976562500000, -6.078125000000, 1491363067
0.194091796875, 0.914306640625, -0.281250000000, -2.031250000000, -1.726562500000, -4.695312500000, 1491363067
0.194091796875, 0.914306640625, -0.281250000000, -2.031250000000, -1.726562500000, -4.695312500000, 1491363067
0.194091796875, 0.914306640625, -0.281250000000, -2.031250000000, -1.726562500000, -4.695312500000, 1491363067
0.040039062500, 0.848876953125, -0.442138671875, -2.750000000000, 2.414062500000, -4.953125000000, 1491363067
0.040039062500, 0.848876953125, -0.442138671875, -2.750000000000, 2.414062500000, -4.953125000000, 1491363067
0.040039062500, 0.848876953125, -0.442138671875, -2.750000000000, 2.414062500000, -4.953125000000, 1491363067
0.062011718750, 0.931152343750, -0.392089843750, -2.968750000000, 0.671875000000, -4.429687500000, 1491363067
0.062011718750, 0.931152343750, -0.392089843750, -2.968750000000, 0.671875000000, -4.429687500000, 1491363067
0.064453125000, 0.848388671875, -0.301757812500, -2.625000000000, -0.109375000000, -4.875000000000, 1491363068
0.064453125000, 0.848388671875, -0.301757812500, -2.625000000000, -0.109375000000, -4.875000000000, 1491363068
0.064453125000, 0.848388671875, -0.301757812500, -2.625000000000, -0.109375000000, -4.875000000000, 1491363068
0.064453125000, 0.848388671875, -0.301757812500, -2.625000000000, -0.109375000000, -4.875000000000, 1491363068
0.068603515625, 1.006103515625, -0.306396484375, 0.312500000000, -1.500000000000, -3.625000000000, 1491363068
0.141601562500, 0.963134765625, -0.380859375000, 0.312500000000, -1.500000000000, -3.625000000000, 1491363068
0.141601562500, 0.963134765625, -0.380859375000, 0.312500000000, -1.500000000000, -3.625000000000, 1491363068
0.141601562500, 0.963134765625, -0.380859375000, 0.312500000000, -1.500000000000, -3.625000000000, 1491363068
0.046875000000, 0.965087890625, -0.373291015625, -0.476562500000, -1.000000000000, -4.148437500000, 1491363068
0.046875000000, 0.965087890625, -0.373291015625, -0.476562500000, -1.000000000000, -4.148437500000, 1491363068
0.046875000000, 0.965087890625, -0.373291015625, -0.476562500000, -1.000000000000, -4.148437500000, 1491363068
0.131835937500, 0.852539062500, -0.350097656250, -2.625000000000, -2.835937500000, -2.929687500000, 1491363068
0.131835937500, 0.852539062500, -0.350097656250, -2.625000000000, -2.835937500000, -2.929687500000, 1491363068
0.126708984375, 0.903320312500, -0.397949218750, -5.484375000000, -3.367187500000, 0.304687500000, 1491363068
0.126708984375, 0.903320312500, -0.397949218750, -5.484375000000, -3.367187500000, 0.304687500000, 1491363068
0.126708984375, 0.903320312500, -0.397949218750, -5.484375000000, -3.367187500000, 0.304687500000, 1491363068
0.126708984375, 0.903320312500, -0.397949218750, -5.484375000000, -3.367187500000, 0.304687500000, 1491363068
0.126708984375, 0.903320312500, -0.397949218750, -5.484375000000, -3.367187500000, 0.304687500000, 1491363068
0.094482421875, 0.985839843750, -0.385742187500, -8.468750000000, 10.101562500000, 3.578125000000, 1491363068
0.094482421875, 0.985839843750, -0.385742187500, -8.468750000000, 10.101562500000, 3.578125000000, 1491363068
0.094482421875, 0.985839843750, -0.385742187500, -8.468750000000, 10.101562500000, 3.578125000000, 1491363068
0.118896484375, 0.846923828125, -0.396728515625, -4.000000000000, 11.398437500000, 6.250000000000, 1491363068
0.118896484375, 0.846923828125, -0.396728515625, -4.000000000000, 11.398437500000, 6.250000000000, 1491363068
0.118896484375, 0.846923828125, -0.396728515625, -4.000000000000, 11.398437500000, 6.250000000000, 1491363068
-0.007812500000, 0.879638671875, -0.309814453125, 2.046875000000, 25.750000000000, 10.929687500000, 1491363068
-0.007812500000, 0.879638671875, -0.309814453125, 2.046875000000, 25.750000000000, 10.929687500000, 1491363068
-0.060058593750, 0.851074218750, -0.319580078125, 7.710937500000, 14.718750000000, 15.945312500000, 1491363068
-0.060058593750, 0.851074218750, -0.319580078125, 7.710937500000, 14.718750000000, 15.945312500000, 1491363068
-0.060058593750, 0.851074218750, -0.319580078125, 7.710937500000, 14.718750000000, 15.945312500000, 1491363068
-0.060058593750, 0.851074218750, -0.319580078125, 7.710937500000, 14.718750000000, 15.945312500000, 1491363068
-0.060058593750, 0.851074218750, -0.319580078125, 7.710937500000, 14.718750000000, 15.945312500000, 1491363068
-0.072021484375, 0.903076171875, -0.324218750000, 22.070312500000, 80.234375000000, 34.421875000000, 1491363068
-0.072021484375, 0.903076171875, -0.324218750000, 22.070312500000, 80.234375000000, 34.421875000000, 1491363068
-0.072021484375, 0.903076171875, -0.324218750000, 22.070312500000, 80.234375000000, 34.421875000000, 1491363068
0.140869140625, 0.870605468750, -0.529541015625, 25.679687500000, 57.750000000000, 28.992187500000, 1491363068
0.140869140625, 0.870605468750, -0.529541015625, 25.679687500000, 57.750000000000, 28.992187500000, 1491363068
0.140869140625, 0.870605468750, -0.529541015625, 25.679687500000, 57.750000000000, 28.992187500000, 1491363068
0.132080078125, 0.799804687500, -0.294189453125, -2.671875000000, -7.023437500000, -6.562500000000, 1491363068
0.132080078125, 0.799804687500, -0.294189453125, -2.671875000000, -7.023437500000, -6.562500000000, 1491363068
0.132080078125, 0.799804687500, -0.294189453125, -2.671875000000, -7.023437500000, -6.562500000000, 1491363068
0.054687500000, 0.796142578125, -0.386962890625, 6.476562500000, 4.476562500000, -8.179687500000, 1491363068
0.017578125000, 0.748535156250, -0.466796875000, 4.250000000000, -1.164062500000, -8.945312500000, 1491363068
0.017578125000, 0.748535156250, -0.466796875000, 4.250000000000, -1.164062500000, -8.945312500000, 1491363068
0.017578125000, 0.748535156250, -0.466796875000, 4.250000000000, -1.164062500000, -8.945312500000, 1491363068
0.017578125000, 0.748535156250, -0.466796875000, 4.250000000000, -1.164062500000, -8.945312500000, 1491363068
-0.066162109375, 0.897216796875, -0.453613281250, 4.015625000000, -10.921875000000, -2.375000000000, 1491363068
-0.066162109375, 0.897216796875, -0.453613281250, 4.015625000000, -10.921875000000, -2.375000000000, 1491363068
-0.066162109375, 0.897216796875, -0.453613281250, 4.015625000000, -10.921875000000, -2.375000000000, 1491363068
-0.066162109375, 0.897216796875, -0.453613281250, 4.015625000000, -10.921875000000, -2.375000000000, 1491363068
-0.066162109375, 0.897216796875, -0.453613281250, 4.015625000000, -10.921875000000, -2.375000000000, 1491363068
0.009277343750, 0.962158203125, -0.389160156250, -8.578125000000, -14.000000000000, -7.015625000000, 1491363068
0.009277343750, 0.962158203125, -0.389160156250, -8.578125000000, -14.000000000000, -7.015625000000, 1491363068
0.009277343750, 0.962158203125, -0.389160156250, -8.578125000000, -14.000000000000, -7.015625000000, 1491363068
-0.076416015625, 1.011230468750, -0.438964843750, -11.156250000000, -16.000000000000, -32.125000000000, 1491363068
-0.076416015625, 1.011230468750, -0.438964843750, -11.156250000000, -16.000000000000, -32.125000000000, 1491363068
-0.076416015625, 1.011230468750, -0.438964843750, -11.156250000000, -16.000000000000, -32.125000000000, 1491363068
-0.076416015625, 1.011230468750, -0.438964843750, -11.156250000000, -16.000000000000, -32.125000000000, 1491363068
-0.086914062500, 1.134521484375, -0.399169921875, -23.640625000000, 3.656250000000, -25.273437500000, 1491363068
-0.086914062500, 1.134521484375, -0.399169921875, -23.640625000000, 3.656250000000, -25.273437500000, 1491363068
-0.086914062500, 1.134521484375, -0.399169921875, -23.640625000000, 3.656250000000, -25.273437500000, 1491363068
-0.019287109375, 1.060791015625, -0.230224609375, 4.625000000000, -20.960937500000, -24.632812500000, 1491363068
-0.019287109375, 1.060791015625, -0.230224609375, 4.625000000000, -20.960937500000, -24.632812500000, 1491363068
-0.019287109375, 1.060791015625, -0.230224609375, 4.625000000000, -20.960937500000, -24.632812500000, 1491363068
0.137207031250, 1.281005859375, -0.291259765625, -25.140625000000, -21.492187500000, -22.914062500000, 1491363068
0.137207031250, 1.281005859375, -0.291259765625, -25.140625000000, -21.492187500000, -22.914062500000, 1491363068
0.137207031250, 1.281005859375, -0.291259765625, -25.140625000000, -21.492187500000, -22.914062500000, 1491363068
0.054199218750, 1.081298828125, -0.286132812500, -9.382812500000, -26.445312500000, -18.179687500000, 1491363069
0.054199218750, 1.081298828125, -0.286132812500, -9.382812500000, -26.445312500000, -18.179687500000, 1491363069
0.054199218750, 1.081298828125, -0.286132812500, -9.382812500000, -26.445312500000, -18.179687500000, 1491363069
0.054199218750, 1.081298828125, -0.286132812500, -9.382812500000, -26.445312500000, -18.179687500000, 1491363069
0.093994140625, 0.726562500000, -0.207275390625, -1.953125000000, -30.015625000000, -14.445312500000, 1491363069
0.093994140625, 0.726562500000, -0.207275390625, -1.953125000000, -30.015625000000, -14.445312500000, 1491363069
0.093994140625, 0.726562500000, -0.207275390625, -1.953125000000, -30.015625000000, -14.445312500000, 1491363069
0.221435546875, 0.846435546875, -0.227783203125, -13.218750000000, -70.062500000000, -7.125000000000, 1491363069
0.221435546875, 0.846435546875, -0.227783203125, -13.218750000000, -70.062500000000, -7.125000000000, 1491363069
0.221435546875, 0.846435546875, -0.227783203125, -13.218750000000, -70.062500000000, -7.125000000000, 1491363069
0.275146484375, 0.740234375000, -0.236328125000, 11.257812500000, -54.218750000000, -9.468750000000, 1491363069
0.275146484375, 0.740234375000, -0.236328125000, 11.257812500000, -54.218750000000, -9.468750000000, 1491363069
0.275146484375, 0.740234375000, -0.236328125000, 11.257812500000, -54.218750000000, -9.468750000000, 1491363069
-0.071289062500, 0.853027343750, -0.177001953125, -4.648437500000, -18.312500000000, -5.117187500000, 1491363069
-0.071289062500, 0.853027343750, -0.177001953125, -4.648437500000, -18.312500000000, -5.117187500000, 1491363069
-0.071289062500, 0.853027343750, -0.177001953125, -4.648437500000, -18.312500000000, -5.117187500000, 1491363069
-0.071289062500, 0.853027343750, -0.177001953125, -4.648437500000, -18.312500000000, -5.117187500000, 1491363069
0.086914062500, 0.851318359375, -0.237304687500, 19.367187500000, 2.335937500000, 8.539062500000, 1491363069
0.086914062500, 0.851318359375, -0.237304687500, 19.367187500000, 2.335937500000, 8.539062500000, 1491363069
0.086914062500, 0.851318359375, -0.237304687500, 19.367187500000, 2.335937500000, 8.539062500000, 1491363069
0.154052734375, 0.784423828125, -0.430419921875, 4.703125000000, -3.929687500000, 13.179687500000, 1491363069
0.154052734375, 0.784423828125, -0.430419921875, 4.703125000000, -3.929687500000, 13.179687500000, 1491363069
0.154052734375, 0.784423828125, -0.430419921875, 4.703125000000, -3.929687500000, 13.179687500000, 1491363069
0.114257812500, 0.825195312500, -0.334228515625, -0.070312500000, -4.437500000000, 13.437500000000, 1491363069
0.114257812500, 0.825195312500, -0.334228515625, -0.070312500000, -4.437500000000, 13.437500000000, 1491363069
0.114257812500, 0.825195312500, -0.334228515625, -0.070312500000, -4.437500000000, 13.437500000000, 1491363069
0.043212890625, 0.932373046875, -0.294433593750, -7.328125000000, 8.132812500000, 19.515625000000, 1491363069
0.043212890625, 0.932373046875, -0.294433593750, -7.328125000000, 8.132812500000, 19.515625000000, 1491363069
0.043212890625, 0.932373046875, -0.294433593750, -7.328125000000, 8.132812500000, 19.515625000000, 1491363069
0.050048828125, 1.001953125000, -0.345458984375, -7.585937500000, 7.875000000000, 20.539062500000, 1491363069
0.050048828125, 1.001953125000, -0.345458984375, -7.585937500000, 7.875000000000, 20.539062500000, 1491363069
-0.071289062500, 1.197509765625, -0.578857421875, -16.906250000000, 6.421875000000, 27.054687500000, 1491363069
-0.071289062500, 1.197509765625, -0.578857421875, -16.906250000000, 6.421875000000, 27.054687500000, 1491363069
-0.071289062500, 1.197509765625, -0.578857421875, -16.906250000000, 6.421875000000, 27.054687500000, 1491363069
-0.071289062500, 1.197509765625, -0.578857421875, -16.906250000000, 6.421875000000, 27.054687500000, 1491363069
-0.071289062500, 1.197509765625, -0.578857421875, -16.906250000000, 6.421875000000, 27.054687500000, 1491363069
-0.150878906250, 1.036865234375, -0.220703125000, 6.531250000000, 19.023437500000, 26.820312500000, 1491363069
-0.150878906250, 1.036865234375, -0.220703125000, 6.531250000000, 19.023437500000, 26.820312500000, 1491363069
-0.150878906250, 1.036865234375, -0.220703125000, 6.531250000000, 19.023437500000, 26.820312500000, 1491363069
-0.031250000000, 1.037109375000, -0.168212890625, -11.671875000000, 19.421875000000, 25.039062500000, 1491363069
-0.031250000000, 1.037109375000, -0.168212890625, -11.671875000000, 19.421875000000, 25.039062500000, 1491363069
-0.031250000000, 1.037109375000, -0.168212890625, -11.671875000000, 19.421875000000, 25.039062500000, 1491363069
-0.031250000000, 1.037109375000, -0.168212890625, -11.671875000000, 19.421875000000, 25.039062500000, 1491363069
-0.060302734375, 0.830566406250, -0.194824218750, -5.242187500000, 56.359375000000, 18.898437500000, 1491363069
-0.060302734375, 0.830566406250, -0.194824218750, -5.242187500000, 56.359375000000, 18.898437500000, 1491363069
-0.060302734375, 0.830566406250, -0.194824218750, -5.242187500000, 56.359375000000, 18.898437500000, 1491363069
-0.191406250000, 0.831298828125, -0.142089843750, -9.640625000000, 36.671875000000, 21.367187500000, 1491363069
-0.191406250000, 0.831298828125, -0.142089843750, -9.640625000000, 36.671875000000, 21.367187500000, 1491363069
-0.191406250000, 0.831298828125, -0.142089843750, -9.640625000000, 36.671875000000, 21.367187500000, 1491363069
-0.174560546875, 0.916259765625, -0.178222656250, -3.085937500000, 27.242187500000, 15.703125000000, 1491363069
-0.174560546875, 0.916259765625, -0.178222656250, -3.085937500000, 27.242187500000, 15.703125000000, 1491363069
0.080322265625, 0.905517578125, -0.167968750000, 4.304687500000, 46.398437500000, 0.523437500000, 1491363069
0.080322265625, 0.905517578125, -0.167968750000, 4.304687500000, 46.398437500000, 0.523437500000, 1491363069
0.080322265625, 0.905517578125, -0.167968750000, 4.304687500000, 46.398437500000, 0.523437500000, 1491363069
0.080322265625, 0.905517578125, -0.167968750000, 4.304687500000, 46.398437500000, 0.523437500000, 1491363069
0.139404296875, 0.918457031250, -0.334472656250, 18.273437500000, -13.351562500000, -16.250000000000, 1491363069
0.139404296875, 0.918457031250, -0.334472656250, 18.273437500000, -13.351562500000, -16.250000000000, 1491363069
0.139404296875, 0.918457031250, -0.334472656250, 18.273437500000, -13.351562500000, -16.250000000000, 1491363069
-0.088378906250, 0.816162109375, -0.327880859375, -5.414062500000, -18.609375000000, -16.835937500000, 1491363069
-0.088378906250, 0.816162109375, -0.327880859375, -5.414062500000, -18.609375000000, -16.835937500000, 1491363069
-0.088378906250, 0.816162109375, -0.327880859375, -5.414062500000, -18.609375000000, -16.835937500000, 1491363069
-0.088378906250, 0.816162109375, -0.327880859375, -5.414062500000, -18.609375000000, -16.835937500000, 1491363069
-0.186767578125, 0.801757812500, -0.398193359375, -8.398437500000, 14.492187500000, -7.507812500000, 1491363069
-0.186767578125, 0.801757812500, -0.398193359375, -8.398437500000, 14.492187500000, -7.507812500000, 1491363069
-0.186767578125, 0.801757812500, -0.398193359375, -8.398437500000, 14.492187500000, -7.507812500000, 1491363069
-0.090820312500, 0.967773437500, -0.287597656250, -9.101562500000, -21.601562500000, -22.429687500000, 1491363070
-0.090820312500, 0.967773437500, -0.287597656250, -9.101562500000, -21.601562500000, -22.429687500000, 1491363070
-0.090820312500, 0.967773437500, -0.287597656250, -9.101562500000, -21.601562500000, -22.429687500000, 1491363070
-0.090820312500, 0.967773437500, -0.287597656250, -9.101562500000, -21.601562500000, -22.429687500000, 1491363070
-0.090820312500, 0.967773437500, -0.287597656250, -9.101562500000, -21.601562500000, -22.429687500000, 1491363070
-0.208496093750, 0.926513671875, -0.235351562500, -5.992187500000, -8.726562500000, -25.468750000000, 1491363070
-0.208496093750, 0.926513671875, -0.235351562500, -5.992187500000, -8.726562500000, -25.468750000000, 1491363070
-0.208496093750, 0.926513671875, -0.235351562500, -5.992187500000, -8.726562500000, -25.468750000000, 1491363070
-0.208496093750, 0.926513671875, -0.235351562500, -5.992187500000, -8.726562500000, -25.468750000000, 1491363070
-0.208496093750, 0.926513671875, -0.235351562500, -5.992187500000, -8.726562500000, -25.468750000000, 1491363070
-0.161132812500, 0.934082031250, -0.307373046875, -2.382812500000, -23.312500000000, -24.890625000000, 1491363070
-0.161132812500, 0.934082031250, -0.307373046875, -2.382812500000, -23.312500000000, -24.890625000000, 1491363070
0.086181640625, 1.104492187500, -0.347656250000, -50.734375000000, 44.101562500000, -29.117187500000, 1491363070
0.086181640625, 1.104492187500, -0.347656250000, -50.734375000000, 44.101562500000, -29.117187500000, 1491363070
0.086181640625, 1.104492187500, -0.347656250000, -50.734375000000, 44.101562500000, -29.117187500000, 1491363070
0.086181640625, 1.104492187500, -0.347656250000, -50.734375000000, 44.101562500000, -29.117187500000, 1491363070
0.086181640625, 1.104492187500, -0.347656250000, -50.734375000000, 44.101562500000, -29.117187500000, 1491363070
0.123046875000, 1.350585937500, -0.426513671875, -36.515625000000, -27.226562500000, -16.218750000000, 1491363070
0.123046875000, 1.350585937500, -0.426513671875, -36.515625000000, -27.226562500000, -16.218750000000, 1491363070
0.123046875000, 1.350585937500, -0.426513671875, -36.515625000000, -27.226562500000, -16.218750000000, 1491363070
0.017822265625, 0.974365234375, -0.257080078125, -18.281250000000, -33.304687500000, -23.484375000000, 1491363070
0.017822265625, 0.974365234375, -0.257080078125, -18.281250000000, -33.304687500000, -23.484375000000, 1491363070
0.017822265625, 0.974365234375, -0.257080078125, -18.281250000000, -33.304687500000, -23.484375000000, 1491363070
0.055908203125, 0.837402343750, -0.267578125000, 1.273437500000, -18.734375000000, -10.039062500000, 1491363070
0.055908203125, 0.837402343750, -0.267578125000, 1.273437500000, -18.734375000000, -10.039062500000, 1491363070
0.055908203125, 0.837402343750, -0.267578125000, 1.273437500000, -18.734375000000, -10.039062500000, 1491363070
0.288330078125, 0.852050781250, -0.260009765625, 3.375000000000, -102.031250000000, -20.250000000000, 1491363070
0.288330078125, 0.852050781250, -0.260009765625, 3.375000000000, -102.031250000000, -20.250000000000, 1491363070
0.288330078125, 0.852050781250, -0.260009765625, 3.375000000000, -102.031250000000, -20.250000000000, 1491363070
0.288330078125, 0.852050781250, -0.260009765625, 3.375000000000, -102.031250000000, -20.250000000000, 1491363070
0.128662109375, 0.790527343750, -0.324218750000, 10.125000000000, -37.820312500000, -10.625000000000, 1491363070
0.128662109375, 0.790527343750, -0.324218750000, 10.125000000000, -37.820312500000, -10.625000000000, 1491363070
0.128662109375, 0.790527343750, -0.324218750000, 10.125000000000, -37.820312500000, -10.625000000000, 1491363070
-0.128173828125, 0.861572265625, -0.151367187500, -6.664062500000, -25.523437500000, -8.570312500000, 1491363070
-0.128173828125, 0.861572265625, -0.151367187500, -6.664062500000, -25.523437500000, -8.570312500000, 1491363070
-0.128173828125, 0.861572265625, -0.151367187500, -6.664062500000, -25.523437500000, -8.570312500000, 1491363070
-0.006835937500, 0.906982421875, -0.275146484375, 30.703125000000, -2.070312500000, 2.437500000000, 1491363070
-0.006835937500, 0.906982421875, -0.275146484375, 30.703125000000, -2.070312500000, 2.437500000000, 1491363070
-0.006835937500, 0.906982421875, -0.275146484375, 30.703125000000, -2.070312500000, 2.437500000000, 1491363070
0.041503906250, 0.846435546875, -0.475097656250, -5.281250000000, -22.046875000000, 2.125000000000, 1491363070
0.041503906250, 0.846435546875, -0.475097656250, -5.281250000000, -22.046875000000, 2.125000000000, 1491363070
0.041503906250, 0.846435546875, -0.475097656250, -5.281250000000, -22.046875000000, 2.125000000000, 1491363070
0.041503906250, 0.846435546875, -0.475097656250, -5.281250000000, -22.046875000000, 2.125000000000, 1491363070
0.080322265625, 0.865722656250, -0.238281250000, -6.585937500000, -10.656250000000, 1.445312500000, 1491363070
0.080322265625, 0.865722656250, -0.238281250000, -6.585937500000, -10.656250000000, 1.445312500000, 1491363070
0.080322265625, 0.865722656250, -0.238281250000, -6.585937500000, -10.656250000000, 1.445312500000, 1491363070
-0.072509765625, 0.783447265625, -0.295410156250, 8.578125000000, 15.562500000000, 16.164062500000, 1491363070
-0.072509765625, 0.783447265625, -0.295410156250, 8.578125000000, 15.562500000000, 16.164062500000, 1491363070
-0.072509765625, 0.783447265625, -0.295410156250, 8.578125000000, 15.562500000000, 16.164062500000, 1491363070
0.057373046875, 0.850830078125, -0.289794921875, -2.367187500000, 19.914062500000, 22.453125000000, 1491363070
0.057373046875, 0.850830078125, -0.289794921875, -2.367187500000, 19.914062500000, 22.453125000000, 1491363070
0.057373046875, 0.850830078125, -0.289794921875, -2.367187500000, 19.914062500000, 22.453125000000, 1491363070
-0.066406250000, 0.940673828125, -0.298095703125, 4.992187500000, -16.937500000000, 14.984375000000, 1491363070
-0.066406250000, 0.940673828125, -0.298095703125, 4.992187500000, -16.937500000000, 14.984375000000, 1491363070
-0.066406250000, 0.940673828125, -0.298095703125, 4.992187500000, -16.937500000000, 14.984375000000, 1491363070
-0.066406250000, 0.940673828125, -0.298095703125, 4.992187500000, -16.937500000000, 14.984375000000, 1491363070
-0.114501953125, 1.020263671875, -0.467285156250, -6.125000000000, 11.750000000000, 26.109375000000, 1491363070
-0.114501953125, 1.020263671875, -0.467285156250, -6.125000000000, 11.750000000000, 26.109375000000, 1491363070
-0.114501953125, 1.020263671875, -0.467285156250, -6.125000000000, 11.750000000000, 26.109375000000, 1491363070
-0.047363281250, 1.378173828125, -0.575195312500, -46.359375000000, 61.843750000000, 46.648437500000, 1491363070
-0.047363281250, 1.378173828125, -0.575195312500, -46.359375000000, 61.843750000000, 46.648437500000, 1491363070
-0.047363281250, 1.378173828125, -0.575195312500, -46.359375000000, 61.843750000000, 46.648437500000, 1491363070
-0.141601562500, 1.179199218750, -0.459472656250, -12.320312500000, 75.578125000000, 41.296875000000, 1491363070
-0.141601562500, 1.179199218750, -0.459472656250, -12.320312500000, 75.578125000000, 41.296875000000, 1491363070
-0.141601562500, 1.179199218750, -0.459472656250, -12.320312500000, 75.578125000000, 41.296875000000, 1491363070
-0.119628906250, 0.847656250000, -0.083251953125, 2.460937500000, 54.093750000000, 21.203125000000, 1491363070
-0.119628906250, 0.847656250000, -0.083251953125, 2.460937500000, 54.093750000000, 21.203125000000, 1491363070
-0.119628906250, 0.847656250000, -0.083251953125, 2.460937500000, 54.093750000000, 21.203125000000, 1491363070
-0.119628906250, 0.847656250000, -0.083251953125, 2.460937500000, 54.093750000000, 21.203125000000, 1491363070
-0.120849609375, 0.889404296875, -0.092041015625, 19.703125000000, 78.382812500000, 26.804687500000, 1491363071
-0.120849609375, 0.889404296875, -0.092041015625, 19.703125000000, 78.382812500000, 26.804687500000, 1491363071
-0.120849609375, 0.889404296875, -0.092041015625, 19.703125000000, 78.382812500000, 26.804687500000, 1491363071
-0.271972656250, 0.866943359375, -0.311035156250, 24.132812500000, 46.039062500000, 6.914062500000, 1491363071
-0.271972656250, 0.866943359375, -0.311035156250, 24.132812500000, 46.039062500000, 6.914062500000, 1491363071
-0.271972656250, 0.866943359375, -0.311035156250, 24.132812500000, 46.039062500000, 6.914062500000, 1491363071
-0.089843750000, 0.857666015625, -0.392822265625, -1.718750000000, 38.601562500000, 4.789062500000, 1491363071
-0.089843750000, 0.857666015625, -0.392822265625, -1.718750000000, 38.601562500000, 4.789062500000, 1491363071
-0.089843750000, 0.857666015625, -0.392822265625, -1.718750000000, 38.601562500000, 4.789062500000, 1491363071
0.023193359375, 0.922363281250, -0.166503906250, 5.289062500000, 5.578125000000, -9.226562500000, 1491363071
0.023193359375, 0.922363281250, -0.166503906250, 5.289062500000, 5.578125000000, -9.226562500000, 1491363071
0.023193359375, 0.922363281250, -0.166503906250, 5.289062500000, 5.578125000000, -9.226562500000, 1491363071
0.023193359375, 0.922363281250, -0.166503906250, 5.289062500000, 5.578125000000, -9.226562500000, 1491363071
-0.109619140625, 0.875732421875, -0.386962890625, 15.867187500000, -37.328125000000, -15.679687500000, 1491363071
-0.109619140625, 0.875732421875, -0.386962890625, 15.867187500000, -37.328125000000, -15.679687500000, 1491363071
-0.339843750000, 0.901855468750, -0.284179687500, -15.000000000000, 29.734375000000, 0.953125000000, 1491363071
-0.339843750000, 0.901855468750, -0.284179687500, -15.000000000000, 29.734375000000, 0.953125000000, 1491363071
-0.339843750000, 0.901855468750, -0.284179687500, -15.000000000000, 29.734375000000, 0.953125000000, 1491363071
-0.339843750000, 0.901855468750, -0.284179687500, -15.000000000000, 29.734375000000, 0.953125000000, 1491363071
-0.104003906250, 0.961425781250, -0.332763671875, -8.617187500000, 33.289062500000, 2.171875000000, 1491363071
-0.104003906250, 0.961425781250, -0.332763671875, -8.617187500000, 33.289062500000, 2.171875000000, 1491363071
-0.104003906250, 0.961425781250, -0.332763671875, -8.617187500000, 33.289062500000, 2.171875000000, 1491363071
0.020507812500, 0.945068359375, -0.237792968750, 11.140625000000, -28.765625000000, -13.273437500000, 1491363071
0.020507812500, 0.945068359375, -0.237792968750, 11.140625000000, -28.765625000000, -13.273437500000, 1491363071
0.020507812500, 0.945068359375, -0.237792968750, 11.140625000000, -28.765625000000, -13.273437500000, 1491363071
0.020507812500, 0.945068359375, -0.237792968750, 11.140625000000, -28.765625000000, -13.273437500000, 1491363071
-0.146728515625, 0.896484375000, -0.334716796875, 1.968750000000, -34.148437500000, -24.398437500000, 1491363071
-0.146728515625, 0.896484375000, -0.334716796875, 1.968750000000, -34.148437500000, -24.398437500000, 1491363071
-0.146728515625, 0.896484375000, -0.334716796875, 1.968750000000, -34.148437500000, -24.398437500000, 1491363071
-0.149169921875, 0.804443359375, -0.444824218750, -16.531250000000, -22.734375000000, -24.492187500000, 1491363071
-0.149169921875, 0.804443359375, -0.444824218750, -16.531250000000, -22.734375000000, -24.492187500000, 1491363071
-0.149169921875, 0.804443359375, -0.444824218750, -16.531250000000, -22.734375000000, -24.492187500000, 1491363071
-0.125000000000, 0.947265625000, -0.408447265625, -26.765625000000, -3.898437500000, -19.218750000000, 1491363071
-0.125000000000, 0.947265625000, -0.408447265625, -26.765625000000, -3.898437500000, -19.218750000000, 1491363071
-0.125000000000, 0.947265625000, -0.408447265625, -26.765625000000, -3.898437500000, -19.218750000000, 1491363071
-0.133300781250, 1.053955078125, -0.447998046875, -28.195312500000, -34.742187500000, -22.414062500000, 1491363071
-0.133300781250, 1.053955078125, -0.447998046875, -28.195312500000, -34.742187500000, -22.414062500000, 1491363071
-0.133300781250, 1.053955078125, -0.447998046875, -28.195312500000, -34.742187500000, -22.414062500000, 1491363071
-0.133300781250, 1.053955078125, -0.447998046875, -28.195312500000, -34.742187500000, -22.414062500000, 1491363071
-0.044189453125, 1.107666015625, -0.263671875000, -34.257812500000, -2.984375000000, -59.507812500000, 1491363071
-0.044189453125, 1.107666015625, -0.263671875000, -34.257812500000, -2.984375000000, -59.507812500000, 1491363071
-0.044189453125, 1.107666015625, -0.263671875000, -34.257812500000, -2.984375000000, -59.507812500000, 1491363071
-0.024902343750, 0.951904296875, -0.261718750000, 15.210937500000, -33.414062500000, -17.476562500000, 1491363071
-0.024902343750, 0.951904296875, -0.261718750000, 15.210937500000, -33.414062500000, -17.476562500000, 1491363071
-0.024902343750, 0.951904296875, -0.261718750000, 15.210937500000, -33.414062500000, -17.476562500000, 1491363071
-0.082275390625, 0.935791015625, -0.335937500000, 6.687500000000, -25.062500000000, -28.695312500000, 1491363071
-0.082275390625, 0.935791015625, -0.335937500000, 6.687500000000, -25.062500000000, -28.695312500000, 1491363071
0.065673828125, 0.804931640625, -0.229492187500, -15.835937500000, 6.507812500000, -15.718750000000, 1491363071
0.065673828125, 0.804931640625, -0.229492187500, -15.835937500000, 6.507812500000, -15.718750000000, 1491363071
0.065673828125, 0.804931640625, -0.229492187500, -15.835937500000, 6.507812500000, -15.718750000000, 1491363071
0.065673828125, 0.804931640625, -0.229492187500, -15.835937500000, 6.507812500000, -15.718750000000, 1491363071
0.065673828125, 0.804931640625, -0.229492187500, -15.835937500000, 6.507812500000, -15.718750000000, 1491363071
0.131103515625, 1.076660156250, -0.261962890625, -20.835937500000, 23.101562500000, -16.445312500000, 1491363071
0.131103515625, 1.076660156250, -0.261962890625, -20.835937500000, 23.101562500000, -16.445312500000, 1491363071
0.131103515625, 1.076660156250, -0.261962890625, -20.835937500000, 23.101562500000, -16.445312500000, 1491363071
0.159179687500, 0.929931640625, -0.208984375000, 17.945312500000, -72.570312500000, -30.851562500000, 1491363071
0.159179687500, 0.929931640625, -0.208984375000, 17.945312500000, -72.570312500000, -30.851562500000, 1491363071
0.159179687500, 0.929931640625, -0.208984375000, 17.945312500000, -72.570312500000, -30.851562500000, 1491363071
0.251220703125, 0.962890625000, -0.273681640625, 29.195312500000, -67.601562500000, -24.140625000000, 1491363071
0.251220703125, 0.962890625000, -0.273681640625, 29.195312500000, -67.601562500000, -24.140625000000, 1491363071
0.251220703125, 0.962890625000, -0.273681640625, 29.195312500000, -67.601562500000, -24.140625000000, 1491363071
-0.028808593750, 1.011962890625, -0.382080078125, -5.890625000000, -54.062500000000, -17.718750000000, 1491363071
-0.028808593750, 1.011962890625, -0.382080078125, -5.890625000000, -54.062500000000, -17.718750000000, 1491363071
-0.028808593750, 1.011962890625, -0.382080078125, -5.890625000000, -54.062500000000, -17.718750000000, 1491363071
-0.028808593750, 1.011962890625, -0.382080078125, -5.890625000000, -54.062500000000, -17.718750000000, 1491363071
0.071777343750, 0.980468750000, -0.172851562500, -6.023437500000, 1.906250000000, -2.929687500000, 1491363071
0.071777343750, 0.980468750000, -0.172851562500, -6.023437500000, 1.906250000000, -2.929687500000, 1491363072
0.071777343750, 0.980468750000, -0.172851562500, -6.023437500000, 1.906250000000, -2.929687500000, 1491363072
0.084472656250, 0.919433593750, -0.273437500000, 4.554687500000, -5.835937500000, 0.437500000000, 1491363072
0.084472656250, 0.919433593750, -0.273437500000, 4.554687500000, -5.835937500000, 0.437500000000, 1491363072
0.084472656250, 0.919433593750, -0.273437500000, 4.554687500000, -5.835937500000, 0.437500000000, 1491363072
0.113769531250, 0.939697265625, -0.254882812500, 15.273437500000, 16.304687500000, 5.453125000000, 1491363072
0.113769531250, 0.939697265625, -0.254882812500, 15.273437500000, 16.304687500000, 5.453125000000, 1491363072
-0.029052734375, 0.861083984375, -0.310058593750, 1.820312500000, -10.351562500000, 1.250000000000, 1491363072
-0.029052734375, 0.861083984375, -0.310058593750, 1.820312500000, -10.351562500000, 1.250000000000, 1491363072
-0.029052734375, 0.861083984375, -0.310058593750, 1.820312500000, -10.351562500000, 1.250000000000, 1491363072
-0.029052734375, 0.861083984375, -0.310058593750, 1.820312500000, -10.351562500000, 1.250000000000, 1491363072
-0.029052734375, 0.861083984375, -0.310058593750, 1.820312500000, -10.351562500000, 1.250000000000, 1491363072
0.033447265625, 0.940673828125, -0.379882812500, 3.500000000000, 20.585937500000, 9.039062500000, 1491363072
0.033447265625, 0.940673828125, -0.379882812500, 3.500000000000, 20.585937500000, 9.039062500000, 1491363072
0.033447265625, 0.940673828125, -0.379882812500, 3.500000000000, 20.585937500000, 9.039062500000, 1491363072
0.130615234375, 0.923339843750, -0.429199218750, -10.718750000000, 20.750000000000, 9.835937500000, 1491363072
0.130615234375, 0.923339843750, -0.429199218750, -10.718750000000, 20.750000000000, 9.835937500000, 1491363072
0.130615234375, 0.923339843750, -0.429199218750, -10.718750000000, 20.750000000000, 9.835937500000, 1491363072
-0.016357421875, 0.907226562500, -0.366210937500, -11.851562500000, 19.093750000000, 12.070312500000, 1491363072
-0.016357421875, 0.907226562500, -0.366210937500, -11.851562500000, 19.093750000000, 12.070312500000, 1491363072
-0.016357421875, 0.907226562500, -0.366210937500, -11.851562500000, 19.093750000000, 12.070312500000, 1491363072
-0.090087890625, 0.829345703125, -0.221191406250, -1.546875000000, -0.343750000000, 12.890625000000, 1491363072
-0.090087890625, 0.829345703125, -0.221191406250, -1.546875000000, -0.343750000000, 12.890625000000, 1491363072
-0.090087890625, 0.829345703125, -0.221191406250, -1.546875000000, -0.343750000000, 12.890625000000, 1491363072
-0.090087890625, 0.829345703125, -0.221191406250, -1.546875000000, -0.343750000000, 12.890625000000, 1491363072
-0.017333984375, 0.889648437500, -0.340820312500, 12.718750000000, -14.515625000000, 3.367187500000, 1491363072
-0.017333984375, 0.889648437500, -0.340820312500, 12.718750000000, -14.515625000000, 3.367187500000, 1491363072
-0.017333984375, 0.889648437500, -0.340820312500, 12.718750000000, -14.515625000000, 3.367187500000, 1491363072
-0.215087890625, 0.763427734375, -0.447509765625, 1.992187500000, -15.882812500000, 16.710937500000, 1491363072
-0.215087890625, 0.763427734375, -0.447509765625, 1.992187500000, -15.882812500000, 16.710937500000, 1491363072
-0.215087890625, 0.763427734375, -0.447509765625, 1.992187500000, -15.882812500000, 16.710937500000, 1491363072
-0.126464843750, 0.890869140625, -0.262451171875, 3.218750000000, -4.906250000000, -1.117187500000, 1491363072
-0.126464843750, 0.890869140625, -0.262451171875, 3.218750000000, -4.906250000000, -1.117187500000, 1491363072
-0.126464843750, 0.890869140625, -0.262451171875, 3.218750000000, -4.906250000000, -1.117187500000, 1491363072
-0.045898437500, 0.759033203125, -0.237304687500, 32.203125000000, 0.929687500000, -12.640625000000, 1491363072
-0.045898437500, 0.759033203125, -0.237304687500, 32.203125000000, 0.929687500000, -12.640625000000, 1491363072
-0.045898437500, 0.759033203125, -0.237304687500, 32.203125000000, 0.929687500000, -12.640625000000, 1491363072
-0.045898437500, 0.759033203125, -0.237304687500, 32.203125000000, 0.929687500000, -12.640625000000, 1491363072
0.005126953125, 0.818847656250, -0.291259765625, 31.656250000000, -7.640625000000, -13.796875000000, 1491363072
0.005126953125, 0.818847656250, -0.291259765625, 31.656250000000, -7.640625000000, -13.796875000000, 1491363072
0.005126953125, 0.818847656250, -0.291259765625, 31.656250000000, -7.640625000000, -13.796875000000, 1491363072
-0.042968750000, 0.799804687500, -0.280273437500, 45.031250000000, 10.851562500000, -22.851562500000, 1491363072
-0.042968750000, 0.799804687500, -0.280273437500, 45.031250000000, 10.851562500000, -22.851562500000, 1491363072
-0.042968750000, 0.799804687500, -0.280273437500, 45.031250000000, 10.851562500000, -22.851562500000, 1491363072
0.011718750000, 0.694335937500, -0.194335937500, 58.984375000000, -5.273437500000, -25.117187500000, 1491363072
0.011718750000, 0.694335937500, -0.194335937500, 58.984375000000, -5.273437500000, -25.117187500000, 1491363072
0.011718750000, 0.694335937500, -0.194335937500, 58.984375000000, -5.273437500000, -25.117187500000, 1491363072
-0.028564453125, 0.642089843750, -0.072509765625, 63.460937500000, -12.960937500000, -23.171875000000, 1491363072
-0.045898437500, 0.639160156250, -0.103759765625, 72.632812500000, -100.117187500000, -26.718750000000, 1491363072
-0.045898437500, 0.639160156250, -0.103759765625, 72.632812500000, -100.117187500000, -26.718750000000, 1491363072
-0.045898437500, 0.639160156250, -0.103759765625, 72.632812500000, -100.117187500000, -26.718750000000, 1491363072
-0.045898437500, 0.639160156250, -0.103759765625, 72.632812500000, -100.117187500000, -26.718750000000, 1491363072
-0.045898437500, 0.639160156250, -0.103759765625, 72.632812500000, -100.117187500000, -26.718750000000, 1491363072
-0.098876953125, 0.492919921875, -0.094726562500, 69.960937500000, -68.656250000000, -37.757812500000, 1491363072
-0.098876953125, 0.492919921875, -0.094726562500, 69.960937500000, -68.656250000000, -37.757812500000, 1491363072
-0.098876953125, 0.492919921875, -0.094726562500, 69.960937500000, -68.656250000000, -37.757812500000, 1491363072
-0.098876953125, 0.492919921875, -0.094726562500, 69.960937500000, -68.656250000000, -37.757812500000, 1491363072
-0.202148437500, 0.430664062500, -0.197753906250, 94.257812500000, -32.718750000000, -75.296875000000, 1491363072
-0.202148437500, 0.430664062500, -0.197753906250, 94.257812500000, -32.718750000000, -75.296875000000, 1491363072
-0.202148437500, 0.430664062500, -0.197753906250, 94.257812500000, -32.718750000000, -75.296875000000, 1491363072
-0.020996093750, 0.405029296875, -0.119873046875, 98.773437500000, -69.070312500000, -90.156250000000, 1491363072
-0.020996093750, 0.405029296875, -0.119873046875, 98.773437500000, -69.070312500000, -90.156250000000, 1491363072
-0.020996093750, 0.405029296875, -0.119873046875, 98.773437500000, -69.070312500000, -90.156250000000, 1491363072
-0.020996093750, 0.405029296875, -0.119873046875, 98.773437500000, -69.070312500000, -90.156250000000, 1491363072
-0.056152343750, 0.400390625000, -0.038574218750, 111.468750000000, -169.296875000000, -59.187500000000, 1491363072
-0.056152343750, 0.400390625000, -0.038574218750, 111.468750000000, -169.296875000000, -59.187500000000, 1491363072
-0.056152343750, 0.400390625000, -0.038574218750, 111.468750000000, -169.296875000000, -59.187500000000, 1491363072
-0.060058593750, 0.196044921875, -0.032714843750, 87.257812500000, -117.945312500000, 26.812500000000, 1491363073
-0.060058593750, 0.196044921875, -0.032714843750, 87.257812500000, -117.945312500000, 26.812500000000, 1491363073
-0.060058593750, 0.196044921875, -0.032714843750, 87.257812500000, -117.945312500000, 26.812500000000, 1491363073
-0.060791015625, 0.218994140625, -0.123046875000, -54.101562500000, -15.421875000000, 31.023437500000, 1491363073
-0.060791015625, 0.218994140625, -0.123046875000, -54.101562500000, -15.421875000000, 31.023437500000, 1491363073
-0.060791015625, 0.218994140625, -0.123046875000, -54.101562500000, -15.421875000000, 31.023437500000, 1491363073
0.061523437500, 0.883056640625, -0.073730468750, 253.992187500000, 253.992187500000, -182.796875000000, 1491363073
0.061523437500, 0.883056640625, -0.073730468750, 253.992187500000, 253.992187500000, -182.796875000000, 1491363073
0.061523437500, 0.883056640625, -0.073730468750, 253.992187500000, 253.992187500000, -182.796875000000, 1491363073
0.061523437500, 0.883056640625, -0.073730468750, 253.992187500000, 253.992187500000, -182.796875000000, 1491363073
0.061523437500, 0.883056640625, -0.073730468750, 253.992187500000, 253.992187500000, -182.796875000000, 1491363073
0.061523437500, 0.883056640625, -0.073730468750, 253.992187500000, 253.992187500000, -182.796875000000, 1491363073
4.031982421875, -8.000000000000, -2.653320312500, -150.695312500000, 141.664062500000, 253.992187500000, 1491363073
4.031982421875, -8.000000000000, -2.653320312500, -150.695312500000, 141.664062500000, 253.992187500000, 1491363073
4.031982421875, -8.000000000000, -2.653320312500, -150.695312500000, 141.664062500000, 253.992187500000, 1491363073
3.867675781250, -0.548095703125, 8.000000000000, -256.000000000000, 33.414062500000, 98.257812500000, 1491363073
3.867675781250, -0.548095703125, 8.000000000000, -256.000000000000, 33.414062500000, 98.257812500000, 1491363073
3.867675781250, -0.548095703125, 8.000000000000, -256.000000000000, 33.414062500000, 98.257812500000, 1491363073
3.867675781250, -0.548095703125, 8.000000000000, -256.000000000000, 33.414062500000, 98.257812500000, 1491363073
0.903808593750, 0.143554687500, 4.163818359375, 253.992187500000, -127.656250000000, -19.406250000000, 1491363073
0.903808593750, 0.143554687500, 4.163818359375, 253.992187500000, -127.656250000000, -19.406250000000, 1491363073
0.903808593750, 0.143554687500, 4.163818359375, 253.992187500000, -127.656250000000, -19.406250000000, 1491363073
0.267578125000, 0.097412109375, 0.730468750000, 253.992187500000, 210.531250000000, -17.789062500000, 1491363073
0.267578125000, 0.097412109375, 0.730468750000, 253.992187500000, 210.531250000000, -17.789062500000, 1491363073
0.261474609375, 0.104248046875, 0.748046875000, -138.390625000000, -61.875000000000, -40.804687500000, 1491363073
0.266357421875, 0.190185546875, 0.601806640625, 19.750000000000, 217.304687500000, -94.828125000000, 1491363073
0.266357421875, 0.190185546875, 0.601806640625, 19.750000000000, 217.304687500000, -94.828125000000, 1491363073
0.266357421875, 0.190185546875, 0.601806640625, 19.750000000000, 217.304687500000, -94.828125000000, 1491363073
0.266357421875, 0.190185546875, 0.601806640625, 19.750000000000, 217.304687500000, -94.828125000000, 1491363073
-0.173828125000, -0.074707031250, 0.553466796875, -256.000000000000, -8.164062500000, -19.937500000000, 1491363073
-0.173828125000, -0.074707031250, 0.553466796875, -256.000000000000, -8.164062500000, -19.937500000000, 1491363073
-0.323486328125, -0.277832031250, 1.181884765625, 25.367187500000, 64.914062500000, 2.382812500000, 1491363073
-0.058105468750, 0.317138671875, 1.204101562500, -86.554687500000, 44.695312500000, 4.289062500000, 1491363073
-0.058105468750, 0.317138671875, 1.204101562500, -86.554687500000, 44.695312500000, 4.289062500000, 1491363073
-0.058105468750, 0.317138671875, 1.204101562500, -86.554687500000, 44.695312500000, 4.289062500000, 1491363073
-0.058105468750, 0.317138671875, 1.204101562500, -86.554687500000, 44.695312500000, 4.289062500000, 1491363073
-0.012695312500, 0.604248046875, 1.709228515625, -19.875000000000, 15.312500000000, 4.453125000000, 1491363073
-0.012695312500, 0.604248046875, 1.709228515625, -19.875000000000, 15.312500000000, 4.453125000000, 1491363073
-0.012695312500, 0.604248046875, 1.709228515625, -19.875000000000, 15.312500000000, 4.453125000000, 1491363073
-0.024414062500, 0.471191406250, 1.314941406250, -18.984375000000, -29.609375000000, -4.757812500000, 1491363073
-0.024414062500, 0.471191406250, 1.314941406250, -18.984375000000, -29.609375000000, -4.757812500000, 1491363073
-0.024414062500, 0.471191406250, 1.314941406250, -18.984375000000, -29.609375000000, -4.757812500000, 1491363073
-0.187744140625, 0.331298828125, 0.719970703125, 69.132812500000, -48.406250000000, -10.695312500000, 1491363073
-0.187744140625, 0.331298828125, 0.719970703125, 69.132812500000, -48.406250000000, -10.695312500000, 1491363073
-0.187744140625, 0.331298828125, 0.719970703125, 69.132812500000, -48.406250000000, -10.695312500000, 1491363073
0.035156250000, 0.148193359375, 0.728271484375, 57.273437500000, -37.906250000000, 4.148437500000, 1491363073
0.035156250000, 0.148193359375, 0.728271484375, 57.273437500000, -37.906250000000, 4.148437500000, 1491363073
0.035156250000, 0.148193359375, 0.728271484375, 57.273437500000, -37.906250000000, 4.148437500000, 1491363073
0.035156250000, 0.148193359375, 0.728271484375, 57.273437500000, -37.906250000000, 4.148437500000, 1491363073
0.063964843750, 0.143310546875, 0.729248046875, 24.960937500000, -29.820312500000, -3.625000000000, 1491363073
0.063964843750, 0.143310546875, 0.729248046875, 24.960937500000, -29.820312500000, -3.625000000000, 1491363073
0.063964843750, 0.143310546875, 0.729248046875, 24.960937500000, -29.820312500000, -3.625000000000, 1491363073
-0.018310546875, 0.244140625000, 0.946777343750, -72.109375000000, 7.335937500000, -2.968750000000, 1491363073
-0.018310546875, 0.244140625000, 0.946777343750, -72.109375000000, 7.335937500000, -2.968750000000, 1491363073
-0.018310546875, 0.244140625000, 0.946777343750, -72.109375000000, 7.335937500000, -2.968750000000, 1491363073
0.006347656250, 0.256835937500, 0.998291015625, -12.007812500000, 8.226562500000, 2.617187500000, 1491363073
0.006347656250, 0.256835937500, 0.998291015625, -12.007812500000, 8.226562500000, 2.617187500000, 1491363073
0.085937500000, 0.339599609375, 1.089111328125, 6.234375000000, 1.546875000000, -0.195312500000, 1491363073
0.085937500000, 0.339599609375, 1.089111328125, 6.234375000000, 1.546875000000, -0.195312500000, 1491363073
0.085937500000, 0.339599609375, 1.089111328125, 6.234375000000, 1.546875000000, -0.195312500000, 1491363073
0.085937500000, 0.339599609375, 1.089111328125, 6.234375000000, 1.546875000000, -0.195312500000, 1491363073
0.085937500000, 0.339599609375, 1.089111328125, 6.234375000000, 1.546875000000, -0.195312500000, 1491363073
0.056152343750, 0.243408203125, 0.977783203125, 8.929687500000, -3.398437500000, -2.734375000000, 1491363073
0.056152343750, 0.243408203125, 0.977783203125, 8.929687500000, -3.398437500000, -2.734375000000, 1491363073
0.056152343750, 0.243408203125, 0.977783203125, 8.929687500000, -3.398437500000, -2.734375000000, 1491363073
0.083007812500, 0.334472656250, 0.915039062500, -21.257812500000, 0.429687500000, 0.335937500000, 1491363073
0.083007812500, 0.334472656250, 0.915039062500, -21.257812500000, 0.429687500000, 0.335937500000, 1491363073
0.083007812500, 0.334472656250, 0.915039062500, -21.257812500000, 0.429687500000, 0.335937500000, 1491363073
-0.000488281250, 0.125976562500, 0.843994140625, 6.492187500000, 2.414062500000, -3.125000000000, 1491363074
-0.000488281250, 0.125976562500, 0.843994140625, 6.492187500000, 2.414062500000, -3.125000000000, 1491363074
-0.000488281250, 0.125976562500, 0.843994140625, 6.492187500000, 2.414062500000, -3.125000000000, 1491363074
-0.017333984375, 0.334716796875, 0.929443359375, 2.390625000000, 5.468750000000, -2.007812500000, 1491363074
-0.017333984375, 0.334716796875, 0.929443359375, 2.390625000000, 5.468750000000, -2.007812500000, 1491363074
-0.017333984375, 0.334716796875, 0.929443359375, 2.390625000000, 5.468750000000, -2.007812500000, 1491363074
-0.017333984375, 0.334716796875, 0.929443359375, 2.390625000000, 5.468750000000, -2.007812500000, 1491363074
0.063720703125, 0.321533203125, 1.067871093750, -7.515625000000, 10.710937500000, -4.382812500000, 1491363074
0.063720703125, 0.321533203125, 1.067871093750, -7.515625000000, 10.710937500000, -4.382812500000, 1491363074
0.063720703125, 0.321533203125, 1.067871093750, -7.515625000000, 10.710937500000, -4.382812500000, 1491363074
-0.069335937500, 0.337158203125, 1.155029296875, -21.968750000000, 5.710937500000, 0.742187500000, 1491363074
-0.069335937500, 0.337158203125, 1.155029296875, -21.968750000000, 5.710937500000, 0.742187500000, 1491363074
-0.069335937500, 0.337158203125, 1.155029296875, -21.968750000000, 5.710937500000, 0.742187500000, 1491363074
-0.023193359375, 0.219482421875, 1.065185546875, 7.289062500000, 2.906250000000, -4.171875000000, 1491363074
-0.023193359375, 0.219482421875, 1.065185546875, 7.289062500000, 2.906250000000, -4.171875000000, 1491363074
-0.023193359375, 0.219482421875, 1.065185546875, 7.289062500000, 2.906250000000, -4.171875000000, 1491363074
0.065673828125, 0.255615234375, 0.977050781250, 10.585937500000, -2.382812500000, -4.140625000000, 1491363074
0.065673828125, 0.255615234375, 0.977050781250, 10.585937500000, -2.382812500000, -4.140625000000, 1491363074
0.065673828125, 0.255615234375, 0.977050781250, 10.585937500000, -2.382812500000, -4.140625000000, 1491363074
0.065673828125, 0.255615234375, 0.977050781250, 10.585937500000, -2.382812500000, -4.140625000000, 1491363074
-0.018310546875, 0.187255859375, 1.025878906250, 2.750000000000, 0.453125000000, -3.210937500000, 1491363074
-0.018310546875, 0.187255859375, 1.025878906250, 2.750000000000, 0.453125000000, -3.210937500000, 1491363074
-0.018310546875, 0.187255859375, 1.025878906250, 2.750000000000, 0.453125000000, -3.210937500000, 1491363074
0.029541015625, 0.234863281250, 0.961425781250, -13.867187500000, -0.093750000000, -1.531250000000, 1491363074
0.029541015625, 0.234863281250, 0.961425781250, -13.867187500000, -0.093750000000, -1.531250000000, 1491363074
0.029541015625, 0.234863281250, 0.961425781250, -13.867187500000, -0.093750000000, -1.531250000000, 1491363074
0.023437500000, 0.306884765625, 1.028320312500, -4.468750000000, -0.367187500000, -1.039062500000, 1491363074
0.023437500000, 0.306884765625, 1.028320312500, -4.468750000000, -0.367187500000, -1.039062500000, 1491363074
0.023437500000, 0.306884765625, 1.028320312500, -4.468750000000, -0.367187500000, -1.039062500000, 1491363074
-0.019287109375, 0.280517578125, 1.008300781250, 0.242187500000, 10.179687500000, -2.492187500000, 1491363074
-0.019287109375, 0.280517578125, 1.008300781250, 0.242187500000, 10.179687500000, -2.492187500000, 1491363074
-0.019287109375, 0.280517578125, 1.008300781250, 0.242187500000, 10.179687500000, -2.492187500000, 1491363074
-0.019287109375, 0.280517578125, 1.008300781250, 0.242187500000, 10.179687500000, -2.492187500000, 1491363074
0.064697265625, 0.242431640625, 0.984130859375, 5.195312500000, 3.765625000000, -3.296875000000, 1491363074
0.064697265625, 0.242431640625, 0.984130859375, 5.195312500000, 3.765625000000, -3.296875000000, 1491363074
0.064697265625, 0.242431640625, 0.984130859375, 5.195312500000, 3.765625000000, -3.296875000000, 1491363074
-0.067382812500, 0.174072265625, 1.019042968750, -10.531250000000, 1.546875000000, -4.648437500000, 1491363074
-0.067382812500, 0.174072265625, 1.019042968750, -10.531250000000, 1.546875000000, -4.648437500000, 1491363074
-0.067382812500, 0.174072265625, 1.019042968750, -10.531250000000, 1.546875000000, -4.648437500000, 1491363074
0.012207031250, 0.268554687500, 0.922119140625, -3.953125000000, 1.000000000000, -1.773437500000, 1491363074
0.012207031250, 0.268554687500, 0.922119140625, -3.953125000000, 1.000000000000, -1.773437500000, 1491363074
0.012207031250, 0.268554687500, 0.922119140625, -3.953125000000, 1.000000000000, -1.773437500000, 1491363074
0.083984375000, 0.230224609375, 0.960205078125, -3.453125000000, 0.320312500000, -8.078125000000, 1491363074
0.083984375000, 0.230224609375, 0.960205078125, -3.453125000000, 0.320312500000, -8.078125000000, 1491363074
0.083984375000, 0.230224609375, 0.960205078125, -3.453125000000, 0.320312500000, -8.078125000000, 1491363074
0.083984375000, 0.230224609375, 0.960205078125, -3.453125000000, 0.320312500000, -8.078125000000, 1491363074
0.023437500000, 0.312988281250, 0.981445312500, 1.523437500000, 0.015625000000, -4.945312500000, 1491363074
0.023437500000, 0.312988281250, 0.981445312500, 1.523437500000, 0.015625000000, -4.945312500000, 1491363074
0.023437500000, 0.312988281250, 0.981445312500, 1.523437500000, 0.015625000000, -4.945312500000, 1491363074
-0.086181640625, 0.383789062500, 1.004638671875, -10.515625000000, 3.132812500000, 0.484375000000, 1491363074
-0.086181640625, 0.383789062500, 1.004638671875, -10.515625000000, 3.132812500000, 0.484375000000, 1491363074
-0.086181640625, 0.383789062500, 1.004638671875, -10.515625000000, 3.132812500000, 0.484375000000, 1491363074
0.019775390625, 0.185302734375, 0.992187500000, -5.117187500000, 1.171875000000, -1.085937500000, 1491363074
0.019775390625, 0.185302734375, 0.992187500000, -5.117187500000, 1.171875000000, -1.085937500000, 1491363074
0.019775390625, 0.185302734375, 0.992187500000, -5.117187500000, 1.171875000000, -1.085937500000, 1491363074
0.073730468750, 0.180419921875, 0.970703125000, -4.375000000000, 2.148437500000, -3.367187500000, 1491363074
0.073730468750, 0.180419921875, 0.970703125000, -4.375000000000, 2.148437500000, -3.367187500000, 1491363074
0.073730468750, 0.180419921875, 0.970703125000, -4.375000000000, 2.148437500000, -3.367187500000, 1491363074
0.073730468750, 0.180419921875, 0.970703125000, -4.375000000000, 2.148437500000, -3.367187500000, 1491363074
0.077880859375, 0.329833984375, 1.003173828125, 0.117187500000, -0.812500000000, -4.875000000000, 1491363074
0.077880859375, 0.329833984375, 1.003173828125, 0.117187500000, -0.812500000000, -4.875000000000, 1491363074
0.077880859375, 0.329833984375, 1.003173828125, 0.117187500000, -0.812500000000, -4.875000000000, 1491363074
-0.016601562500, 0.325195312500, 0.925537109375, -10.750000000000, -0.914062500000, 0.054687500000, 1491363074
-0.016601562500, 0.325195312500, 0.925537109375, -10.750000000000, -0.914062500000, 0.054687500000, 1491363074
-0.016601562500, 0.325195312500, 0.925537109375, -10.750000000000, -0.914062500000, 0.054687500000, 1491363074
0.084228515625, 0.182861328125, 1.024414062500, -3.601562500000, 0.054687500000, -4.171875000000, 1491363075
0.084228515625, 0.182861328125, 1.024414062500, -3.601562500000, 0.054687500000, -4.171875000000, 1491363075
0.084228515625, 0.182861328125, 1.024414062500, -3.601562500000, 0.054687500000, -4.171875000000, 1491363075
-0.023437500000, 0.121337890625, 0.978271484375, -2.757812500000, -0.078125000000, -1.054687500000, 1491363075
-0.023437500000, 0.121337890625, 0.978271484375, -2.757812500000, -0.078125000000, -1.054687500000, 1491363075
-0.023437500000, 0.121337890625, 0.978271484375, -2.757812500000, -0.078125000000, -1.054687500000, 1491363075
-0.023437500000, 0.121337890625, 0.978271484375, -2.757812500000, -0.078125000000, -1.054687500000, 1491363075
0.068115234375, 0.273925781250, 1.017089843750, 0.023437500000, -1.140625000000, -4.679687500000, 1491363075
0.068115234375, 0.273925781250, 1.017089843750, 0.023437500000, -1.140625000000, -4.679687500000, 1491363075
0.068115234375, 0.273925781250, 1.017089843750, 0.023437500000, -1.140625000000, -4.679687500000, 1491363075
0.067626953125, 0.246093750000, 0.928466796875, -7.039062500000, -5.125000000000, -2.953125000000, 1491363075
0.067626953125, 0.246093750000, 0.928466796875, -7.039062500000, -5.125000000000, -2.953125000000, 1491363075
0.067626953125, 0.246093750000, 0.928466796875, -7.039062500000, -5.125000000000, -2.953125000000, 1491363075
0.010498046875, 0.238525390625, 1.036865234375, 2.765625000000, -0.023437500000, -3.796875000000, 1491363075
0.010498046875, 0.238525390625, 1.036865234375, 2.765625000000, -0.023437500000, -3.796875000000, 1491363075
0.079101562500, 0.262695312500, 0.974853515625, -2.296875000000, -0.023437500000, -1.890625000000, 1491363075
0.079101562500, 0.262695312500, 0.974853515625, -2.296875000000, -0.023437500000, -1.890625000000, 1491363075
0.079101562500, 0.262695312500, 0.974853515625, -2.296875000000, -0.023437500000, -1.890625000000, 1491363075
0.079101562500, 0.262695312500, 0.974853515625, -2.296875000000, -0.023437500000, -1.890625000000, 1491363075
0.079101562500, 0.262695312500, 0.974853515625, -2.296875000000, -0.023437500000, -1.890625000000, 1491363075
0.069091796875, 0.249755859375, 1.002929687500, -2.960937500000, 1.460937500000, -2.828125000000, 1491363075
0.069091796875, 0.249755859375, 1.002929687500, -2.960937500000, 1.460937500000, -2.828125000000, 1491363075
0.069091796875, 0.249755859375, 1.002929687500, -2.960937500000, 1.460937500000, -2.828125000000, 1491363075
-0.006347656250, 0.230468750000, 0.983886718750, -8.109375000000, 1.320312500000, -6.093750000000, 1491363075
-0.006347656250, 0.230468750000, 0.983886718750, -8.109375000000, 1.320312500000, -6.093750000000, 1491363075
-0.006347656250, 0.230468750000, 0.983886718750, -8.109375000000, 1.320312500000, -6.093750000000, 1491363075
0.087158203125, 0.261718750000, 0.972656250000, -4.250000000000, 2.656250000000, -1.468750000000, 1491363075
0.087158203125, 0.261718750000, 0.972656250000, -4.250000000000, 2.656250000000, -1.468750000000, 1491363075
-0.008300781250, 0.270263671875, 1.001220703125, -1.804687500000, 2.492187500000, -4.304687500000, 1491363075
-0.010986328125, 0.223632812500, 0.978271484375, -2.609375000000, -2.289062500000, -3.921875000000, 1491363075
-0.010986328125, 0.223632812500, 0.978271484375, -2.609375000000, -2.289062500000, -3.921875000000, 1491363075
-0.010986328125, 0.223632812500, 0.978271484375, -2.609375000000, -2.289062500000, -3.921875000000, 1491363075
-0.010986328125, 0.223632812500, 0.978271484375, -2.609375000000, -2.289062500000, -3.921875000000, 1491363075
0.026367187500, 0.208251953125, 1.080566406250, -4.742187500000, -0.093750000000, -3.687500000000, 1491363075
0.026367187500, 0.208251953125, 1.080566406250, -4.742187500000, -0.093750000000, -3.687500000000, 1491363075
0.026367187500, 0.208251953125, 1.080566406250, -4.742187500000, -0.093750000000, -3.687500000000, 1491363075
-0.069091796875, 0.316894531250, 1.023681640625, -6.593750000000, 4.031250000000, -4.320312500000, 1491363075
-0.069091796875, 0.316894531250, 1.023681640625, -6.593750000000, 4.031250000000, -4.320312500000, 1491363075
-0.069091796875, 0.316894531250, 1.023681640625, -6.593750000000, 4.031250000000, -4.320312500000, 1491363075
-0.030517578125, 0.267578125000, 0.983154296875, -3.242187500000, -0.265625000000, -3.890625000000, 1491363075
-0.030517578125, 0.267578125000, 0.983154296875, -3.242187500000, -0.265625000000, -3.890625000000, 1491363075
-0.030517578125, 0.267578125000, 0.983154296875, -3.242187500000, -0.265625000000, -3.890625000000, 1491363075
0.016601562500, 0.272949218750, 0.971435546875, -4.179687500000, -0.273437500000, -2.976562500000, 1491363075
0.016601562500, 0.272949218750, 0.971435546875, -4.179687500000, -0.273437500000, -2.976562500000, 1491363075
0.028320312500, 0.232666015625, 0.981201171875, -4.242187500000, -0.882812500000, -3.445312500000, 1491363075
-0.020019531250, 0.325927734375, 0.921630859375, -1.773437500000, 2.421875000000, -3.804687500000, 1491363075
-0.020019531250, 0.325927734375, 0.921630859375, -1.773437500000, 2.421875000000, -3.804687500000, 1491363075
-0.020019531250, 0.325927734375, 0.921630859375, -1.773437500000, 2.421875000000, -3.804687500000, 1491363075
-0.020019531250, 0.325927734375, 0.921630859375, -1.773437500000, 2.421875000000, -3.804687500000, 1491363075
0.071044921875, 0.246826171875, 1.083740234375, -3.601562500000, -0.375000000000, -1.921875000000, 1491363075
0.071044921875, 0.246826171875, 1.083740234375, -3.601562500000, -0.375000000000, -1.921875000000, 1491363075
0.071044921875, 0.246826171875, 1.083740234375, -3.601562500000, -0.375000000000, -1.921875000000, 1491363075
0.039306640625, 0.230224609375, 0.931396484375, -6.085937500000, 2.171875000000, -5.117187500000, 1491363075
0.039306640625, 0.230224609375, 0.931396484375, -6.085937500000, 2.171875000000, -5.117187500000, 1491363075
0.039306640625, 0.230224609375, 0.931396484375, -6.085937500000, 2.171875000000, -5.117187500000, 1491363075
0.072021484375, 0.185302734375, 0.978759765625, -1.687500000000, 0.687500000000, -1.570312500000, 1491363075
0.072021484375, 0.185302734375, 0.978759765625, -1.687500000000, 0.687500000000, -1.570312500000, 1491363075
0.072021484375, 0.185302734375, 0.978759765625, -1.687500000000, 0.687500000000, -1.570312500000, 1491363075
0.072021484375, 0.185302734375, 0.978759765625, -1.687500000000, 0.687500000000, -1.570312500000, 1491363075
0.091552734375, 0.231445312500, 1.018554687500, -3.085937500000, -2.148437500000, -1.187500000000, 1491363075
0.091552734375, 0.231445312500, 1.018554687500, -3.085937500000, -2.148437500000, -1.187500000000, 1491363075
0.091552734375, 0.231445312500, 1.018554687500, -3.085937500000, -2.148437500000, -1.187500000000, 1491363075
0.013427734375, 0.323242187500, 0.915283203125, -3.117187500000, 0.500000000000, -4.421875000000, 1491363075
0.013427734375, 0.323242187500, 0.915283203125, -3.117187500000, 0.500000000000, -4.421875000000, 1491363075
0.013427734375, 0.323242187500, 0.915283203125, -3.117187500000, 0.500000000000, -4.421875000000, 1491363075
-0.028564453125, 0.235107421875, 0.994140625000, -3.250000000000, -0.656250000000, -1.460937500000, 1491363075
-0.028564453125, 0.235107421875, 0.994140625000, -3.250000000000, -0.656250000000, -1.460937500000, 1491363075
-0.028564453125, 0.235107421875, 0.994140625000, -3.250000000000, -0.656250000000, -1.460937500000, 1491363075
0.020751953125, 0.226074218750, 1.013183593750, -3.304687500000, -0.148437500000, -4.007812500000, 1491363076
0.020751953125, 0.226074218750, 1.013183593750, -3.304687500000, -0.148437500000, -4.007812500000, 1491363076
0.020751953125, 0.226074218750, 1.013183593750, -3.304687500000, -0.148437500000, -4.007812500000, 1491363076
0.020751953125, 0.226074218750, 1.013183593750, -3.304687500000, -0.148437500000, -4.007812500000, 1491363076
-0.068359375000, 0.241455078125, 0.936767578125, -6.554687500000, -0.734375000000, -4.984375000000, 1491363076
-0.072509765625, 0.216796875000, 1.063720703125, -3.945312500000, 0.375000000000, -4.492187500000, 1491363076
-0.072509765625, 0.216796875000, 1.063720703125, -3.945312500000, 0.375000000000, -4.492187500000, 1491363076
-0.072509765625, 0.216796875000, 1.063720703125, -3.945312500000, 0.375000000000, -4.492187500000, 1491363076
-0.072509765625, 0.216796875000, 1.063720703125, -3.945312500000, 0.375000000000, -4.492187500000, 1491363076
-0.028564453125, 0.272460937500, 0.967773437500, -1.710937500000, 6.296875000000, -4.304687500000, 1491363076
-0.028564453125, 0.272460937500, 0.967773437500, -1.710937500000, 6.296875000000, -4.304687500000, 1491363076
-0.028564453125, 0.272460937500, 0.967773437500, -1.710937500000, 6.296875000000, -4.304687500000, 1491363076
-0.028564453125, 0.272460937500, 0.967773437500, -1.710937500000, 6.296875000000, -4.304687500000, 1491363076
0.080078125000, 0.260498046875, 0.957519531250, -7.492187500000, -3.468750000000, -1.492187500000, 1491363076
0.080078125000, 0.260498046875, 0.957519531250, -7.492187500000, -3.468750000000, -1.492187500000, 1491363076
0.080078125000, 0.260498046875, 0.957519531250, -7.492187500000, -3.468750000000, -1.492187500000, 1491363076
0.080078125000, 0.260498046875, 0.957519531250, -7.492187500000, -3.468750000000, -1.492187500000, 1491363076
0.021972656250, 0.156494140625, 1.027099609375, -6.109375000000, -4.078125000000, -4.765625000000, 1491363076
0.021972656250, 0.156494140625, 1.027099609375, -6.109375000000, -4.078125000000, -4.765625000000, 1491363076
0.021972656250, 0.156494140625, 1.027099609375, -6.109375000000, -4.078125000000, -4.765625000000, 1491363076
-0.065673828125, 0.284179687500, 1.000976562500, -4.226562500000, 2.000000000000, -4.078125000000, 1491363076
-0.065673828125, 0.284179687500, 1.000976562500, -4.226562500000, 2.000000000000, -4.078125000000, 1491363076
-0.065673828125, 0.284179687500, 1.000976562500, -4.226562500000, 2.000000000000, -4.078125000000, 1491363076
-0.021484375000, 0.276123046875, 1.082031250000, -6.976562500000, 0.796875000000, -4.500000000000, 1491363076
-0.021484375000, 0.276123046875, 1.082031250000, -6.976562500000, 0.796875000000, -4.500000000000, 1491363076
-0.021484375000, 0.276123046875, 1.082031250000, -6.976562500000, 0.796875000000, -4.500000000000, 1491363076
-0.026855468750, 0.269775390625, 0.980712890625, -3.085937500000, -1.242187500000, -4.210937500000, 1491363076
-0.026855468750, 0.269775390625, 0.980712890625, -3.085937500000, -1.242187500000, -4.210937500000, 1491363076
-0.026855468750, 0.269775390625, 0.980712890625, -3.085937500000, -1.242187500000, -4.210937500000, 1491363076
-0.026855468750, 0.269775390625, 0.980712890625, -3.085937500000, -1.242187500000, -4.210937500000, 1491363076
0.046386718750, 0.256347656250, 0.990966796875, -6.320312500000, -4.898437500000, -4.164062500000, 1491363076
0.046386718750, 0.256347656250, 0.990966796875, -6.320312500000, -4.898437500000, -4.164062500000, 1491363076
0.046386718750, 0.256347656250, 0.990966796875, -6.320312500000, -4.898437500000, -4.164062500000, 1491363076
0.007080078125, 0.261962890625, 0.985107421875, -5.085937500000, 0.476562500000, -2.929687500000, 1491363076
0.007080078125, 0.261962890625, 0.985107421875, -5.085937500000, 0.476562500000, -2.929687500000, 1491363076
0.007080078125, 0.261962890625, 0.985107421875, -5.085937500000, 0.476562500000, -2.929687500000, 1491363076
0.016845703125, 0.260742187500, 0.942626953125, -6.726562500000, -1.890625000000, -6.421875000000, 1491363076
0.016845703125, 0.260742187500, 0.942626953125, -6.726562500000, -1.890625000000, -6.421875000000, 1491363076
0.016845703125, 0.260742187500, 0.942626953125, -6.726562500000, -1.890625000000, -6.421875000000, 1491363076
0.004882812500, 0.162841796875, 1.013183593750, -10.117187500000, -1.578125000000, -1.820312500000, 1491363076
0.004882812500, 0.162841796875, 1.013183593750, -10.117187500000, -1.578125000000, -1.820312500000, 1491363076
0.004882812500, 0.162841796875, 1.013183593750, -10.117187500000, -1.578125000000, -1.820312500000, 1491363076
0.004882812500, 0.162841796875, 1.013183593750, -10.117187500000, -1.578125000000, -1.820312500000, 1491363076
0.086914062500, 0.263183593750, 0.961669921875, -9.632812500000, -1.367187500000, -1.289062500000, 1491363076
0.086914062500, 0.263183593750, 0.961669921875, -9.632812500000, -1.367187500000, -1.289062500000, 1491363076
0.086914062500, 0.263183593750, 0.961669921875, -9.632812500000, -1.367187500000, -1.289062500000, 1491363076
0.086914062500, 0.263183593750, 0.961669921875, -9.632812500000, -1.367187500000, -1.289062500000, 1491363076
0.014892578125, 0.375000000000, 1.026855468750, -13.828125000000, 4.429687500000, -4.296875000000, 1491363076
0.014892578125, 0.375000000000, 1.026855468750, -13.828125000000, 4.429687500000, -4.296875000000, 1491363076
