ACC_X,ACC_Y,ACC_Z,G_X,G_Y,G_Z,Unix Time
-0.065185546875, -0.647460937500, 0.820800781250, 3.210937500000, 2.500000000000, -10.046875000000, 1491369811
-0.065185546875, -0.647460937500, 0.820800781250, 3.210937500000, 2.500000000000, -10.046875000000, 1491369811
-0.065185546875, -0.647460937500, 0.820800781250, 3.210937500000, 2.500000000000, -10.046875000000, 1491369811
0.076416015625, -0.763183593750, 0.841064453125, -5.070312500000, 1.046875000000, -7.843750000000, 1491369811
0.076416015625, -0.763183593750, 0.841064453125, -5.070312500000, 1.046875000000, -7.843750000000, 1491369811
0.076416015625, -0.763183593750, 0.841064453125, -5.070312500000, 1.046875000000, -7.843750000000, 1491369811
0.080322265625, -0.711669921875, 0.775878906250, -0.125000000000, 2.945312500000, -10.031250000000, 1491369811
0.080322265625, -0.711669921875, 0.775878906250, -0.125000000000, 2.945312500000, -10.031250000000, 1491369811
0.080322265625, -0.711669921875, 0.775878906250, -0.125000000000, 2.945312500000, -10.031250000000, 1491369811
0.013183593750, -0.727539062500, 0.729003906250, -5.570312500000, 0.921875000000, -5.851562500000, 1491369811
0.013183593750, -0.727539062500, 0.729003906250, -5.570312500000, 0.921875000000, -5.851562500000, 1491369811
0.013183593750, -0.727539062500, 0.729003906250, -5.570312500000, 0.921875000000, -5.851562500000, 1491369811
0.013183593750, -0.727539062500, 0.729003906250, -5.570312500000, 0.921875000000, -5.851562500000, 1491369811
-0.029541015625, -0.621337890625, 0.777832031250, 1.203125000000, -0.273437500000, -10.054687500000, 1491369811
-0.029541015625, -0.621337890625, 0.777832031250, 1.203125000000, -0.273437500000, -10.054687500000, 1491369811
-0.029541015625, -0.621337890625, 0.777832031250, 1.203125000000, -0.273437500000, -10.054687500000, 1491369811
0.020996093750, -0.678466796875, 0.769042968750, 0.265625000000, 2.062500000000, -5.195312500000, 1491369812
0.020996093750, -0.678466796875, 0.769042968750, 0.265625000000, 2.062500000000, -5.195312500000, 1491369812
0.020996093750, -0.678466796875, 0.769042968750, 0.265625000000, 2.062500000000, -5.195312500000, 1491369812
0.066162109375, -0.663574218750, 0.729003906250, -1.125000000000, -0.914062500000, -10.437500000000, 1491369812
0.066162109375, -0.663574218750, 0.729003906250, -1.125000000000, -0.914062500000, -10.437500000000, 1491369812
0.066162109375, -0.663574218750, 0.729003906250, -1.125000000000, -0.914062500000, -10.437500000000, 1491369812
-0.023193359375, -0.775878906250, 0.724121093750, 5.109375000000, -2.304687500000, -1.882812500000, 1491369812
-0.023193359375, -0.775878906250, 0.724121093750, 5.109375000000, -2.304687500000, -1.882812500000, 1491369812
-0.023193359375, -0.775878906250, 0.724121093750, 5.109375000000, -2.304687500000, -1.882812500000, 1491369812
-0.023193359375, -0.775878906250, 0.724121093750, 5.109375000000, -2.304687500000, -1.882812500000, 1491369812
0.020996093750, -0.679931640625, 0.737792968750, -0.312500000000, 2.625000000000, -3.328125000000, 1491369812
0.020996093750, -0.679931640625, 0.737792968750, -0.312500000000, 2.625000000000, -3.328125000000, 1491369812
0.020996093750, -0.679931640625, 0.737792968750, -0.312500000000, 2.625000000000, -3.328125000000, 1491369812
-0.126953125000, -0.732910156250, 0.684570312500, 4.976562500000, 2.398437500000, -3.250000000000, 1491369812
-0.126953125000, -0.732910156250, 0.684570312500, 4.976562500000, 2.398437500000, -3.250000000000, 1491369812
-0.126953125000, -0.732910156250, 0.684570312500, 4.976562500000, 2.398437500000, -3.250000000000, 1491369812
0.087890625000, -0.694335937500, 0.763183593750, 1.414062500000, -0.273437500000, 0.265625000000, 1491369812
0.087890625000, -0.694335937500, 0.763183593750, 1.414062500000, -0.273437500000, 0.265625000000, 1491369812
0.087890625000, -0.694335937500, 0.763183593750, 1.414062500000, -0.273437500000, 0.265625000000, 1491369812
0.017822265625, -0.666748046875, 0.777099609375, 0.632812500000, 2.164062500000, -10.023437500000, 1491369812
0.017822265625, -0.666748046875, 0.777099609375, 0.632812500000, 2.164062500000, -10.023437500000, 1491369812
0.017822265625, -0.666748046875, 0.777099609375, 0.632812500000, 2.164062500000, -10.023437500000, 1491369812
0.017822265625, -0.666748046875, 0.777099609375, 0.632812500000, 2.164062500000, -10.023437500000, 1491369812
0.026367187500, -0.826416015625, 0.774902343750, 2.882812500000, 1.718750000000, -10.664062500000, 1491369812
0.026367187500, -0.826416015625, 0.774902343750, 2.882812500000, 1.718750000000, -10.664062500000, 1491369812
0.026367187500, -0.826416015625, 0.774902343750, 2.882812500000, 1.718750000000, -10.664062500000, 1491369812
-0.062500000000, -0.778076171875, 0.697753906250, -3.734375000000, 4.375000000000, -5.351562500000, 1491369812
-0.062500000000, -0.778076171875, 0.697753906250, -3.734375000000, 4.375000000000, -5.351562500000, 1491369812
-0.062500000000, -0.778076171875, 0.697753906250, -3.734375000000, 4.375000000000, -5.351562500000, 1491369812
-0.083984375000, -0.814208984375, 0.656982421875, 0.757812500000, 3.203125000000, -1.953125000000, 1491369812
-0.083984375000, -0.814208984375, 0.656982421875, 0.757812500000, 3.203125000000, -1.953125000000, 1491369812
-0.083984375000, -0.814208984375, 0.656982421875, 0.757812500000, 3.203125000000, -1.953125000000, 1491369812
0.035644531250, -0.689941406250, 0.675537109375, -3.359375000000, 1.226562500000, -1.601562500000, 1491369812
0.035644531250, -0.689941406250, 0.675537109375, -3.359375000000, 1.226562500000, -1.601562500000, 1491369812
0.035644531250, -0.689941406250, 0.675537109375, -3.359375000000, 1.226562500000, -1.601562500000, 1491369812
0.035644531250, -0.689941406250, 0.675537109375, -3.359375000000, 1.226562500000, -1.601562500000, 1491369812
-0.107177734375, -0.677246093750, 0.824218750000, 4.382812500000, 1.812500000000, -6.156250000000, 1491369812
-0.107177734375, -0.677246093750, 0.824218750000, 4.382812500000, 1.812500000000, -6.156250000000, 1491369812
-0.107177734375, -0.677246093750, 0.824218750000, 4.382812500000, 1.812500000000, -6.156250000000, 1491369812
-0.089843750000, -0.610351562500, 0.741210937500, 6.539062500000, 4.203125000000, -6.078125000000, 1491369812
-0.089843750000, -0.610351562500, 0.741210937500, 6.539062500000, 4.203125000000, -6.078125000000, 1491369812
-0.089843750000, -0.610351562500, 0.741210937500, 6.539062500000, 4.203125000000, -6.078125000000, 1491369812
0.064453125000, -0.732421875000, 0.680419921875, 16.703125000000, 3.132812500000, -5.203125000000, 1491369812
0.064453125000, -0.732421875000, 0.680419921875, 16.703125000000, 3.132812500000, -5.203125000000, 1491369812
0.064453125000, -0.732421875000, 0.680419921875, 16.703125000000, 3.132812500000, -5.203125000000, 1491369812
-0.079101562500, -0.705810546875, 0.698730468750, 32.078125000000, 10.242187500000, -12.085937500000, 1491369812
-0.079101562500, -0.705810546875, 0.698730468750, 32.078125000000, 10.242187500000, -12.085937500000, 1491369812
-0.079101562500, -0.705810546875, 0.698730468750, 32.078125000000, 10.242187500000, -12.085937500000, 1491369812
-0.079101562500, -0.705810546875, 0.698730468750, 32.078125000000, 10.242187500000, -12.085937500000, 1491369812
-0.022949218750, -0.710449218750, 0.668945312500, 45.632812500000, 5.289062500000, -8.039062500000, 1491369812
-0.022949218750, -0.710449218750, 0.668945312500, 45.632812500000, 5.289062500000, -8.039062500000, 1491369812
-0.022949218750, -0.710449218750, 0.668945312500, 45.632812500000, 5.289062500000, -8.039062500000, 1491369812
-0.155517578125, -0.719482421875, 0.601806640625, 52.351562500000, 12.015625000000, -11.914062500000, 1491369812
-0.155517578125, -0.719482421875, 0.601806640625, 52.351562500000, 12.015625000000, -11.914062500000, 1491369812
-0.155517578125, -0.719482421875, 0.601806640625, 52.351562500000, 12.015625000000, -11.914062500000, 1491369812
-0.046630859375, -0.752197265625, 0.411132812500, 68.710937500000, 16.296875000000, -13.781250000000, 1491369812
-0.046630859375, -0.752197265625, 0.411132812500, 68.710937500000, 16.296875000000, -13.781250000000, 1491369812
-0.046630859375, -0.752197265625, 0.411132812500, 68.710937500000, 16.296875000000, -13.781250000000, 1491369812
-0.114013671875, -0.756591796875, 0.511230468750, 86.085937500000, 22.835937500000, -20.609375000000, 1491369812
-0.114013671875, -0.756591796875, 0.511230468750, 86.085937500000, 22.835937500000, -20.609375000000, 1491369812
-0.114013671875, -0.756591796875, 0.511230468750, 86.085937500000, 22.835937500000, -20.609375000000, 1491369812
-0.114013671875, -0.756591796875, 0.511230468750, 86.085937500000, 22.835937500000, -20.609375000000, 1491369812
-0.047119140625, -0.545898437500, 0.456787109375, 89.546875000000, 42.351562500000, -5.242187500000, 1491369812
-0.047119140625, -0.545898437500, 0.456787109375, 89.546875000000, 42.351562500000, -5.242187500000, 1491369812
-0.047119140625, -0.545898437500, 0.456787109375, 89.546875000000, 42.351562500000, -5.242187500000, 1491369812
-0.081054687500, -0.518798828125, 0.235839843750, 134.773437500000, 68.812500000000, 9.289062500000, 1491369812
-0.081054687500, -0.518798828125, 0.235839843750, 134.773437500000, 68.812500000000, 9.289062500000, 1491369812
-0.081054687500, -0.518798828125, 0.235839843750, 134.773437500000, 68.812500000000, 9.289062500000, 1491369813
0.019287109375, -0.406250000000, 0.080078125000, 153.046875000000, 150.812500000000, -21.328125000000, 1491369813
0.019287109375, -0.406250000000, 0.080078125000, 153.046875000000, 150.812500000000, -21.328125000000, 1491369813
0.019287109375, -0.406250000000, 0.080078125000, 153.046875000000, 150.812500000000, -21.328125000000, 1491369813
-0.151855468750, -0.670654296875, -0.056640625000, -74.437500000000, 109.992187500000, -42.382812500000, 1491369813
-0.151855468750, -0.670654296875, -0.056640625000, -74.437500000000, 109.992187500000, -42.382812500000, 1491369813
-0.151855468750, -0.670654296875, -0.056640625000, -74.437500000000, 109.992187500000, -42.382812500000, 1491369813
-0.151855468750, -0.670654296875, -0.056640625000, -74.437500000000, 109.992187500000, -42.382812500000, 1491369813
-0.320068359375, -1.023925781250, 0.194335937500, -192.593750000000, -61.007812500000, 23.804687500000, 1491369813
-0.320068359375, -1.023925781250, 0.194335937500, -192.593750000000, -61.007812500000, 23.804687500000, 1491369813
-0.320068359375, -1.023925781250, 0.194335937500, -192.593750000000, -61.007812500000, 23.804687500000, 1491369813
-0.254882812500, -1.400878906250, 0.438720703125, 29.906250000000, -46.218750000000, -32.437500000000, 1491369813
-0.254882812500, -1.400878906250, 0.438720703125, 29.906250000000, -46.218750000000, -32.437500000000, 1491369813
-0.254882812500, -1.400878906250, 0.438720703125, 29.906250000000, -46.218750000000, -32.437500000000, 1491369813
-0.183349609375, -1.475830078125, 0.234619140625, 113.039062500000, -27.132812500000, 20.046875000000, 1491369813
-0.183349609375, -1.475830078125, 0.234619140625, 113.039062500000, -27.132812500000, 20.046875000000, 1491369813
-0.183349609375, -1.475830078125, 0.234619140625, 113.039062500000, -27.132812500000, 20.046875000000, 1491369813
-0.261962890625, -1.836669921875, 0.325195312500, -103.406250000000, -69.257812500000, 34.679687500000, 1491369813
-0.261962890625, -1.836669921875, 0.325195312500, -103.406250000000, -69.257812500000, 34.679687500000, 1491369813
-0.261962890625, -1.836669921875, 0.325195312500, -103.406250000000, -69.257812500000, 34.679687500000, 1491369813
-0.261962890625, -1.836669921875, 0.325195312500, -103.406250000000, -69.257812500000, 34.679687500000, 1491369813
0.039794921875, -2.103515625000, 0.505615234375, 39.218750000000, 36.929687500000, 58.601562500000, 1491369813
0.039794921875, -2.103515625000, 0.505615234375, 39.218750000000, 36.929687500000, 58.601562500000, 1491369813
0.039794921875, -2.103515625000, 0.505615234375, 39.218750000000, 36.929687500000, 58.601562500000, 1491369813
-0.345214843750, -1.804931640625, 0.953369140625, -147.164062500000, -73.031250000000, -25.570312500000, 1491369813
-0.345214843750, -1.804931640625, 0.953369140625, -147.164062500000, -73.031250000000, -25.570312500000, 1491369813
-0.345214843750, -1.804931640625, 0.953369140625, -147.164062500000, -73.031250000000, -25.570312500000, 1491369813
-0.037353515625, -2.449462890625, 0.517578125000, -198.828125000000, -98.234375000000, 27.632812500000, 1491369813
-0.037353515625, -2.449462890625, 0.517578125000, -198.828125000000, -98.234375000000, 27.632812500000, 1491369813
-0.037353515625, -2.449462890625, 0.517578125000, -198.828125000000, -98.234375000000, 27.632812500000, 1491369813
-0.107666015625, -2.061279296875, 1.115234375000, -27.085937500000, -11.156250000000, -18.687500000000, 1491369813
-0.107666015625, -2.061279296875, 1.115234375000, -27.085937500000, -11.156250000000, -18.687500000000, 1491369813
-0.107666015625, -2.061279296875, 1.115234375000, -27.085937500000, -11.156250000000, -18.687500000000, 1491369813
-0.107666015625, -2.061279296875, 1.115234375000, -27.085937500000, -11.156250000000, -18.687500000000, 1491369813
-0.126464843750, -1.498535156250, 0.555664062500, -101.890625000000, -12.484375000000, -45.281250000000, 1491369813
-0.126464843750, -1.498535156250, 0.555664062500, -101.890625000000, -12.484375000000, -45.281250000000, 1491369813
-0.126464843750, -1.498535156250, 0.555664062500, -101.890625000000, -12.484375000000, -45.281250000000, 1491369813
-0.099121093750, -0.597656250000, 0.753906250000, -67.281250000000, -15.804687500000, -33.476562500000, 1491369813
-0.099121093750, -0.597656250000, 0.753906250000, -67.281250000000, -15.804687500000, -33.476562500000, 1491369813
-0.099121093750, -0.597656250000, 0.753906250000, -67.281250000000, -15.804687500000, -33.476562500000, 1491369813
-0.000000000000, -0.110839843750, 0.206787109375, -6.039062500000, -37.539062500000, -95.570312500000, 1491369813
-0.000000000000, -0.110839843750, 0.206787109375, -6.039062500000, -37.539062500000, -95.570312500000, 1491369813
-0.000000000000, -0.110839843750, 0.206787109375, -6.039062500000, -37.539062500000, -95.570312500000, 1491369813
0.038330078125, 0.114501953125, 0.114257812500, 165.023437500000, 97.468750000000, -77.656250000000, 1491369813
0.038330078125, 0.114501953125, 0.114257812500, 165.023437500000, 97.468750000000, -77.656250000000, 1491369813
0.038330078125, 0.114501953125, 0.114257812500, 165.023437500000, 97.468750000000, -77.656250000000, 1491369813
0.038330078125, 0.114501953125, 0.114257812500, 165.023437500000, 97.468750000000, -77.656250000000, 1491369813
0.040527343750, 0.140136718750, 0.043457031250, 18.179687500000, 253.992187500000, -33.039062500000, 1491369813
0.040527343750, 0.140136718750, 0.043457031250, 18.179687500000, 253.992187500000, -33.039062500000, 1491369813
0.040527343750, 0.140136718750, 0.043457031250, 18.179687500000, 253.992187500000, -33.039062500000, 1491369813
0.061523437500, 0.221435546875, 0.086914062500, 15.265625000000, 177.468750000000, -154.734375000000, 1491369813
0.061523437500, 0.221435546875, 0.086914062500, 15.265625000000, 177.468750000000, -154.734375000000, 1491369813
0.061523437500, 0.221435546875, 0.086914062500, 15.265625000000, 177.468750000000, -154.734375000000, 1491369813
0.058105468750, 0.063232421875, -0.065917968750, -256.000000000000, 91.429687500000, -157.828125000000, 1491369813
0.058105468750, 0.063232421875, -0.065917968750, -256.000000000000, 91.429687500000, -157.828125000000, 1491369813
0.058105468750, 0.063232421875, -0.065917968750, -256.000000000000, 91.429687500000, -157.828125000000, 1491369813
0.060302734375, -0.190917968750, 0.036132812500, -203.976562500000, -5.335937500000, 167.343750000000, 1491369813
0.060302734375, -0.190917968750, 0.036132812500, -203.976562500000, -5.335937500000, 167.343750000000, 1491369813
0.060302734375, -0.190917968750, 0.036132812500, -203.976562500000, -5.335937500000, 167.343750000000, 1491369813
0.060302734375, -0.190917968750, 0.036132812500, -203.976562500000, -5.335937500000, 167.343750000000, 1491369813
0.123779296875, -0.077392578125, 0.253662109375, -9.882812500000, -93.218750000000, 74.000000000000, 1491369813
0.123779296875, -0.077392578125, 0.253662109375, -9.882812500000, -93.218750000000, 74.000000000000, 1491369813
0.123779296875, -0.077392578125, 0.253662109375, -9.882812500000, -93.218750000000, 74.000000000000, 1491369813
0.080322265625, -0.025878906250, 0.134033203125, 156.257812500000, -85.296875000000, -92.945312500000, 1491369813
0.080322265625, -0.025878906250, 0.134033203125, 156.257812500000, -85.296875000000, -92.945312500000, 1491369813
0.080322265625, -0.025878906250, 0.134033203125, 156.257812500000, -85.296875000000, -92.945312500000, 1491369813
-0.030517578125, 0.083251953125, -0.023193359375, -10.218750000000, -13.117187500000, -91.171875000000, 1491369814
-0.030517578125, 0.083251953125, -0.023193359375, -10.218750000000, -13.117187500000, -91.171875000000, 1491369814
-0.030517578125, 0.083251953125, -0.023193359375, -10.218750000000, -13.117187500000, -91.171875000000, 1491369814
-0.002685546875, 0.135009765625, 0.064941406250, -110.578125000000, 43.453125000000, -120.039062500000, 1491369814
-0.002685546875, 0.135009765625, 0.064941406250, -110.578125000000, 43.453125000000, -120.039062500000, 1491369814
-0.002685546875, 0.135009765625, 0.064941406250, -110.578125000000, 43.453125000000, -120.039062500000, 1491369814
-0.002685546875, 0.135009765625, 0.064941406250, -110.578125000000, 43.453125000000, -120.039062500000, 1491369814
-0.026611328125, -1.611572265625, 0.199951171875, -256.000000000000, -122.789062500000, 253.992187500000, 1491369814
-0.026611328125, -1.611572265625, 0.199951171875, -256.000000000000, -122.789062500000, 253.992187500000, 1491369814
-0.026611328125, -1.611572265625, 0.199951171875, -256.000000000000, -122.789062500000, 253.992187500000, 1491369814
-0.294921875000, -3.764160156250, 1.927001953125, 253.992187500000, -175.742187500000, -19.656250000000, 1491369814
-0.294921875000, -3.764160156250, 1.927001953125, 253.992187500000, -175.742187500000, -19.656250000000, 1491369814
-0.294921875000, -3.764160156250, 1.927001953125, 253.992187500000, -175.742187500000, -19.656250000000, 1491369814
-1.144775390625, -2.971191406250, 0.006835937500, 253.992187500000, -256.000000000000, -37.789062500000, 1491369814
-1.144775390625, -2.971191406250, 0.006835937500, 253.992187500000, -256.000000000000, -37.789062500000, 1491369814
-1.144775390625, -2.971191406250, 0.006835937500, 253.992187500000, -256.000000000000, -37.789062500000, 1491369814
0.002441406250, -1.265869140625, 0.213867187500, -256.000000000000, 110.257812500000, -73.898437500000, 1491369814
0.002441406250, -1.265869140625, 0.213867187500, -256.000000000000, 110.257812500000, -73.898437500000, 1491369814
0.002441406250, -1.265869140625, 0.213867187500, -256.000000000000, 110.257812500000, -73.898437500000, 1491369814
0.002441406250, -1.265869140625, 0.213867187500, -256.000000000000, 110.257812500000, -73.898437500000, 1491369814
-0.967773437500, -1.708740234375, 1.014648437500, -256.000000000000, 253.992187500000, 120.789062500000, 1491369814
-0.967773437500, -1.708740234375, 1.014648437500, -256.000000000000, 253.992187500000, 120.789062500000, 1491369814
-0.967773437500, -1.708740234375, 1.014648437500, -256.000000000000, 253.992187500000, 120.789062500000, 1491369814
-0.382812500000, -1.614501953125, 0.070068359375, 242.109375000000, 253.992187500000, 95.742187500000, 1491369814
-0.382812500000, -1.614501953125, 0.070068359375, 242.109375000000, 253.992187500000, 95.742187500000, 1491369814
-0.382812500000, -1.614501953125, 0.070068359375, 242.109375000000, 253.992187500000, 95.742187500000, 1491369814
-0.202636718750, -0.691894531250, 0.124755859375, -16.468750000000, -256.000000000000, -157.617187500000, 1491369814
-0.202636718750, -0.691894531250, 0.124755859375, -16.468750000000, -256.000000000000, -157.617187500000, 1491369814
-0.202636718750, -0.691894531250, 0.124755859375, -16.468750000000, -256.000000000000, -157.617187500000, 1491369814
-0.082763671875, -0.484619140625, 0.184082031250, 253.992187500000, -82.054687500000, 8.984375000000, 1491369814
-0.082763671875, -0.484619140625, 0.184082031250, 253.992187500000, -82.054687500000, 8.984375000000, 1491369814
-0.082763671875, -0.484619140625, 0.184082031250, 253.992187500000, -82.054687500000, 8.984375000000, 1491369814
-0.082763671875, -0.484619140625, 0.184082031250, 253.992187500000, -82.054687500000, 8.984375000000, 1491369814
-0.165039062500, -0.312744140625, 0.380371093750, -131.953125000000, -26.875000000000, 45.671875000000, 1491369814
-0.165039062500, -0.312744140625, 0.380371093750, -131.953125000000, -26.875000000000, 45.671875000000, 1491369814
-0.165039062500, -0.312744140625, 0.380371093750, -131.953125000000, -26.875000000000, 45.671875000000, 1491369814
-0.120605468750, -0.371826171875, 0.312988281250, -197.351562500000, 99.351562500000, 15.187500000000, 1491369814
-0.120605468750, -0.371826171875, 0.312988281250, -197.351562500000, 99.351562500000, 15.187500000000, 1491369814
-0.120605468750, -0.371826171875, 0.312988281250, -197.351562500000, 99.351562500000, 15.187500000000, 1491369814
-0.096679687500, -0.629882812500, 0.261718750000, -26.203125000000, 10.968750000000, 27.195312500000, 1491369814
-0.096679687500, -0.629882812500, 0.261718750000, -26.203125000000, 10.968750000000, 27.195312500000, 1491369814
-0.096679687500, -0.629882812500, 0.261718750000, -26.203125000000, 10.968750000000, 27.195312500000, 1491369814
-0.149658203125, -0.729736328125, 0.928955078125, 22.898437500000, -115.804687500000, 35.031250000000, 1491369814
-0.149658203125, -0.729736328125, 0.928955078125, 22.898437500000, -115.804687500000, 35.031250000000, 1491369814
-0.149658203125, -0.729736328125, 0.928955078125, 22.898437500000, -115.804687500000, 35.031250000000, 1491369814
-0.149658203125, -0.729736328125, 0.928955078125, 22.898437500000, -115.804687500000, 35.031250000000, 1491369814
-0.043701171875, -0.826416015625, 0.670166015625, -71.335937500000, 9.117187500000, 1.906250000000, 1491369814
-0.043701171875, -0.826416015625, 0.670166015625, -71.335937500000, 9.117187500000, 1.906250000000, 1491369814
-0.043701171875, -0.826416015625, 0.670166015625, -71.335937500000, 9.117187500000, 1.906250000000, 1491369814
-0.067626953125, -0.900634765625, 0.728515625000, -18.859375000000, -17.750000000000, 24.054687500000, 1491369814
-0.067626953125, -0.900634765625, 0.728515625000, -18.859375000000, -17.750000000000, 24.054687500000, 1491369814
-0.067626953125, -0.900634765625, 0.728515625000, -18.859375000000, -17.750000000000, 24.054687500000, 1491369814
-0.055908203125, -0.670654296875, 0.617675781250, -46.054687500000, 4.625000000000, 3.921875000000, 1491369814
-0.055908203125, -0.670654296875, 0.617675781250, -46.054687500000, 4.625000000000, 3.921875000000, 1491369814
-0.055908203125, -0.670654296875, 0.617675781250, -46.054687500000, 4.625000000000, 3.921875000000, 1491369814
-0.147705078125, -0.652832031250, 0.652832031250, -16.304687500000, -13.562500000000, 1.070312500000, 1491369814
-0.147705078125, -0.652832031250, 0.652832031250, -16.304687500000, -13.562500000000, 1.070312500000, 1491369814
-0.147705078125, -0.652832031250, 0.652832031250, -16.304687500000, -13.562500000000, 1.070312500000, 1491369814
-0.147705078125, -0.652832031250, 0.652832031250, -16.304687500000, -13.562500000000, 1.070312500000, 1491369814
-0.098876953125, -0.613525390625, 0.688232421875, -13.468750000000, -11.679687500000, -2.312500000000, 1491369814
-0.098876953125, -0.613525390625, 0.688232421875, -13.468750000000, -11.679687500000, -2.312500000000, 1491369814
-0.098876953125, -0.613525390625, 0.688232421875, -13.468750000000, -11.679687500000, -2.312500000000, 1491369814
-0.066162109375, -0.770019531250, 0.742187500000, -6.671875000000, -13.914062500000, 8.585937500000, 1491369814
-0.066162109375, -0.770019531250, 0.742187500000, -6.671875000000, -13.914062500000, 8.585937500000, 1491369814
-0.066162109375, -0.770019531250, 0.742187500000, -6.671875000000, -13.914062500000, 8.585937500000, 1491369814
-0.017333984375, -0.679931640625, 0.768310546875, -4.953125000000, -7.250000000000, -12.476562500000, 1491369814
-0.017333984375, -0.679931640625, 0.768310546875, -4.953125000000, -7.250000000000, -12.476562500000, 1491369814
-0.017333984375, -0.679931640625, 0.768310546875, -4.953125000000, -7.250000000000, -12.476562500000, 1491369815
0.018554687500, -0.616455078125, 0.724609375000, -22.179687500000, -3.875000000000, 0.648437500000, 1491369815
0.018554687500, -0.616455078125, 0.724609375000, -22.179687500000, -3.875000000000, 0.648437500000, 1491369815
0.018554687500, -0.616455078125, 0.724609375000, -22.179687500000, -3.875000000000, 0.648437500000, 1491369815
-0.043212890625, -0.761230468750, 0.719482421875, -12.710937500000, -8.484375000000, -7.976562500000, 1491369815
-0.043212890625, -0.761230468750, 0.719482421875, -12.710937500000, -8.484375000000, -7.976562500000, 1491369815
-0.043212890625, -0.761230468750, 0.719482421875, -12.710937500000, -8.484375000000, -7.976562500000, 1491369815
-0.043212890625, -0.761230468750, 0.719482421875, -12.710937500000, -8.484375000000, -7.976562500000, 1491369815
-0.200683593750, -0.817871093750, 0.709472656250, -6.187500000000, -3.304687500000, -10.226562500000, 1491369815
-0.200683593750, -0.817871093750, 0.709472656250, -6.187500000000, -3.304687500000, -10.226562500000, 1491369815
-0.200683593750, -0.817871093750, 0.709472656250, -6.187500000000, -3.304687500000, -10.226562500000, 1491369815
-0.091064453125, -0.765625000000, 0.747802734375, 2.851562500000, -4.859375000000, -5.187500000000, 1491369815
-0.091064453125, -0.765625000000, 0.747802734375, 2.851562500000, -4.859375000000, -5.187500000000, 1491369815
-0.091064453125, -0.765625000000, 0.747802734375, 2.851562500000, -4.859375000000, -5.187500000000, 1491369815
-0.061767578125, -0.682373046875, 0.710693359375, 4.578125000000, -10.554687500000, -14.187500000000, 1491369815
-0.061767578125, -0.682373046875, 0.710693359375, 4.578125000000, -10.554687500000, -14.187500000000, 1491369815
-0.061767578125, -0.682373046875, 0.710693359375, 4.578125000000, -10.554687500000, -14.187500000000, 1491369815
-0.061767578125, -0.682373046875, 0.710693359375, 4.578125000000, -10.554687500000, -14.187500000000, 1491369815
0.002197265625, -0.698486328125, 0.763671875000, -4.039062500000, -1.945312500000, -6.593750000000, 1491369815
0.002197265625, -0.698486328125, 0.763671875000, -4.039062500000, -1.945312500000, -6.593750000000, 1491369815
0.002197265625, -0.698486328125, 0.763671875000, -4.039062500000, -1.945312500000, -6.593750000000, 1491369815
0.075927734375, -0.820312500000, 0.713378906250, 3.062500000000, -16.101562500000, -2.710937500000, 1491369815
0.075927734375, -0.820312500000, 0.713378906250, 3.062500000000, -16.101562500000, -2.710937500000, 1491369815
0.075927734375, -0.820312500000, 0.713378906250, 3.062500000000, -16.101562500000, -2.710937500000, 1491369815
-0.036865234375, -0.779541015625, 0.767089843750, -8.570312500000, -10.742187500000, -1.687500000000, 1491369815
-0.036865234375, -0.779541015625, 0.767089843750, -8.570312500000, -10.742187500000, -1.687500000000, 1491369815
-0.036865234375, -0.779541015625, 0.767089843750, -8.570312500000, -10.742187500000, -1.687500000000, 1491369815
-0.083496093750, -0.750976562500, 0.619384765625, -11.867187500000, -3.710937500000, -4.476562500000, 1491369815
-0.083496093750, -0.750976562500, 0.619384765625, -11.867187500000, -3.710937500000, -4.476562500000, 1491369815
-0.083496093750, -0.750976562500, 0.619384765625, -11.867187500000, -3.710937500000, -4.476562500000, 1491369815
-0.083496093750, -0.750976562500, 0.619384765625, -11.867187500000, -3.710937500000, -4.476562500000, 1491369815
0.005615234375, -0.833984375000, 0.675048828125, -13.843750000000, -1.875000000000, 10.335937500000, 1491369815
0.005615234375, -0.833984375000, 0.675048828125, -13.843750000000, -1.875000000000, 10.335937500000, 1491369815
0.005615234375, -0.833984375000, 0.675048828125, -13.843750000000, -1.875000000000, 10.335937500000, 1491369815
0.072998046875, -0.763183593750, 0.680908203125, -6.570312500000, -14.398437500000, 7.671875000000, 1491369815
0.072998046875, -0.763183593750, 0.680908203125, -6.570312500000, -14.398437500000, 7.671875000000, 1491369815
0.072998046875, -0.763183593750, 0.680908203125, -6.570312500000, -14.398437500000, 7.671875000000, 1491369815
0.091796875000, -0.739990234375, 0.758789062500, -9.289062500000, -5.265625000000, -10.492187500000, 1491369815
0.091796875000, -0.739990234375, 0.758789062500, -9.289062500000, -5.265625000000, -10.492187500000, 1491369815
0.091796875000, -0.739990234375, 0.758789062500, -9.289062500000, -5.265625000000, -10.492187500000, 1491369815
-0.034912109375, -0.764404296875, 0.816406250000, -3.195312500000, -12.156250000000, -14.578125000000, 1491369815
-0.034912109375, -0.764404296875, 0.816406250000, -3.195312500000, -12.156250000000, -14.578125000000, 1491369815
-0.034912109375, -0.764404296875, 0.816406250000, -3.195312500000, -12.156250000000, -14.578125000000, 1491369815
-0.034912109375, -0.764404296875, 0.816406250000, -3.195312500000, -12.156250000000, -14.578125000000, 1491369815
0.064941406250, -0.740722656250, 0.813964843750, -1.640625000000, -8.203125000000, -8.437500000000, 1491369815
0.064941406250, -0.740722656250, 0.813964843750, -1.640625000000, -8.203125000000, -8.437500000000, 1491369815
0.064941406250, -0.740722656250, 0.813964843750, -1.640625000000, -8.203125000000, -8.437500000000, 1491369815
-0.020263671875, -0.610107421875, 0.681640625000, -4.546875000000, -11.882812500000, -8.273437500000, 1491369815
-0.020263671875, -0.610107421875, 0.681640625000, -4.546875000000, -11.882812500000, -8.273437500000, 1491369815
-0.020263671875, -0.610107421875, 0.681640625000, -4.546875000000, -11.882812500000, -8.273437500000, 1491369815
0.027832031250, -0.721435546875, 0.750488281250, -7.687500000000, -10.398437500000, -1.718750000000, 1491369815
0.027832031250, -0.721435546875, 0.750488281250, -7.687500000000, -10.398437500000, -1.718750000000, 1491369815
0.027832031250, -0.721435546875, 0.750488281250, -7.687500000000, -10.398437500000, -1.718750000000, 1491369815
-0.029785156250, -0.756591796875, 0.834716796875, -10.203125000000, -10.296875000000, 9.132812500000, 1491369815
-0.029785156250, -0.756591796875, 0.834716796875, -10.203125000000, -10.296875000000, 9.132812500000, 1491369815
-0.029785156250, -0.756591796875, 0.834716796875, -10.203125000000, -10.296875000000, 9.132812500000, 1491369815
-0.029785156250, -0.756591796875, 0.834716796875, -10.203125000000, -10.296875000000, 9.132812500000, 1491369815
0.074462890625, -0.776123046875, 0.755615234375, -12.937500000000, -6.039062500000, 23.929687500000, 1491369815
0.074462890625, -0.776123046875, 0.755615234375, -12.937500000000, -6.039062500000, 23.929687500000, 1491369815
0.074462890625, -0.776123046875, 0.755615234375, -12.937500000000, -6.039062500000, 23.929687500000, 1491369815
0.154541015625, -0.738281250000, 0.814697265625, -0.531250000000, -1.015625000000, 15.164062500000, 1491369815
0.154541015625, -0.738281250000, 0.814697265625, -0.531250000000, -1.015625000000, 15.164062500000, 1491369815
0.154541015625, -0.738281250000, 0.814697265625, -0.531250000000, -1.015625000000, 15.164062500000, 1491369815
0.188476562500, -0.682861328125, 0.781005859375, 0.312500000000, 8.015625000000, 9.492187500000, 1491369815
0.188476562500, -0.682861328125, 0.781005859375, 0.312500000000, 8.015625000000, 9.492187500000, 1491369815
0.188476562500, -0.682861328125, 0.781005859375, 0.312500000000, 8.015625000000, 9.492187500000, 1491369815
0.188476562500, -0.682861328125, 0.781005859375, 0.312500000000, 8.015625000000, 9.492187500000, 1491369815
0.107421875000, -0.683105468750, 0.818847656250, -0.875000000000, 5.296875000000, 7.593750000000, 1491369816
0.107421875000, -0.683105468750, 0.818847656250, -0.875000000000, 5.296875000000, 7.593750000000, 1491369816
0.107421875000, -0.683105468750, 0.818847656250, -0.875000000000, 5.296875000000, 7.593750000000, 1491369816
0.138916015625, -0.671630859375, 0.838867187500, 4.351562500000, 13.320312500000, -2.632812500000, 1491369816
0.138916015625, -0.671630859375, 0.838867187500, 4.351562500000, 13.320312500000, -2.632812500000, 1491369816
0.138916015625, -0.671630859375, 0.838867187500, 4.351562500000, 13.320312500000, -2.632812500000, 1491369816
0.092041015625, -0.668945312500, 0.682128906250, 4.062500000000, 10.617187500000, -1.820312500000, 1491369816
0.092041015625, -0.668945312500, 0.682128906250, 4.062500000000, 10.617187500000, -1.820312500000, 1491369816
0.092041015625, -0.668945312500, 0.682128906250, 4.062500000000, 10.617187500000, -1.820312500000, 1491369816
0.154296875000, -0.823974609375, 0.670166015625, -7.015625000000, 14.304687500000, -4.750000000000, 1491369816
0.154296875000, -0.823974609375, 0.670166015625, -7.015625000000, 14.304687500000, -4.750000000000, 1491369816
0.154296875000, -0.823974609375, 0.670166015625, -7.015625000000, 14.304687500000, -4.750000000000, 1491369816
-0.012695312500, -0.764160156250, 0.766601562500, -10.132812500000, 11.492187500000, -3.539062500000, 1491369816
-0.012695312500, -0.764160156250, 0.766601562500, -10.132812500000, 11.492187500000, -3.539062500000, 1491369816
-0.012695312500, -0.764160156250, 0.766601562500, -10.132812500000, 11.492187500000, -3.539062500000, 1491369816
-0.012695312500, -0.764160156250, 0.766601562500, -10.132812500000, 11.492187500000, -3.539062500000, 1491369816
-0.125000000000, -0.842529296875, 0.687255859375, -9.226562500000, 2.867187500000, -3.007812500000, 1491369816
-0.125000000000, -0.842529296875, 0.687255859375, -9.226562500000, 2.867187500000, -3.007812500000, 1491369816
-0.125000000000, -0.842529296875, 0.687255859375, -9.226562500000, 2.867187500000, -3.007812500000, 1491369816
0.079833984375, -0.717041015625, 0.759765625000, -5.000000000000, -0.468750000000, -6.046875000000, 1491369816
0.079833984375, -0.717041015625, 0.759765625000, -5.000000000000, -0.468750000000, -6.046875000000, 1491369816
0.079833984375, -0.717041015625, 0.759765625000, -5.000000000000, -0.468750000000, -6.046875000000, 1491369816
0.034423828125, -0.658691406250, 0.670166015625, -1.226562500000, 1.257812500000, -7.234375000000, 1491369816
0.034423828125, -0.658691406250, 0.670166015625, -1.226562500000, 1.257812500000, -7.234375000000, 1491369816
0.034423828125, -0.658691406250, 0.670166015625, -1.226562500000, 1.257812500000, -7.234375000000, 1491369816
0.072021484375, -0.708007812500, 0.724121093750, 4.906250000000, -4.289062500000, -1.843750000000, 1491369816
0.072021484375, -0.708007812500, 0.724121093750, 4.906250000000, -4.289062500000, -1.843750000000, 1491369816
0.072021484375, -0.708007812500, 0.724121093750, 4.906250000000, -4.289062500000, -1.843750000000, 1491369816
0.072021484375, -0.708007812500, 0.724121093750, 4.906250000000, -4.289062500000, -1.843750000000, 1491369816
-0.012939453125, -0.674316406250, 0.609619140625, -8.210937500000, -0.851562500000, -7.414062500000, 1491369816
-0.012939453125, -0.674316406250, 0.609619140625, -8.210937500000, -0.851562500000, -7.414062500000, 1491369816
-0.012939453125, -0.674316406250, 0.609619140625, -8.210937500000, -0.851562500000, -7.414062500000, 1491369816
-0.017822265625, -0.622802734375, 0.772949218750, -4.718750000000, 0.671875000000, -6.210937500000, 1491369816
-0.017822265625, -0.622802734375, 0.772949218750, -4.718750000000, 0.671875000000, -6.210937500000, 1491369816
-0.017822265625, -0.622802734375, 0.772949218750, -4.718750000000, 0.671875000000, -6.210937500000, 1491369816
0.072021484375, -0.681152343750, 0.684570312500, -0.148437500000, 0.843750000000, -2.890625000000, 1491369816
0.072021484375, -0.681152343750, 0.684570312500, -0.148437500000, 0.843750000000, -2.890625000000, 1491369816
0.072265625000, -0.781005859375, 0.758544921875, -2.851562500000, 1.234375000000, -4.250000000000, 1491369816
0.072265625000, -0.781005859375, 0.758544921875, -2.851562500000, 1.234375000000, -4.250000000000, 1491369816
0.072265625000, -0.781005859375, 0.758544921875, -2.851562500000, 1.234375000000, -4.250000000000, 1491369816
0.072265625000, -0.781005859375, 0.758544921875, -2.851562500000, 1.234375000000, -4.250000000000, 1491369816
0.072265625000, -0.781005859375, 0.758544921875, -2.851562500000, 1.234375000000, -4.250000000000, 1491369816
0.072265625000, -0.781005859375, 0.758544921875, -2.851562500000, 1.234375000000, -4.250000000000, 1491369816
0.072265625000, -0.781005859375, 0.758544921875, -2.851562500000, 1.234375000000, -4.250000000000, 1491369816
0.002197265625, -0.666992187500, 0.723632812500, -4.835937500000, 2.203125000000, -1.234375000000, 1491369816
0.002197265625, -0.666992187500, 0.723632812500, -4.835937500000, 2.203125000000, -1.234375000000, 1491369816
0.002197265625, -0.666992187500, 0.723632812500, -4.835937500000, 2.203125000000, -1.234375000000, 1491369816
0.002197265625, -0.666992187500, 0.723632812500, -4.835937500000, 2.203125000000, -1.234375000000, 1491369816
0.058593750000, -0.684326171875, 0.731933593750, 2.000000000000, 0.539062500000, -4.562500000000, 1491369816
0.058593750000, -0.684326171875, 0.731933593750, 2.000000000000, 0.539062500000, -4.562500000000, 1491369816
0.058593750000, -0.684326171875, 0.731933593750, 2.000000000000, 0.539062500000, -4.562500000000, 1491369816
-0.020996093750, -0.731201171875, 0.736083984375, -4.421875000000, 1.539062500000, -1.007812500000, 1491369816
-0.021484375000, -0.774658203125, 0.753173828125, -2.734375000000, -2.734375000000, -2.656250000000, 1491369816
-0.021484375000, -0.774658203125, 0.753173828125, -2.734375000000, -2.734375000000, -2.656250000000, 1491369816
-0.021484375000, -0.774658203125, 0.753173828125, -2.734375000000, -2.734375000000, -2.656250000000, 1491369816
-0.017333984375, -0.810546875000, 0.770263671875, -0.328125000000, 2.046875000000, -8.031250000000, 1491369816
-0.017333984375, -0.810546875000, 0.770263671875, -0.328125000000, 2.046875000000, -8.031250000000, 1491369816
-0.017333984375, -0.810546875000, 0.770263671875, -0.328125000000, 2.046875000000, -8.031250000000, 1491369816
0.036621093750, -0.673828125000, 0.674316406250, -5.109375000000, -0.445312500000, -6.414062500000, 1491369816
0.036621093750, -0.673828125000, 0.674316406250, -5.109375000000, -0.445312500000, -6.414062500000, 1491369816
0.088378906250, -0.720458984375, 0.773925781250, -0.640625000000, -2.375000000000, -9.078125000000, 1491369816
0.088378906250, -0.720458984375, 0.773925781250, -0.640625000000, -2.375000000000, -9.078125000000, 1491369816
0.088378906250, -0.720458984375, 0.773925781250, -0.640625000000, -2.375000000000, -9.078125000000, 1491369816
0.088378906250, -0.720458984375, 0.773925781250, -0.640625000000, -2.375000000000, -9.078125000000, 1491369816
0.088378906250, -0.720458984375, 0.773925781250, -0.640625000000, -2.375000000000, -9.078125000000, 1491369816
-0.066406250000, -0.693115234375, 0.686035156250, 2.554687500000, -6.757812500000, -10.375000000000, 1491369816
-0.066406250000, -0.693115234375, 0.686035156250, 2.554687500000, -6.757812500000, -10.375000000000, 1491369816
-0.066406250000, -0.693115234375, 0.686035156250, 2.554687500000, -6.757812500000, -10.375000000000, 1491369816
0.091064453125, -0.836914062500, 0.702636718750, -6.304687500000, -0.875000000000, -3.554687500000, 1491369817
0.091064453125, -0.836914062500, 0.702636718750, -6.304687500000, -0.875000000000, -3.554687500000, 1491369817
0.091064453125, -0.836914062500, 0.702636718750, -6.304687500000, -0.875000000000, -3.554687500000, 1491369817
-0.015380859375, -0.772216796875, 0.731933593750, -3.109375000000, -0.695312500000, -5.734375000000, 1491369817
-0.015380859375, -0.772216796875, 0.731933593750, -3.109375000000, -0.695312500000, -5.734375000000, 1491369817
-0.015380859375, -0.772216796875, 0.731933593750, -3.109375000000, -0.695312500000, -5.734375000000, 1491369817
0.139892578125, -0.780273437500, 0.767333984375, -3.648437500000, -1.523437500000, -8.585937500000, 1491369817
0.139892578125, -0.780273437500, 0.767333984375, -3.648437500000, -1.523437500000, -8.585937500000, 1491369817
0.139892578125, -0.780273437500, 0.767333984375, -3.648437500000, -1.523437500000, -8.585937500000, 1491369817
0.139892578125, -0.780273437500, 0.767333984375, -3.648437500000, -1.523437500000, -8.585937500000, 1491369817
0.030517578125, -0.657714843750, 0.610839843750, -3.187500000000, -2.757812500000, -1.351562500000, 1491369817
0.030517578125, -0.657714843750, 0.610839843750, -3.187500000000, -2.757812500000, -1.351562500000, 1491369817
0.030517578125, -0.657714843750, 0.610839843750, -3.187500000000, -2.757812500000, -1.351562500000, 1491369817
0.083007812500, -0.757812500000, 0.768554687500, -3.992187500000, -2.976562500000, -6.976562500000, 1491369817
0.083007812500, -0.757812500000, 0.768554687500, -3.992187500000, -2.976562500000, -6.976562500000, 1491369817
0.083007812500, -0.757812500000, 0.768554687500, -3.992187500000, -2.976562500000, -6.976562500000, 1491369817
