ACC_X,ACC_Y,ACC_Z,G_X,G_Y,G_Z,Unix Time
-0.035400390625, -0.863281250000, 0.604736328125, -6.429687500000, 1.546875000000, -2.054687500000, 1491368767
-0.035400390625, -0.863281250000, 0.604736328125, -6.429687500000, 1.546875000000, -2.054687500000, 1491368767
-0.035400390625, -0.863281250000, 0.604736328125, -6.429687500000, 1.546875000000, -2.054687500000, 1491368767
0.030273437500, -0.782958984375, 0.594726562500, -1.101562500000, -0.562500000000, -0.968750000000, 1491368767
0.030273437500, -0.782958984375, 0.594726562500, -1.101562500000, -0.562500000000, -0.968750000000, 1491368767
0.030273437500, -0.782958984375, 0.594726562500, -1.101562500000, -0.562500000000, -0.968750000000, 1491368767
-0.047607421875, -0.807128906250, 0.541015625000, -3.234375000000, 2.695312500000, 2.359375000000, 1491368767
-0.047607421875, -0.807128906250, 0.541015625000, -3.234375000000, 2.695312500000, 2.359375000000, 1491368767
0.024902343750, -0.760253906250, 0.564208984375, -4.070312500000, -0.078125000000, -1.984375000000, 1491368767
0.024902343750, -0.760253906250, 0.564208984375, -4.070312500000, -0.078125000000, -1.984375000000, 1491368767
0.024902343750, -0.760253906250, 0.564208984375, -4.070312500000, -0.078125000000, -1.984375000000, 1491368767
0.024902343750, -0.760253906250, 0.564208984375, -4.070312500000, -0.078125000000, -1.984375000000, 1491368767
0.024902343750, -0.760253906250, 0.564208984375, -4.070312500000, -0.078125000000, -1.984375000000, 1491368767
-0.051757812500, -0.765380859375, 0.532714843750, -3.445312500000, 0.156250000000, -3.992187500000, 1491368767
-0.002197265625, -0.888671875000, 0.509277343750, -3.054687500000, 1.648437500000, -3.421875000000, 1491368767
-0.002197265625, -0.888671875000, 0.509277343750, -3.054687500000, 1.648437500000, -3.421875000000, 1491368767
-0.002197265625, -0.888671875000, 0.509277343750, -3.054687500000, 1.648437500000, -3.421875000000, 1491368767
-0.002197265625, -0.888671875000, 0.509277343750, -3.054687500000, 1.648437500000, -3.421875000000, 1491368767
-0.045898437500, -0.732910156250, 0.592529296875, -3.367187500000, 6.250000000000, -3.648437500000, 1491368767
-0.125976562500, -0.790039062500, 0.639160156250, -2.000000000000, -0.367187500000, -4.890625000000, 1491368767
-0.125976562500, -0.790039062500, 0.639160156250, -2.000000000000, -0.367187500000, -4.890625000000, 1491368767
-0.125976562500, -0.790039062500, 0.639160156250, -2.000000000000, -0.367187500000, -4.890625000000, 1491368767
-0.125976562500, -0.790039062500, 0.639160156250, -2.000000000000, -0.367187500000, -4.890625000000, 1491368767
0.003173828125, -0.781738281250, 0.552490234375, -9.382812500000, 1.500000000000, -3.023437500000, 1491368767
0.003173828125, -0.781738281250, 0.552490234375, -9.382812500000, 1.500000000000, -3.023437500000, 1491368767
0.003173828125, -0.781738281250, 0.552490234375, -9.382812500000, 1.500000000000, -3.023437500000, 1491368767
-0.027587890625, -0.891113281250, 0.473632812500, -5.773437500000, 0.312500000000, -3.453125000000, 1491368767
-0.027587890625, -0.891113281250, 0.473632812500, -5.773437500000, 0.312500000000, -3.453125000000, 1491368767
-0.027587890625, -0.891113281250, 0.473632812500, -5.773437500000, 0.312500000000, -3.453125000000, 1491368767
-0.078125000000, -0.837158203125, 0.607177734375, -6.828125000000, 1.328125000000, -3.507812500000, 1491368768
-0.078125000000, -0.837158203125, 0.607177734375, -6.828125000000, 1.328125000000, -3.507812500000, 1491368768
-0.078125000000, -0.837158203125, 0.607177734375, -6.828125000000, 1.328125000000, -3.507812500000, 1491368768
-0.036376953125, -0.788574218750, 0.566162109375, -3.570312500000, -2.820312500000, -3.648437500000, 1491368768
-0.036376953125, -0.788574218750, 0.566162109375, -3.570312500000, -2.820312500000, -3.648437500000, 1491368768
-0.036376953125, -0.788574218750, 0.566162109375, -3.570312500000, -2.820312500000, -3.648437500000, 1491368768
-0.036376953125, -0.788574218750, 0.566162109375, -3.570312500000, -2.820312500000, -3.648437500000, 1491368768
-0.074462890625, -0.814941406250, 0.549560546875, 0.492187500000, -0.757812500000, -1.632812500000, 1491368768
-0.074462890625, -0.814941406250, 0.549560546875, 0.492187500000, -0.757812500000, -1.632812500000, 1491368768
-0.005859375000, -0.898681640625, 0.558349609375, -3.570312500000, 0.320312500000, -3.210937500000, 1491368768
0.023437500000, -0.891845703125, 0.614990234375, -3.335937500000, -0.375000000000, -3.078125000000, 1491368768
-0.146972656250, -0.778076171875, 0.536865234375, -3.445312500000, -0.570312500000, -1.835937500000, 1491368768
-0.146972656250, -0.778076171875, 0.536865234375, -3.445312500000, -0.570312500000, -1.835937500000, 1491368768
0.010009765625, -0.798095703125, 0.595214843750, -4.539062500000, -2.375000000000, -1.640625000000, 1491368768
0.019042968750, -0.815917968750, 0.533935546875, -4.539062500000, -2.375000000000, -1.640625000000, 1491368768
0.019042968750, -0.815917968750, 0.533935546875, -4.539062500000, -2.375000000000, -1.640625000000, 1491368768
0.019042968750, -0.815917968750, 0.533935546875, -4.539062500000, -2.375000000000, -1.640625000000, 1491368768
0.019042968750, -0.815917968750, 0.533935546875, -4.539062500000, -2.375000000000, -1.640625000000, 1491368768
0.019042968750, -0.815917968750, 0.533935546875, -4.539062500000, -2.375000000000, -1.640625000000, 1491368768
0.019042968750, -0.815917968750, 0.533935546875, -4.539062500000, -2.375000000000, -1.640625000000, 1491368768
0.019042968750, -0.815917968750, 0.533935546875, -4.539062500000, -2.375000000000, -1.640625000000, 1491368768
-0.078369140625, -0.782958984375, 0.580566406250, -2.390625000000, 0.734375000000, -1.257812500000, 1491368768
-0.078369140625, -0.782958984375, 0.580566406250, -2.390625000000, 0.734375000000, -1.257812500000, 1491368768
-0.078369140625, -0.782958984375, 0.580566406250, -2.390625000000, 0.734375000000, -1.257812500000, 1491368768
-0.078369140625, -0.782958984375, 0.580566406250, -2.390625000000, 0.734375000000, -1.257812500000, 1491368768
-0.078369140625, -0.782958984375, 0.580566406250, -2.390625000000, 0.734375000000, -1.257812500000, 1491368768
-0.131835937500, -0.857177734375, 0.689453125000, -4.304687500000, 0.679687500000, -1.843750000000, 1491368768
-0.131835937500, -0.857177734375, 0.689453125000, -4.304687500000, 0.679687500000, -1.843750000000, 1491368768
-0.131835937500, -0.857177734375, 0.689453125000, -4.304687500000, 0.679687500000, -1.843750000000, 1491368768
0.017089843750, -0.782226562500, 0.584472656250, -2.421875000000, -1.671875000000, -5.132812500000, 1491368768
0.017089843750, -0.782226562500, 0.584472656250, -2.421875000000, -1.671875000000, -5.132812500000, 1491368768
0.017089843750, -0.782226562500, 0.584472656250, -2.421875000000, -1.671875000000, -5.132812500000, 1491368768
0.017089843750, -0.782226562500, 0.584472656250, -2.421875000000, -1.671875000000, -5.132812500000, 1491368768
-0.110351562500, -0.853027343750, 0.492919921875, -3.179687500000, -0.320312500000, -6.984375000000, 1491368768
-0.110351562500, -0.853027343750, 0.492919921875, -3.179687500000, -0.320312500000, -6.984375000000, 1491368768
-0.110351562500, -0.853027343750, 0.492919921875, -3.179687500000, -0.320312500000, -6.984375000000, 1491368768
-0.087646484375, -0.885498046875, 0.593017578125, -4.742187500000, -4.625000000000, -5.757812500000, 1491368768
-0.087646484375, -0.885498046875, 0.593017578125, -4.742187500000, -4.625000000000, -5.757812500000, 1491368768
-0.087646484375, -0.885498046875, 0.593017578125, -4.742187500000, -4.625000000000, -5.757812500000, 1491368768
-0.083984375000, -0.808593750000, 0.538574218750, -3.867187500000, -3.734375000000, -7.406250000000, 1491368768
-0.083984375000, -0.808593750000, 0.538574218750, -3.867187500000, -3.734375000000, -7.406250000000, 1491368768
-0.083984375000, -0.808593750000, 0.538574218750, -3.867187500000, -3.734375000000, -7.406250000000, 1491368768
0.009277343750, -0.854248046875, 0.555908203125, 0.812500000000, -9.101562500000, -6.390625000000, 1491368768
0.009277343750, -0.854248046875, 0.555908203125, 0.812500000000, -9.101562500000, -6.390625000000, 1491368768
0.009277343750, -0.854248046875, 0.555908203125, 0.812500000000, -9.101562500000, -6.390625000000, 1491368768
0.009277343750, -0.854248046875, 0.555908203125, 0.812500000000, -9.101562500000, -6.390625000000, 1491368768
-0.073730468750, -0.883789062500, 0.627685546875, 2.367187500000, -13.070312500000, -8.062500000000, 1491368768
-0.031982421875, -0.845703125000, 0.526611328125, 0.031250000000, -14.656250000000, -5.125000000000, 1491368768
-0.031982421875, -0.845703125000, 0.526611328125, 0.031250000000, -14.656250000000, -5.125000000000, 1491368768
-0.031982421875, -0.845703125000, 0.526611328125, 0.031250000000, -14.656250000000, -5.125000000000, 1491368768
-0.053955078125, -0.806884765625, 0.623046875000, 1.515625000000, -12.976562500000, -6.664062500000, 1491368768
-0.053955078125, -0.806884765625, 0.623046875000, 1.515625000000, -12.976562500000, -6.664062500000, 1491368768
-0.053955078125, -0.806884765625, 0.623046875000, 1.515625000000, -12.976562500000, -6.664062500000, 1491368768
-0.053955078125, -0.806884765625, 0.623046875000, 1.515625000000, -12.976562500000, -6.664062500000, 1491368768
-0.053955078125, -0.806884765625, 0.623046875000, 1.515625000000, -12.976562500000, -6.664062500000, 1491368768
-0.089843750000, -0.833007812500, 0.537353515625, 2.218750000000, -10.218750000000, -6.718750000000, 1491368768
-0.089843750000, -0.833007812500, 0.537353515625, 2.218750000000, -10.218750000000, -6.718750000000, 1491368768
-0.089843750000, -0.833007812500, 0.537353515625, 2.218750000000, -10.218750000000, -6.718750000000, 1491368768
-0.089843750000, -0.833007812500, 0.537353515625, 2.218750000000, -10.218750000000, -6.718750000000, 1491368768
-0.134521484375, -0.852539062500, 0.557128906250, -2.390625000000, -7.804687500000, -8.367187500000, 1491368768
-0.134521484375, -0.852539062500, 0.557128906250, -2.390625000000, -7.804687500000, -8.367187500000, 1491368768
-0.118652343750, -0.608886718750, 0.524902343750, 10.601562500000, -17.070312500000, -5.046875000000, 1491368768
-0.118652343750, -0.608886718750, 0.524902343750, 10.601562500000, -17.070312500000, -5.046875000000, 1491368768
-0.118652343750, -0.608886718750, 0.524902343750, 10.601562500000, -17.070312500000, -5.046875000000, 1491368768
-0.118652343750, -0.608886718750, 0.524902343750, 10.601562500000, -17.070312500000, -5.046875000000, 1491368768
-0.177001953125, -0.694580078125, 0.448974609375, 10.148437500000, -22.156250000000, -6.187500000000, 1491368769
-0.177001953125, -0.694580078125, 0.448974609375, 10.148437500000, -22.156250000000, -6.187500000000, 1491368769
-0.011962890625, -0.788574218750, 0.783447265625, 31.687500000000, 4.460937500000, -13.812500000000, 1491368769
-0.011962890625, -0.788574218750, 0.783447265625, 31.687500000000, 4.460937500000, -13.812500000000, 1491368769
-0.011962890625, -0.788574218750, 0.783447265625, 31.687500000000, 4.460937500000, -13.812500000000, 1491368769
-0.011962890625, -0.788574218750, 0.783447265625, 31.687500000000, 4.460937500000, -13.812500000000, 1491368769
-0.011962890625, -0.788574218750, 0.783447265625, 31.687500000000, 4.460937500000, -13.812500000000, 1491368769
0.357421875000, -0.695312500000, 0.460449218750, 33.367187500000, -32.671875000000, 15.195312500000, 1491368769
0.357421875000, -0.695312500000, 0.460449218750, 33.367187500000, -32.671875000000, 15.195312500000, 1491368769
0.357421875000, -0.695312500000, 0.460449218750, 33.367187500000, -32.671875000000, 15.195312500000, 1491368769
-0.093750000000, -1.004882812500, 0.597412109375, 62.226562500000, -13.601562500000, 35.000000000000, 1491368769
-0.093750000000, -1.004882812500, 0.597412109375, 62.226562500000, -13.601562500000, 35.000000000000, 1491368769
-0.093750000000, -1.004882812500, 0.597412109375, 62.226562500000, -13.601562500000, 35.000000000000, 1491368769
-0.030517578125, -0.944335937500, 0.752685546875, 23.195312500000, 8.187500000000, 25.718750000000, 1491368769
-0.030517578125, -0.944335937500, 0.752685546875, 23.195312500000, 8.187500000000, 25.718750000000, 1491368769
-0.030517578125, -0.944335937500, 0.752685546875, 23.195312500000, 8.187500000000, 25.718750000000, 1491368769
0.077880859375, -0.675781250000, 0.488281250000, 53.304687500000, 23.632812500000, 14.492187500000, 1491368769
0.077880859375, -0.675781250000, 0.488281250000, 53.304687500000, 23.632812500000, 14.492187500000, 1491368769
0.077880859375, -0.675781250000, 0.488281250000, 53.304687500000, 23.632812500000, 14.492187500000, 1491368769
0.077880859375, -0.675781250000, 0.488281250000, 53.304687500000, 23.632812500000, 14.492187500000, 1491368769
0.188476562500, -0.752685546875, 0.430664062500, 26.648437500000, 21.390625000000, 17.406250000000, 1491368769
0.188476562500, -0.752685546875, 0.430664062500, 26.648437500000, 21.390625000000, 17.406250000000, 1491368769
0.188476562500, -0.752685546875, 0.430664062500, 26.648437500000, 21.390625000000, 17.406250000000, 1491368769
0.149658203125, -0.722900390625, 0.281982421875, 39.554687500000, 16.359375000000, 18.968750000000, 1491368769
0.149658203125, -0.722900390625, 0.281982421875, 39.554687500000, 16.359375000000, 18.968750000000, 1491368769
0.149658203125, -0.722900390625, 0.281982421875, 39.554687500000, 16.359375000000, 18.968750000000, 1491368769
0.019287109375, -0.788330078125, 0.392089843750, 48.375000000000, 4.164062500000, 6.367187500000, 1491368769
0.019287109375, -0.788330078125, 0.392089843750, 48.375000000000, 4.164062500000, 6.367187500000, 1491368769
0.019287109375, -0.788330078125, 0.392089843750, 48.375000000000, 4.164062500000, 6.367187500000, 1491368769
0.170898437500, -1.046142578125, 0.516357421875, 38.992187500000, -4.484375000000, -12.453125000000, 1491368769
0.170898437500, -1.046142578125, 0.516357421875, 38.992187500000, -4.484375000000, -12.453125000000, 1491368769
0.170898437500, -1.046142578125, 0.516357421875, 38.992187500000, -4.484375000000, -12.453125000000, 1491368769
0.121337890625, -1.127197265625, 0.697753906250, 9.257812500000, -2.835937500000, -9.210937500000, 1491368769
0.121337890625, -1.127197265625, 0.697753906250, 9.257812500000, -2.835937500000, -9.210937500000, 1491368769
0.121337890625, -1.127197265625, 0.697753906250, 9.257812500000, -2.835937500000, -9.210937500000, 1491368769
0.121337890625, -1.127197265625, 0.697753906250, 2.703125000000, -5.328125000000, -14.796875000000, 1491368769
0.275390625000, -1.050781250000, 0.442382812500, -11.812500000000, 18.929687500000, -16.867187500000, 1491368769
0.275390625000, -1.050781250000, 0.442382812500, -11.812500000000, 18.929687500000, -16.867187500000, 1491368769
0.275390625000, -1.050781250000, 0.442382812500, -11.812500000000, 18.929687500000, -16.867187500000, 1491368769
0.275390625000, -1.050781250000, 0.442382812500, -11.812500000000, 18.929687500000, -16.867187500000, 1491368769
0.275390625000, -1.050781250000, 0.442382812500, -11.812500000000, 18.929687500000, -16.867187500000, 1491368769
0.106445312500, -1.264160156250, 0.363525390625, -15.851562500000, 28.117187500000, -13.468750000000, 1491368769
0.156250000000, -1.626220703125, 0.307861328125, -32.218750000000, 15.671875000000, -17.656250000000, 1491368769
0.156250000000, -1.626220703125, 0.307861328125, -32.218750000000, 15.671875000000, -17.656250000000, 1491368769
0.156250000000, -1.626220703125, 0.307861328125, -32.218750000000, 15.671875000000, -17.656250000000, 1491368769
0.156250000000, -1.626220703125, 0.307861328125, -32.218750000000, 15.671875000000, -17.656250000000, 1491368769
0.015625000000, -1.146484375000, 0.259033203125, -21.835937500000, 35.109375000000, -28.203125000000, 1491368769
0.015625000000, -1.146484375000, 0.259033203125, -21.835937500000, 35.109375000000, -28.203125000000, 1491368769
0.015625000000, -1.146484375000, 0.259033203125, -21.835937500000, 35.109375000000, -28.203125000000, 1491368769
0.084716796875, -1.247070312500, 0.034667968750, -113.070312500000, 27.898437500000, -41.585937500000, 1491368769
0.084716796875, -1.247070312500, 0.034667968750, -113.070312500000, 27.898437500000, -41.585937500000, 1491368769
0.084716796875, -1.247070312500, 0.034667968750, -113.070312500000, 27.898437500000, -41.585937500000, 1491368769
-0.204833984375, -1.179687500000, 0.065917968750, -84.320312500000, 36.242187500000, -47.070312500000, 1491368769
-0.204833984375, -1.179687500000, 0.065917968750, -84.320312500000, 36.242187500000, -47.070312500000, 1491368769
-0.204833984375, -1.179687500000, 0.065917968750, -84.320312500000, 36.242187500000, -47.070312500000, 1491368769
-0.244628906250, -1.042968750000, 0.085937500000, -56.625000000000, -2.882812500000, -37.171875000000, 1491368769
-0.244628906250, -1.042968750000, 0.085937500000, -56.625000000000, -2.882812500000, -37.171875000000, 1491368769
-0.244628906250, -1.042968750000, 0.085937500000, -56.625000000000, -2.882812500000, -37.171875000000, 1491368769
-0.244628906250, -1.042968750000, 0.085937500000, -56.625000000000, -2.882812500000, -37.171875000000, 1491368769
-0.126464843750, -1.082763671875, 0.056884765625, -7.382812500000, -31.195312500000, 5.132812500000, 1491368769
-0.126464843750, -1.082763671875, 0.056884765625, -7.382812500000, -31.195312500000, 5.132812500000, 1491368769
-0.126464843750, -1.082763671875, 0.056884765625, -7.382812500000, -31.195312500000, 5.132812500000, 1491368769
0.140625000000, -0.820312500000, 0.187744140625, 33.976562500000, -74.617187500000, 4.250000000000, 1491368769
0.140625000000, -0.820312500000, 0.187744140625, 33.976562500000, -74.617187500000, 4.250000000000, 1491368769
0.140625000000, -0.820312500000, 0.187744140625, 33.976562500000, -74.617187500000, 4.250000000000, 1491368769
0.090576171875, -0.659667968750, 0.070068359375, 40.937500000000, -104.046875000000, -3.367187500000, 1491368769
0.090576171875, -0.659667968750, 0.070068359375, 40.937500000000, -104.046875000000, -3.367187500000, 1491368769
0.090576171875, -0.659667968750, 0.070068359375, 40.937500000000, -104.046875000000, -3.367187500000, 1491368770
0.132812500000, -0.754882812500, 0.096435546875, 37.632812500000, -30.726562500000, 25.039062500000, 1491368770
0.132812500000, -0.754882812500, 0.096435546875, 37.632812500000, -30.726562500000, 25.039062500000, 1491368770
0.132812500000, -0.754882812500, 0.096435546875, 37.632812500000, -30.726562500000, 25.039062500000, 1491368770
0.132812500000, -0.754882812500, 0.096435546875, 37.632812500000, -30.726562500000, 25.039062500000, 1491368770
0.135253906250, -0.802734375000, 0.133789062500, 76.351562500000, -25.132812500000, 11.476562500000, 1491368770
0.135253906250, -0.802734375000, 0.133789062500, 76.351562500000, -25.132812500000, 11.476562500000, 1491368770
0.135253906250, -0.802734375000, 0.133789062500, 76.351562500000, -25.132812500000, 11.476562500000, 1491368770
0.084472656250, -1.140869140625, 0.361328125000, 232.570312500000, -194.953125000000, 24.507812500000, 1491368770
0.084472656250, -1.140869140625, 0.361328125000, 232.570312500000, -194.953125000000, 24.507812500000, 1491368770
0.084472656250, -1.140869140625, 0.361328125000, 232.570312500000, -194.953125000000, 24.507812500000, 1491368770
-0.194824218750, -0.849121093750, 0.924072265625, 53.070312500000, -34.500000000000, -0.601562500000, 1491368770
-0.194824218750, -0.849121093750, 0.924072265625, 53.070312500000, -34.500000000000, -0.601562500000, 1491368770
-0.194824218750, -0.849121093750, 0.924072265625, 53.070312500000, -34.500000000000, -0.601562500000, 1491368770
-0.047119140625, -1.181640625000, 0.290771484375, -135.875000000000, 46.187500000000, 17.281250000000, 1491368770
-0.047119140625, -1.181640625000, 0.290771484375, -135.875000000000, 46.187500000000, 17.281250000000, 1491368770
-0.047119140625, -1.181640625000, 0.290771484375, -135.875000000000, 46.187500000000, 17.281250000000, 1491368770
-0.047119140625, -1.181640625000, 0.290771484375, -135.875000000000, 46.187500000000, 17.281250000000, 1491368770
0.046386718750, -1.290527343750, 0.253173828125, -92.140625000000, 111.859375000000, 20.328125000000, 1491368770
0.046386718750, -1.290527343750, 0.253173828125, -92.140625000000, 111.859375000000, 20.328125000000, 1491368770
0.046386718750, -1.290527343750, 0.253173828125, -92.140625000000, 111.859375000000, 20.328125000000, 1491368770
0.278076171875, -1.027099609375, 0.197753906250, 35.007812500000, 5.492187500000, 27.718750000000, 1491368770
0.336181640625, -1.011962890625, 0.203125000000, 35.007812500000, 5.492187500000, 27.718750000000, 1491368770
0.336181640625, -1.011962890625, 0.203125000000, 35.007812500000, 5.492187500000, 27.718750000000, 1491368770
0.336181640625, -1.011962890625, 0.203125000000, 35.007812500000, 5.492187500000, 27.718750000000, 1491368770
0.336181640625, -1.011962890625, 0.203125000000, 35.007812500000, 5.492187500000, 27.718750000000, 1491368770
0.336181640625, -1.011962890625, 0.203125000000, 35.007812500000, 5.492187500000, 27.718750000000, 1491368770
0.361816406250, -0.905761718750, 0.330810546875, 31.421875000000, 31.468750000000, 11.429687500000, 1491368770
0.361816406250, -0.905761718750, 0.330810546875, 31.421875000000, 31.468750000000, 11.429687500000, 1491368770
0.361816406250, -0.905761718750, 0.330810546875, 31.421875000000, 31.468750000000, 11.429687500000, 1491368770
0.361816406250, -0.905761718750, 0.330810546875, 31.421875000000, 31.468750000000, 11.429687500000, 1491368770
0.365234375000, -0.792480468750, 0.329833984375, -12.257812500000, 43.820312500000, 14.453125000000, 1491368770
0.365234375000, -0.792480468750, 0.329833984375, -12.257812500000, 43.820312500000, 14.453125000000, 1491368770
0.365234375000, -0.792480468750, 0.329833984375, -12.257812500000, 43.820312500000, 14.453125000000, 1491368770
0.187255859375, -0.956054687500, 0.171875000000, -22.507812500000, 54.359375000000, 22.687500000000, 1491368770
0.187255859375, -0.956054687500, 0.171875000000, -22.507812500000, 54.359375000000, 22.687500000000, 1491368770
0.187255859375, -0.956054687500, 0.171875000000, -22.507812500000, 54.359375000000, 22.687500000000, 1491368770
0.270751953125, -0.892578125000, 0.245117187500, 12.789062500000, 56.054687500000, 3.476562500000, 1491368770
0.270751953125, -0.892578125000, 0.245117187500, 12.789062500000, 56.054687500000, 3.476562500000, 1491368770
0.270751953125, -0.892578125000, 0.245117187500, 12.789062500000, 56.054687500000, 3.476562500000, 1491368770
0.180175781250, -0.709960937500, 0.335205078125, 32.968750000000, 55.750000000000, 4.601562500000, 1491368770
0.180175781250, -0.709960937500, 0.335205078125, 32.968750000000, 55.750000000000, 4.601562500000, 1491368770
0.180175781250, -0.709960937500, 0.335205078125, 32.968750000000, 55.750000000000, 4.601562500000, 1491368770
0.180175781250, -0.709960937500, 0.335205078125, 32.968750000000, 55.750000000000, 4.601562500000, 1491368770
0.132568359375, -0.688476562500, 0.313964843750, 19.945312500000, 44.164062500000, -1.343750000000, 1491368770
0.132568359375, -0.688476562500, 0.313964843750, 19.945312500000, 44.164062500000, -1.343750000000, 1491368770
0.132568359375, -0.688476562500, 0.313964843750, 19.945312500000, 44.164062500000, -1.343750000000, 1491368770
0.091796875000, -0.767822265625, 0.222900390625, 5.289062500000, 52.039062500000, 0.226562500000, 1491368770
0.091796875000, -0.767822265625, 0.222900390625, 5.289062500000, 52.039062500000, 0.226562500000, 1491368770
0.091796875000, -0.767822265625, 0.222900390625, 5.289062500000, 52.039062500000, 0.226562500000, 1491368770
0.095214843750, -0.937744140625, 0.343505859375, 30.781250000000, 8.773437500000, -7.359375000000, 1491368770
0.115722656250, -0.909912109375, 0.392578125000, 30.781250000000, 8.773437500000, -7.359375000000, 1491368770
0.115722656250, -0.909912109375, 0.392578125000, 30.781250000000, 8.773437500000, -7.359375000000, 1491368770
0.115722656250, -0.909912109375, 0.392578125000, 30.781250000000, 8.773437500000, -7.359375000000, 1491368770
0.194335937500, -1.009277343750, 0.462890625000, 12.195312500000, 5.882812500000, -16.664062500000, 1491368770
0.194335937500, -1.009277343750, 0.462890625000, 12.195312500000, 5.882812500000, -16.664062500000, 1491368770
0.194335937500, -1.009277343750, 0.462890625000, 12.195312500000, 5.882812500000, -16.664062500000, 1491368770
0.194335937500, -1.009277343750, 0.462890625000, 12.195312500000, 5.882812500000, -16.664062500000, 1491368770
0.057861328125, -1.181884765625, 0.451416015625, 2.742187500000, 3.671875000000, -23.453125000000, 1491368770
0.035400390625, -1.213867187500, 0.468505859375, -2.453125000000, 2.328125000000, -30.953125000000, 1491368770
0.035400390625, -1.213867187500, 0.468505859375, -2.453125000000, 2.328125000000, -30.953125000000, 1491368770
0.035400390625, -1.213867187500, 0.468505859375, -2.453125000000, 2.328125000000, -30.953125000000, 1491368770
0.143554687500, -1.185546875000, 0.349365234375, -20.851562500000, 11.656250000000, -36.960937500000, 1491368770
0.187500000000, -1.176757812500, 0.302978515625, -20.851562500000, 11.656250000000, -36.960937500000, 1491368770
0.187500000000, -1.176757812500, 0.302978515625, -20.851562500000, 11.656250000000, -36.960937500000, 1491368770
0.187500000000, -1.176757812500, 0.302978515625, -20.851562500000, 11.656250000000, -36.960937500000, 1491368770
0.054931640625, -1.364746093750, 0.263183593750, -63.859375000000, 34.929687500000, -20.359375000000, 1491368771
0.054931640625, -1.364746093750, 0.263183593750, -63.859375000000, 34.929687500000, -20.359375000000, 1491368771
0.054931640625, -1.364746093750, 0.263183593750, -63.859375000000, 34.929687500000, -20.359375000000, 1491368771
0.054931640625, -1.364746093750, 0.263183593750, -63.859375000000, 34.929687500000, -20.359375000000, 1491368771
-0.041992187500, -0.933593750000, 0.116699218750, -25.039062500000, -32.773437500000, -57.789062500000, 1491368771
-0.041992187500, -0.933593750000, 0.116699218750, -25.039062500000, -32.773437500000, -57.789062500000, 1491368771
-0.041992187500, -0.933593750000, 0.116699218750, -25.039062500000, -32.773437500000, -57.789062500000, 1491368771
-0.041992187500, -0.933593750000, 0.116699218750, -25.039062500000, -32.773437500000, -57.789062500000, 1491368771
-0.041992187500, -0.933593750000, 0.116699218750, -25.039062500000, -32.773437500000, -57.789062500000, 1491368771
-0.041992187500, -0.933593750000, 0.116699218750, -25.039062500000, -32.773437500000, -57.789062500000, 1491368771
-0.099853515625, -0.895019531250, 0.044433593750, -13.031250000000, -18.507812500000, -32.750000000000, 1491368771
-0.057373046875, -0.904541015625, 0.047363281250, -14.203125000000, -20.343750000000, -33.765625000000, 1491368771
-0.057373046875, -0.904541015625, 0.047363281250, -14.203125000000, -20.343750000000, -33.765625000000, 1491368771
-0.057373046875, -0.904541015625, 0.047363281250, -14.203125000000, -20.343750000000, -33.765625000000, 1491368771
-0.074462890625, -0.882080078125, 0.110351562500, 32.304687500000, 10.195312500000, -16.273437500000, 1491368771
-0.074462890625, -0.882080078125, 0.110351562500, 32.304687500000, 10.195312500000, -16.273437500000, 1491368771
-0.074462890625, -0.882080078125, 0.110351562500, 32.304687500000, 10.195312500000, -16.273437500000, 1491368771
-0.074462890625, -0.882080078125, 0.110351562500, 32.304687500000, 10.195312500000, -16.273437500000, 1491368771
-0.074462890625, -0.882080078125, 0.110351562500, 32.304687500000, 10.195312500000, -16.273437500000, 1491368771
-0.017578125000, -0.801269531250, 0.155273437500, 92.476562500000, -52.171875000000, -7.023437500000, 1491368771
0.051269531250, -0.835693359375, 0.207031250000, 92.476562500000, -52.171875000000, -7.023437500000, 1491368771
0.051269531250, -0.835693359375, 0.207031250000, 92.476562500000, -52.171875000000, -7.023437500000, 1491368771
0.051269531250, -0.835693359375, 0.207031250000, 92.476562500000, -52.171875000000, -7.023437500000, 1491368771
-0.030517578125, -0.709228515625, 0.218750000000, 11.093750000000, -84.367187500000, -19.250000000000, 1491368771
-0.030517578125, -0.709228515625, 0.218750000000, 11.093750000000, -84.367187500000, -19.250000000000, 1491368771
-0.030517578125, -0.709228515625, 0.218750000000, 11.093750000000, -84.367187500000, -19.250000000000, 1491368771
-0.023681640625, -0.775390625000, 0.176269531250, -27.414062500000, -19.906250000000, -7.484375000000, 1491368771
-0.023681640625, -0.775390625000, 0.176269531250, -27.414062500000, -19.906250000000, -7.484375000000, 1491368771
-0.023681640625, -0.775390625000, 0.176269531250, -27.414062500000, -19.906250000000, -7.484375000000, 1491368771
-0.023681640625, -0.775390625000, 0.176269531250, -27.414062500000, -19.906250000000, -7.484375000000, 1491368771
0.006347656250, -0.901611328125, 0.166503906250, -36.828125000000, -20.617187500000, -4.789062500000, 1491368771
0.006347656250, -0.901611328125, 0.166503906250, -36.828125000000, -20.617187500000, -4.789062500000, 1491368771
0.006347656250, -0.901611328125, 0.166503906250, -36.828125000000, -20.617187500000, -4.789062500000, 1491368771
-0.091796875000, -1.077148437500, 0.216552734375, -0.109375000000, -17.289062500000, 2.210937500000, 1491368771
-0.091796875000, -1.077148437500, 0.216552734375, -0.109375000000, -17.289062500000, 2.210937500000, 1491368771
-0.091796875000, -1.077148437500, 0.216552734375, -0.109375000000, -17.289062500000, 2.210937500000, 1491368771
-0.128662109375, -0.959228515625, 0.340087890625, 50.039062500000, -52.640625000000, -4.023437500000, 1491368771
-0.128662109375, -0.959228515625, 0.340087890625, 50.039062500000, -52.640625000000, -4.023437500000, 1491368771
-0.128662109375, -0.959228515625, 0.340087890625, 50.039062500000, -52.640625000000, -4.023437500000, 1491368771
-0.012939453125, -0.985351562500, 0.510498046875, 4.812500000000, 0.898437500000, 6.210937500000, 1491368771
-0.012939453125, -0.985351562500, 0.510498046875, 4.812500000000, 0.898437500000, 6.210937500000, 1491368771
-0.012939453125, -0.985351562500, 0.510498046875, 4.812500000000, 0.898437500000, 6.210937500000, 1491368771
-0.012939453125, -0.985351562500, 0.510498046875, 4.812500000000, 0.898437500000, 6.210937500000, 1491368771
-0.110839843750, -0.963378906250, 0.282958984375, -33.531250000000, -7.882812500000, 10.890625000000, 1491368771
-0.110839843750, -0.963378906250, 0.282958984375, -33.531250000000, -7.882812500000, 10.890625000000, 1491368771
-0.110839843750, -0.963378906250, 0.282958984375, -33.531250000000, -7.882812500000, 10.890625000000, 1491368771
-0.054443359375, -1.189941406250, 0.314208984375, -19.343750000000, -5.093750000000, 9.273437500000, 1491368771
-0.054443359375, -1.189941406250, 0.314208984375, -19.343750000000, -5.093750000000, 9.273437500000, 1491368771
-0.054443359375, -1.189941406250, 0.314208984375, -19.343750000000, -5.093750000000, 9.273437500000, 1491368771
-0.024169921875, -1.520019531250, 0.283935546875, -33.320312500000, 11.476562500000, 20.718750000000, 1491368771
-0.024169921875, -1.520019531250, 0.283935546875, -33.320312500000, 11.476562500000, 20.718750000000, 1491368771
-0.024169921875, -1.520019531250, 0.283935546875, -33.320312500000, 11.476562500000, 20.718750000000, 1491368771
-0.024169921875, -1.520019531250, 0.283935546875, -33.320312500000, 11.476562500000, 20.718750000000, 1491368771
0.305419921875, -0.994140625000, 0.328369140625, -13.257812500000, 18.242187500000, 29.148437500000, 1491368771
0.305419921875, -0.994140625000, 0.328369140625, -13.257812500000, 18.242187500000, 29.148437500000, 1491368771
0.305419921875, -0.994140625000, 0.328369140625, -13.257812500000, 18.242187500000, 29.148437500000, 1491368771
0.305419921875, -0.994140625000, 0.328369140625, -13.257812500000, 18.242187500000, 29.148437500000, 1491368771
0.305419921875, -0.994140625000, 0.328369140625, -13.257812500000, 18.242187500000, 29.148437500000, 1491368771
0.305419921875, -0.994140625000, 0.328369140625, -13.257812500000, 18.242187500000, 29.148437500000, 1491368771
0.185791015625, -0.900146484375, 0.178466796875, -23.625000000000, 19.898437500000, 34.523437500000, 1491368771
0.185791015625, -0.900146484375, 0.178466796875, -23.625000000000, 19.898437500000, 34.523437500000, 1491368771
0.185791015625, -0.900146484375, 0.178466796875, -23.625000000000, 19.898437500000, 34.523437500000, 1491368771
0.247558593750, -0.820556640625, 0.202392578125, -33.500000000000, 46.242187500000, 17.375000000000, 1491368771
0.247558593750, -0.820556640625, 0.202392578125, -33.500000000000, 46.242187500000, 17.375000000000, 1491368771
0.247558593750, -0.820556640625, 0.202392578125, -33.500000000000, 46.242187500000, 17.375000000000, 1491368771
0.185791015625, -0.782958984375, 0.125000000000, -15.406250000000, 24.992187500000, 18.703125000000, 1491368771
0.185791015625, -0.782958984375, 0.125000000000, -15.406250000000, 24.992187500000, 18.703125000000, 1491368772
0.185791015625, -0.782958984375, 0.125000000000, -15.406250000000, 24.992187500000, 18.703125000000, 1491368772
0.140625000000, -0.827636718750, 0.163574218750, 29.734375000000, 17.906250000000, 2.609375000000, 1491368772
0.140625000000, -0.827636718750, 0.163574218750, 29.734375000000, 17.906250000000, 2.609375000000, 1491368772
0.140625000000, -0.827636718750, 0.163574218750, 29.734375000000, 17.906250000000, 2.609375000000, 1491368772
0.140625000000, -0.827636718750, 0.163574218750, 29.734375000000, 17.906250000000, 2.609375000000, 1491368772
0.148437500000, -0.761962890625, 0.324951171875, 46.578125000000, -11.953125000000, -13.593750000000, 1491368772
0.148437500000, -0.761962890625, 0.324951171875, 46.578125000000, -11.953125000000, -13.593750000000, 1491368772
0.148437500000, -0.761962890625, 0.324951171875, 46.578125000000, -11.953125000000, -13.593750000000, 1491368772
0.204101562500, -0.730712890625, 0.353027343750, 19.414062500000, 25.382812500000, -4.710937500000, 1491368772
0.204101562500, -0.730712890625, 0.353027343750, 19.414062500000, 25.382812500000, -4.710937500000, 1491368772
0.204101562500, -0.730712890625, 0.353027343750, 19.414062500000, 25.382812500000, -4.710937500000, 1491368772
0.051025390625, -0.843017578125, 0.343261718750, -20.039062500000, 31.648437500000, -4.281250000000, 1491368772
0.051025390625, -0.843017578125, 0.343261718750, -20.039062500000, 31.648437500000, -4.281250000000, 1491368772
0.051025390625, -0.843017578125, 0.343261718750, -20.039062500000, 31.648437500000, -4.281250000000, 1491368772
0.051025390625, -0.843017578125, 0.343261718750, -20.039062500000, 31.648437500000, -4.281250000000, 1491368772
-0.003906250000, -0.801025390625, 0.324218750000, -2.953125000000, 17.750000000000, -5.132812500000, 1491368772
-0.003906250000, -0.801025390625, 0.324218750000, -2.953125000000, 17.750000000000, -5.132812500000, 1491368772
-0.003906250000, -0.801025390625, 0.324218750000, -2.953125000000, 17.750000000000, -5.132812500000, 1491368772
0.039550781250, -0.895019531250, 0.349121093750, 11.914062500000, 4.406250000000, -10.250000000000, 1491368772
0.039550781250, -0.895019531250, 0.349121093750, 11.914062500000, 4.406250000000, -10.250000000000, 1491368772
0.039550781250, -0.895019531250, 0.349121093750, 11.914062500000, 4.406250000000, -10.250000000000, 1491368772
0.007324218750, -0.787353515625, 0.384521484375, 14.085937500000, 1.820312500000, -8.718750000000, 1491368772
0.007324218750, -0.787353515625, 0.384521484375, 14.085937500000, 1.820312500000, -8.718750000000, 1491368772
0.007324218750, -0.787353515625, 0.384521484375, 14.085937500000, 1.820312500000, -8.718750000000, 1491368772
0.056396484375, -0.950683593750, 0.359130859375, -4.054687500000, 6.414062500000, -7.085937500000, 1491368772
0.056396484375, -0.950683593750, 0.359130859375, -4.054687500000, 6.414062500000, -7.085937500000, 1491368772
0.056396484375, -0.950683593750, 0.359130859375, -4.054687500000, 6.414062500000, -7.085937500000, 1491368772
0.056396484375, -0.950683593750, 0.359130859375, -4.054687500000, 6.414062500000, -7.085937500000, 1491368772
0.071533203125, -0.954345703125, 0.284912109375, 8.078125000000, -0.445312500000, -11.382812500000, 1491368772
0.071533203125, -0.954345703125, 0.284912109375, 8.078125000000, -0.445312500000, -11.382812500000, 1491368772
0.071533203125, -0.954345703125, 0.284912109375, 8.078125000000, -0.445312500000, -11.382812500000, 1491368772
0.155273437500, -0.941650390625, 0.391601562500, 12.578125000000, 0.804687500000, -13.515625000000, 1491368772
0.150146484375, -0.857177734375, 0.452392578125, 14.320312500000, 0.351562500000, -14.304687500000, 1491368772
0.150146484375, -0.857177734375, 0.452392578125, 14.320312500000, 0.351562500000, -14.304687500000, 1491368772
0.150146484375, -0.857177734375, 0.452392578125, 14.320312500000, 0.351562500000, -14.304687500000, 1491368772
0.036865234375, -1.176269531250, 0.355224609375, -16.070312500000, 5.703125000000, -9.460937500000, 1491368772
0.036865234375, -1.176269531250, 0.355224609375, -16.070312500000, 5.703125000000, -9.460937500000, 1491368772
0.036865234375, -1.176269531250, 0.355224609375, -16.070312500000, 5.703125000000, -9.460937500000, 1491368772
0.036865234375, -1.176269531250, 0.355224609375, -16.070312500000, 5.703125000000, -9.460937500000, 1491368772
-0.020751953125, -1.396728515625, 0.380615234375, -34.007812500000, 0.000000000000, -10.296875000000, 1491368772
-0.020751953125, -1.396728515625, 0.380615234375, -34.007812500000, 0.000000000000, -10.296875000000, 1491368772
-0.020751953125, -1.396728515625, 0.380615234375, -34.007812500000, 0.000000000000, -10.296875000000, 1491368772
-0.020751953125, -1.396728515625, 0.380615234375, -34.007812500000, 0.000000000000, -10.296875000000, 1491368772
-0.020751953125, -1.396728515625, 0.380615234375, -34.007812500000, 0.000000000000, -10.296875000000, 1491368772
-0.080078125000, -1.424804687500, 0.383056640625, -45.984375000000, -2.515625000000, -14.531250000000, 1491368772
0.032714843750, -1.199462890625, 0.211181640625, -38.273437500000, 12.906250000000, -10.984375000000, 1491368772
0.032714843750, -1.199462890625, 0.211181640625, -38.273437500000, 12.906250000000, -10.984375000000, 1491368772
0.032714843750, -1.199462890625, 0.211181640625, -38.273437500000, 12.906250000000, -10.984375000000, 1491368772
0.032714843750, -1.199462890625, 0.211181640625, -38.273437500000, 12.906250000000, -10.984375000000, 1491368772
-0.165039062500, -1.030273437500, 0.109863281250, -49.921875000000, -45.171875000000, -18.179687500000, 1491368772
-0.103027343750, -0.968261718750, 0.144775390625, -5.750000000000, -54.687500000000, -36.343750000000, 1491368772
-0.103027343750, -0.968261718750, 0.144775390625, -5.750000000000, -54.687500000000, -36.343750000000, 1491368772
-0.103027343750, -0.968261718750, 0.144775390625, -5.750000000000, -54.687500000000, -36.343750000000, 1491368772
-0.103027343750, -0.968261718750, 0.144775390625, -5.750000000000, -54.687500000000, -36.343750000000, 1491368772
0.158203125000, -0.956542968750, 0.183105468750, 54.937500000000, -59.250000000000, -25.539062500000, 1491368772
0.158203125000, -0.956542968750, 0.183105468750, 54.937500000000, -59.250000000000, -25.539062500000, 1491368772
0.158203125000, -0.956542968750, 0.183105468750, 54.937500000000, -59.250000000000, -25.539062500000, 1491368772
0.158203125000, -0.956542968750, 0.183105468750, 54.937500000000, -59.250000000000, -25.539062500000, 1491368772
0.158203125000, -0.956542968750, 0.183105468750, 54.937500000000, -59.250000000000, -25.539062500000, 1491368772
0.158203125000, -0.956542968750, 0.183105468750, 54.937500000000, -59.250000000000, -25.539062500000, 1491368772
0.104492187500, -0.604736328125, 0.119873046875, 92.195312500000, -143.898437500000, -8.898437500000, 1491368772
0.104492187500, -0.604736328125, 0.119873046875, 92.195312500000, -143.898437500000, -8.898437500000, 1491368772
0.104492187500, -0.604736328125, 0.119873046875, 92.195312500000, -143.898437500000, -8.898437500000, 1491368772
-0.048583984375, -0.546386718750, 0.253417968750, -21.648437500000, -29.250000000000, -11.992187500000, 1491368772
-0.048583984375, -0.546386718750, 0.253417968750, -21.648437500000, -29.250000000000, -11.992187500000, 1491368772
-0.048583984375, -0.546386718750, 0.253417968750, -21.648437500000, -29.250000000000, -11.992187500000, 1491368772
-0.048583984375, -0.546386718750, 0.253417968750, -21.648437500000, -29.250000000000, -11.992187500000, 1491368772
0.154785156250, -0.747558593750, 0.160156250000, -74.804687500000, -33.679687500000, -24.031250000000, 1491368773
0.154785156250, -0.747558593750, 0.160156250000, -74.804687500000, -33.679687500000, -24.031250000000, 1491368773
0.154785156250, -0.747558593750, 0.160156250000, -74.804687500000, -33.679687500000, -24.031250000000, 1491368773
0.039306640625, -0.972900390625, 0.259277343750, -47.375000000000, -23.718750000000, -8.406250000000, 1491368773
0.039306640625, -0.972900390625, 0.259277343750, -47.375000000000, -23.718750000000, -8.406250000000, 1491368773
0.039306640625, -0.972900390625, 0.259277343750, -47.375000000000, -23.718750000000, -8.406250000000, 1491368773
