ACC_X,ACC_Y,ACC_Z,G_X,G_Y,G_Z,Unix Time
0.085937500000, -0.785400390625, 0.575927734375, -3.125000000000, 0.289062500000, -6.601562500000, 1491905257
0.085937500000, -0.785400390625, 0.575927734375, -3.125000000000, 0.289062500000, -6.601562500000, 1491905257
0.085937500000, -0.785400390625, 0.575927734375, -3.125000000000, 0.289062500000, -6.601562500000, 1491905257
0.085937500000, -0.785400390625, 0.575927734375, -3.125000000000, 0.289062500000, -6.601562500000, 1491905257
0.143798828125, -0.825195312500, 0.554443359375, -6.460937500000, 0.117187500000, 0.078125000000, 1491905257
0.143798828125, -0.825195312500, 0.554443359375, -6.460937500000, 0.117187500000, 0.078125000000, 1491905257
0.143798828125, -0.825195312500, 0.554443359375, -6.460937500000, 0.117187500000, 0.078125000000, 1491905257
0.143798828125, -0.825195312500, 0.554443359375, -6.460937500000, 0.117187500000, 0.078125000000, 1491905257
-0.000488281250, -0.822265625000, 0.644531250000, -4.171875000000, -2.320312500000, -1.750000000000, 1491905257
0.054199218750, -0.784423828125, 0.546630859375, -4.632812500000, 2.593750000000, 0.265625000000, 1491905257
0.054199218750, -0.784423828125, 0.546630859375, -4.632812500000, 2.593750000000, 0.265625000000, 1491905257
0.054199218750, -0.784423828125, 0.546630859375, -4.632812500000, 2.593750000000, 0.265625000000, 1491905257
0.054199218750, -0.784423828125, 0.546630859375, -4.632812500000, 2.593750000000, 0.265625000000, 1491905257
0.054199218750, -0.784423828125, 0.546630859375, -3.429687500000, -0.851562500000, 0.781250000000, 1491905257
0.071289062500, -0.875732421875, 0.633544921875, -4.335937500000, -0.859375000000, -2.804687500000, 1491905258
0.071289062500, -0.875732421875, 0.633544921875, -4.335937500000, -0.859375000000, -2.804687500000, 1491905258
0.071289062500, -0.875732421875, 0.633544921875, -4.335937500000, -0.859375000000, -2.804687500000, 1491905258
0.071289062500, -0.875732421875, 0.633544921875, -4.335937500000, -0.859375000000, -2.804687500000, 1491905258
0.071289062500, -0.875732421875, 0.633544921875, -4.335937500000, -0.859375000000, -2.804687500000, 1491905258
0.061523437500, -0.800781250000, 0.637207031250, -1.656250000000, 0.757812500000, -1.312500000000, 1491905258
0.061523437500, -0.800781250000, 0.637207031250, -1.656250000000, 0.757812500000, -1.312500000000, 1491905258
0.061523437500, -0.800781250000, 0.637207031250, -1.656250000000, 0.757812500000, -1.312500000000, 1491905258
0.061523437500, -0.800781250000, 0.637207031250, -1.656250000000, 0.757812500000, -1.312500000000, 1491905258
0.059326171875, -0.825195312500, 0.641113281250, -6.273437500000, 0.937500000000, 0.304687500000, 1491905258
0.059326171875, -0.825195312500, 0.641113281250, -6.273437500000, 0.937500000000, 0.304687500000, 1491905258
0.059326171875, -0.825195312500, 0.641113281250, -6.273437500000, 0.937500000000, 0.304687500000, 1491905258
0.039062500000, -0.839111328125, 0.590087890625, -7.742187500000, -1.742187500000, -3.101562500000, 1491905258
0.039062500000, -0.839111328125, 0.590087890625, -7.742187500000, -1.742187500000, -3.101562500000, 1491905258
0.039062500000, -0.839111328125, 0.590087890625, -7.742187500000, -1.742187500000, -3.101562500000, 1491905258
-0.007812500000, -0.816162109375, 0.636230468750, -0.875000000000, 3.171875000000, -2.710937500000, 1491905258
-0.007812500000, -0.816162109375, 0.636230468750, -0.875000000000, 3.171875000000, -2.710937500000, 1491905258
-0.007812500000, -0.816162109375, 0.636230468750, -0.875000000000, 3.171875000000, -2.710937500000, 1491905258
0.048095703125, -0.785400390625, 0.537597656250, -3.375000000000, -2.867187500000, -2.359375000000, 1491905258
0.048095703125, -0.785400390625, 0.537597656250, -3.375000000000, -2.867187500000, -2.359375000000, 1491905258
0.048095703125, -0.785400390625, 0.537597656250, -3.375000000000, -2.867187500000, -2.359375000000, 1491905258
0.048095703125, -0.785400390625, 0.537597656250, -3.375000000000, -2.867187500000, -2.359375000000, 1491905258
0.101806640625, -0.823486328125, 0.527832031250, -10.929687500000, 0.906250000000, -4.039062500000, 1491905258
0.101806640625, -0.823486328125, 0.527832031250, -10.929687500000, 0.906250000000, -4.039062500000, 1491905258
0.101806640625, -0.823486328125, 0.527832031250, -10.929687500000, 0.906250000000, -4.039062500000, 1491905258
0.089355468750, -0.783935546875, 0.592529296875, -3.070312500000, -0.078125000000, -4.359375000000, 1491905258
0.089355468750, -0.783935546875, 0.592529296875, -3.070312500000, -0.078125000000, -4.359375000000, 1491905258
0.089355468750, -0.783935546875, 0.592529296875, -3.070312500000, -0.078125000000, -4.359375000000, 1491905258
0.054931640625, -0.835449218750, 0.560302734375, -6.882812500000, -0.171875000000, -3.640625000000, 1491905258
0.054931640625, -0.835449218750, 0.560302734375, -6.882812500000, -0.171875000000, -3.640625000000, 1491905258
0.054931640625, -0.835449218750, 0.560302734375, -6.882812500000, -0.171875000000, -3.640625000000, 1491905258
0.089843750000, -0.749511718750, 0.618652343750, -1.851562500000, -0.460937500000, -1.484375000000, 1491905258
0.089843750000, -0.749511718750, 0.618652343750, -1.851562500000, -0.460937500000, -1.484375000000, 1491905258
0.089843750000, -0.749511718750, 0.618652343750, -1.851562500000, -0.460937500000, -1.484375000000, 1491905258
0.079101562500, -0.866210937500, 0.550781250000, -5.476562500000, -0.554687500000, -1.648437500000, 1491905258
0.079101562500, -0.866210937500, 0.550781250000, -5.476562500000, -0.554687500000, -1.648437500000, 1491905258
0.079101562500, -0.866210937500, 0.550781250000, -5.476562500000, -0.554687500000, -1.648437500000, 1491905258
0.079101562500, -0.866210937500, 0.550781250000, -5.476562500000, -0.554687500000, -1.648437500000, 1491905258
0.070800781250, -0.817382812500, 0.551269531250, -3.476562500000, 0.539062500000, -6.109375000000, 1491905258
0.070800781250, -0.817382812500, 0.551269531250, -3.476562500000, 0.539062500000, -6.109375000000, 1491905258
0.070800781250, -0.817382812500, 0.551269531250, -3.476562500000, 0.539062500000, -6.109375000000, 1491905258
0.061035156250, -0.736083984375, 0.573974609375, -6.328125000000, 0.875000000000, 0.156250000000, 1491905258
0.061035156250, -0.736083984375, 0.573974609375, -6.328125000000, 0.875000000000, 0.156250000000, 1491905258
0.061035156250, -0.736083984375, 0.573974609375, -6.328125000000, 0.875000000000, 0.156250000000, 1491905258
0.112792968750, -0.887939453125, 0.539306640625, -3.281250000000, 0.468750000000, -4.406250000000, 1491905258
0.112792968750, -0.887939453125, 0.539306640625, -3.281250000000, 0.468750000000, -4.406250000000, 1491905258
0.112792968750, -0.887939453125, 0.539306640625, -3.281250000000, 0.468750000000, -4.406250000000, 1491905258
0.112792968750, -0.887939453125, 0.539306640625, -3.281250000000, 0.468750000000, -4.406250000000, 1491905258
0.141845703125, -0.818359375000, 0.559570312500, -6.101562500000, 0.296875000000, -4.585937500000, 1491905258
0.141845703125, -0.818359375000, 0.559570312500, -6.101562500000, 0.296875000000, -4.585937500000, 1491905258
0.141845703125, -0.818359375000, 0.559570312500, -6.101562500000, 0.296875000000, -4.585937500000, 1491905258
0.152587890625, -0.811279296875, 0.541992187500, -6.773437500000, -0.726562500000, -4.796875000000, 1491905258
0.152587890625, -0.811279296875, 0.541992187500, -6.773437500000, -0.726562500000, -4.796875000000, 1491905258
0.152587890625, -0.811279296875, 0.541992187500, -6.773437500000, -0.726562500000, -4.796875000000, 1491905258
0.085937500000, -0.820800781250, 0.546875000000, -5.851562500000, 0.867187500000, -4.750000000000, 1491905258
0.085937500000, -0.820800781250, 0.546875000000, -5.851562500000, 0.867187500000, -4.750000000000, 1491905258
0.085937500000, -0.820800781250, 0.546875000000, -5.851562500000, 0.867187500000, -4.750000000000, 1491905258
0.128417968750, -0.855224609375, 0.594970703125, -0.992187500000, -2.015625000000, -1.109375000000, 1491905258
0.128417968750, -0.855224609375, 0.594970703125, -0.992187500000, -2.015625000000, -1.109375000000, 1491905258
0.128417968750, -0.855224609375, 0.594970703125, -0.992187500000, -2.015625000000, -1.109375000000, 1491905258
0.128417968750, -0.855224609375, 0.594970703125, -0.992187500000, -2.015625000000, -1.109375000000, 1491905258
0.049804687500, -0.725585937500, 0.496337890625, -5.164062500000, 2.773437500000, -4.312500000000, 1491905258
0.049804687500, -0.725585937500, 0.496337890625, -5.164062500000, 2.773437500000, -4.312500000000, 1491905258
0.049804687500, -0.725585937500, 0.496337890625, -5.164062500000, 2.773437500000, -4.312500000000, 1491905258
0.102539062500, -0.787841796875, 0.638916015625, 0.171875000000, 2.617187500000, -2.382812500000, 1491905258
0.102539062500, -0.787841796875, 0.638916015625, 0.171875000000, 2.617187500000, -2.382812500000, 1491905258
0.102539062500, -0.787841796875, 0.638916015625, 0.171875000000, 2.617187500000, -2.382812500000, 1491905258
0.202392578125, -0.745361328125, 0.555419921875, -1.546875000000, 2.476562500000, -1.640625000000, 1491905258
0.202392578125, -0.745361328125, 0.555419921875, -1.546875000000, 2.476562500000, -1.640625000000, 1491905258
0.202392578125, -0.745361328125, 0.555419921875, -1.546875000000, 2.476562500000, -1.640625000000, 1491905258
0.052734375000, -0.819335937500, 0.601318359375, -4.921875000000, 1.523437500000, -4.093750000000, 1491905259
0.052734375000, -0.819335937500, 0.601318359375, -4.921875000000, 1.523437500000, -4.093750000000, 1491905259
0.052734375000, -0.819335937500, 0.601318359375, -4.921875000000, 1.523437500000, -4.093750000000, 1491905259
0.147705078125, -0.821777343750, 0.548828125000, -4.523437500000, 2.828125000000, 0.718750000000, 1491905259
0.147705078125, -0.821777343750, 0.548828125000, -4.523437500000, 2.828125000000, 0.718750000000, 1491905259
0.147705078125, -0.821777343750, 0.548828125000, -4.523437500000, 2.828125000000, 0.718750000000, 1491905259
0.147705078125, -0.821777343750, 0.548828125000, -4.523437500000, 2.828125000000, 0.718750000000, 1491905259
0.097656250000, -0.820800781250, 0.707275390625, -4.367187500000, -0.078125000000, -2.359375000000, 1491905259
0.097656250000, -0.820800781250, 0.707275390625, -4.367187500000, -0.078125000000, -2.359375000000, 1491905259
0.097656250000, -0.820800781250, 0.707275390625, -4.367187500000, -0.078125000000, -2.359375000000, 1491905259
0.149658203125, -0.836425781250, 0.540771484375, -3.796875000000, 2.687500000000, -1.765625000000, 1491905259
0.149658203125, -0.836425781250, 0.540771484375, -3.796875000000, 2.687500000000, -1.765625000000, 1491905259
0.149658203125, -0.836425781250, 0.540771484375, -3.796875000000, 2.687500000000, -1.765625000000, 1491905259
0.053466796875, -0.733886718750, 0.642089843750, -1.304687500000, -0.671875000000, -2.304687500000, 1491905259
0.053466796875, -0.733886718750, 0.642089843750, -1.304687500000, -0.671875000000, -2.304687500000, 1491905259
0.053466796875, -0.733886718750, 0.642089843750, -1.304687500000, -0.671875000000, -2.304687500000, 1491905259
0.053466796875, -0.733886718750, 0.642089843750, -1.304687500000, -0.671875000000, -2.304687500000, 1491905259
0.119628906250, -0.836914062500, 0.562744140625, -5.882812500000, -2.773437500000, -1.664062500000, 1491905259
0.119628906250, -0.836914062500, 0.562744140625, -5.882812500000, -2.773437500000, -1.664062500000, 1491905259
0.119628906250, -0.836914062500, 0.562744140625, -5.882812500000, -2.773437500000, -1.664062500000, 1491905259
0.092285156250, -0.791259765625, 0.596191406250, 2.007812500000, 2.820312500000, -4.148437500000, 1491905259
0.092285156250, -0.791259765625, 0.596191406250, 2.007812500000, 2.820312500000, -4.148437500000, 1491905259
0.092285156250, -0.791259765625, 0.596191406250, 2.007812500000, 2.820312500000, -4.148437500000, 1491905259
0.143310546875, -0.736328125000, 0.647216796875, -5.257812500000, 0.562500000000, -1.828125000000, 1491905259
0.143310546875, -0.736328125000, 0.647216796875, -5.257812500000, 0.562500000000, -1.828125000000, 1491905259
0.143310546875, -0.736328125000, 0.647216796875, -5.257812500000, 0.562500000000, -1.828125000000, 1491905259
0.102050781250, -0.841308593750, 0.625488281250, -1.531250000000, -0.234375000000, -2.015625000000, 1491905259
0.102050781250, -0.841308593750, 0.625488281250, -1.531250000000, -0.234375000000, -2.015625000000, 1491905259
0.102050781250, -0.841308593750, 0.625488281250, -1.531250000000, -0.234375000000, -2.015625000000, 1491905259
0.102050781250, -0.841308593750, 0.625488281250, -1.531250000000, -0.234375000000, -2.015625000000, 1491905259
0.082763671875, -0.802734375000, 0.586181640625, -3.171875000000, 2.312500000000, -4.601562500000, 1491905259
0.082763671875, -0.802734375000, 0.586181640625, -3.171875000000, 2.312500000000, -4.601562500000, 1491905259
0.082763671875, -0.802734375000, 0.586181640625, -3.171875000000, 2.312500000000, -4.601562500000, 1491905259
0.146240234375, -0.771484375000, 0.559082031250, -2.273437500000, 2.390625000000, -2.570312500000, 1491905259
0.146240234375, -0.771484375000, 0.559082031250, -2.273437500000, 2.390625000000, -2.570312500000, 1491905259
0.146240234375, -0.771484375000, 0.559082031250, -2.273437500000, 2.390625000000, -2.570312500000, 1491905259
0.133300781250, -0.847656250000, 0.540039062500, 0.179687500000, -0.828125000000, -4.609375000000, 1491905259
0.133300781250, -0.847656250000, 0.540039062500, 0.179687500000, -0.828125000000, -4.609375000000, 1491905259
0.133300781250, -0.847656250000, 0.540039062500, 0.179687500000, -0.828125000000, -4.609375000000, 1491905259
0.146484375000, -0.904541015625, 0.552490234375, -4.515625000000, -0.531250000000, -4.304687500000, 1491905259
0.146484375000, -0.904541015625, 0.552490234375, -4.515625000000, -0.531250000000, -4.304687500000, 1491905259
0.146484375000, -0.904541015625, 0.552490234375, -4.515625000000, -0.531250000000, -4.304687500000, 1491905259
0.146484375000, -0.904541015625, 0.552490234375, -4.515625000000, -0.531250000000, -4.304687500000, 1491905259
0.097412109375, -0.663574218750, 0.545166015625, -3.078125000000, -0.945312500000, -2.585937500000, 1491905259
0.097412109375, -0.663574218750, 0.545166015625, -3.078125000000, -0.945312500000, -2.585937500000, 1491905259
0.097412109375, -0.663574218750, 0.545166015625, -3.078125000000, -0.945312500000, -2.585937500000, 1491905259
0.097412109375, -0.663574218750, 0.545166015625, -3.078125000000, -0.945312500000, -2.585937500000, 1491905259
0.097412109375, -0.663574218750, 0.545166015625, -3.078125000000, -0.945312500000, -2.585937500000, 1491905259
0.188232421875, -0.827636718750, 0.589843750000, -3.390625000000, 0.554687500000, -2.554687500000, 1491905259
0.156005859375, -0.836181640625, 0.614013671875, -4.710937500000, 0.867187500000, -2.875000000000, 1491905259
0.156005859375, -0.836181640625, 0.614013671875, -4.710937500000, 0.867187500000, -2.875000000000, 1491905259
0.156005859375, -0.836181640625, 0.614013671875, -4.710937500000, 0.867187500000, -2.875000000000, 1491905259
0.105957031250, -0.893554687500, 0.631591796875, -4.226562500000, 1.421875000000, -3.164062500000, 1491905259
0.105957031250, -0.893554687500, 0.631591796875, -4.226562500000, 1.421875000000, -3.164062500000, 1491905259
0.105957031250, -0.893554687500, 0.631591796875, -4.226562500000, 1.421875000000, -3.164062500000, 1491905259
0.105957031250, -0.893554687500, 0.631591796875, -4.226562500000, 1.421875000000, -3.164062500000, 1491905259
0.055664062500, -0.779785156250, 0.655517578125, -3.195312500000, -0.078125000000, -2.968750000000, 1491905259
0.055664062500, -0.779785156250, 0.655517578125, -3.195312500000, -0.078125000000, -2.968750000000, 1491905259
0.055664062500, -0.779785156250, 0.655517578125, -3.195312500000, -0.078125000000, -2.968750000000, 1491905259
0.060302734375, -0.842773437500, 0.538330078125, -3.070312500000, 1.632812500000, -2.593750000000, 1491905259
0.060302734375, -0.842773437500, 0.538330078125, -3.070312500000, 1.632812500000, -2.593750000000, 1491905259
0.060302734375, -0.842773437500, 0.538330078125, -3.070312500000, 1.632812500000, -2.593750000000, 1491905259
0.129394531250, -0.857421875000, 0.550048828125, -1.687500000000, -2.664062500000, -1.710937500000, 1491905259
0.129394531250, -0.857421875000, 0.550048828125, -1.687500000000, -2.664062500000, -1.710937500000, 1491905259
0.129394531250, -0.857421875000, 0.550048828125, -1.687500000000, -2.664062500000, -1.710937500000, 1491905259
0.061279296875, -0.841552734375, 0.639892578125, -8.359375000000, 2.375000000000, -1.867187500000, 1491905259
0.061279296875, -0.841552734375, 0.639892578125, -8.359375000000, 2.375000000000, -1.867187500000, 1491905260
0.061279296875, -0.841552734375, 0.639892578125, -8.359375000000, 2.375000000000, -1.867187500000, 1491905260
0.061279296875, -0.841552734375, 0.639892578125, -8.359375000000, 2.375000000000, -1.867187500000, 1491905260
0.193603515625, -0.799316406250, 0.543701171875, -1.117187500000, 0.898437500000, -6.171875000000, 1491905260
0.193603515625, -0.799316406250, 0.543701171875, -1.117187500000, 0.898437500000, -6.171875000000, 1491905260
0.193603515625, -0.799316406250, 0.543701171875, -1.117187500000, 0.898437500000, -6.171875000000, 1491905260
0.123046875000, -0.745605468750, 0.632080078125, -4.875000000000, -0.375000000000, -6.210937500000, 1491905260
0.123046875000, -0.745605468750, 0.632080078125, -4.875000000000, -0.375000000000, -6.210937500000, 1491905260
0.123046875000, -0.745605468750, 0.632080078125, -4.875000000000, -0.375000000000, -6.210937500000, 1491905260
0.130615234375, -0.749267578125, 0.637695312500, -1.828125000000, -0.382812500000, -1.851562500000, 1491905260
0.130615234375, -0.749267578125, 0.637695312500, -1.828125000000, -0.382812500000, -1.851562500000, 1491905260
0.130615234375, -0.749267578125, 0.637695312500, -1.828125000000, -0.382812500000, -1.851562500000, 1491905260
0.070312500000, -0.888183593750, 0.550781250000, -1.203125000000, -0.843750000000, -1.429687500000, 1491905260
0.070312500000, -0.888183593750, 0.550781250000, -1.203125000000, -0.843750000000, -1.429687500000, 1491905260
0.070312500000, -0.888183593750, 0.550781250000, -1.203125000000, -0.843750000000, -1.429687500000, 1491905260
0.070312500000, -0.888183593750, 0.550781250000, -1.203125000000, -0.843750000000, -1.429687500000, 1491905260
0.114746093750, -0.764404296875, 0.618652343750, -6.546875000000, -0.929687500000, -3.273437500000, 1491905260
0.114746093750, -0.764404296875, 0.618652343750, -6.546875000000, -0.929687500000, -3.273437500000, 1491905260
0.114746093750, -0.764404296875, 0.618652343750, -6.546875000000, -0.929687500000, -3.273437500000, 1491905260
0.191406250000, -0.790283203125, 0.553710937500, -6.468750000000, 2.695312500000, -4.125000000000, 1491905260
0.191406250000, -0.790283203125, 0.553710937500, -6.468750000000, 2.695312500000, -4.125000000000, 1491905260
0.191406250000, -0.790283203125, 0.553710937500, -6.468750000000, 2.695312500000, -4.125000000000, 1491905260
0.188964843750, -0.904541015625, 0.638671875000, -4.328125000000, 2.437500000000, -4.015625000000, 1491905260
0.188964843750, -0.904541015625, 0.638671875000, -4.328125000000, 2.437500000000, -4.015625000000, 1491905260
0.188964843750, -0.904541015625, 0.638671875000, -4.328125000000, 2.437500000000, -4.015625000000, 1491905260
0.137207031250, -0.889404296875, 0.592773437500, -3.585937500000, -0.945312500000, -3.351562500000, 1491905260
0.137207031250, -0.889404296875, 0.592773437500, -3.585937500000, -0.945312500000, -3.351562500000, 1491905260
0.137207031250, -0.889404296875, 0.592773437500, -3.585937500000, -0.945312500000, -3.351562500000, 1491905260
0.137207031250, -0.889404296875, 0.592773437500, -3.585937500000, -0.945312500000, -3.351562500000, 1491905260
0.038574218750, -0.784179687500, 0.594482421875, -0.625000000000, 0.539062500000, -3.062500000000, 1491905260
0.038574218750, -0.784179687500, 0.594482421875, -0.625000000000, 0.539062500000, -3.062500000000, 1491905260
0.038574218750, -0.784179687500, 0.594482421875, -0.625000000000, 0.539062500000, -3.062500000000, 1491905260
0.130126953125, -0.805664062500, 0.541748046875, -12.070312500000, -2.171875000000, -1.867187500000, 1491905260
0.130126953125, -0.805664062500, 0.541748046875, -12.070312500000, -2.171875000000, -1.867187500000, 1491905260
0.130126953125, -0.805664062500, 0.541748046875, -12.070312500000, -2.171875000000, -1.867187500000, 1491905260
0.116455078125, -0.735351562500, 0.630126953125, -0.945312500000, -2.054687500000, -3.539062500000, 1491905260
0.116455078125, -0.735351562500, 0.630126953125, -0.945312500000, -2.054687500000, -3.539062500000, 1491905260
0.116455078125, -0.735351562500, 0.630126953125, -0.945312500000, -2.054687500000, -3.539062500000, 1491905260
0.112792968750, -0.787353515625, 0.536865234375, -8.343750000000, -0.031250000000, -4.500000000000, 1491905260
0.112792968750, -0.787353515625, 0.536865234375, -8.343750000000, -0.031250000000, -4.500000000000, 1491905260
0.112792968750, -0.787353515625, 0.536865234375, -8.343750000000, -0.031250000000, -4.500000000000, 1491905260
0.112792968750, -0.787353515625, 0.536865234375, -8.343750000000, -0.031250000000, -4.500000000000, 1491905260
0.081542968750, -0.760009765625, 0.548583984375, -3.078125000000, -0.671875000000, -2.734375000000, 1491905260
0.081542968750, -0.760009765625, 0.548583984375, -3.078125000000, -0.671875000000, -2.734375000000, 1491905260
0.081542968750, -0.760009765625, 0.548583984375, -3.078125000000, -0.671875000000, -2.734375000000, 1491905260
0.133544921875, -0.826416015625, 0.546875000000, -1.867187500000, -2.015625000000, -1.312500000000, 1491905260
0.133544921875, -0.826416015625, 0.546875000000, -1.867187500000, -2.015625000000, -1.312500000000, 1491905260
0.133544921875, -0.826416015625, 0.546875000000, -1.867187500000, -2.015625000000, -1.312500000000, 1491905260
0.144042968750, -0.893554687500, 0.550537109375, -3.390625000000, -0.625000000000, -3.546875000000, 1491905260
0.144042968750, -0.893554687500, 0.550537109375, -3.390625000000, -0.625000000000, -3.546875000000, 1491905260
0.144042968750, -0.893554687500, 0.550537109375, -3.390625000000, -0.625000000000, -3.546875000000, 1491905260
0.107177734375, -0.772216796875, 0.560791015625, -3.507812500000, 2.296875000000, -3.703125000000, 1491905260
0.107177734375, -0.772216796875, 0.560791015625, -3.507812500000, 2.296875000000, -3.703125000000, 1491905260
0.107177734375, -0.772216796875, 0.560791015625, -3.507812500000, 2.296875000000, -3.703125000000, 1491905260
0.107177734375, -0.772216796875, 0.560791015625, -3.507812500000, 2.296875000000, -3.703125000000, 1491905260
0.079101562500, -0.819580078125, 0.548583984375, -6.304687500000, 0.351562500000, -3.687500000000, 1491905260
0.079101562500, -0.819580078125, 0.548583984375, -6.304687500000, 0.351562500000, -3.687500000000, 1491905260
0.079101562500, -0.819580078125, 0.548583984375, -6.304687500000, 0.351562500000, -3.687500000000, 1491905260
0.090332031250, -0.905761718750, 0.582763671875, -6.210937500000, -0.921875000000, -6.515625000000, 1491905260
0.090332031250, -0.905761718750, 0.582763671875, -6.210937500000, -0.921875000000, -6.515625000000, 1491905260
0.090332031250, -0.905761718750, 0.582763671875, -6.210937500000, -0.921875000000, -6.515625000000, 1491905260
0.105957031250, -0.811035156250, 0.649902343750, -3.195312500000, 0.117187500000, -3.218750000000, 1491905260
0.105957031250, -0.811035156250, 0.649902343750, -3.195312500000, 0.117187500000, -3.218750000000, 1491905260
0.105957031250, -0.811035156250, 0.649902343750, -3.195312500000, 0.117187500000, -3.218750000000, 1491905260
0.071777343750, -0.669921875000, 0.626708984375, -7.609375000000, -2.828125000000, -3.070312500000, 1491905260
0.071777343750, -0.669921875000, 0.626708984375, -7.609375000000, -2.828125000000, -3.070312500000, 1491905260
0.071777343750, -0.669921875000, 0.626708984375, -7.609375000000, -2.828125000000, -3.070312500000, 1491905260
0.071777343750, -0.669921875000, 0.626708984375, -7.609375000000, -2.828125000000, -3.070312500000, 1491905260
0.187744140625, -0.745117187500, 0.608398437500, -0.375000000000, 1.445312500000, -6.328125000000, 1491905261
0.187744140625, -0.745117187500, 0.608398437500, -0.375000000000, 1.445312500000, -6.328125000000, 1491905261
0.187744140625, -0.745117187500, 0.608398437500, -0.375000000000, 1.445312500000, -6.328125000000, 1491905261
0.126708984375, -0.791015625000, 0.545166015625, -6.406250000000, -3.414062500000, -3.843750000000, 1491905261
0.126708984375, -0.791015625000, 0.545166015625, -6.406250000000, -3.414062500000, -3.843750000000, 1491905261
0.126708984375, -0.791015625000, 0.545166015625, -6.406250000000, -3.414062500000, -3.843750000000, 1491905261
0.190917968750, -0.826904296875, 0.590576171875, -3.789062500000, -0.515625000000, -3.031250000000, 1491905261
0.190917968750, -0.826904296875, 0.590576171875, -3.789062500000, -0.515625000000, -3.031250000000, 1491905261
0.190917968750, -0.826904296875, 0.590576171875, -3.789062500000, -0.515625000000, -3.031250000000, 1491905261
0.046630859375, -0.844726562500, 0.549316406250, -4.843750000000, -0.929687500000, -1.375000000000, 1491905261
0.046630859375, -0.844726562500, 0.549316406250, -4.843750000000, -0.929687500000, -1.375000000000, 1491905261
0.046630859375, -0.844726562500, 0.549316406250, -4.843750000000, -0.929687500000, -1.375000000000, 1491905261
0.046630859375, -0.844726562500, 0.549316406250, -4.843750000000, -0.929687500000, -1.375000000000, 1491905261
0.046630859375, -0.844726562500, 0.549316406250, -4.843750000000, -0.929687500000, -1.375000000000, 1491905261
0.092041015625, -0.775146484375, 0.592041015625, -2.000000000000, -0.265625000000, -4.726562500000, 1491905261
0.039794921875, -0.864990234375, 0.635253906250, -1.625000000000, -0.257812500000, -0.710937500000, 1491905261
0.039794921875, -0.864990234375, 0.635253906250, -1.625000000000, -0.257812500000, -0.710937500000, 1491905261
0.039794921875, -0.864990234375, 0.635253906250, -1.625000000000, -0.257812500000, -0.710937500000, 1491905261
0.039794921875, -0.864990234375, 0.635253906250, -1.625000000000, -0.257812500000, -0.710937500000, 1491905261
0.047607421875, -0.805175781250, 0.643554687500, -3.203125000000, -0.382812500000, -2.000000000000, 1491905261
0.047607421875, -0.805175781250, 0.643554687500, -3.203125000000, -0.382812500000, -2.000000000000, 1491905261
0.047607421875, -0.805175781250, 0.643554687500, -3.203125000000, -0.382812500000, -2.000000000000, 1491905261
0.048095703125, -0.720703125000, 0.651367187500, -3.250000000000, 0.992187500000, -4.101562500000, 1491905261
0.048095703125, -0.720703125000, 0.651367187500, -3.250000000000, 0.992187500000, -4.101562500000, 1491905261
0.048095703125, -0.720703125000, 0.651367187500, -3.250000000000, 0.992187500000, -4.101562500000, 1491905261
0.048095703125, -0.720703125000, 0.651367187500, -3.250000000000, 0.992187500000, -4.101562500000, 1491905261
0.064453125000, -0.870117187500, 0.644287109375, -4.789062500000, -0.398437500000, -1.554687500000, 1491905261
0.064453125000, -0.870117187500, 0.644287109375, -4.789062500000, -0.398437500000, -1.554687500000, 1491905261
0.064453125000, -0.870117187500, 0.644287109375, -4.789062500000, -0.398437500000, -1.554687500000, 1491905261
0.064453125000, -0.870117187500, 0.644287109375, -4.789062500000, -0.398437500000, -1.554687500000, 1491905261
0.064453125000, -0.870117187500, 0.644287109375, -4.789062500000, -0.398437500000, -1.554687500000, 1491905261
0.064453125000, -0.870117187500, 0.644287109375, -4.789062500000, -0.398437500000, -1.554687500000, 1491905261
0.156005859375, -0.883544921875, 0.593505859375, -4.781250000000, 2.812500000000, -1.906250000000, 1491905261
0.156005859375, -0.883544921875, 0.593505859375, -4.781250000000, 2.812500000000, -1.906250000000, 1491905261
0.156005859375, -0.883544921875, 0.593505859375, -4.781250000000, 2.812500000000, -1.906250000000, 1491905261
0.156005859375, -0.883544921875, 0.593505859375, -4.781250000000, 2.812500000000, -1.906250000000, 1491905261
0.194091796875, -0.831787109375, 0.641357421875, -5.531250000000, -0.828125000000, -4.679687500000, 1491905261
0.194091796875, -0.831787109375, 0.641357421875, -5.531250000000, -0.828125000000, -4.679687500000, 1491905261
0.194091796875, -0.831787109375, 0.641357421875, -5.531250000000, -0.828125000000, -4.679687500000, 1491905261
0.194091796875, -0.831787109375, 0.641357421875, -5.531250000000, -0.828125000000, -4.679687500000, 1491905261
0.194091796875, -0.831787109375, 0.641357421875, -5.531250000000, -0.828125000000, -4.679687500000, 1491905261
0.194091796875, -0.831787109375, 0.641357421875, -5.531250000000, -0.828125000000, -4.679687500000, 1491905261
0.100341796875, -0.770263671875, 0.640380859375, 0.734375000000, 0.992187500000, -3.851562500000, 1491905261
0.100341796875, -0.770263671875, 0.640380859375, 0.734375000000, 0.992187500000, -3.851562500000, 1491905261
0.100341796875, -0.770263671875, 0.640380859375, 0.734375000000, 0.992187500000, -3.851562500000, 1491905261
0.151367187500, -0.841308593750, 0.593505859375, -5.468750000000, 2.039062500000, -4.039062500000, 1491905261
0.151367187500, -0.841308593750, 0.593505859375, -5.468750000000, 2.039062500000, -4.039062500000, 1491905261
0.151367187500, -0.841308593750, 0.593505859375, -5.468750000000, 2.039062500000, -4.039062500000, 1491905261
0.107177734375, -0.725585937500, 0.577880859375, -3.046875000000, -0.562500000000, -3.992187500000, 1491905261
0.107177734375, -0.725585937500, 0.577880859375, -3.046875000000, -0.562500000000, -3.992187500000, 1491905261
0.107177734375, -0.725585937500, 0.577880859375, -3.046875000000, -0.562500000000, -3.992187500000, 1491905261
0.107177734375, -0.725585937500, 0.577880859375, -3.046875000000, -0.562500000000, -3.992187500000, 1491905261
0.131591796875, -0.953613281250, 0.495605468750, -3.570312500000, -0.812500000000, -2.523437500000, 1491905261
0.131591796875, -0.953613281250, 0.495605468750, -3.570312500000, -0.812500000000, -2.523437500000, 1491905261
0.131591796875, -0.953613281250, 0.495605468750, -3.570312500000, -0.812500000000, -2.523437500000, 1491905261
0.056152343750, -0.792236328125, 0.622802734375, -4.414062500000, -0.898437500000, -1.640625000000, 1491905261
0.056152343750, -0.792236328125, 0.622802734375, -4.414062500000, -0.898437500000, -1.640625000000, 1491905261
0.056152343750, -0.792236328125, 0.622802734375, -4.414062500000, -0.898437500000, -1.640625000000, 1491905261
0.141357421875, -0.788085937500, 0.645507812500, -6.046875000000, 2.406250000000, -4.476562500000, 1491905261
0.141357421875, -0.788085937500, 0.645507812500, -6.046875000000, 2.406250000000, -4.476562500000, 1491905261
0.141357421875, -0.788085937500, 0.645507812500, -6.046875000000, 2.406250000000, -4.476562500000, 1491905261
0.072509765625, -0.829589843750, 0.624511718750, -4.296875000000, -0.906250000000, -1.406250000000, 1491905261
0.072509765625, -0.829589843750, 0.624511718750, -4.296875000000, -0.906250000000, -1.406250000000, 1491905261
0.072509765625, -0.829589843750, 0.624511718750, -4.296875000000, -0.906250000000, -1.406250000000, 1491905261
0.072509765625, -0.829589843750, 0.624511718750, -4.296875000000, -0.906250000000, -1.406250000000, 1491905261
0.060058593750, -0.821533203125, 0.555175781250, -5.593750000000, 2.148437500000, 0.492187500000, 1491905261
0.060058593750, -0.821533203125, 0.555175781250, -5.593750000000, 2.148437500000, 0.492187500000, 1491905262
0.060058593750, -0.821533203125, 0.555175781250, -5.593750000000, 2.148437500000, 0.492187500000, 1491905262
-0.002929687500, -0.740234375000, 0.628173828125, -3.953125000000, 0.500000000000, -4.648437500000, 1491905262
-0.002929687500, -0.740234375000, 0.628173828125, -3.953125000000, 0.500000000000, -4.648437500000, 1491905262
-0.002929687500, -0.740234375000, 0.628173828125, -3.953125000000, 0.500000000000, -4.648437500000, 1491905262
0.094970703125, -0.735595703125, 0.559326171875, -4.765625000000, -0.140625000000, -3.054687500000, 1491905262
0.094970703125, -0.735595703125, 0.559326171875, -4.765625000000, -0.140625000000, -3.054687500000, 1491905262
0.094970703125, -0.735595703125, 0.559326171875, -4.765625000000, -0.140625000000, -3.054687500000, 1491905262
