ACC_X,ACC_Y,ACC_Z,G_X,G_Y,G_Z,Unix Time
0.090332031250, -0.866699218750, 0.236572265625, -4.273437500000, 0.218750000000, 0.710937500000, 1491906745
0.093261718750, -1.003417968750, 0.298828125000, -1.898437500000, -0.859375000000, -3.546875000000, 1491906745
0.093261718750, -1.003417968750, 0.298828125000, -1.898437500000, -0.859375000000, -3.546875000000, 1491906745
0.049316406250, -1.004638671875, 0.285156250000, -1.851562500000, -0.875000000000, -0.031250000000, 1491906745
0.049316406250, -1.004638671875, 0.285156250000, -1.851562500000, -0.875000000000, -0.031250000000, 1491906745
0.049316406250, -1.004638671875, 0.285156250000, -1.851562500000, -0.875000000000, -0.031250000000, 1491906745
0.049316406250, -1.004638671875, 0.285156250000, -1.851562500000, -0.875000000000, -0.031250000000, 1491906745
0.049316406250, -1.004638671875, 0.285156250000, -1.851562500000, -0.875000000000, -0.031250000000, 1491906745
0.049316406250, -1.004638671875, 0.285156250000, -1.851562500000, -0.875000000000, -0.031250000000, 1491906745
0.049316406250, -1.004638671875, 0.285156250000, -1.851562500000, -0.875000000000, -0.031250000000, 1491906745
0.049316406250, -1.004638671875, 0.285156250000, -1.851562500000, -0.875000000000, -0.031250000000, 1491906745
0.049316406250, -1.004638671875, 0.285156250000, -1.851562500000, -0.875000000000, -0.031250000000, 1491906745
0.049316406250, -1.004638671875, 0.285156250000, -1.851562500000, -0.875000000000, -0.031250000000, 1491906745
0.060546875000, -1.024169921875, 0.337890625000, -3.343750000000, -0.015625000000, -1.234375000000, 1491906745
0.060546875000, -1.024169921875, 0.337890625000, -3.343750000000, -0.015625000000, -1.234375000000, 1491906745
0.060546875000, -1.024169921875, 0.337890625000, -3.343750000000, -0.015625000000, -1.234375000000, 1491906745
-0.024902343750, -0.966552734375, 0.312011718750, -2.929687500000, -0.710937500000, -2.632812500000, 1491906745
-0.024902343750, -0.966552734375, 0.312011718750, -2.929687500000, -0.710937500000, -2.632812500000, 1491906745
-0.024902343750, -0.966552734375, 0.312011718750, -2.929687500000, -0.710937500000, -2.632812500000, 1491906745
-0.024902343750, -0.966552734375, 0.312011718750, -2.929687500000, -0.710937500000, -2.632812500000, 1491906745
0.083984375000, -0.966308593750, 0.221435546875, -6.312500000000, 2.500000000000, -4.445312500000, 1491906745
0.083984375000, -0.966308593750, 0.221435546875, -6.312500000000, 2.500000000000, -4.445312500000, 1491906745
0.083984375000, -0.966308593750, 0.221435546875, -6.312500000000, 2.500000000000, -4.445312500000, 1491906745
0.083984375000, -0.966308593750, 0.221435546875, -6.312500000000, 2.500000000000, -4.445312500000, 1491906745
0.083984375000, -0.966308593750, 0.221435546875, -6.312500000000, 2.500000000000, -4.445312500000, 1491906745
0.083984375000, -0.966308593750, 0.221435546875, -6.312500000000, 2.500000000000, -4.445312500000, 1491906745
0.083984375000, -0.966308593750, 0.221435546875, -6.312500000000, 2.500000000000, -4.445312500000, 1491906745
0.083984375000, -0.966308593750, 0.221435546875, -6.312500000000, 2.500000000000, -4.445312500000, 1491906745
0.083984375000, -0.966308593750, 0.221435546875, -6.312500000000, 2.500000000000, -4.445312500000, 1491906745
0.083984375000, -0.966308593750, 0.221435546875, -6.312500000000, 2.500000000000, -4.445312500000, 1491906745
-0.005371093750, -0.966796875000, 0.318847656250, -6.945312500000, 2.312500000000, -2.484375000000, 1491906745
-0.005371093750, -0.966796875000, 0.318847656250, -6.945312500000, 2.312500000000, -2.484375000000, 1491906745
-0.005371093750, -0.966796875000, 0.318847656250, -6.945312500000, 2.312500000000, -2.484375000000, 1491906745
-0.005371093750, -0.966796875000, 0.318847656250, -6.945312500000, 2.312500000000, -2.484375000000, 1491906745
-0.022460937500, -0.960693359375, 0.290771484375, 0.445312500000, 0.562500000000, 0.335937500000, 1491906745
0.018554687500, -0.956542968750, 0.295654296875, -2.875000000000, -0.906250000000, -1.789062500000, 1491906745
0.018554687500, -0.956542968750, 0.295654296875, -2.875000000000, -0.906250000000, -1.789062500000, 1491906745
0.018554687500, -0.956542968750, 0.295654296875, -2.875000000000, -0.906250000000, -1.789062500000, 1491906745
0.018554687500, -0.956542968750, 0.295654296875, -2.875000000000, -0.906250000000, -1.789062500000, 1491906745
0.034423828125, -1.073730468750, 0.320556640625, -4.343750000000, 0.695312500000, -6.765625000000, 1491906745
0.034423828125, -1.073730468750, 0.320556640625, -4.343750000000, 0.695312500000, -6.765625000000, 1491906745
0.034423828125, -1.073730468750, 0.320556640625, -4.343750000000, 0.695312500000, -6.765625000000, 1491906745
0.034423828125, -1.073730468750, 0.320556640625, -4.343750000000, 0.695312500000, -6.765625000000, 1491906745
0.022216796875, -1.018554687500, 0.327392578125, -1.703125000000, 0.000000000000, -5.343750000000, 1491906745
-0.003906250000, -0.949951171875, 0.343017578125, -4.179687500000, -2.359375000000, -6.421875000000, 1491906745
-0.003906250000, -0.949951171875, 0.343017578125, -4.179687500000, -2.359375000000, -6.421875000000, 1491906745
-0.003906250000, -0.949951171875, 0.343017578125, -4.179687500000, -2.359375000000, -6.421875000000, 1491906745
0.123291015625, -0.926757812500, 0.296386718750, -4.132812500000, -0.601562500000, -6.921875000000, 1491906745
0.123291015625, -0.926757812500, 0.296386718750, -4.132812500000, -0.601562500000, -6.921875000000, 1491906745
0.123291015625, -0.926757812500, 0.296386718750, -4.132812500000, -0.601562500000, -6.921875000000, 1491906745
0.123291015625, -0.926757812500, 0.296386718750, -4.132812500000, -0.601562500000, -6.921875000000, 1491906745
0.123291015625, -0.926757812500, 0.296386718750, -4.132812500000, -0.601562500000, -6.921875000000, 1491906745
0.123291015625, -0.926757812500, 0.296386718750, -4.132812500000, -0.601562500000, -6.921875000000, 1491906745
0.123291015625, -0.926757812500, 0.296386718750, -4.132812500000, -0.601562500000, -6.921875000000, 1491906745
0.071533203125, -0.926025390625, 0.299560546875, -1.039062500000, 0.156250000000, -1.585937500000, 1491906745
0.073974609375, -1.007080078125, 0.251220703125, -1.039062500000, 0.156250000000, -1.585937500000, 1491906745
0.073974609375, -1.007080078125, 0.251220703125, -1.039062500000, 0.156250000000, -1.585937500000, 1491906745
0.073974609375, -1.007080078125, 0.251220703125, -1.039062500000, 0.156250000000, -1.585937500000, 1491906745
0.073974609375, -1.007080078125, 0.251220703125, -1.039062500000, 0.156250000000, -1.585937500000, 1491906745
-0.065185546875, -1.019531250000, 0.308105468750, -0.625000000000, -0.296875000000, -4.406250000000, 1491906745
0.063476562500, -1.016357421875, 0.290283203125, -0.625000000000, -0.296875000000, -4.406250000000, 1491906745
0.063476562500, -1.016357421875, 0.290283203125, -0.625000000000, -0.296875000000, -4.406250000000, 1491906745
0.063476562500, -1.016357421875, 0.290283203125, -0.625000000000, -0.296875000000, -4.406250000000, 1491906745
0.132324218750, -0.929199218750, 0.332275390625, -2.289062500000, -0.421875000000, -4.382812500000, 1491906745
0.038330078125, -0.882812500000, 0.298095703125, 5.070312500000, -0.687500000000, -4.484375000000, 1491906745
0.038330078125, -0.882812500000, 0.298095703125, 5.070312500000, -0.687500000000, -4.484375000000, 1491906745
0.038330078125, -0.882812500000, 0.298095703125, 5.070312500000, -0.687500000000, -4.484375000000, 1491906745
0.038330078125, -0.882812500000, 0.298095703125, 5.070312500000, -0.687500000000, -4.484375000000, 1491906745
0.038330078125, -0.882812500000, 0.298095703125, 5.070312500000, -0.687500000000, -4.484375000000, 1491906745
0.038330078125, -0.882812500000, 0.298095703125, 5.070312500000, -0.687500000000, -4.484375000000, 1491906745
0.087646484375, -1.013916015625, 0.296142578125, 6.281250000000, 1.898437500000, -4.148437500000, 1491906745
0.087646484375, -1.013916015625, 0.296142578125, 6.281250000000, 1.898437500000, -4.148437500000, 1491906745
0.087646484375, -1.013916015625, 0.296142578125, 6.281250000000, 1.898437500000, -4.148437500000, 1491906746
0.034179687500, -0.848876953125, 0.221435546875, 19.945312500000, -5.804687500000, -3.195312500000, 1491906746
-0.138427734375, -0.939453125000, 0.242187500000, 25.515625000000, -11.320312500000, -3.265625000000, 1491906746
-0.138427734375, -0.939453125000, 0.242187500000, 25.515625000000, -11.320312500000, -3.265625000000, 1491906746
0.032714843750, -0.953857421875, 0.157226562500, 34.179687500000, -11.210937500000, -1.179687500000, 1491906746
-0.011962890625, -0.788574218750, 0.322021484375, 35.242187500000, -14.671875000000, 0.281250000000, 1491906746
-0.011962890625, -0.788574218750, 0.322021484375, 35.242187500000, -14.671875000000, 0.281250000000, 1491906746
-0.011962890625, -0.788574218750, 0.322021484375, 35.242187500000, -14.671875000000, 0.281250000000, 1491906746
-0.011962890625, -0.788574218750, 0.322021484375, 35.242187500000, -14.671875000000, 0.281250000000, 1491906746
-0.011962890625, -0.788574218750, 0.322021484375, 35.242187500000, -14.671875000000, 0.281250000000, 1491906746
-0.011962890625, -0.788574218750, 0.322021484375, 35.242187500000, -14.671875000000, 0.281250000000, 1491906746
0.027343750000, -0.866455078125, 0.190673828125, 47.593750000000, -16.257812500000, -8.273437500000, 1491906746
0.027343750000, -0.866455078125, 0.190673828125, 47.593750000000, -16.257812500000, -8.273437500000, 1491906746
0.027343750000, -0.866455078125, 0.190673828125, 47.593750000000, -16.257812500000, -8.273437500000, 1491906746
0.027343750000, -0.866455078125, 0.190673828125, 47.593750000000, -16.257812500000, -8.273437500000, 1491906746
0.027343750000, -0.866455078125, 0.190673828125, 47.593750000000, -16.257812500000, -8.273437500000, 1491906746
-0.018554687500, -0.847412109375, 0.114746093750, 64.828125000000, -24.695312500000, -5.851562500000, 1491906746
-0.018554687500, -0.847412109375, 0.114746093750, 64.828125000000, -24.695312500000, -5.851562500000, 1491906746
-0.018554687500, -0.847412109375, 0.114746093750, 64.828125000000, -24.695312500000, -5.851562500000, 1491906746
0.143310546875, -0.875244140625, 0.010253906250, 77.250000000000, -7.765625000000, -16.781250000000, 1491906746
0.143310546875, -0.875244140625, 0.010253906250, 77.250000000000, -7.765625000000, -16.781250000000, 1491906746
0.143310546875, -0.875244140625, 0.010253906250, 77.250000000000, -7.765625000000, -16.781250000000, 1491906746
0.143310546875, -0.875244140625, 0.010253906250, 77.250000000000, -7.765625000000, -16.781250000000, 1491906746
0.010742187500, -0.802734375000, -0.037109375000, 86.250000000000, -8.812500000000, -13.812500000000, 1491906746
0.003906250000, -0.741455078125, -0.193847656250, 107.257812500000, 2.500000000000, -8.296875000000, 1491906746
0.003906250000, -0.741455078125, -0.193847656250, 107.257812500000, 2.500000000000, -8.296875000000, 1491906746
0.003906250000, -0.741455078125, -0.193847656250, 107.257812500000, 2.500000000000, -8.296875000000, 1491906746
0.003906250000, -0.741455078125, -0.193847656250, 107.257812500000, 2.500000000000, -8.296875000000, 1491906746
0.003906250000, -0.741455078125, -0.193847656250, 107.257812500000, 2.500000000000, -8.296875000000, 1491906746
-0.107421875000, -0.866210937500, -0.210693359375, 72.710937500000, -35.968750000000, -12.078125000000, 1491906746
-0.107421875000, -0.866210937500, -0.210693359375, 72.710937500000, -35.968750000000, -12.078125000000, 1491906746
-0.107421875000, -0.866210937500, -0.210693359375, 72.710937500000, -35.968750000000, -12.078125000000, 1491906746
-0.081542968750, -0.687255859375, -0.112060546875, 98.812500000000, -16.726562500000, -10.109375000000, 1491906746
-0.081542968750, -0.687255859375, -0.112060546875, 98.812500000000, -16.726562500000, -10.109375000000, 1491906746
-0.036865234375, -0.693115234375, -0.154296875000, 20.320312500000, -99.828125000000, -9.710937500000, 1491906746
-0.036865234375, -0.693115234375, -0.154296875000, 20.320312500000, -99.828125000000, -9.710937500000, 1491906746
-0.036865234375, -0.693115234375, -0.154296875000, 20.320312500000, -99.828125000000, -9.710937500000, 1491906746
-0.036865234375, -0.693115234375, -0.154296875000, 20.320312500000, -99.828125000000, -9.710937500000, 1491906746
-0.068359375000, -1.025634765625, -0.136718750000, 10.718750000000, -63.476562500000, -16.773437500000, 1491906746
-0.068359375000, -1.025634765625, -0.136718750000, 10.718750000000, -63.476562500000, -16.773437500000, 1491906746
-0.068359375000, -1.025634765625, -0.136718750000, 10.718750000000, -63.476562500000, -16.773437500000, 1491906746
-0.068359375000, -1.025634765625, -0.136718750000, 10.718750000000, -63.476562500000, -16.773437500000, 1491906746
-0.068359375000, -1.025634765625, -0.136718750000, 10.718750000000, -63.476562500000, -16.773437500000, 1491906746
-0.029785156250, -0.801513671875, -0.220703125000, -27.804687500000, -51.632812500000, -34.570312500000, 1491906746
-0.178710937500, -0.885498046875, -0.203125000000, -38.109375000000, -54.578125000000, -26.914062500000, 1491906746
-0.178710937500, -0.885498046875, -0.203125000000, -38.109375000000, -54.578125000000, -26.914062500000, 1491906746
-0.178710937500, -0.885498046875, -0.203125000000, -38.109375000000, -54.578125000000, -26.914062500000, 1491906746
-0.178710937500, -0.885498046875, -0.203125000000, -38.109375000000, -54.578125000000, -26.914062500000, 1491906746
-0.178710937500, -0.885498046875, -0.203125000000, -38.109375000000, -54.578125000000, -26.914062500000, 1491906746
-0.251708984375, -1.054443359375, -0.204589843750, -62.078125000000, -59.484375000000, -19.062500000000, 1491906746
-0.251708984375, -1.054443359375, -0.204589843750, -62.078125000000, -59.484375000000, -19.062500000000, 1491906746
-0.251708984375, -1.054443359375, -0.204589843750, -62.078125000000, -59.484375000000, -19.062500000000, 1491906746
-0.251708984375, -1.054443359375, -0.204589843750, -62.078125000000, -59.484375000000, -19.062500000000, 1491906746
-0.251708984375, -1.054443359375, -0.204589843750, -62.078125000000, -59.484375000000, -19.062500000000, 1491906746
-0.251708984375, -1.054443359375, -0.204589843750, -62.078125000000, -59.484375000000, -19.062500000000, 1491906746
-0.273681640625, -1.047851562500, -0.169921875000, -67.507812500000, -49.500000000000, -8.875000000000, 1491906746
-0.273681640625, -1.047851562500, -0.169921875000, -67.507812500000, -49.500000000000, -8.875000000000, 1491906746
-0.273681640625, -1.047851562500, -0.169921875000, -67.507812500000, -49.500000000000, -8.875000000000, 1491906746
-0.331787109375, -1.132812500000, -0.182128906250, -85.460937500000, 40.843750000000, -27.843750000000, 1491906746
-0.331787109375, -1.132812500000, -0.182128906250, -85.460937500000, 40.843750000000, -27.843750000000, 1491906746
-0.331787109375, -1.132812500000, -0.182128906250, -85.460937500000, 40.843750000000, -27.843750000000, 1491906746
-0.331787109375, -1.132812500000, -0.182128906250, -85.460937500000, 40.843750000000, -27.843750000000, 1491906746
-0.157226562500, -1.197998046875, -0.280761718750, -94.812500000000, 94.781250000000, -38.687500000000, 1491906746
-0.157226562500, -1.197998046875, -0.280761718750, -94.812500000000, 94.781250000000, -38.687500000000, 1491906746
-0.157226562500, -1.197998046875, -0.280761718750, -94.812500000000, 94.781250000000, -38.687500000000, 1491906746
-0.269775390625, -1.109130859375, -0.172607421875, -73.164062500000, 112.687500000000, -36.757812500000, 1491906746
-0.269775390625, -1.109130859375, -0.172607421875, -73.164062500000, 112.687500000000, -36.757812500000, 1491906746
-0.269775390625, -1.109130859375, -0.172607421875, -73.164062500000, 112.687500000000, -36.757812500000, 1491906746
-0.260742187500, -1.156005859375, -0.265625000000, -37.312500000000, 76.195312500000, -32.656250000000, 1491906747
-0.260742187500, -1.156005859375, -0.265625000000, -37.312500000000, 76.195312500000, -32.656250000000, 1491906747
-0.260742187500, -1.156005859375, -0.265625000000, -37.312500000000, 76.195312500000, -32.656250000000, 1491906747
-0.278320312500, -1.090576171875, -0.208984375000, -22.523437500000, 23.265625000000, -17.562500000000, 1491906747
-0.278320312500, -1.090576171875, -0.208984375000, -22.523437500000, 23.265625000000, -17.562500000000, 1491906747
-0.340087890625, -1.046630859375, -0.222167968750, 38.890625000000, -76.968750000000, 10.203125000000, 1491906747
-0.340087890625, -1.046630859375, -0.222167968750, 38.890625000000, -76.968750000000, 10.203125000000, 1491906747
-0.340087890625, -1.046630859375, -0.222167968750, 38.890625000000, -76.968750000000, 10.203125000000, 1491906747
-0.340087890625, -1.046630859375, -0.222167968750, 38.890625000000, -76.968750000000, 10.203125000000, 1491906747
-0.340087890625, -1.046630859375, -0.222167968750, 38.890625000000, -76.968750000000, 10.203125000000, 1491906747
-0.281738281250, -1.033447265625, -0.119384765625, 76.929687500000, -103.320312500000, 10.796875000000, 1491906747
-0.281738281250, -1.033447265625, -0.119384765625, 76.929687500000, -103.320312500000, 10.796875000000, 1491906747
-0.281738281250, -1.033447265625, -0.119384765625, 76.929687500000, -103.320312500000, 10.796875000000, 1491906747
-0.224121093750, -1.155029296875, -0.117431640625, 86.984375000000, -65.265625000000, -10.617187500000, 1491906747
-0.310302734375, -1.140869140625, -0.168457031250, 86.984375000000, -65.265625000000, -10.617187500000, 1491906747
-0.310302734375, -1.140869140625, -0.168457031250, 86.984375000000, -65.265625000000, -10.617187500000, 1491906747
-0.310302734375, -1.140869140625, -0.168457031250, 86.984375000000, -65.265625000000, -10.617187500000, 1491906747
-0.327148437500, -1.181884765625, -0.186279296875, 77.132812500000, -37.937500000000, -20.312500000000, 1491906747
-0.322265625000, -1.228515625000, -0.212646484375, 63.734375000000, -7.804687500000, -18.750000000000, 1491906747
-0.322265625000, -1.228515625000, -0.212646484375, 63.734375000000, -7.804687500000, -18.750000000000, 1491906747
-0.322265625000, -1.228515625000, -0.212646484375, 63.734375000000, -7.804687500000, -18.750000000000, 1491906747
-0.322265625000, -1.228515625000, -0.212646484375, 63.734375000000, -7.804687500000, -18.750000000000, 1491906747
-0.322265625000, -1.228515625000, -0.212646484375, 63.734375000000, -7.804687500000, -18.750000000000, 1491906747
-0.289550781250, -1.136230468750, -0.255126953125, 39.117187500000, 29.445312500000, -11.687500000000, 1491906747
-0.289550781250, -1.136230468750, -0.255126953125, 39.117187500000, 29.445312500000, -11.687500000000, 1491906747
-0.289550781250, -1.136230468750, -0.255126953125, 39.117187500000, 29.445312500000, -11.687500000000, 1491906747
-0.285400390625, -0.953613281250, -0.121582031250, 55.851562500000, -123.125000000000, 25.812500000000, 1491906747
-0.320800781250, -1.080566406250, -0.251220703125, 41.078125000000, -151.015625000000, 31.062500000000, 1491906747
-0.320800781250, -1.080566406250, -0.251220703125, 41.078125000000, -151.015625000000, 31.062500000000, 1491906747
-0.320800781250, -1.080566406250, -0.251220703125, 41.078125000000, -151.015625000000, 31.062500000000, 1491906747
-0.257568359375, -0.967285156250, -0.102294921875, 18.539062500000, -114.312500000000, 31.531250000000, 1491906747
-0.257568359375, -0.967285156250, -0.102294921875, 18.539062500000, -114.312500000000, 31.531250000000, 1491906747
-0.257568359375, -0.967285156250, -0.102294921875, 18.539062500000, -114.312500000000, 31.531250000000, 1491906747
-0.257568359375, -0.967285156250, -0.102294921875, 18.539062500000, -114.312500000000, 31.531250000000, 1491906747
-0.257568359375, -0.967285156250, -0.102294921875, 18.539062500000, -114.312500000000, 31.531250000000, 1491906747
-0.257568359375, -0.967285156250, -0.102294921875, 18.539062500000, -114.312500000000, 31.531250000000, 1491906747
-0.322021484375, -0.896728515625, -0.203369140625, 4.859375000000, 3.515625000000, 6.398437500000, 1491906747
-0.322021484375, -0.896728515625, -0.203369140625, 4.859375000000, 3.515625000000, 6.398437500000, 1491906747
-0.322021484375, -0.896728515625, -0.203369140625, 4.859375000000, 3.515625000000, 6.398437500000, 1491906747
-0.385253906250, -1.000488281250, -0.197509765625, -42.375000000000, -2.859375000000, 14.468750000000, 1491906747
-0.179687500000, -1.025390625000, -0.099121093750, -62.468750000000, -13.781250000000, 24.351562500000, 1491906747
-0.179687500000, -1.025390625000, -0.099121093750, -62.468750000000, -13.781250000000, 24.351562500000, 1491906747
-0.179687500000, -1.025390625000, -0.099121093750, -62.468750000000, -13.781250000000, 24.351562500000, 1491906747
-0.295410156250, -1.071289062500, -0.212890625000, -61.031250000000, -6.421875000000, 21.203125000000, 1491906747
-0.331298828125, -0.915771484375, -0.161132812500, -62.656250000000, 18.984375000000, 16.109375000000, 1491906747
-0.331298828125, -0.915771484375, -0.161132812500, -62.656250000000, 18.984375000000, 16.109375000000, 1491906747
-0.331298828125, -0.915771484375, -0.161132812500, -62.656250000000, 18.984375000000, 16.109375000000, 1491906747
-0.331298828125, -0.915771484375, -0.161132812500, -62.656250000000, 18.984375000000, 16.109375000000, 1491906747
-0.331298828125, -0.915771484375, -0.161132812500, -62.656250000000, 18.984375000000, 16.109375000000, 1491906747
-0.347656250000, -1.012939453125, -0.158935546875, -74.359375000000, 31.000000000000, 5.289062500000, 1491906747
-0.347656250000, -1.012939453125, -0.158935546875, -74.359375000000, 31.000000000000, 5.289062500000, 1491906747
-0.347656250000, -1.012939453125, -0.158935546875, -74.359375000000, 31.000000000000, 5.289062500000, 1491906747
-0.385986328125, -1.005615234375, -0.098144531250, -82.476562500000, 23.328125000000, 3.765625000000, 1491906747
-0.385986328125, -1.005615234375, -0.098144531250, -82.476562500000, 23.328125000000, 3.765625000000, 1491906747
-0.385986328125, -1.005615234375, -0.098144531250, -82.476562500000, 23.328125000000, 3.765625000000, 1491906747
-0.455810546875, -1.096923828125, -0.193847656250, -61.078125000000, 22.734375000000, -10.335937500000, 1491906747
-0.455810546875, -1.096923828125, -0.193847656250, -61.078125000000, 22.734375000000, -10.335937500000, 1491906747
-0.455810546875, -1.096923828125, -0.193847656250, -61.078125000000, 22.734375000000, -10.335937500000, 1491906747
-0.455810546875, -1.096923828125, -0.193847656250, -61.078125000000, 22.734375000000, -10.335937500000, 1491906747
-0.297363281250, -1.060058593750, -0.102783203125, -35.984375000000, -7.562500000000, -6.257812500000, 1491906747
-0.297363281250, -1.060058593750, -0.102783203125, -35.984375000000, -7.562500000000, -6.257812500000, 1491906747
-0.297363281250, -1.060058593750, -0.102783203125, -35.984375000000, -7.562500000000, -6.257812500000, 1491906747
-0.391845703125, -0.970458984375, -0.152832031250, -29.101562500000, -47.484375000000, -1.554687500000, 1491906747
-0.391845703125, -0.970458984375, -0.152832031250, -29.101562500000, -47.484375000000, -1.554687500000, 1491906747
-0.391845703125, -0.970458984375, -0.152832031250, -29.101562500000, -47.484375000000, -1.554687500000, 1491906747
-0.266357421875, -1.160156250000, -0.099853515625, -27.085937500000, 50.781250000000, -15.867187500000, 1491906747
-0.266357421875, -1.160156250000, -0.099853515625, -27.085937500000, 50.781250000000, -15.867187500000, 1491906747
-0.266357421875, -1.160156250000, -0.099853515625, -27.085937500000, 50.781250000000, -15.867187500000, 1491906748
-0.289794921875, -1.218261718750, -0.172119140625, 0.789062500000, 232.750000000000, -49.250000000000, 1491906748
-0.289794921875, -1.218261718750, -0.172119140625, 0.789062500000, 232.750000000000, -49.250000000000, 1491906748
-0.289794921875, -1.218261718750, -0.172119140625, 0.789062500000, 232.750000000000, -49.250000000000, 1491906748
-0.289794921875, -1.218261718750, -0.172119140625, 0.789062500000, 232.750000000000, -49.250000000000, 1491906748
-0.270507812500, -0.997802734375, -0.266601562500, 43.234375000000, 30.109375000000, 21.703125000000, 1491906748
-0.270507812500, -0.997802734375, -0.266601562500, 43.234375000000, 30.109375000000, 21.703125000000, 1491906748
-0.270507812500, -0.997802734375, -0.266601562500, 43.234375000000, 30.109375000000, 21.703125000000, 1491906748
-0.270507812500, -0.997802734375, -0.266601562500, 43.234375000000, 30.109375000000, 21.703125000000, 1491906748
-0.270507812500, -0.997802734375, -0.266601562500, 43.234375000000, 30.109375000000, 21.703125000000, 1491906748
-0.270507812500, -0.997802734375, -0.266601562500, 43.234375000000, 30.109375000000, 21.703125000000, 1491906748
-0.229248046875, -1.060546875000, -0.214355468750, 69.406250000000, -80.132812500000, 45.109375000000, 1491906748
-0.229248046875, -1.060546875000, -0.214355468750, 69.406250000000, -80.132812500000, 45.109375000000, 1491906748
-0.229248046875, -1.060546875000, -0.214355468750, 69.406250000000, -80.132812500000, 45.109375000000, 1491906748
-0.278808593750, -1.068115234375, -0.154541015625, 102.062500000000, -37.203125000000, 41.140625000000, 1491906748
-0.278808593750, -1.068115234375, -0.154541015625, 102.062500000000, -37.203125000000, 41.140625000000, 1491906748
-0.278808593750, -1.068115234375, -0.154541015625, 102.062500000000, -37.203125000000, 41.140625000000, 1491906748
-0.278808593750, -1.068115234375, -0.154541015625, 102.062500000000, -37.203125000000, 41.140625000000, 1491906748
-0.183349609375, -0.996337890625, -0.190917968750, 98.953125000000, 23.085937500000, 13.679687500000, 1491906748
-0.183349609375, -0.996337890625, -0.190917968750, 98.953125000000, 23.085937500000, 13.679687500000, 1491906748
-0.244628906250, -0.977783203125, -0.229003906250, 57.570312500000, 17.585937500000, 23.984375000000, 1491906748
-0.244628906250, -0.977783203125, -0.229003906250, 57.570312500000, 17.585937500000, 23.984375000000, 1491906748
-0.244628906250, -0.977783203125, -0.229003906250, 57.570312500000, 17.585937500000, 23.984375000000, 1491906748
-0.244628906250, -0.977783203125, -0.229003906250, 57.570312500000, 17.585937500000, 23.984375000000, 1491906748
-0.122314453125, -0.867919921875, -0.143066406250, -3.312500000000, -49.554687500000, 54.390625000000, 1491906748
-0.122314453125, -0.867919921875, -0.143066406250, -3.312500000000, -49.554687500000, 54.390625000000, 1491906748
-0.122314453125, -0.867919921875, -0.143066406250, -3.312500000000, -49.554687500000, 54.390625000000, 1491906748
-0.206054687500, -0.811035156250, -0.194335937500, -72.539062500000, 80.390625000000, 11.851562500000, 1491906748
-0.206054687500, -0.811035156250, -0.194335937500, -72.539062500000, 80.390625000000, 11.851562500000, 1491906748
-0.206054687500, -0.811035156250, -0.194335937500, -72.539062500000, 80.390625000000, 11.851562500000, 1491906748
-0.206054687500, -0.811035156250, -0.194335937500, -72.539062500000, 80.390625000000, 11.851562500000, 1491906748
-0.104003906250, -0.808349609375, -0.203369140625, -84.460937500000, 107.500000000000, 5.781250000000, 1491906748
-0.048339843750, -0.782958984375, -0.136474609375, -150.851562500000, 152.492187500000, -16.726562500000, 1491906748
-0.048339843750, -0.782958984375, -0.136474609375, -150.851562500000, 152.492187500000, -16.726562500000, 1491906748
-0.048339843750, -0.782958984375, -0.136474609375, -150.851562500000, 152.492187500000, -16.726562500000, 1491906748
-0.048339843750, -0.782958984375, -0.136474609375, -150.851562500000, 152.492187500000, -16.726562500000, 1491906748
-0.048339843750, -0.782958984375, -0.136474609375, -150.851562500000, 152.492187500000, -16.726562500000, 1491906748
0.021484375000, -0.938232421875, -0.102539062500, -138.218750000000, 173.039062500000, -21.757812500000, 1491906748
0.021484375000, -0.938232421875, -0.102539062500, -138.218750000000, 173.039062500000, -21.757812500000, 1491906748
0.021484375000, -0.938232421875, -0.102539062500, -138.218750000000, 173.039062500000, -21.757812500000, 1491906748
0.077636718750, -0.875488281250, -0.168457031250, -72.757812500000, -71.984375000000, 27.273437500000, 1491906748
-0.016601562500, -0.819824218750, -0.051757812500, -67.242187500000, -97.265625000000, 40.859375000000, 1491906748
-0.016601562500, -0.819824218750, -0.051757812500, -67.242187500000, -97.265625000000, 40.859375000000, 1491906748
-0.026123046875, -0.831787109375, -0.085693359375, -16.093750000000, -79.023437500000, 42.515625000000, 1491906748
-0.026123046875, -0.831787109375, -0.085693359375, -16.093750000000, -79.023437500000, 42.515625000000, 1491906748
-0.026123046875, -0.831787109375, -0.085693359375, -16.093750000000, -79.023437500000, 42.515625000000, 1491906748
-0.026123046875, -0.831787109375, -0.085693359375, -16.093750000000, -79.023437500000, 42.515625000000, 1491906748
-0.026123046875, -0.831787109375, -0.085693359375, -16.093750000000, -79.023437500000, 42.515625000000, 1491906748
-0.026123046875, -0.831787109375, -0.085693359375, -16.093750000000, -79.023437500000, 42.515625000000, 1491906748
-0.026123046875, -0.831787109375, -0.085693359375, -16.093750000000, -79.023437500000, 42.515625000000, 1491906748
-0.026611328125, -0.742431640625, 0.006347656250, 12.976562500000, 74.234375000000, 2.000000000000, 1491906748
-0.156005859375, -1.278320312500, 0.775878906250, 20.632812500000, 253.992187500000, -49.960937500000, 1491906748
-0.156005859375, -1.278320312500, 0.775878906250, 20.632812500000, 253.992187500000, -49.960937500000, 1491906748
-0.156005859375, -1.278320312500, 0.775878906250, 20.632812500000, 253.992187500000, -49.960937500000, 1491906748
-0.156005859375, -1.278320312500, 0.775878906250, 20.632812500000, 253.992187500000, -49.960937500000, 1491906748
-0.106689453125, -0.781982421875, 0.173095703125, -131.718750000000, -137.125000000000, 1.429687500000, 1491906748
-0.106689453125, -0.781982421875, 0.173095703125, -131.718750000000, -137.125000000000, 1.429687500000, 1491906748
-0.106689453125, -0.781982421875, 0.173095703125, -131.718750000000, -137.125000000000, 1.429687500000, 1491906748
-0.106689453125, -0.781982421875, 0.173095703125, -131.718750000000, -137.125000000000, 1.429687500000, 1491906748
-0.106689453125, -0.781982421875, 0.173095703125, -131.718750000000, -137.125000000000, 1.429687500000, 1491906748
-0.002441406250, -0.923583984375, 0.018554687500, -107.835937500000, -54.984375000000, 15.054687500000, 1491906748
-0.002441406250, -0.923583984375, 0.018554687500, -107.835937500000, -54.984375000000, 15.054687500000, 1491906748
-0.002441406250, -0.923583984375, 0.018554687500, -107.835937500000, -54.984375000000, 15.054687500000, 1491906748
-0.044189453125, -0.943603515625, 0.309814453125, -38.523437500000, 7.875000000000, -0.476562500000, 1491906749
-0.075683593750, -0.879150390625, 0.240478515625, -38.523437500000, 7.875000000000, -0.476562500000, 1491906749
-0.075683593750, -0.879150390625, 0.240478515625, -38.523437500000, 7.875000000000, -0.476562500000, 1491906749
-0.075683593750, -0.879150390625, 0.240478515625, -38.523437500000, 7.875000000000, -0.476562500000, 1491906749
-0.075683593750, -0.879150390625, 0.240478515625, -38.523437500000, 7.875000000000, -0.476562500000, 1491906749
-0.066162109375, -1.017333984375, 0.231201171875, -35.195312500000, -0.382812500000, 2.515625000000, 1491906749
-0.066162109375, -1.017333984375, 0.231201171875, -35.195312500000, -0.382812500000, 2.515625000000, 1491906749
-0.066162109375, -1.017333984375, 0.231201171875, -35.195312500000, -0.382812500000, 2.515625000000, 1491906749
-0.066162109375, -1.017333984375, 0.231201171875, -35.195312500000, -0.382812500000, 2.515625000000, 1491906749
-0.066162109375, -1.017333984375, 0.231201171875, -35.195312500000, -0.382812500000, 2.515625000000, 1491906749
-0.014160156250, -0.880126953125, 0.401855468750, -15.601562500000, 31.757812500000, -3.140625000000, 1491906749
-0.014160156250, -0.880126953125, 0.401855468750, -15.601562500000, 31.757812500000, -3.140625000000, 1491906749
-0.014160156250, -0.880126953125, 0.401855468750, -15.601562500000, 31.757812500000, -3.140625000000, 1491906749
-0.010742187500, -0.915771484375, 0.291015625000, -26.695312500000, 8.773437500000, -3.554687500000, 1491906749
-0.010742187500, -0.915771484375, 0.291015625000, -26.695312500000, 8.773437500000, -3.554687500000, 1491906749
-0.010742187500, -0.915771484375, 0.291015625000, -26.695312500000, 8.773437500000, -3.554687500000, 1491906749
-0.071289062500, -0.914550781250, 0.348388671875, -20.328125000000, 14.343750000000, -8.843750000000, 1491906749
-0.071289062500, -0.914550781250, 0.348388671875, -20.328125000000, 14.343750000000, -8.843750000000, 1491906749
-0.071289062500, -0.914550781250, 0.348388671875, -20.328125000000, 14.343750000000, -8.843750000000, 1491906749
-0.071289062500, -0.914550781250, 0.348388671875, -20.328125000000, 14.343750000000, -8.843750000000, 1491906749
-0.047851562500, -1.007568359375, 0.389648437500, -13.070312500000, 7.406250000000, -6.273437500000, 1491906749
-0.047851562500, -1.007568359375, 0.389648437500, -13.070312500000, 7.406250000000, -6.273437500000, 1491906749
-0.047851562500, -1.007568359375, 0.389648437500, -13.070312500000, 7.406250000000, -6.273437500000, 1491906749
-0.052978515625, -1.011718750000, 0.289550781250, -12.351562500000, 6.781250000000, 0.882812500000, 1491906749
-0.052978515625, -1.011718750000, 0.289550781250, -12.351562500000, 6.781250000000, 0.882812500000, 1491906749
-0.052978515625, -1.011718750000, 0.289550781250, -12.351562500000, 6.781250000000, 0.882812500000, 1491906749
-0.083007812500, -0.904052734375, 0.309570312500, -12.343750000000, 0.757812500000, -2.593750000000, 1491906749
-0.083007812500, -0.904052734375, 0.309570312500, -12.343750000000, 0.757812500000, -2.593750000000, 1491906749
-0.083007812500, -0.904052734375, 0.309570312500, -12.343750000000, 0.757812500000, -2.593750000000, 1491906749
0.016113281250, -0.940185546875, 0.403320312500, -5.695312500000, 5.062500000000, -2.343750000000, 1491906749
0.016113281250, -0.940185546875, 0.403320312500, -5.695312500000, 5.062500000000, -2.343750000000, 1491906749
0.016113281250, -0.940185546875, 0.403320312500, -5.695312500000, 5.062500000000, -2.343750000000, 1491906749
0.093017578125, -1.022705078125, 0.371093750000, -8.023437500000, 0.882812500000, -3.179687500000, 1491906749
0.093017578125, -1.022705078125, 0.371093750000, -8.023437500000, 0.882812500000, -3.179687500000, 1491906749
0.093017578125, -1.022705078125, 0.371093750000, -8.023437500000, 0.882812500000, -3.179687500000, 1491906749
0.093017578125, -1.022705078125, 0.371093750000, -8.023437500000, 0.882812500000, -3.179687500000, 1491906749
-0.024902343750, -0.947998046875, 0.366699218750, -8.914062500000, -1.929687500000, -0.250000000000, 1491906749
-0.024902343750, -0.947998046875, 0.366699218750, -8.914062500000, -1.929687500000, -0.250000000000, 1491906749
-0.024902343750, -0.947998046875, 0.366699218750, -8.914062500000, -1.929687500000, -0.250000000000, 1491906749
-0.024414062500, -1.007324218750, 0.350341796875, -8.609375000000, -2.546875000000, 0.085937500000, 1491906749
0.028076171875, -0.898681640625, 0.362548828125, -5.687500000000, -0.117187500000, -2.031250000000, 1491906749
0.026611328125, -0.931640625000, 0.345703125000, -6.281250000000, -4.898437500000, -1.695312500000, 1491906749
0.026611328125, -0.931640625000, 0.345703125000, -6.281250000000, -4.898437500000, -1.695312500000, 1491906749
0.026611328125, -0.931640625000, 0.345703125000, -6.281250000000, -4.898437500000, -1.695312500000, 1491906749
0.026611328125, -0.931640625000, 0.345703125000, -6.281250000000, -4.898437500000, -1.695312500000, 1491906749
0.026611328125, -0.931640625000, 0.345703125000, -6.281250000000, -4.898437500000, -1.695312500000, 1491906749
0.007080078125, -0.917968750000, 0.354492187500, -0.898437500000, 0.367187500000, -6.867187500000, 1491906749
0.007080078125, -0.917968750000, 0.354492187500, -0.898437500000, 0.367187500000, -6.867187500000, 1491906749
0.007080078125, -0.917968750000, 0.354492187500, -0.898437500000, 0.367187500000, -6.867187500000, 1491906749
-0.022705078125, -0.910644531250, 0.339111328125, -4.687500000000, -1.804687500000, -4.742187500000, 1491906749
-0.022705078125, -0.910644531250, 0.339111328125, -4.687500000000, -1.804687500000, -4.742187500000, 1491906749
-0.022705078125, -0.910644531250, 0.339111328125, -4.687500000000, -1.804687500000, -4.742187500000, 1491906749
-0.022705078125, -0.910644531250, 0.339111328125, -4.687500000000, -1.804687500000, -4.742187500000, 1491906749
-0.022705078125, -0.910644531250, 0.339111328125, -4.687500000000, -1.804687500000, -4.742187500000, 1491906749
-0.022705078125, -0.910644531250, 0.339111328125, -4.687500000000, -1.804687500000, -4.742187500000, 1491906749
0.017333984375, -0.927246093750, 0.387451171875, -4.648437500000, 0.968750000000, -4.625000000000, 1491906749
0.017333984375, -0.927246093750, 0.387451171875, -4.648437500000, 0.968750000000, -4.625000000000, 1491906749
0.017333984375, -0.927246093750, 0.387451171875, -4.648437500000, 0.968750000000, -4.625000000000, 1491906749
0.017333984375, -0.927246093750, 0.387451171875, -4.648437500000, 0.968750000000, -4.625000000000, 1491906749
-0.135742187500, -0.975585937500, 0.362548828125, -1.687500000000, -1.023437500000, -3.867187500000, 1491906749
-0.135742187500, -0.975585937500, 0.362548828125, -1.687500000000, -1.023437500000, -3.867187500000, 1491906749
-0.135742187500, -0.975585937500, 0.362548828125, -1.687500000000, -1.023437500000, -3.867187500000, 1491906749
-0.064697265625, -0.942138671875, 0.377197265625, -1.531250000000, 2.367187500000, -6.101562500000, 1491906749
0.063232421875, -0.976562500000, 0.304199218750, -1.531250000000, 2.367187500000, -6.101562500000, 1491906749
0.063232421875, -0.976562500000, 0.304199218750, -1.531250000000, 2.367187500000, -6.101562500000, 1491906749
0.063232421875, -0.976562500000, 0.304199218750, -1.531250000000, 2.367187500000, -6.101562500000, 1491906749
0.076416015625, -0.966308593750, 0.400390625000, 0.023437500000, 5.085937500000, -8.781250000000, 1491906749
0.076416015625, -0.966308593750, 0.400390625000, 0.023437500000, 5.085937500000, -8.781250000000, 1491906749
0.076416015625, -0.966308593750, 0.400390625000, 0.023437500000, 5.085937500000, -8.781250000000, 1491906750
0.076416015625, -0.966308593750, 0.400390625000, 0.023437500000, 5.085937500000, -8.781250000000, 1491906750
0.076416015625, -0.966308593750, 0.400390625000, 0.023437500000, 5.085937500000, -8.781250000000, 1491906750
-0.074218750000, -0.926757812500, 0.396972656250, -2.984375000000, 2.140625000000, -1.328125000000, 1491906750
-0.074218750000, -0.926757812500, 0.396972656250, -2.984375000000, 2.140625000000, -1.328125000000, 1491906750
-0.074218750000, -0.926757812500, 0.396972656250, -2.984375000000, 2.140625000000, -1.328125000000, 1491906750
-0.074218750000, -0.926757812500, 0.396972656250, -2.984375000000, 2.140625000000, -1.328125000000, 1491906750
0.001220703125, -0.918945312500, 0.300537109375, -2.312500000000, 2.203125000000, -3.203125000000, 1491906750
0.001220703125, -0.918945312500, 0.300537109375, -2.312500000000, 2.203125000000, -3.203125000000, 1491906750
0.001220703125, -0.918945312500, 0.300537109375, -2.312500000000, 2.203125000000, -3.203125000000, 1491906750
0.138671875000, -1.071044921875, 0.369140625000, -1.710937500000, 1.421875000000, -4.578125000000, 1491906750
0.138671875000, -1.071044921875, 0.369140625000, -1.710937500000, 1.421875000000, -4.578125000000, 1491906750
-0.072509765625, -0.948242187500, 0.387939453125, -0.601562500000, 4.054687500000, -6.210937500000, 1491906750
-0.072509765625, -0.948242187500, 0.387939453125, -0.601562500000, 4.054687500000, -6.210937500000, 1491906750
-0.072509765625, -0.948242187500, 0.387939453125, -0.601562500000, 4.054687500000, -6.210937500000, 1491906750
-0.072509765625, -0.948242187500, 0.387939453125, -0.601562500000, 4.054687500000, -6.210937500000, 1491906750
-0.075439453125, -0.856201171875, 0.354492187500, 2.585937500000, 6.812500000000, -6.507812500000, 1491906750
-0.075439453125, -0.856201171875, 0.354492187500, 2.585937500000, 6.812500000000, -6.507812500000, 1491906750
-0.075439453125, -0.856201171875, 0.354492187500, 2.585937500000, 6.812500000000, -6.507812500000, 1491906750
-0.075439453125, -0.856201171875, 0.354492187500, 2.585937500000, 6.812500000000, -6.507812500000, 1491906750
-0.006591796875, -1.071044921875, 0.241699218750, -0.945312500000, 2.703125000000, -4.328125000000, 1491906750
-0.006591796875, -1.071044921875, 0.241699218750, -0.945312500000, 2.703125000000, -4.328125000000, 1491906750
-0.006591796875, -1.071044921875, 0.241699218750, -0.945312500000, 2.703125000000, -4.328125000000, 1491906750
-0.034179687500, -0.937011718750, 0.371337890625, -6.648437500000, -2.148437500000, -4.750000000000, 1491906750
-0.087646484375, -0.946533203125, 0.299316406250, -6.648437500000, -2.148437500000, -4.750000000000, 1491906750
-0.087646484375, -0.946533203125, 0.299316406250, -6.648437500000, -2.148437500000, -4.750000000000, 1491906750
-0.087646484375, -0.946533203125, 0.299316406250, -6.648437500000, -2.148437500000, -4.750000000000, 1491906750
-0.087646484375, -0.946533203125, 0.299316406250, -6.648437500000, -2.148437500000, -4.750000000000, 1491906750
-0.087646484375, -0.946533203125, 0.299316406250, -6.648437500000, -2.148437500000, -4.750000000000, 1491906750
-0.019531250000, -0.908935546875, 0.293701171875, -4.679687500000, 4.273437500000, -1.773437500000, 1491906750
-0.019531250000, -0.908935546875, 0.293701171875, -4.679687500000, 4.273437500000, -1.773437500000, 1491906750
-0.019531250000, -0.908935546875, 0.293701171875, -4.679687500000, 4.273437500000, -1.773437500000, 1491906750
-0.019531250000, -0.908935546875, 0.293701171875, -4.679687500000, 4.273437500000, -1.773437500000, 1491906750
-0.053710937500, -0.926513671875, 0.282958984375, -2.796875000000, 3.101562500000, -3.000000000000, 1491906750
-0.053710937500, -0.926513671875, 0.282958984375, -2.796875000000, 3.101562500000, -3.000000000000, 1491906750
-0.053710937500, -0.926513671875, 0.282958984375, -2.796875000000, 3.101562500000, -3.000000000000, 1491906750
-0.130371093750, -0.918457031250, 0.383544921875, -2.695312500000, 4.054687500000, -1.312500000000, 1491906750
-0.130371093750, -0.918457031250, 0.383544921875, -2.695312500000, 4.054687500000, -1.312500000000, 1491906750
0.023193359375, -0.899658203125, 0.375976562500, 0.132812500000, 10.953125000000, -4.515625000000, 1491906750
0.023193359375, -0.899658203125, 0.375976562500, 0.132812500000, 10.953125000000, -4.515625000000, 1491906750
0.023193359375, -0.899658203125, 0.375976562500, 0.132812500000, 10.953125000000, -4.515625000000, 1491906750
0.023193359375, -0.899658203125, 0.375976562500, 0.132812500000, 10.953125000000, -4.515625000000, 1491906750
0.016113281250, -0.931640625000, 0.404052734375, -0.296875000000, 6.078125000000, -2.859375000000, 1491906750
-0.149414062500, -1.002685546875, 0.455078125000, -4.414062500000, 1.820312500000, -4.796875000000, 1491906750
-0.149414062500, -1.002685546875, 0.455078125000, -4.414062500000, 1.820312500000, -4.796875000000, 1491906750
-0.149414062500, -1.002685546875, 0.455078125000, -4.414062500000, 1.820312500000, -4.796875000000, 1491906750
-0.071289062500, -0.954589843750, 0.292724609375, -5.023437500000, 0.570312500000, -4.125000000000, 1491906750
-0.071289062500, -0.954589843750, 0.292724609375, -5.023437500000, 0.570312500000, -4.125000000000, 1491906750
0.019531250000, -1.002197265625, 0.392333984375, -2.226562500000, 4.625000000000, -2.773437500000, 1491906750
-0.053466796875, -0.913574218750, 0.335693359375, -1.593750000000, 0.929687500000, -0.820312500000, 1491906750
-0.053466796875, -0.913574218750, 0.335693359375, -1.593750000000, 0.929687500000, -0.820312500000, 1491906750
-0.053466796875, -0.913574218750, 0.335693359375, -1.593750000000, 0.929687500000, -0.820312500000, 1491906750
-0.053466796875, -0.913574218750, 0.335693359375, -1.593750000000, 0.929687500000, -0.820312500000, 1491906750
-0.053466796875, -0.913574218750, 0.335693359375, -1.593750000000, 0.929687500000, -0.820312500000, 1491906750
-0.053466796875, -0.913574218750, 0.335693359375, -1.593750000000, 0.929687500000, -0.820312500000, 1491906750
-0.053466796875, -0.913574218750, 0.335693359375, -1.593750000000, 0.929687500000, -0.820312500000, 1491906750
-0.005126953125, -0.898925781250, 0.336914062500, -1.226562500000, -0.226562500000, -3.500000000000, 1491906750
-0.027343750000, -0.926269531250, 0.302978515625, -4.523437500000, -0.109375000000, 0.000000000000, 1491906750
-0.027343750000, -0.926269531250, 0.302978515625, -4.523437500000, -0.109375000000, 0.000000000000, 1491906750
-0.027343750000, -0.926269531250, 0.302978515625, -4.523437500000, -0.109375000000, 0.000000000000, 1491906750
-0.027343750000, -0.926269531250, 0.302978515625, -4.523437500000, -0.109375000000, 0.000000000000, 1491906750
-0.027343750000, -0.926269531250, 0.302978515625, -4.523437500000, -0.109375000000, 0.000000000000, 1491906750
-0.027343750000, -0.926269531250, 0.302978515625, -4.523437500000, -0.109375000000, 0.000000000000, 1491906750
0.071289062500, -0.871093750000, 0.299560546875, -3.367187500000, 2.226562500000, -2.312500000000, 1491906750
-0.015136718750, -0.954589843750, 0.446044921875, -3.367187500000, 2.226562500000, -2.312500000000, 1491906750
-0.015136718750, -0.954589843750, 0.446044921875, -3.367187500000, 2.226562500000, -2.312500000000, 1491906750
-0.015136718750, -0.954589843750, 0.446044921875, -3.367187500000, 2.226562500000, -2.312500000000, 1491906750
-0.015136718750, -0.954589843750, 0.446044921875, -3.367187500000, 2.226562500000, -2.312500000000, 1491906750
-0.015136718750, -0.954589843750, 0.446044921875, -3.367187500000, 2.226562500000, -2.312500000000, 1491906750
0.013183593750, -1.024658203125, 0.355957031250, -6.562500000000, 0.843750000000, -2.585937500000, 1491906751
-0.006591796875, -0.931640625000, 0.381103515625, -4.718750000000, 1.929687500000, -2.710937500000, 1491906751
-0.006591796875, -0.931640625000, 0.381103515625, -4.718750000000, 1.929687500000, -2.710937500000, 1491906751
-0.006591796875, -0.931640625000, 0.381103515625, -4.718750000000, 1.929687500000, -2.710937500000, 1491906751
-0.006591796875, -0.931640625000, 0.381103515625, -4.718750000000, 1.929687500000, -2.710937500000, 1491906751
-0.006591796875, -0.931640625000, 0.381103515625, -4.718750000000, 1.929687500000, -2.710937500000, 1491906751
0.068603515625, -0.931152343750, 0.300048828125, -5.632812500000, 0.976562500000, -2.625000000000, 1491906751
0.068603515625, -0.931152343750, 0.300048828125, -5.632812500000, 0.976562500000, -2.625000000000, 1491906751
0.068603515625, -0.931152343750, 0.300048828125, -5.632812500000, 0.976562500000, -2.625000000000, 1491906751
0.005859375000, -0.912597656250, 0.241699218750, -1.437500000000, 2.335937500000, 2.054687500000, 1491906751
0.005859375000, -0.912597656250, 0.241699218750, -1.437500000000, 2.335937500000, 2.054687500000, 1491906751
0.005859375000, -0.912597656250, 0.241699218750, -1.437500000000, 2.335937500000, 2.054687500000, 1491906751
0.005859375000, -0.912597656250, 0.241699218750, -1.437500000000, 2.335937500000, 2.054687500000, 1491906751
-0.049560546875, -0.910156250000, 0.358154296875, -4.851562500000, 0.007812500000, -3.093750000000, 1491906751
-0.049560546875, -0.910156250000, 0.358154296875, -4.851562500000, 0.007812500000, -3.093750000000, 1491906751
-0.049560546875, -0.910156250000, 0.358154296875, -4.851562500000, 0.007812500000, -3.093750000000, 1491906751
-0.019287109375, -0.899414062500, 0.223876953125, -3.578125000000, -0.281250000000, -2.703125000000, 1491906751
-0.019287109375, -0.899414062500, 0.223876953125, -3.578125000000, -0.281250000000, -2.703125000000, 1491906751
-0.019287109375, -0.899414062500, 0.223876953125, -3.578125000000, -0.281250000000, -2.703125000000, 1491906751
0.081787109375, -0.943847656250, 0.303710937500, 0.554687500000, -0.351562500000, -3.695312500000, 1491906751
0.081787109375, -0.943847656250, 0.303710937500, 0.554687500000, -0.351562500000, -3.695312500000, 1491906751
0.081787109375, -0.943847656250, 0.303710937500, 0.554687500000, -0.351562500000, -3.695312500000, 1491906751
-0.078125000000, -0.844238281250, 0.449707031250, -4.046875000000, 0.914062500000, -3.148437500000, 1491906751
-0.078125000000, -0.844238281250, 0.449707031250, -4.046875000000, 0.914062500000, -3.148437500000, 1491906751
-0.078125000000, -0.844238281250, 0.449707031250, -4.046875000000, 0.914062500000, -3.148437500000, 1491906751
-0.078125000000, -0.844238281250, 0.449707031250, -4.046875000000, 0.914062500000, -3.148437500000, 1491906751
-0.066894531250, -0.951171875000, 0.307617187500, -3.039062500000, -2.125000000000, -6.257812500000, 1491906751
-0.066894531250, -0.951171875000, 0.307617187500, -3.039062500000, -2.125000000000, -6.257812500000, 1491906751
-0.066894531250, -0.951171875000, 0.307617187500, -3.039062500000, -2.125000000000, -6.257812500000, 1491906751
-0.036376953125, -0.853759765625, 0.322753906250, -1.203125000000, -2.476562500000, -1.156250000000, 1491906751
0.029296875000, -1.003906250000, 0.351562500000, -4.335937500000, 0.812500000000, -4.406250000000, 1491906751
0.077636718750, -0.861083984375, 0.348388671875, -4.164062500000, 0.179687500000, -9.023437500000, 1491906751
0.077636718750, -0.861083984375, 0.348388671875, -4.164062500000, 0.179687500000, -9.023437500000, 1491906751
0.077636718750, -0.861083984375, 0.348388671875, -4.164062500000, 0.179687500000, -9.023437500000, 1491906751
0.077636718750, -0.861083984375, 0.348388671875, -4.164062500000, 0.179687500000, -9.023437500000, 1491906751
-0.008544921875, -0.953369140625, 0.310791015625, -4.390625000000, -2.453125000000, -6.906250000000, 1491906751
-0.008544921875, -0.953369140625, 0.310791015625, -4.390625000000, -2.453125000000, -6.906250000000, 1491906751
-0.008544921875, -0.953369140625, 0.310791015625, -4.390625000000, -2.453125000000, -6.906250000000, 1491906751
-0.008544921875, -0.953369140625, 0.310791015625, -4.390625000000, -2.453125000000, -6.906250000000, 1491906751
-0.008544921875, -0.953369140625, 0.310791015625, -4.390625000000, -2.453125000000, -6.906250000000, 1491906751
0.079345703125, -1.002441406250, 0.323974609375, 0.210937500000, -2.453125000000, -3.687500000000, 1491906751
0.079345703125, -1.002441406250, 0.323974609375, 0.210937500000, -2.453125000000, -3.687500000000, 1491906751
0.079345703125, -1.002441406250, 0.323974609375, 0.210937500000, -2.453125000000, -3.687500000000, 1491906751
0.079345703125, -1.002441406250, 0.323974609375, 0.210937500000, -2.453125000000, -3.687500000000, 1491906751
0.079345703125, -1.002441406250, 0.323974609375, 0.210937500000, -2.453125000000, -3.687500000000, 1491906751
-0.018798828125, -0.939453125000, 0.310546875000, -4.296875000000, -4.265625000000, -1.906250000000, 1491906751
0.051025390625, -1.021728515625, 0.383789062500, -2.750000000000, 0.085937500000, -2.843750000000, 1491906751
0.051025390625, -1.021728515625, 0.383789062500, -2.750000000000, 0.085937500000, -2.843750000000, 1491906751
0.051025390625, -1.021728515625, 0.383789062500, -2.750000000000, 0.085937500000, -2.843750000000, 1491906751
0.051025390625, -1.021728515625, 0.383789062500, -2.750000000000, 0.085937500000, -2.843750000000, 1491906751
0.028564453125, -0.970214843750, 0.405761718750, 0.132812500000, 1.218750000000, -4.242187500000, 1491906751
0.028564453125, -0.970214843750, 0.405761718750, 0.132812500000, 1.218750000000, -4.242187500000, 1491906751
0.028564453125, -0.970214843750, 0.405761718750, 0.132812500000, 1.218750000000, -4.242187500000, 1491906751
0.028564453125, -0.970214843750, 0.405761718750, 0.132812500000, 1.218750000000, -4.242187500000, 1491906751
0.028564453125, -0.970214843750, 0.405761718750, 0.132812500000, 1.218750000000, -4.242187500000, 1491906751
-0.006103515625, -1.062988281250, 0.398437500000, -1.539062500000, -0.914062500000, -4.359375000000, 1491906751
-0.006103515625, -1.062988281250, 0.398437500000, -1.539062500000, -0.914062500000, -4.359375000000, 1491906751
-0.006103515625, -1.062988281250, 0.398437500000, -1.539062500000, -0.914062500000, -4.359375000000, 1491906751
-0.083251953125, -0.942626953125, 0.439208984375, 0.593750000000, 1.179687500000, -2.195312500000, 1491906751
-0.083251953125, -0.942626953125, 0.439208984375, 0.593750000000, 1.179687500000, -2.195312500000, 1491906751
-0.083251953125, -0.942626953125, 0.439208984375, 0.593750000000, 1.179687500000, -2.195312500000, 1491906751
-0.083251953125, -0.942626953125, 0.439208984375, 0.593750000000, 1.179687500000, -2.195312500000, 1491906751
-0.125244140625, -0.925292968750, 0.325683593750, 0.117187500000, 4.492187500000, 0.843750000000, 1491906751
0.073730468750, -0.928466796875, 0.390380859375, -1.343750000000, 4.968750000000, -2.921875000000, 1491906751
0.073730468750, -0.928466796875, 0.390380859375, -1.343750000000, 4.968750000000, -2.921875000000, 1491906752
0.073730468750, -0.928466796875, 0.390380859375, -1.343750000000, 4.968750000000, -2.921875000000, 1491906752
0.073730468750, -0.928466796875, 0.390380859375, -1.343750000000, 4.968750000000, -2.921875000000, 1491906752
0.024658203125, -0.958496093750, 0.380126953125, -3.875000000000, 2.640625000000, -2.320312500000, 1491906752
0.024658203125, -0.958496093750, 0.380126953125, -3.875000000000, 2.640625000000, -2.320312500000, 1491906752
0.024658203125, -0.958496093750, 0.380126953125, -3.875000000000, 2.640625000000, -2.320312500000, 1491906752
0.024658203125, -0.958496093750, 0.380126953125, -3.875000000000, 2.640625000000, -2.320312500000, 1491906752
-0.088378906250, -0.914550781250, 0.380615234375, -4.320312500000, 2.742187500000, -2.664062500000, 1491906752
-0.088378906250, -0.914550781250, 0.380615234375, -4.320312500000, 2.742187500000, -2.664062500000, 1491906752
-0.066406250000, -0.972900390625, 0.290527343750, -1.156250000000, 1.539062500000, 0.148437500000, 1491906752
0.008789062500, -0.984375000000, 0.293212890625, -4.835937500000, 2.164062500000, -2.843750000000, 1491906752
0.008789062500, -0.984375000000, 0.293212890625, -4.835937500000, 2.164062500000, -2.843750000000, 1491906752
0.008789062500, -0.984375000000, 0.293212890625, -4.835937500000, 2.164062500000, -2.843750000000, 1491906752
-0.019042968750, -0.981933593750, 0.310058593750, -4.578125000000, 2.539062500000, -1.242187500000, 1491906752
-0.019042968750, -0.981933593750, 0.310058593750, -4.578125000000, 2.539062500000, -1.242187500000, 1491906752
-0.019042968750, -0.981933593750, 0.310058593750, -4.578125000000, 2.539062500000, -1.242187500000, 1491906752
-0.019042968750, -0.981933593750, 0.310058593750, -4.578125000000, 2.539062500000, -1.242187500000, 1491906752
-0.019042968750, -0.981933593750, 0.310058593750, -4.578125000000, 2.539062500000, -1.242187500000, 1491906752
-0.019042968750, -0.981933593750, 0.310058593750, -4.578125000000, 2.539062500000, -1.242187500000, 1491906752
0.008544921875, -1.004638671875, 0.307128906250, -4.703125000000, 2.250000000000, -1.046875000000, 1491906752
0.008544921875, -1.004638671875, 0.307128906250, -4.703125000000, 2.250000000000, -1.046875000000, 1491906752
0.008544921875, -1.004638671875, 0.307128906250, -4.703125000000, 2.250000000000, -1.046875000000, 1491906752
-0.057128906250, -0.992187500000, 0.321044921875, -3.039062500000, 1.562500000000, -4.390625000000, 1491906752
-0.057128906250, -0.992187500000, 0.321044921875, -3.039062500000, 1.562500000000, -4.390625000000, 1491906752
-0.057128906250, -0.992187500000, 0.321044921875, -3.039062500000, 1.562500000000, -4.390625000000, 1491906752
-0.057128906250, -0.992187500000, 0.321044921875, -3.039062500000, 1.562500000000, -4.390625000000, 1491906752
-0.057128906250, -0.992187500000, 0.321044921875, -3.039062500000, 1.562500000000, -4.390625000000, 1491906752
0.089599609375, -0.989746093750, 0.221923828125, -4.765625000000, 2.648437500000, -0.414062500000, 1491906752
0.089599609375, -0.989746093750, 0.221923828125, -4.765625000000, 2.648437500000, -0.414062500000, 1491906752
-0.069091796875, -0.857910156250, 0.316650390625, -4.523437500000, -1.382812500000, -2.234375000000, 1491906752
-0.069091796875, -0.857910156250, 0.316650390625, -4.523437500000, -1.382812500000, -2.234375000000, 1491906752
-0.069091796875, -0.857910156250, 0.316650390625, -4.523437500000, -1.382812500000, -2.234375000000, 1491906752
-0.069091796875, -0.857910156250, 0.316650390625, -4.523437500000, -1.382812500000, -2.234375000000, 1491906752
-0.051025390625, -0.927734375000, 0.297119140625, -2.750000000000, 2.562500000000, -0.546875000000, 1491906752
-0.051025390625, -0.927734375000, 0.297119140625, -2.750000000000, 2.562500000000, -0.546875000000, 1491906752
0.008056640625, -1.024902343750, 0.296875000000, -4.148437500000, -2.250000000000, -1.914062500000, 1491906752
0.008056640625, -1.024902343750, 0.296875000000, -4.148437500000, -2.250000000000, -1.914062500000, 1491906752
0.008056640625, -1.024902343750, 0.296875000000, -4.148437500000, -2.250000000000, -1.914062500000, 1491906752
0.008056640625, -1.024902343750, 0.296875000000, -4.148437500000, -2.250000000000, -1.914062500000, 1491906752
0.008056640625, -1.024902343750, 0.296875000000, -4.148437500000, -2.250000000000, -1.914062500000, 1491906752
-0.075195312500, -1.019287109375, 0.285888671875, -3.242187500000, 2.242187500000, -3.585937500000, 1491906752
-0.075195312500, -1.019287109375, 0.285888671875, -3.242187500000, 2.242187500000, -3.585937500000, 1491906752
-0.075195312500, -1.019287109375, 0.285888671875, -3.242187500000, 2.242187500000, -3.585937500000, 1491906752
-0.075195312500, -1.019287109375, 0.285888671875, -3.242187500000, 2.242187500000, -3.585937500000, 1491906752
0.029785156250, -0.968505859375, 0.287597656250, -3.312500000000, -2.406250000000, -0.125000000000, 1491906752
-0.029052734375, -0.898681640625, 0.287109375000, -4.976562500000, 4.617187500000, -2.054687500000, 1491906752
-0.029052734375, -0.898681640625, 0.287109375000, -4.976562500000, 4.617187500000, -2.054687500000, 1491906752
-0.005859375000, -1.031005859375, 0.287841796875, -4.140625000000, 1.539062500000, -1.132812500000, 1491906752
-0.005859375000, -1.031005859375, 0.287841796875, -4.140625000000, 1.539062500000, -1.132812500000, 1491906752
-0.005859375000, -1.031005859375, 0.287841796875, -4.140625000000, 1.539062500000, -1.132812500000, 1491906752
-0.005859375000, -1.031005859375, 0.287841796875, -4.140625000000, 1.539062500000, -1.132812500000, 1491906752
-0.086914062500, -1.004150390625, 0.335693359375, -4.109375000000, -0.304687500000, -1.312500000000, 1491906752
-0.049072265625, -0.927978515625, 0.392333984375, -6.421875000000, 0.492187500000, -3.523437500000, 1491906752
-0.049072265625, -0.927978515625, 0.392333984375, -6.421875000000, 0.492187500000, -3.523437500000, 1491906752
-0.049072265625, -0.927978515625, 0.392333984375, -6.421875000000, 0.492187500000, -3.523437500000, 1491906752
-0.049072265625, -0.927978515625, 0.392333984375, -6.421875000000, 0.492187500000, -3.523437500000, 1491906752
-0.014404296875, -0.933837890625, 0.312011718750, -8.328125000000, -0.531250000000, 0.132812500000, 1491906752
-0.014404296875, -0.933837890625, 0.312011718750, -8.328125000000, -0.531250000000, 0.132812500000, 1491906752
-0.014404296875, -0.933837890625, 0.312011718750, -8.328125000000, -0.531250000000, 0.132812500000, 1491906752
-0.014404296875, -0.933837890625, 0.312011718750, -8.328125000000, -0.531250000000, 0.132812500000, 1491906752
-0.014404296875, -0.933837890625, 0.312011718750, -8.328125000000, -0.531250000000, 0.132812500000, 1491906752
-0.014404296875, -0.933837890625, 0.312011718750, -8.328125000000, -0.531250000000, 0.132812500000, 1491906752
-0.063232421875, -1.023681640625, 0.285888671875, -4.156250000000, 2.773437500000, -2.203125000000, 1491906752
-0.063232421875, -1.023681640625, 0.285888671875, -4.156250000000, 2.773437500000, -2.203125000000, 1491906752
-0.063232421875, -1.023681640625, 0.285888671875, -4.156250000000, 2.773437500000, -2.203125000000, 1491906752
-0.063232421875, -1.023681640625, 0.285888671875, -4.156250000000, 2.773437500000, -2.203125000000, 1491906752
0.001464843750, -1.010253906250, 0.294921875000, -4.906250000000, -2.890625000000, 0.734375000000, 1491906752
0.001464843750, -1.010253906250, 0.294921875000, -4.906250000000, -2.890625000000, 0.734375000000, 1491906752
0.001464843750, -1.010253906250, 0.294921875000, -4.906250000000, -2.890625000000, 0.734375000000, 1491906752
0.011718750000, -1.017333984375, 0.297851562500, -6.500000000000, -1.546875000000, -2.484375000000, 1491906753
0.011718750000, -1.017333984375, 0.297851562500, -6.500000000000, -1.546875000000, -2.484375000000, 1491906753
0.011718750000, -1.017333984375, 0.297851562500, -6.500000000000, -1.546875000000, -2.484375000000, 1491906753
0.011718750000, -1.017333984375, 0.297851562500, -6.500000000000, -1.546875000000, -2.484375000000, 1491906753
0.011718750000, -1.017333984375, 0.297851562500, -6.500000000000, -1.546875000000, -2.484375000000, 1491906753
0.011718750000, -1.017333984375, 0.297851562500, -6.500000000000, -1.546875000000, -2.484375000000, 1491906753
0.003173828125, -0.977294921875, 0.397460937500, -8.835937500000, -2.257812500000, 0.539062500000, 1491906753
0.003173828125, -0.977294921875, 0.397460937500, -8.835937500000, -2.257812500000, 0.539062500000, 1491906753
0.003173828125, -0.977294921875, 0.397460937500, -8.835937500000, -2.257812500000, 0.539062500000, 1491906753
0.003173828125, -0.977294921875, 0.397460937500, -8.835937500000, -2.257812500000, 0.539062500000, 1491906753
0.121826171875, -0.938232421875, 0.289306640625, -2.867187500000, 1.500000000000, 1.617187500000, 1491906753
0.121826171875, -0.938232421875, 0.289306640625, -2.867187500000, 1.500000000000, 1.617187500000, 1491906753
0.121826171875, -0.938232421875, 0.289306640625, -2.867187500000, 1.500000000000, 1.617187500000, 1491906753
0.032226562500, -0.972900390625, 0.375244140625, -6.414062500000, -0.742187500000, -0.429687500000, 1491906753
0.032226562500, -0.972900390625, 0.375244140625, -6.414062500000, -0.742187500000, -0.429687500000, 1491906753
0.032226562500, -0.972900390625, 0.375244140625, -6.414062500000, -0.742187500000, -0.429687500000, 1491906753
0.041992187500, -0.935302734375, 0.316406250000, -6.617187500000, 1.953125000000, -1.273437500000, 1491906753
0.029541015625, -0.909179687500, 0.379882812500, -3.429687500000, 4.335937500000, -2.742187500000, 1491906753
0.029541015625, -0.909179687500, 0.379882812500, -3.429687500000, 4.335937500000, -2.742187500000, 1491906753
0.029541015625, -0.909179687500, 0.379882812500, -3.429687500000, 4.335937500000, -2.742187500000, 1491906753
0.088134765625, -0.911132812500, 0.299316406250, -4.117187500000, 3.421875000000, -0.039062500000, 1491906753
0.088134765625, -0.911132812500, 0.299316406250, -4.117187500000, 3.421875000000, -0.039062500000, 1491906753
0.088134765625, -0.911132812500, 0.299316406250, -4.117187500000, 3.421875000000, -0.039062500000, 1491906753
