ACC_X,ACC_Y,ACC_Z,G_X,G_Y,G_Z,Unix Time
-0.324951171875, -0.413574218750, -0.861083984375, -36.187500000000, 56.492187500000, 55.257812500000, 1491905614
-0.324951171875, -0.413574218750, -0.861083984375, -36.187500000000, 56.492187500000, 55.257812500000, 1491905614
-0.324951171875, -0.413574218750, -0.861083984375, -36.187500000000, 56.492187500000, 55.257812500000, 1491905614
-0.077392578125, -0.699951171875, -0.911132812500, 5.757812500000, -9.679687500000, -4.281250000000, 1491905614
-0.077392578125, -0.699951171875, -0.911132812500, 5.757812500000, -9.679687500000, -4.281250000000, 1491905614
-0.077392578125, -0.699951171875, -0.911132812500, 5.757812500000, -9.679687500000, -4.281250000000, 1491905614
-0.077392578125, -0.699951171875, -0.911132812500, 5.757812500000, -9.679687500000, -4.281250000000, 1491905614
-0.115966796875, -0.477783203125, -0.765625000000, 3.578125000000, -6.289062500000, 6.562500000000, 1491905614
-0.115966796875, -0.477783203125, -0.765625000000, 3.578125000000, -6.289062500000, 6.562500000000, 1491905614
-0.115966796875, -0.477783203125, -0.765625000000, 3.578125000000, -6.289062500000, 6.562500000000, 1491905614
-0.036132812500, -0.632568359375, -0.817138671875, -8.343750000000, 13.843750000000, 20.343750000000, 1491905614
-0.036132812500, -0.632568359375, -0.817138671875, -8.343750000000, 13.843750000000, 20.343750000000, 1491905614
-0.036132812500, -0.632568359375, -0.817138671875, -8.343750000000, 13.843750000000, 20.343750000000, 1491905614
-0.021240234375, -0.616943359375, -0.841796875000, 3.140625000000, 8.742187500000, 14.578125000000, 1491905614
-0.021240234375, -0.616943359375, -0.841796875000, 3.140625000000, 8.742187500000, 14.578125000000, 1491905614
0.022460937500, -0.614990234375, -0.747314453125, -7.281250000000, 35.851562500000, 19.195312500000, 1491905614
0.022460937500, -0.614990234375, -0.747314453125, -7.281250000000, 35.851562500000, 19.195312500000, 1491905614
0.022460937500, -0.614990234375, -0.747314453125, -7.281250000000, 35.851562500000, 19.195312500000, 1491905614
0.067626953125, -0.635742187500, -0.805175781250, -4.171875000000, 31.234375000000, 37.117187500000, 1491905614
0.067626953125, -0.635742187500, -0.805175781250, -4.171875000000, 31.234375000000, 37.117187500000, 1491905614
0.067626953125, -0.635742187500, -0.805175781250, -4.171875000000, 31.234375000000, 37.117187500000, 1491905614
0.067626953125, -0.635742187500, -0.805175781250, -4.171875000000, 31.234375000000, 37.117187500000, 1491905614
0.090576171875, -0.514404296875, -0.740478515625, -0.234375000000, 16.585937500000, 46.343750000000, 1491905614
0.069824218750, -0.582031250000, -0.747314453125, -0.234375000000, 16.585937500000, 46.343750000000, 1491905614
0.069824218750, -0.582031250000, -0.747314453125, -0.234375000000, 16.585937500000, 46.343750000000, 1491905614
0.069824218750, -0.582031250000, -0.747314453125, -0.234375000000, 16.585937500000, 46.343750000000, 1491905614
0.045654296875, -0.591308593750, -0.770019531250, -5.132812500000, 22.828125000000, 48.406250000000, 1491905614
0.048828125000, -0.477050781250, -0.876220703125, 5.257812500000, 23.984375000000, 23.273437500000, 1491905614
0.048828125000, -0.477050781250, -0.876220703125, 5.257812500000, 23.984375000000, 23.273437500000, 1491905614
0.048828125000, -0.477050781250, -0.876220703125, 5.257812500000, 23.984375000000, 23.273437500000, 1491905614
0.048828125000, -0.477050781250, -0.876220703125, 5.257812500000, 23.984375000000, 23.273437500000, 1491905614
0.048828125000, -0.477050781250, -0.876220703125, 5.257812500000, 23.984375000000, 23.273437500000, 1491905614
0.102539062500, -0.543457031250, -0.830566406250, 6.968750000000, 20.781250000000, 25.945312500000, 1491905614
0.102539062500, -0.543457031250, -0.830566406250, 6.968750000000, 20.781250000000, 25.945312500000, 1491905614
0.102539062500, -0.543457031250, -0.830566406250, 6.968750000000, 20.781250000000, 25.945312500000, 1491905614
0.102539062500, -0.543457031250, -0.830566406250, 6.968750000000, 20.781250000000, 25.945312500000, 1491905614
0.229003906250, -0.583496093750, -0.820556640625, 5.007812500000, 15.117187500000, 23.242187500000, 1491905614
0.229003906250, -0.583496093750, -0.820556640625, 5.007812500000, 15.117187500000, 23.242187500000, 1491905614
0.170166015625, -0.492919921875, -0.718994140625, -8.109375000000, 5.656250000000, 12.281250000000, 1491905614
0.170166015625, -0.492919921875, -0.718994140625, -8.109375000000, 5.656250000000, 12.281250000000, 1491905614
0.170166015625, -0.492919921875, -0.718994140625, -8.109375000000, 5.656250000000, 12.281250000000, 1491905614
0.170166015625, -0.492919921875, -0.718994140625, -8.109375000000, 5.656250000000, 12.281250000000, 1491905614
0.170166015625, -0.492919921875, -0.718994140625, -8.109375000000, 5.656250000000, 12.281250000000, 1491905614
0.335937500000, -0.549316406250, -0.881835937500, -12.398437500000, 4.320312500000, 0.695312500000, 1491905614
0.335937500000, -0.549316406250, -0.881835937500, -12.398437500000, 4.320312500000, 0.695312500000, 1491905614
0.335937500000, -0.549316406250, -0.881835937500, -12.398437500000, 4.320312500000, 0.695312500000, 1491905614
0.176757812500, -0.585449218750, -0.720947265625, -5.976562500000, 5.609375000000, 1.929687500000, 1491905614
0.176757812500, -0.585449218750, -0.720947265625, -5.976562500000, 5.609375000000, 1.929687500000, 1491905614
0.176757812500, -0.585449218750, -0.720947265625, -5.976562500000, 5.609375000000, 1.929687500000, 1491905614
0.213867187500, -0.571533203125, -0.756835937500, -6.328125000000, 12.601562500000, 4.828125000000, 1491905614
0.213867187500, -0.571533203125, -0.756835937500, -6.328125000000, 12.601562500000, 4.828125000000, 1491905614
0.213867187500, -0.571533203125, -0.756835937500, -6.328125000000, 12.601562500000, 4.828125000000, 1491905614
0.163818359375, -0.580810546875, -0.820068359375, -8.914062500000, 14.289062500000, 1.828125000000, 1491905614
0.163818359375, -0.580810546875, -0.820068359375, -8.914062500000, 14.289062500000, 1.828125000000, 1491905614
0.318847656250, -0.544921875000, -0.802490234375, -6.445312500000, 5.359375000000, -2.054687500000, 1491905614
0.318847656250, -0.544921875000, -0.802490234375, -6.445312500000, 5.359375000000, -2.054687500000, 1491905615
0.318847656250, -0.544921875000, -0.802490234375, -6.445312500000, 5.359375000000, -2.054687500000, 1491905615
0.318847656250, -0.544921875000, -0.802490234375, -6.445312500000, 5.359375000000, -2.054687500000, 1491905615
0.179443359375, -0.491943359375, -0.739257812500, -7.289062500000, 7.117187500000, 0.359375000000, 1491905615
0.179443359375, -0.491943359375, -0.739257812500, -7.289062500000, 7.117187500000, 0.359375000000, 1491905615
0.271972656250, -0.517333984375, -0.770751953125, -6.398437500000, 7.484375000000, 2.312500000000, 1491905615
0.271972656250, -0.517333984375, -0.770751953125, -6.398437500000, 7.484375000000, 2.312500000000, 1491905615
0.271972656250, -0.517333984375, -0.770751953125, -6.398437500000, 7.484375000000, 2.312500000000, 1491905615
0.271972656250, -0.517333984375, -0.770751953125, -6.398437500000, 7.484375000000, 2.312500000000, 1491905615
0.271972656250, -0.517333984375, -0.770751953125, -6.398437500000, 7.484375000000, 2.312500000000, 1491905615
0.271972656250, -0.517333984375, -0.770751953125, -6.398437500000, 7.484375000000, 2.312500000000, 1491905615
0.271972656250, -0.517333984375, -0.770751953125, -6.398437500000, 7.484375000000, 2.312500000000, 1491905615
0.266601562500, -0.535400390625, -0.814941406250, -3.164062500000, 4.421875000000, 0.812500000000, 1491905615
0.375976562500, -0.583740234375, -0.839599609375, -3.164062500000, 4.421875000000, 0.812500000000, 1491905615
0.375976562500, -0.583740234375, -0.839599609375, -3.164062500000, 4.421875000000, 0.812500000000, 1491905615
0.375976562500, -0.583740234375, -0.839599609375, -3.164062500000, 4.421875000000, 0.812500000000, 1491905615
0.375976562500, -0.583740234375, -0.839599609375, -3.164062500000, 4.421875000000, 0.812500000000, 1491905615
0.328369140625, -0.490478515625, -0.784912109375, 2.546875000000, -2.789062500000, -1.945312500000, 1491905615
0.328369140625, -0.490478515625, -0.784912109375, 2.546875000000, -2.789062500000, -1.945312500000, 1491905615
0.328369140625, -0.490478515625, -0.784912109375, 2.546875000000, -2.789062500000, -1.945312500000, 1491905615
0.340087890625, -0.539062500000, -0.813232421875, 9.609375000000, -8.101562500000, -2.937500000000, 1491905615
0.340087890625, -0.539062500000, -0.813232421875, 9.609375000000, -8.101562500000, -2.937500000000, 1491905615
0.340087890625, -0.539062500000, -0.813232421875, 9.609375000000, -8.101562500000, -2.937500000000, 1491905615
0.269531250000, -0.490478515625, -0.749755859375, 3.328125000000, -12.914062500000, -1.289062500000, 1491905615
0.269531250000, -0.490478515625, -0.749755859375, 3.328125000000, -12.914062500000, -1.289062500000, 1491905615
0.269531250000, -0.490478515625, -0.749755859375, 3.328125000000, -12.914062500000, -1.289062500000, 1491905615
0.227539062500, -0.485351562500, -0.848632812500, -0.429687500000, -7.742187500000, -3.429687500000, 1491905615
0.227539062500, -0.485351562500, -0.848632812500, -0.429687500000, -7.742187500000, -3.429687500000, 1491905615
0.227539062500, -0.485351562500, -0.848632812500, -0.429687500000, -7.742187500000, -3.429687500000, 1491905615
0.227539062500, -0.485351562500, -0.848632812500, -0.429687500000, -7.742187500000, -3.429687500000, 1491905615
0.232177734375, -0.578613281250, -0.792236328125, 10.601562500000, -26.304687500000, -6.500000000000, 1491905615
0.232177734375, -0.578613281250, -0.792236328125, 10.601562500000, -26.304687500000, -6.500000000000, 1491905615
0.236816406250, -0.406494140625, -0.785644531250, 2.179687500000, -17.648437500000, 0.382812500000, 1491905615
0.236816406250, -0.406494140625, -0.785644531250, 2.179687500000, -17.648437500000, 0.382812500000, 1491905615
0.236816406250, -0.406494140625, -0.785644531250, 2.179687500000, -17.648437500000, 0.382812500000, 1491905615
0.236816406250, -0.406494140625, -0.785644531250, 2.179687500000, -17.648437500000, 0.382812500000, 1491905615
0.227050781250, -0.481201171875, -0.789306640625, 2.171875000000, -11.453125000000, 2.210937500000, 1491905615
0.227050781250, -0.481201171875, -0.789306640625, 2.171875000000, -11.453125000000, 2.210937500000, 1491905615
0.227050781250, -0.481201171875, -0.789306640625, 2.171875000000, -11.453125000000, 2.210937500000, 1491905615
0.165039062500, -0.536376953125, -0.812500000000, 4.773437500000, -7.320312500000, -2.210937500000, 1491905615
0.165039062500, -0.536376953125, -0.812500000000, 4.773437500000, -7.320312500000, -2.210937500000, 1491905615
0.165039062500, -0.536376953125, -0.812500000000, 4.773437500000, -7.320312500000, -2.210937500000, 1491905615
0.165039062500, -0.536376953125, -0.812500000000, 4.773437500000, -7.320312500000, -2.210937500000, 1491905615
0.192138671875, -0.441162109375, -0.819335937500, 8.664062500000, -20.882812500000, -6.578125000000, 1491905615
0.192138671875, -0.441162109375, -0.819335937500, 8.664062500000, -20.882812500000, -6.578125000000, 1491905615
0.107666015625, -0.430664062500, -0.832763671875, -3.500000000000, -9.523437500000, -2.757812500000, 1491905615
0.107666015625, -0.430664062500, -0.832763671875, -3.500000000000, -9.523437500000, -2.757812500000, 1491905615
0.107666015625, -0.430664062500, -0.832763671875, -3.500000000000, -9.523437500000, -2.757812500000, 1491905615
0.192626953125, -0.420410156250, -0.794921875000, -8.812500000000, -2.476562500000, -1.054687500000, 1491905615
0.192626953125, -0.420410156250, -0.794921875000, -8.812500000000, -2.476562500000, -1.054687500000, 1491905615
0.054199218750, -0.418212890625, -0.745117187500, -5.367187500000, -2.585937500000, -2.609375000000, 1491905615
0.054199218750, -0.418212890625, -0.745117187500, -5.367187500000, -2.585937500000, -2.609375000000, 1491905615
0.054199218750, -0.418212890625, -0.745117187500, -5.367187500000, -2.585937500000, -2.609375000000, 1491905615
0.054199218750, -0.418212890625, -0.745117187500, -5.367187500000, -2.585937500000, -2.609375000000, 1491905615
0.217285156250, -0.574218750000, -0.859619140625, 1.234375000000, -0.890625000000, -22.773437500000, 1491905615
0.217285156250, -0.574218750000, -0.859619140625, 1.234375000000, -0.890625000000, -22.773437500000, 1491905615
0.217285156250, -0.574218750000, -0.859619140625, 1.234375000000, -0.890625000000, -22.773437500000, 1491905615
0.217285156250, -0.574218750000, -0.859619140625, 1.234375000000, -0.890625000000, -22.773437500000, 1491905615
0.217285156250, -0.574218750000, -0.859619140625, 1.234375000000, -0.890625000000, -22.773437500000, 1491905615
0.266845703125, -0.480957031250, -0.842285156250, -5.765625000000, 3.890625000000, -26.617187500000, 1491905615
0.266845703125, -0.480957031250, -0.842285156250, -5.765625000000, 3.890625000000, -26.617187500000, 1491905615
0.266845703125, -0.480957031250, -0.842285156250, -5.765625000000, 3.890625000000, -26.617187500000, 1491905615
0.266845703125, -0.423583984375, -0.886230468750, -9.796875000000, -3.500000000000, -29.179687500000, 1491905615
0.106689453125, -0.547607421875, -0.881103515625, -18.437500000000, -24.382812500000, 0.531250000000, 1491905615
0.106689453125, -0.547607421875, -0.881103515625, -18.437500000000, -24.382812500000, 0.531250000000, 1491905615
0.106689453125, -0.547607421875, -0.881103515625, -18.437500000000, -24.382812500000, 0.531250000000, 1491905615
0.106689453125, -0.547607421875, -0.881103515625, -18.437500000000, -24.382812500000, 0.531250000000, 1491905615
0.106689453125, -0.547607421875, -0.881103515625, -18.437500000000, -24.382812500000, 0.531250000000, 1491905615
0.106689453125, -0.547607421875, -0.881103515625, -18.437500000000, -24.382812500000, 0.531250000000, 1491905615
0.126220703125, -0.562011718750, -0.739013671875, -25.789062500000, -12.992187500000, -5.125000000000, 1491905615
0.126220703125, -0.562011718750, -0.739013671875, -25.789062500000, -12.992187500000, -5.125000000000, 1491905615
0.126220703125, -0.562011718750, -0.739013671875, -25.789062500000, -12.992187500000, -5.125000000000, 1491905615
0.145751953125, -0.634765625000, -0.767578125000, -46.328125000000, -14.250000000000, -7.109375000000, 1491905616
0.145751953125, -0.634765625000, -0.767578125000, -46.328125000000, -14.250000000000, -7.109375000000, 1491905616
0.145751953125, -0.634765625000, -0.767578125000, -46.328125000000, -14.250000000000, -7.109375000000, 1491905616
0.060302734375, -0.706298828125, -0.728271484375, -66.687500000000, -22.164062500000, -20.585937500000, 1491905616
0.060302734375, -0.706298828125, -0.728271484375, -66.687500000000, -22.164062500000, -20.585937500000, 1491905616
0.060302734375, -0.706298828125, -0.728271484375, -66.687500000000, -22.164062500000, -20.585937500000, 1491905616
0.140625000000, -0.643554687500, -0.676025390625, -88.507812500000, -25.398437500000, -2.843750000000, 1491905616
0.126708984375, -0.714111328125, -0.775634765625, -83.320312500000, -23.812500000000, -1.226562500000, 1491905616
0.126708984375, -0.714111328125, -0.775634765625, -83.320312500000, -23.812500000000, -1.226562500000, 1491905616
0.126708984375, -0.714111328125, -0.775634765625, -83.320312500000, -23.812500000000, -1.226562500000, 1491905616
0.126708984375, -0.714111328125, -0.775634765625, -83.320312500000, -23.812500000000, -1.226562500000, 1491905616
0.126708984375, -0.714111328125, -0.775634765625, -83.320312500000, -23.812500000000, -1.226562500000, 1491905616
0.126708984375, -0.714111328125, -0.775634765625, -83.320312500000, -23.812500000000, -1.226562500000, 1491905616
0.149414062500, -0.731933593750, -0.541503906250, -94.507812500000, -12.468750000000, 37.953125000000, 1491905616
0.149414062500, -0.731933593750, -0.541503906250, -94.507812500000, -12.468750000000, 37.953125000000, 1491905616
0.149414062500, -0.731933593750, -0.541503906250, -94.507812500000, -12.468750000000, 37.953125000000, 1491905616
0.149414062500, -0.731933593750, -0.541503906250, -94.507812500000, -12.468750000000, 37.953125000000, 1491905616
0.149414062500, -0.731933593750, -0.541503906250, -94.507812500000, -12.468750000000, 37.953125000000, 1491905616
0.149414062500, -0.731933593750, -0.541503906250, -94.507812500000, -12.468750000000, 37.953125000000, 1491905616
0.133789062500, -0.811523437500, -0.555664062500, -84.992187500000, 16.640625000000, 14.390625000000, 1491905616
0.133789062500, -0.811523437500, -0.555664062500, -84.992187500000, 16.640625000000, 14.390625000000, 1491905616
0.133789062500, -0.811523437500, -0.555664062500, -84.992187500000, 16.640625000000, 14.390625000000, 1491905616
0.133789062500, -0.811523437500, -0.555664062500, -84.992187500000, 16.640625000000, 14.390625000000, 1491905616
0.264160156250, -1.052001953125, -0.526611328125, -99.656250000000, -0.781250000000, -12.914062500000, 1491905616
0.036132812500, -0.856689453125, -0.390625000000, -108.273437500000, 15.304687500000, -53.898437500000, 1491905616
0.036132812500, -0.856689453125, -0.390625000000, -108.273437500000, 15.304687500000, -53.898437500000, 1491905616
0.036132812500, -0.856689453125, -0.390625000000, -108.273437500000, 15.304687500000, -53.898437500000, 1491905616
0.036132812500, -0.856689453125, -0.390625000000, -108.273437500000, 15.304687500000, -53.898437500000, 1491905616
0.043945312500, -0.958251953125, -0.361572265625, -103.726562500000, 35.171875000000, -56.703125000000, 1491905616
0.155273437500, -1.014404296875, -0.102783203125, -119.546875000000, 53.851562500000, -8.851562500000, 1491905616
0.155273437500, -1.014404296875, -0.102783203125, -119.546875000000, 53.851562500000, -8.851562500000, 1491905616
0.155273437500, -1.014404296875, -0.102783203125, -119.546875000000, 53.851562500000, -8.851562500000, 1491905616
0.155273437500, -1.014404296875, -0.102783203125, -119.546875000000, 53.851562500000, -8.851562500000, 1491905616
0.155273437500, -1.014404296875, -0.102783203125, -119.546875000000, 53.851562500000, -8.851562500000, 1491905616
0.104003906250, -1.063232421875, -0.012451171875, -129.015625000000, 44.882812500000, 10.046875000000, 1491905616
0.104003906250, -1.063232421875, -0.012451171875, -129.015625000000, 44.882812500000, 10.046875000000, 1491905616
0.104003906250, -1.063232421875, -0.012451171875, -129.015625000000, 44.882812500000, 10.046875000000, 1491905616
0.104003906250, -1.063232421875, -0.012451171875, -129.015625000000, 44.882812500000, 10.046875000000, 1491905616
0.104003906250, -1.063232421875, -0.012451171875, -129.015625000000, 44.882812500000, 10.046875000000, 1491905616
0.148437500000, -1.007324218750, 0.023193359375, -109.875000000000, 44.914062500000, 23.703125000000, 1491905616
0.148437500000, -1.007324218750, 0.023193359375, -109.875000000000, 44.914062500000, 23.703125000000, 1491905616
0.148437500000, -1.007324218750, 0.023193359375, -109.875000000000, 44.914062500000, 23.703125000000, 1491905616
0.125488281250, -0.940185546875, 0.056884765625, -106.765625000000, 48.093750000000, 21.843750000000, 1491905616
0.125488281250, -0.940185546875, 0.056884765625, -106.765625000000, 48.093750000000, 21.843750000000, 1491905616
0.125488281250, -0.940185546875, 0.056884765625, -106.765625000000, 48.093750000000, 21.843750000000, 1491905616
0.131835937500, -0.921875000000, 0.042236328125, -105.843750000000, 44.328125000000, 18.179687500000, 1491905616
0.081298828125, -0.663574218750, 0.156738281250, -104.976562500000, 30.320312500000, 24.367187500000, 1491905616
0.081298828125, -0.663574218750, 0.156738281250, -104.976562500000, 30.320312500000, 24.367187500000, 1491905616
0.081298828125, -0.663574218750, 0.156738281250, -104.976562500000, 30.320312500000, 24.367187500000, 1491905616
0.109619140625, -1.024414062500, 0.306884765625, -128.476562500000, 34.921875000000, 31.296875000000, 1491905616
0.216064453125, -0.737304687500, 0.589355468750, -123.851562500000, 44.390625000000, 53.585937500000, 1491905616
0.216064453125, -0.737304687500, 0.589355468750, -123.851562500000, 44.390625000000, 53.585937500000, 1491905616
0.216064453125, -0.737304687500, 0.589355468750, -123.851562500000, 44.390625000000, 53.585937500000, 1491905616
0.216064453125, -0.737304687500, 0.589355468750, -123.851562500000, 44.390625000000, 53.585937500000, 1491905616
0.213378906250, -0.747070312500, 0.538085937500, -134.914062500000, 38.523437500000, 64.937500000000, 1491905616
0.315429687500, -0.681396484375, 0.607177734375, -136.039062500000, 28.945312500000, 69.593750000000, 1491905616
0.315429687500, -0.681396484375, 0.607177734375, -136.039062500000, 28.945312500000, 69.593750000000, 1491905616
0.315429687500, -0.681396484375, 0.607177734375, -136.039062500000, 28.945312500000, 69.593750000000, 1491905616
0.315429687500, -0.681396484375, 0.607177734375, -136.039062500000, 28.945312500000, 69.593750000000, 1491905616
0.254394531250, -0.817382812500, 0.654785156250, -133.406250000000, 14.789062500000, 73.093750000000, 1491905616
0.234619140625, -0.549804687500, 0.763671875000, -138.335937500000, -16.742187500000, 97.179687500000, 1491905616
0.234619140625, -0.549804687500, 0.763671875000, -138.335937500000, -16.742187500000, 97.179687500000, 1491905616
0.234619140625, -0.549804687500, 0.763671875000, -138.335937500000, -16.742187500000, 97.179687500000, 1491905616
0.234619140625, -0.549804687500, 0.763671875000, -138.335937500000, -16.742187500000, 97.179687500000, 1491905616
0.234619140625, -0.549804687500, 0.763671875000, -138.335937500000, -16.742187500000, 97.179687500000, 1491905616
0.197021484375, -0.418701171875, 0.816162109375, -209.421875000000, 95.156250000000, 138.445312500000, 1491905616
0.197021484375, -0.418701171875, 0.816162109375, -209.421875000000, 95.156250000000, 138.445312500000, 1491905617
0.197021484375, -0.418701171875, 0.816162109375, -209.421875000000, 95.156250000000, 138.445312500000, 1491905617
0.237060546875, -0.325195312500, 0.842285156250, -256.000000000000, 98.617187500000, 122.093750000000, 1491905617
0.237060546875, -0.325195312500, 0.842285156250, -256.000000000000, 98.617187500000, 122.093750000000, 1491905617
0.237060546875, -0.325195312500, 0.842285156250, -256.000000000000, 98.617187500000, 122.093750000000, 1491905617
0.034667968750, 0.040527343750, 0.911132812500, -256.000000000000, 145.203125000000, 181.320312500000, 1491905617
0.034667968750, 0.040527343750, 0.911132812500, -256.000000000000, 145.203125000000, 181.320312500000, 1491905617
0.034667968750, 0.040527343750, 0.911132812500, -256.000000000000, 145.203125000000, 181.320312500000, 1491905617
0.034667968750, 0.040527343750, 0.911132812500, -256.000000000000, 145.203125000000, 181.320312500000, 1491905617
0.046386718750, 0.387939453125, 1.133789062500, -227.429687500000, 226.921875000000, 253.992187500000, 1491905617
0.046386718750, 0.387939453125, 1.133789062500, -227.429687500000, 226.921875000000, 253.992187500000, 1491905617
0.046386718750, 0.387939453125, 1.133789062500, -227.429687500000, 226.921875000000, 253.992187500000, 1491905617
0.263183593750, 0.026855468750, 0.249755859375, 253.992187500000, -221.625000000000, 182.375000000000, 1491905617
0.263183593750, 0.026855468750, 0.249755859375, 253.992187500000, -221.625000000000, 182.375000000000, 1491905617
0.263183593750, 0.026855468750, 0.249755859375, 253.992187500000, -221.625000000000, 182.375000000000, 1491905617
0.263183593750, 0.026855468750, 0.249755859375, 253.992187500000, -221.625000000000, 182.375000000000, 1491905617
0.263183593750, 0.026855468750, 0.249755859375, 253.992187500000, -221.625000000000, 182.375000000000, 1491905617
-3.313476562500, 0.080566406250, 8.000000000000, -196.335937500000, -256.000000000000, -256.000000000000, 1491905617
-3.313476562500, 0.080566406250, 8.000000000000, -196.335937500000, -256.000000000000, -256.000000000000, 1491905617
-3.313476562500, 0.080566406250, 8.000000000000, -196.335937500000, -256.000000000000, -256.000000000000, 1491905617
-3.313476562500, 0.080566406250, 8.000000000000, -196.335937500000, -256.000000000000, -256.000000000000, 1491905617
-3.313476562500, 0.080566406250, 8.000000000000, -196.335937500000, -256.000000000000, -256.000000000000, 1491905617
0.399902343750, 0.037841796875, -0.083251953125, 8.375000000000, -75.343750000000, -238.429687500000, 1491905617
0.399902343750, 0.037841796875, -0.083251953125, 8.375000000000, -75.343750000000, -238.429687500000, 1491905617
0.399902343750, 0.037841796875, -0.083251953125, 8.375000000000, -75.343750000000, -238.429687500000, 1491905617
0.574951171875, -1.003417968750, 2.137451171875, -38.492187500000, 191.156250000000, -8.234375000000, 1491905617
0.574951171875, -1.003417968750, 2.137451171875, -38.492187500000, 191.156250000000, -8.234375000000, 1491905617
0.574951171875, -1.003417968750, 2.137451171875, -38.492187500000, 191.156250000000, -8.234375000000, 1491905617
0.276123046875, -0.265869140625, 0.880371093750, -4.546875000000, 5.453125000000, -9.343750000000, 1491905617
0.276123046875, -0.265869140625, 0.880371093750, -4.546875000000, 5.453125000000, -9.343750000000, 1491905617
0.276123046875, -0.265869140625, 0.880371093750, -4.546875000000, 5.453125000000, -9.343750000000, 1491905617
0.318359375000, -0.181396484375, 1.014648437500, -0.242187500000, 5.335937500000, -2.992187500000, 1491905617
0.318359375000, -0.181396484375, 1.014648437500, -0.242187500000, 5.335937500000, -2.992187500000, 1491905617
0.318359375000, -0.181396484375, 1.014648437500, -0.242187500000, 5.335937500000, -2.992187500000, 1491905617
0.318359375000, -0.181396484375, 1.014648437500, -0.242187500000, 5.335937500000, -2.992187500000, 1491905617
0.318359375000, -0.181396484375, 1.014648437500, -0.242187500000, 5.335937500000, -2.992187500000, 1491905617
0.177490234375, -0.160400390625, 0.933105468750, 5.695312500000, 1.625000000000, -6.226562500000, 1491905617
0.177490234375, -0.160400390625, 0.933105468750, 5.695312500000, 1.625000000000, -6.226562500000, 1491905617
0.177490234375, -0.160400390625, 0.933105468750, 5.695312500000, 1.625000000000, -6.226562500000, 1491905617
0.177490234375, -0.160400390625, 0.933105468750, 5.695312500000, 1.625000000000, -6.226562500000, 1491905617
0.177490234375, -0.160400390625, 0.933105468750, 5.695312500000, 1.625000000000, -6.226562500000, 1491905617
0.222656250000, -0.096679687500, 1.017578125000, 9.656250000000, 0.343750000000, -3.554687500000, 1491905617
0.222656250000, -0.096679687500, 1.017578125000, 9.656250000000, 0.343750000000, -3.554687500000, 1491905617
0.222656250000, -0.096679687500, 1.017578125000, 9.656250000000, 0.343750000000, -3.554687500000, 1491905617
0.267089843750, -0.335205078125, 0.913085937500, 7.687500000000, -3.437500000000, -1.601562500000, 1491905617
0.267089843750, -0.335205078125, 0.913085937500, 7.687500000000, -3.437500000000, -1.601562500000, 1491905617
0.267089843750, -0.335205078125, 0.913085937500, 7.687500000000, -3.437500000000, -1.601562500000, 1491905617
0.267089843750, -0.335205078125, 0.913085937500, 7.687500000000, -3.437500000000, -1.601562500000, 1491905617
0.282470703125, -0.197265625000, 1.020751953125, 0.367187500000, -0.992187500000, -1.812500000000, 1491905617
0.282470703125, -0.197265625000, 1.020751953125, 0.367187500000, -0.992187500000, -1.812500000000, 1491905617
0.282470703125, -0.197265625000, 1.020751953125, 0.367187500000, -0.992187500000, -1.812500000000, 1491905617
0.282470703125, -0.197265625000, 1.020751953125, 0.367187500000, -0.992187500000, -1.812500000000, 1491905617
0.237792968750, -0.170654296875, 0.955078125000, -1.484375000000, 0.242187500000, -0.109375000000, 1491905617
0.285400390625, -0.257080078125, 0.937011718750, -8.359375000000, 0.148437500000, 0.414062500000, 1491905617
0.285400390625, -0.257080078125, 0.937011718750, -8.359375000000, 0.148437500000, 0.414062500000, 1491905617
0.285400390625, -0.257080078125, 0.937011718750, -8.359375000000, 0.148437500000, 0.414062500000, 1491905617
0.285400390625, -0.257080078125, 0.937011718750, -8.359375000000, 0.148437500000, 0.414062500000, 1491905617
0.271972656250, -0.216552734375, 0.927001953125, -13.085937500000, 1.343750000000, -4.734375000000, 1491905617
0.271972656250, -0.216552734375, 0.927001953125, -13.085937500000, 1.343750000000, -4.734375000000, 1491905617
0.271972656250, -0.216552734375, 0.927001953125, -13.085937500000, 1.343750000000, -4.734375000000, 1491905617
0.271972656250, -0.216552734375, 0.927001953125, -13.085937500000, 1.343750000000, -4.734375000000, 1491905617
0.299316406250, -0.263183593750, 0.981689453125, -13.054687500000, 4.281250000000, -2.937500000000, 1491905617
0.184570312500, -0.234130859375, 1.001464843750, -13.664062500000, 6.257812500000, -1.156250000000, 1491905617
0.184570312500, -0.234130859375, 1.001464843750, -13.664062500000, 6.257812500000, -1.156250000000, 1491905618
0.264160156250, -0.257080078125, 0.935302734375, -7.679687500000, 1.921875000000, 0.132812500000, 1491905618
0.264160156250, -0.257080078125, 0.935302734375, -7.679687500000, 1.921875000000, 0.132812500000, 1491905618
0.264160156250, -0.257080078125, 0.935302734375, -7.679687500000, 1.921875000000, 0.132812500000, 1491905618
0.264160156250, -0.257080078125, 0.935302734375, -7.679687500000, 1.921875000000, 0.132812500000, 1491905618
0.264160156250, -0.257080078125, 0.935302734375, -7.679687500000, 1.921875000000, 0.132812500000, 1491905618
0.264160156250, -0.257080078125, 0.935302734375, -7.679687500000, 1.921875000000, 0.132812500000, 1491905618
0.241455078125, -0.279785156250, 0.927246093750, -5.429687500000, 2.679687500000, -4.664062500000, 1491905618
0.277099609375, -0.215087890625, 0.928466796875, -5.429687500000, 2.679687500000, -4.664062500000, 1491905618
0.277099609375, -0.215087890625, 0.928466796875, -5.429687500000, 2.679687500000, -4.664062500000, 1491905618
0.277099609375, -0.215087890625, 0.928466796875, -5.429687500000, 2.679687500000, -4.664062500000, 1491905618
0.262207031250, -0.148925781250, 1.012695312500, -2.976562500000, -1.515625000000, -2.937500000000, 1491905618
0.262207031250, -0.148925781250, 1.012695312500, -2.976562500000, -1.515625000000, -2.937500000000, 1491905618
0.262207031250, -0.148925781250, 1.012695312500, -2.976562500000, -1.515625000000, -2.937500000000, 1491905618
0.308349609375, -0.162841796875, 1.017089843750, -0.406250000000, -4.031250000000, -3.562500000000, 1491905618
0.308349609375, -0.162841796875, 1.017089843750, -0.406250000000, -4.031250000000, -3.562500000000, 1491905618
0.308349609375, -0.162841796875, 1.017089843750, -0.406250000000, -4.031250000000, -3.562500000000, 1491905618
0.243652343750, -0.182617187500, 0.988525390625, -0.023437500000, 0.320312500000, -2.250000000000, 1491905618
0.243652343750, -0.182617187500, 0.988525390625, -0.023437500000, 0.320312500000, -2.250000000000, 1491905618
0.243652343750, -0.182617187500, 0.988525390625, -0.023437500000, 0.320312500000, -2.250000000000, 1491905618
0.181152343750, -0.174072265625, 1.013671875000, -4.953125000000, 0.085937500000, 0.585937500000, 1491905618
0.181152343750, -0.174072265625, 1.013671875000, -4.953125000000, 0.085937500000, 0.585937500000, 1491905618
0.181152343750, -0.174072265625, 1.013671875000, -4.953125000000, 0.085937500000, 0.585937500000, 1491905618
0.181152343750, -0.174072265625, 1.013671875000, -4.953125000000, 0.085937500000, 0.585937500000, 1491905618
0.221191406250, -0.217529296875, 0.936523437500, -4.898437500000, -0.429687500000, 0.835937500000, 1491905618
0.164306640625, -0.214843750000, 0.923095703125, -6.859375000000, -0.281250000000, -2.414062500000, 1491905618
0.164306640625, -0.214843750000, 0.923095703125, -6.859375000000, -0.281250000000, -2.414062500000, 1491905618
0.164306640625, -0.214843750000, 0.923095703125, -6.859375000000, -0.281250000000, -2.414062500000, 1491905618
0.235595703125, -0.208251953125, 1.029541015625, -6.476562500000, 2.210937500000, -1.093750000000, 1491905618
0.235595703125, -0.208251953125, 1.029541015625, -6.476562500000, 2.210937500000, -1.093750000000, 1491905618
0.220947265625, -0.170654296875, 1.015136718750, -1.960937500000, 0.640625000000, -1.750000000000, 1491905618
0.220947265625, -0.170654296875, 1.015136718750, -1.960937500000, 0.640625000000, -1.750000000000, 1491905618
0.220947265625, -0.170654296875, 1.015136718750, -1.960937500000, 0.640625000000, -1.750000000000, 1491905618
0.220947265625, -0.170654296875, 1.015136718750, -1.960937500000, 0.640625000000, -1.750000000000, 1491905618
0.341552734375, -0.317871093750, 0.962646484375, -1.476562500000, 0.953125000000, -0.625000000000, 1491905618
0.341552734375, -0.317871093750, 0.962646484375, -1.476562500000, 0.953125000000, -0.625000000000, 1491905618
0.186279296875, -0.259033203125, 1.027343750000, -6.429687500000, -0.414062500000, -3.843750000000, 1491905618
0.245849609375, -0.170166015625, 1.067626953125, -3.820312500000, -0.453125000000, -4.468750000000, 1491905618
0.245849609375, -0.170166015625, 1.067626953125, -3.820312500000, -0.453125000000, -4.468750000000, 1491905618
0.245849609375, -0.170166015625, 1.067626953125, -3.820312500000, -0.453125000000, -4.468750000000, 1491905618
0.320800781250, -0.267333984375, 0.977050781250, -6.015625000000, -0.812500000000, -2.304687500000, 1491905618
0.259765625000, -0.202880859375, 0.922851562500, -3.492187500000, -2.062500000000, -3.343750000000, 1491905618
0.259765625000, -0.202880859375, 0.922851562500, -3.492187500000, -2.062500000000, -3.343750000000, 1491905618
0.259765625000, -0.202880859375, 0.922851562500, -3.492187500000, -2.062500000000, -3.343750000000, 1491905618
0.259765625000, -0.202880859375, 0.922851562500, -3.492187500000, -2.062500000000, -3.343750000000, 1491905618
0.259765625000, -0.202880859375, 0.922851562500, -3.492187500000, -2.062500000000, -3.343750000000, 1491905618
0.259765625000, -0.202880859375, 0.922851562500, -3.492187500000, -2.062500000000, -3.343750000000, 1491905618
0.243652343750, -0.159912109375, 1.015869140625, -4.601562500000, 0.015625000000, -6.328125000000, 1491905618
0.243652343750, -0.159912109375, 1.015869140625, -4.601562500000, 0.015625000000, -6.328125000000, 1491905618
0.243652343750, -0.159912109375, 1.015869140625, -4.601562500000, 0.015625000000, -6.328125000000, 1491905618
0.243652343750, -0.159912109375, 1.015869140625, -4.601562500000, 0.015625000000, -6.328125000000, 1491905618
0.243652343750, -0.159912109375, 1.015869140625, -4.601562500000, 0.015625000000, -6.328125000000, 1491905618
0.243652343750, -0.159912109375, 1.015869140625, -4.601562500000, 0.015625000000, -6.328125000000, 1491905618
0.169433593750, -0.213867187500, 0.984619140625, -4.554687500000, -0.218750000000, -6.531250000000, 1491905618
0.171630859375, -0.054199218750, 1.030517578125, -1.953125000000, 0.359375000000, -6.187500000000, 1491905618
0.322265625000, -0.261474609375, 0.931152343750, -4.484375000000, 0.007812500000, 0.656250000000, 1491905618
0.322265625000, -0.261474609375, 0.931152343750, -4.484375000000, 0.007812500000, 0.656250000000, 1491905618
0.322265625000, -0.261474609375, 0.931152343750, -4.484375000000, 0.007812500000, 0.656250000000, 1491905618
0.322265625000, -0.261474609375, 0.931152343750, -4.484375000000, 0.007812500000, 0.656250000000, 1491905618
0.249755859375, -0.203125000000, 1.005859375000, -1.085937500000, 0.601562500000, -4.648437500000, 1491905618
0.249755859375, -0.203125000000, 1.005859375000, -1.085937500000, 0.601562500000, -4.648437500000, 1491905618
0.249755859375, -0.203125000000, 1.005859375000, -1.085937500000, 0.601562500000, -4.648437500000, 1491905618
0.289550781250, -0.183593750000, 0.976074218750, -4.453125000000, -0.453125000000, -1.570312500000, 1491905618
0.289550781250, -0.183593750000, 0.976074218750, -4.453125000000, -0.453125000000, -1.570312500000, 1491905618
0.251953125000, -0.160644531250, 1.017333984375, -1.859375000000, 0.937500000000, -4.046875000000, 1491905618
0.251953125000, -0.160644531250, 1.017333984375, -1.859375000000, 0.937500000000, -4.046875000000, 1491905618
0.251953125000, -0.160644531250, 1.017333984375, -1.859375000000, 0.937500000000, -4.046875000000, 1491905618
0.251953125000, -0.160644531250, 1.017333984375, -1.859375000000, 0.937500000000, -4.046875000000, 1491905618
0.257568359375, -0.235839843750, 1.030761718750, -2.000000000000, 0.828125000000, -4.687500000000, 1491905618
0.257568359375, -0.235839843750, 1.030761718750, -2.000000000000, 0.828125000000, -4.687500000000, 1491905619
0.257568359375, -0.235839843750, 1.030761718750, -2.000000000000, 0.828125000000, -4.687500000000, 1491905619
0.224365234375, -0.208740234375, 0.969238281250, -3.367187500000, -0.156250000000, -1.609375000000, 1491905619
0.224365234375, -0.208740234375, 0.969238281250, -3.367187500000, -0.156250000000, -1.609375000000, 1491905619
0.224365234375, -0.208740234375, 0.969238281250, -3.367187500000, -0.156250000000, -1.609375000000, 1491905619
0.224365234375, -0.208740234375, 0.969238281250, -3.367187500000, -0.156250000000, -1.609375000000, 1491905619
0.224365234375, -0.208740234375, 0.969238281250, -3.367187500000, -0.156250000000, -1.609375000000, 1491905619
0.282226562500, -0.251708984375, 0.944824218750, -3.570312500000, 2.765625000000, -4.148437500000, 1491905619
0.282226562500, -0.251708984375, 0.944824218750, -3.570312500000, 2.765625000000, -4.148437500000, 1491905619
0.282226562500, -0.251708984375, 0.944824218750, -3.570312500000, 2.765625000000, -4.148437500000, 1491905619
0.282226562500, -0.251708984375, 0.944824218750, -3.570312500000, 2.765625000000, -4.148437500000, 1491905619
0.282226562500, -0.251708984375, 0.944824218750, -3.570312500000, 2.765625000000, -4.148437500000, 1491905619
0.282226562500, -0.251708984375, 0.944824218750, -3.570312500000, 2.765625000000, -4.148437500000, 1491905619
0.315429687500, -0.213378906250, 1.010986328125, -3.039062500000, 0.867187500000, -1.500000000000, 1491905619
0.299560546875, -0.153320312500, 1.028076171875, -3.273437500000, 2.062500000000, -2.500000000000, 1491905619
0.299560546875, -0.153320312500, 1.028076171875, -3.273437500000, 2.062500000000, -2.500000000000, 1491905619
0.299560546875, -0.153320312500, 1.028076171875, -3.273437500000, 2.062500000000, -2.500000000000, 1491905619
0.299560546875, -0.153320312500, 1.028076171875, -3.273437500000, 2.062500000000, -2.500000000000, 1491905619
0.299560546875, -0.153320312500, 1.028076171875, -3.273437500000, 2.062500000000, -2.500000000000, 1491905619
0.230712890625, -0.264648437500, 0.924316406250, -3.007812500000, -1.000000000000, -2.187500000000, 1491905619
0.255615234375, -0.277343750000, 0.927001953125, -4.804687500000, 2.054687500000, -1.398437500000, 1491905619
0.255615234375, -0.277343750000, 0.927001953125, -4.804687500000, 2.054687500000, -1.398437500000, 1491905619
0.255615234375, -0.277343750000, 0.927001953125, -4.804687500000, 2.054687500000, -1.398437500000, 1491905619
0.255615234375, -0.277343750000, 0.927001953125, -4.804687500000, 2.054687500000, -1.398437500000, 1491905619
0.319335937500, -0.110351562500, 0.975585937500, -1.695312500000, 0.742187500000, -1.718750000000, 1491905619
0.319335937500, -0.110351562500, 0.975585937500, -1.695312500000, 0.742187500000, -1.718750000000, 1491905619
0.319335937500, -0.110351562500, 0.975585937500, -1.695312500000, 0.742187500000, -1.718750000000, 1491905619
0.319335937500, -0.110351562500, 0.975585937500, -1.695312500000, 0.742187500000, -1.718750000000, 1491905619
0.319335937500, -0.110351562500, 0.975585937500, -1.695312500000, 0.742187500000, -1.718750000000, 1491905619
0.319335937500, -0.110351562500, 0.975585937500, -1.695312500000, 0.742187500000, -1.718750000000, 1491905619
0.315673828125, -0.275390625000, 0.945556640625, -4.617187500000, 0.914062500000, -1.289062500000, 1491905619
0.315673828125, -0.275390625000, 0.945556640625, -4.617187500000, 0.914062500000, -1.289062500000, 1491905619
0.315673828125, -0.275390625000, 0.945556640625, -4.617187500000, 0.914062500000, -1.289062500000, 1491905619
0.280029296875, -0.267578125000, 0.937500000000, -4.781250000000, -0.546875000000, -0.875000000000, 1491905619
0.280029296875, -0.267578125000, 0.937500000000, -4.781250000000, -0.546875000000, -0.875000000000, 1491905619
0.280029296875, -0.267578125000, 0.937500000000, -4.781250000000, -0.546875000000, -0.875000000000, 1491905619
0.280029296875, -0.267578125000, 0.937500000000, -4.781250000000, -0.546875000000, -0.875000000000, 1491905619
0.280029296875, -0.267578125000, 0.937500000000, -4.781250000000, -0.546875000000, -0.875000000000, 1491905619
0.280029296875, -0.267578125000, 0.937500000000, -4.781250000000, -0.546875000000, -0.875000000000, 1491905619
0.167236328125, -0.147460937500, 1.019287109375, -3.195312500000, -0.648437500000, -4.421875000000, 1491905619
0.264404296875, -0.175781250000, 1.006347656250, -1.382812500000, -0.937500000000, -2.781250000000, 1491905619
0.264404296875, -0.175781250000, 1.006347656250, -1.382812500000, -0.937500000000, -2.781250000000, 1491905619
0.264404296875, -0.175781250000, 1.006347656250, -1.382812500000, -0.937500000000, -2.781250000000, 1491905619
0.322753906250, -0.188232421875, 0.947753906250, -4.757812500000, -0.195312500000, -1.937500000000, 1491905619
0.322753906250, -0.188232421875, 0.947753906250, -4.757812500000, -0.195312500000, -1.937500000000, 1491905619
0.322753906250, -0.188232421875, 0.947753906250, -4.757812500000, -0.195312500000, -1.937500000000, 1491905619
0.198242187500, -0.156738281250, 0.957763671875, -6.500000000000, -2.140625000000, -6.648437500000, 1491905619
0.198242187500, -0.156738281250, 0.957763671875, -6.500000000000, -2.140625000000, -6.648437500000, 1491905619
0.198242187500, -0.156738281250, 0.957763671875, -6.500000000000, -2.140625000000, -6.648437500000, 1491905619
0.312988281250, -0.215820312500, 0.929443359375, -5.000000000000, -0.734375000000, -4.242187500000, 1491905619
0.312988281250, -0.215820312500, 0.929443359375, -5.000000000000, -0.734375000000, -4.242187500000, 1491905619
0.312988281250, -0.215820312500, 0.929443359375, -5.000000000000, -0.734375000000, -4.242187500000, 1491905619
0.312988281250, -0.215820312500, 0.929443359375, -5.000000000000, -0.734375000000, -4.242187500000, 1491905619
0.231933593750, -0.178466796875, 1.003173828125, -6.625000000000, 2.164062500000, -4.820312500000, 1491905619
0.273681640625, -0.114257812500, 0.998291015625, -4.773437500000, 2.289062500000, 0.015625000000, 1491905619
0.273681640625, -0.114257812500, 0.998291015625, -4.773437500000, 2.289062500000, 0.015625000000, 1491905619
0.273681640625, -0.114257812500, 0.998291015625, -4.773437500000, 2.289062500000, 0.015625000000, 1491905619
0.273681640625, -0.114257812500, 0.998291015625, -4.773437500000, 2.289062500000, 0.015625000000, 1491905619
0.273681640625, -0.114257812500, 0.998291015625, -4.773437500000, 2.289062500000, 0.015625000000, 1491905619
0.273681640625, -0.114257812500, 0.998291015625, -4.773437500000, 2.289062500000, 0.015625000000, 1491905619
0.273681640625, -0.114257812500, 0.998291015625, -4.773437500000, 2.289062500000, 0.015625000000, 1491905619
0.273681640625, -0.114257812500, 0.998291015625, -4.773437500000, 2.289062500000, 0.015625000000, 1491905619
0.220458984375, -0.186279296875, 1.091308593750, -1.796875000000, -0.718750000000, -2.570312500000, 1491905620
0.322753906250, -0.218261718750, 0.936523437500, -3.304687500000, 0.515625000000, -0.609375000000, 1491905620
0.322753906250, -0.218261718750, 0.936523437500, -3.304687500000, 0.515625000000, -0.609375000000, 1491905620
0.262451171875, -0.204101562500, 1.027832031250, -3.859375000000, 2.515625000000, 0.851562500000, 1491905620
0.262451171875, -0.204101562500, 1.027832031250, -3.859375000000, 2.515625000000, 0.851562500000, 1491905620
0.262451171875, -0.204101562500, 1.027832031250, -3.859375000000, 2.515625000000, 0.851562500000, 1491905620
0.262451171875, -0.204101562500, 1.027832031250, -3.859375000000, 2.515625000000, 0.851562500000, 1491905620
0.262451171875, -0.204101562500, 1.027832031250, -3.859375000000, 2.515625000000, 0.851562500000, 1491905620
0.166015625000, -0.165527343750, 1.002685546875, -2.953125000000, -0.132812500000, -4.210937500000, 1491905620
0.261474609375, -0.218261718750, 0.991455078125, -5.179687500000, -0.351562500000, -3.195312500000, 1491905620
0.261474609375, -0.218261718750, 0.991455078125, -5.179687500000, -0.351562500000, -3.195312500000, 1491905620
0.261474609375, -0.218261718750, 0.991455078125, -5.179687500000, -0.351562500000, -3.195312500000, 1491905620
0.261474609375, -0.218261718750, 0.991455078125, -5.179687500000, -0.351562500000, -3.195312500000, 1491905620
0.261474609375, -0.218261718750, 0.991455078125, -5.179687500000, -0.351562500000, -3.195312500000, 1491905620
0.261474609375, -0.218261718750, 0.991455078125, -5.179687500000, -0.351562500000, -3.195312500000, 1491905620
0.275390625000, -0.178710937500, 0.960937500000, -2.843750000000, -0.679687500000, -3.179687500000, 1491905620
