ACC_X,ACC_Y,ACC_Z,G_X,G_Y,G_Z,Unix Time
0.137207031250, -0.789306640625, 0.639648437500, -2.898437500000, 8.648437500000, -8.515625000000, 1491905278
0.137207031250, -0.789306640625, 0.639648437500, -2.898437500000, 8.648437500000, -8.515625000000, 1491905278
0.198730468750, -0.830810546875, 0.537353515625, 1.593750000000, 16.781250000000, -1.960937500000, 1491905278
0.198730468750, -0.830810546875, 0.537353515625, 1.593750000000, 16.781250000000, -1.960937500000, 1491905278
0.198730468750, -0.830810546875, 0.537353515625, 1.593750000000, 16.781250000000, -1.960937500000, 1491905278
0.198730468750, -0.830810546875, 0.537353515625, 1.593750000000, 16.781250000000, -1.960937500000, 1491905278
0.085205078125, -0.738281250000, 0.477783203125, 6.351562500000, 17.117187500000, -2.570312500000, 1491905278
0.039794921875, -0.923828125000, 0.600830078125, -14.968750000000, 15.765625000000, -3.445312500000, 1491905278
-0.007324218750, -1.144531250000, 0.785644531250, -8.156250000000, 6.539062500000, -4.937500000000, 1491905278
-0.007324218750, -1.144531250000, 0.785644531250, -8.156250000000, 6.539062500000, -4.937500000000, 1491905278
-0.007324218750, -1.144531250000, 0.785644531250, -8.156250000000, 6.539062500000, -4.937500000000, 1491905278
-0.007324218750, -1.144531250000, 0.785644531250, -8.156250000000, 6.539062500000, -4.937500000000, 1491905278
-0.007324218750, -1.144531250000, 0.785644531250, -8.156250000000, 6.539062500000, -4.937500000000, 1491905278
0.049072265625, -1.191162109375, 0.547119140625, -24.210937500000, 19.492187500000, -1.546875000000, 1491905278
0.018066406250, -1.145019531250, 0.524658203125, -24.210937500000, 19.492187500000, -1.546875000000, 1491905278
0.018066406250, -1.145019531250, 0.524658203125, -24.210937500000, 19.492187500000, -1.546875000000, 1491905278
0.018066406250, -1.145019531250, 0.524658203125, -24.210937500000, 19.492187500000, -1.546875000000, 1491905278
0.018066406250, -1.145019531250, 0.524658203125, -24.210937500000, 19.492187500000, -1.546875000000, 1491905278
0.018066406250, -1.145019531250, 0.524658203125, -24.210937500000, 19.492187500000, -1.546875000000, 1491905278
-0.094970703125, -0.671386718750, 0.290527343750, -23.046875000000, -9.671875000000, -7.164062500000, 1491905278
-0.094970703125, -0.671386718750, 0.290527343750, -23.046875000000, -9.671875000000, -7.164062500000, 1491905278
-0.094970703125, -0.671386718750, 0.290527343750, -23.046875000000, -9.671875000000, -7.164062500000, 1491905278
-0.094970703125, -0.671386718750, 0.290527343750, -23.046875000000, -9.671875000000, -7.164062500000, 1491905278
0.004882812500, -0.703369140625, 0.211914062500, -27.476562500000, 9.476562500000, -5.179687500000, 1491905278
0.004882812500, -0.703369140625, 0.211914062500, -27.476562500000, 9.476562500000, -5.179687500000, 1491905278
-0.106933593750, -0.968261718750, 0.196777343750, -0.734375000000, -97.125000000000, -0.195312500000, 1491905278
-0.106933593750, -0.968261718750, 0.196777343750, -0.734375000000, -97.125000000000, -0.195312500000, 1491905278
-0.106933593750, -0.968261718750, 0.196777343750, -0.734375000000, -97.125000000000, -0.195312500000, 1491905278
-0.106933593750, -0.968261718750, 0.196777343750, -0.734375000000, -97.125000000000, -0.195312500000, 1491905278
-0.095703125000, -1.011962890625, 0.408691406250, 28.414062500000, -134.132812500000, -16.242187500000, 1491905278
-0.095703125000, -1.011962890625, 0.408691406250, 28.414062500000, -134.132812500000, -16.242187500000, 1491905278
-0.095703125000, -1.011962890625, 0.408691406250, 28.414062500000, -134.132812500000, -16.242187500000, 1491905278
0.178955078125, -0.690185546875, 0.619140625000, -9.742187500000, -3.195312500000, 12.492187500000, 1491905278
0.178955078125, -0.690185546875, 0.619140625000, -9.742187500000, -3.195312500000, 12.492187500000, 1491905278
0.178955078125, -0.690185546875, 0.619140625000, -9.742187500000, -3.195312500000, 12.492187500000, 1491905278
0.178955078125, -0.690185546875, 0.619140625000, -9.742187500000, -3.195312500000, 12.492187500000, 1491905278
0.076416015625, -0.904785156250, 0.510009765625, -57.835937500000, -43.593750000000, 9.000000000000, 1491905278
0.076416015625, -0.904785156250, 0.510009765625, -57.835937500000, -43.593750000000, 9.000000000000, 1491905278
0.076416015625, -0.904785156250, 0.510009765625, -57.835937500000, -43.593750000000, 9.000000000000, 1491905278
0.022216796875, -0.825683593750, 0.590332031250, 5.039062500000, -40.039062500000, -3.250000000000, 1491905278
0.022216796875, -0.825683593750, 0.590332031250, 5.039062500000, -40.039062500000, -3.250000000000, 1491905278
0.022216796875, -0.825683593750, 0.590332031250, 5.039062500000, -40.039062500000, -3.250000000000, 1491905278
0.047851562500, -0.783447265625, 0.690185546875, -33.601562500000, -12.593750000000, -2.320312500000, 1491905278
0.047851562500, -0.783447265625, 0.690185546875, -33.601562500000, -12.593750000000, -2.320312500000, 1491905278
0.047851562500, -0.783447265625, 0.690185546875, -33.601562500000, -12.593750000000, -2.320312500000, 1491905278
0.080566406250, -0.749267578125, 0.420898437500, -12.875000000000, 3.054687500000, 8.898437500000, 1491905278
0.080566406250, -0.749267578125, 0.420898437500, -12.875000000000, 3.054687500000, 8.898437500000, 1491905278
0.093994140625, -1.018310546875, 0.537109375000, 15.718750000000, 1.468750000000, 6.007812500000, 1491905278
0.093994140625, -1.018310546875, 0.537109375000, 15.718750000000, 1.468750000000, 6.007812500000, 1491905278
0.093994140625, -1.018310546875, 0.537109375000, 15.718750000000, 1.468750000000, 6.007812500000, 1491905278
0.093994140625, -1.018310546875, 0.537109375000, 15.718750000000, 1.468750000000, 6.007812500000, 1491905278
0.093994140625, -1.018310546875, 0.537109375000, 15.718750000000, 1.468750000000, 6.007812500000, 1491905278
0.252441406250, -1.224853515625, 0.810546875000, -18.671875000000, 26.710937500000, 14.140625000000, 1491905279
0.252441406250, -1.224853515625, 0.810546875000, -18.671875000000, 26.710937500000, 14.140625000000, 1491905279
0.252441406250, -1.224853515625, 0.810546875000, -18.671875000000, 26.710937500000, 14.140625000000, 1491905279
0.232910156250, -1.155029296875, 0.556396484375, -20.460937500000, 37.898437500000, 3.945312500000, 1491905279
0.232910156250, -1.155029296875, 0.556396484375, -20.460937500000, 37.898437500000, 3.945312500000, 1491905279
0.232910156250, -1.155029296875, 0.556396484375, -20.460937500000, 37.898437500000, 3.945312500000, 1491905279
0.202148437500, -0.449707031250, 0.184326171875, 6.015625000000, 37.109375000000, 7.445312500000, 1491905279
0.202148437500, -0.449707031250, 0.184326171875, 6.015625000000, 37.109375000000, 7.445312500000, 1491905279
0.202148437500, -0.449707031250, 0.184326171875, 6.015625000000, 37.109375000000, 7.445312500000, 1491905279
0.202148437500, -0.449707031250, 0.184326171875, 6.015625000000, 37.109375000000, 7.445312500000, 1491905279
0.275878906250, -0.480468750000, 0.246093750000, -14.929687500000, 69.601562500000, 26.085937500000, 1491905279
0.275878906250, -0.480468750000, 0.246093750000, -14.929687500000, 69.601562500000, 26.085937500000, 1491905279
0.275878906250, -0.480468750000, 0.246093750000, -14.929687500000, 69.601562500000, 26.085937500000, 1491905279
0.362548828125, -0.926269531250, 0.465332031250, 40.093750000000, 43.585937500000, 18.937500000000, 1491905279
0.362548828125, -0.926269531250, 0.465332031250, 40.093750000000, 43.585937500000, 18.937500000000, 1491905279
0.362548828125, -0.926269531250, 0.465332031250, 40.093750000000, 43.585937500000, 18.937500000000, 1491905279
0.222900390625, -1.027099609375, 0.406982421875, 21.906250000000, -14.070312500000, 23.593750000000, 1491905279
0.222900390625, -1.027099609375, 0.406982421875, 21.906250000000, -14.070312500000, 23.593750000000, 1491905279
0.222900390625, -1.027099609375, 0.406982421875, 21.906250000000, -14.070312500000, 23.593750000000, 1491905279
0.037841796875, -0.735595703125, 0.578613281250, 18.062500000000, 41.984375000000, 11.945312500000, 1491905279
0.037841796875, -0.735595703125, 0.578613281250, 18.062500000000, 41.984375000000, 11.945312500000, 1491905279
0.037841796875, -0.735595703125, 0.578613281250, 18.062500000000, 41.984375000000, 11.945312500000, 1491905279
0.037841796875, -0.735595703125, 0.578613281250, 18.062500000000, 41.984375000000, 11.945312500000, 1491905279
0.249511718750, -0.729003906250, 0.440185546875, 5.046875000000, 68.164062500000, 8.023437500000, 1491905279
0.249511718750, -0.729003906250, 0.440185546875, 5.046875000000, 68.164062500000, 8.023437500000, 1491905279
0.249511718750, -0.729003906250, 0.440185546875, 5.046875000000, 68.164062500000, 8.023437500000, 1491905279
0.336181640625, -0.731445312500, 0.430664062500, 18.476562500000, 50.703125000000, 7.546875000000, 1491905279
0.336181640625, -0.731445312500, 0.430664062500, 18.476562500000, 50.703125000000, 7.546875000000, 1491905279
0.336181640625, -0.731445312500, 0.430664062500, 18.476562500000, 50.703125000000, 7.546875000000, 1491905279
0.148193359375, -0.806884765625, 0.486816406250, 1.046875000000, 41.726562500000, 5.804687500000, 1491905279
0.148193359375, -0.806884765625, 0.486816406250, 1.046875000000, 41.726562500000, 5.804687500000, 1491905279
0.148193359375, -0.806884765625, 0.486816406250, 1.046875000000, 41.726562500000, 5.804687500000, 1491905279
0.148193359375, -0.806884765625, 0.486816406250, 1.046875000000, 41.726562500000, 5.804687500000, 1491905279
0.125000000000, -0.800781250000, 0.568115234375, 1.898437500000, 38.625000000000, 0.914062500000, 1491905279
0.250488281250, -0.790039062500, 0.515625000000, 4.421875000000, 33.406250000000, 0.828125000000, 1491905279
0.250488281250, -0.790039062500, 0.515625000000, 4.421875000000, 33.406250000000, 0.828125000000, 1491905279
0.250488281250, -0.790039062500, 0.515625000000, 4.421875000000, 33.406250000000, 0.828125000000, 1491905279
0.250488281250, -0.790039062500, 0.515625000000, 4.421875000000, 33.406250000000, 0.828125000000, 1491905279
0.170410156250, -0.808593750000, 0.618652343750, 10.851562500000, 32.757812500000, 0.265625000000, 1491905279
0.170410156250, -0.808593750000, 0.618652343750, 10.851562500000, 32.757812500000, 0.265625000000, 1491905279
0.170410156250, -0.808593750000, 0.618652343750, 10.851562500000, 32.757812500000, 0.265625000000, 1491905279
0.170410156250, -0.808593750000, 0.618652343750, 10.851562500000, 32.757812500000, 0.265625000000, 1491905279
0.120849609375, -1.004638671875, 0.612792968750, -3.062500000000, 23.382812500000, 0.203125000000, 1491905279
0.120849609375, -1.004638671875, 0.612792968750, -3.062500000000, 23.382812500000, 0.203125000000, 1491905279
0.120849609375, -1.004638671875, 0.612792968750, -3.062500000000, 23.382812500000, 0.203125000000, 1491905279
0.060302734375, -1.188720703125, 0.652832031250, -12.406250000000, 39.312500000000, -9.601562500000, 1491905279
0.060302734375, -1.188720703125, 0.652832031250, -12.406250000000, 39.312500000000, -9.601562500000, 1491905279
0.060302734375, -1.188720703125, 0.652832031250, -12.406250000000, 39.312500000000, -9.601562500000, 1491905279
0.060302734375, -1.188720703125, 0.652832031250, -12.406250000000, 39.312500000000, -9.601562500000, 1491905279
-0.073242187500, -0.961914062500, 0.393310546875, -3.484375000000, 11.773437500000, -2.718750000000, 1491905279
-0.073242187500, -0.961914062500, 0.393310546875, -3.484375000000, 11.773437500000, -2.718750000000, 1491905279
-0.073242187500, -0.961914062500, 0.393310546875, -3.484375000000, 11.773437500000, -2.718750000000, 1491905279
-0.064453125000, -0.727783203125, 0.122070312500, -28.859375000000, 39.820312500000, -16.625000000000, 1491905279
-0.064453125000, -0.727783203125, 0.122070312500, -28.859375000000, 39.820312500000, -16.625000000000, 1491905279
-0.064453125000, -0.727783203125, 0.122070312500, -28.859375000000, 39.820312500000, -16.625000000000, 1491905279
0.141845703125, -0.942382812500, 0.163330078125, -20.765625000000, 23.023437500000, 13.945312500000, 1491905279
0.141845703125, -0.942382812500, 0.163330078125, -20.765625000000, 23.023437500000, 13.945312500000, 1491905279
0.141845703125, -0.942382812500, 0.163330078125, -20.765625000000, 23.023437500000, 13.945312500000, 1491905279
0.007812500000, -0.932128906250, 0.298583984375, 51.718750000000, -25.078125000000, 8.882812500000, 1491905279
0.007812500000, -0.932128906250, 0.298583984375, 51.718750000000, -25.078125000000, 8.882812500000, 1491905279
0.007812500000, -0.932128906250, 0.298583984375, 51.718750000000, -25.078125000000, 8.882812500000, 1491905279
0.007812500000, -0.932128906250, 0.298583984375, 51.718750000000, -25.078125000000, 8.882812500000, 1491905279
0.188720703125, -0.915039062500, 0.874267578125, 20.820312500000, -0.554687500000, 9.210937500000, 1491905279
0.188720703125, -0.915039062500, 0.874267578125, 20.820312500000, -0.554687500000, 9.210937500000, 1491905279
0.188720703125, -0.915039062500, 0.874267578125, 20.820312500000, -0.554687500000, 9.210937500000, 1491905279
0.018554687500, -0.875976562500, 0.221435546875, -37.109375000000, 35.406250000000, 14.554687500000, 1491905279
0.018554687500, -0.875976562500, 0.221435546875, -37.109375000000, 35.406250000000, 14.554687500000, 1491905279
0.018554687500, -0.875976562500, 0.221435546875, -37.109375000000, 35.406250000000, 14.554687500000, 1491905279
-0.092529296875, -0.872070312500, 0.421142578125, 14.734375000000, 9.093750000000, 20.703125000000, 1491905280
-0.092529296875, -0.872070312500, 0.421142578125, 14.734375000000, 9.093750000000, 20.703125000000, 1491905280
-0.092529296875, -0.872070312500, 0.421142578125, 14.734375000000, 9.093750000000, 20.703125000000, 1491905280
-0.077392578125, -0.882080078125, 0.502929687500, -11.140625000000, 11.195312500000, 12.585937500000, 1491905280
-0.077392578125, -0.882080078125, 0.502929687500, -11.140625000000, 11.195312500000, 12.585937500000, 1491905280
-0.077392578125, -0.882080078125, 0.502929687500, -11.140625000000, 11.195312500000, 12.585937500000, 1491905280
-0.077392578125, -0.882080078125, 0.502929687500, -11.140625000000, 11.195312500000, 12.585937500000, 1491905280
-0.088867187500, -0.850341796875, 0.518066406250, -10.648437500000, 16.835937500000, 6.703125000000, 1491905280
-0.088867187500, -0.850341796875, 0.518066406250, -10.648437500000, 16.835937500000, 6.703125000000, 1491905280
-0.088867187500, -0.850341796875, 0.518066406250, -10.648437500000, 16.835937500000, 6.703125000000, 1491905280
-0.040283203125, -0.788085937500, 0.521972656250, -15.242187500000, 0.890625000000, -2.125000000000, 1491905280
-0.040283203125, -0.788085937500, 0.521972656250, -15.242187500000, 0.890625000000, -2.125000000000, 1491905280
-0.040283203125, -0.788085937500, 0.521972656250, -15.242187500000, 0.890625000000, -2.125000000000, 1491905280
-0.000732421875, -1.004394531250, 0.513916015625, -20.437500000000, 10.710937500000, 2.898437500000, 1491905280
-0.000732421875, -1.004394531250, 0.513916015625, -20.437500000000, 10.710937500000, 2.898437500000, 1491905280
-0.081542968750, -0.957031250000, 0.654785156250, -24.406250000000, 18.632812500000, 1.171875000000, 1491905280
-0.081542968750, -0.957031250000, 0.654785156250, -24.406250000000, 18.632812500000, 1.171875000000, 1491905280
-0.081542968750, -0.957031250000, 0.654785156250, -24.406250000000, 18.632812500000, 1.171875000000, 1491905280
-0.081542968750, -0.957031250000, 0.654785156250, -24.406250000000, 18.632812500000, 1.171875000000, 1491905280
0.050048828125, -1.064941406250, 0.712402343750, -26.515625000000, 35.578125000000, 6.656250000000, 1491905280
0.050048828125, -1.064941406250, 0.712402343750, -26.515625000000, 35.578125000000, 6.656250000000, 1491905280
0.064208984375, -1.020996093750, 0.564697265625, -46.625000000000, 20.078125000000, 17.804687500000, 1491905280
0.064208984375, -1.020996093750, 0.564697265625, -46.625000000000, 20.078125000000, 17.804687500000, 1491905280
0.064208984375, -1.020996093750, 0.564697265625, -46.625000000000, 20.078125000000, 17.804687500000, 1491905280
0.058105468750, -0.806396484375, 0.454101562500, -40.968750000000, 20.632812500000, 14.445312500000, 1491905280
0.167236328125, -0.772460937500, 0.342529296875, -23.398437500000, 11.265625000000, 8.828125000000, 1491905280
0.167236328125, -0.772460937500, 0.342529296875, -23.398437500000, 11.265625000000, 8.828125000000, 1491905280
0.167236328125, -0.772460937500, 0.342529296875, -23.398437500000, 11.265625000000, 8.828125000000, 1491905280
0.167236328125, -0.772460937500, 0.342529296875, -23.398437500000, 11.265625000000, 8.828125000000, 1491905280
-0.091796875000, -0.741455078125, 0.251708984375, -15.093750000000, 29.640625000000, -6.375000000000, 1491905280
-0.091796875000, -0.741455078125, 0.251708984375, -15.093750000000, 29.640625000000, -6.375000000000, 1491905280
-0.091796875000, -0.741455078125, 0.251708984375, -15.093750000000, 29.640625000000, -6.375000000000, 1491905280
-0.091796875000, -0.741455078125, 0.251708984375, -15.093750000000, 29.640625000000, -6.375000000000, 1491905280
0.263671875000, -1.025146484375, 0.362792968750, 26.554687500000, 65.664062500000, -6.304687500000, 1491905280
0.263671875000, -1.025146484375, 0.362792968750, 26.554687500000, 65.664062500000, -6.304687500000, 1491905280
0.263671875000, -1.025146484375, 0.362792968750, 26.554687500000, 65.664062500000, -6.304687500000, 1491905280
0.056396484375, -1.029785156250, 0.679199218750, 26.359375000000, 48.031250000000, -4.796875000000, 1491905280
0.056396484375, -1.029785156250, 0.679199218750, 26.359375000000, 48.031250000000, -4.796875000000, 1491905280
0.056396484375, -1.029785156250, 0.679199218750, 26.359375000000, 48.031250000000, -4.796875000000, 1491905280
0.042968750000, -0.809326171875, 0.426269531250, -10.703125000000, 17.546875000000, -11.710937500000, 1491905280
0.042968750000, -0.809326171875, 0.426269531250, -10.703125000000, 17.546875000000, -11.710937500000, 1491905280
0.042968750000, -0.809326171875, 0.426269531250, -10.703125000000, 17.546875000000, -11.710937500000, 1491905280
-0.048828125000, -0.781250000000, 0.443115234375, 16.828125000000, 18.132812500000, -21.820312500000, 1491905280
-0.048828125000, -0.781250000000, 0.443115234375, 16.828125000000, 18.132812500000, -21.820312500000, 1491905280
-0.048828125000, -0.781250000000, 0.443115234375, 16.828125000000, 18.132812500000, -21.820312500000, 1491905280
-0.048828125000, -0.781250000000, 0.443115234375, 16.828125000000, 18.132812500000, -21.820312500000, 1491905280
0.005126953125, -0.782470703125, 0.586181640625, 0.734375000000, 21.414062500000, -10.820312500000, 1491905280
0.005126953125, -0.782470703125, 0.586181640625, 0.734375000000, 21.414062500000, -10.820312500000, 1491905280
0.005126953125, -0.782470703125, 0.586181640625, 0.734375000000, 21.414062500000, -10.820312500000, 1491905280
-0.005859375000, -0.959472656250, 0.479492187500, -1.000000000000, 1.898437500000, -16.078125000000, 1491905280
-0.005859375000, -0.959472656250, 0.479492187500, -1.000000000000, 1.898437500000, -16.078125000000, 1491905280
-0.005859375000, -0.959472656250, 0.479492187500, -1.000000000000, 1.898437500000, -16.078125000000, 1491905280
-0.071044921875, -0.725097656250, 0.529785156250, -6.945312500000, -5.343750000000, -17.320312500000, 1491905280
-0.071044921875, -0.725097656250, 0.529785156250, -6.945312500000, -5.343750000000, -17.320312500000, 1491905280
-0.071044921875, -0.725097656250, 0.529785156250, -6.945312500000, -5.343750000000, -17.320312500000, 1491905280
0.003662109375, -0.760742187500, 0.525878906250, -1.500000000000, -11.351562500000, -11.914062500000, 1491905280
0.003662109375, -0.760742187500, 0.525878906250, -1.500000000000, -11.351562500000, -11.914062500000, 1491905280
