ACC_X,ACC_Y,ACC_Z,G_X,G_Y,G_Z,Unix Time
0.084472656250, -0.654296875000, 0.375488281250, -5.062500000000, -14.968750000000, 6.015625000000, 1491905479
-0.014160156250, -0.616699218750, 0.375488281250, -9.734375000000, -18.312500000000, 2.046875000000, 1491905479
0.053222656250, -0.915527343750, 0.587158203125, 0.890625000000, -32.265625000000, -6.695312500000, 1491905479
0.333984375000, -0.834472656250, 0.553955078125, -1.539062500000, -31.906250000000, -6.148437500000, 1491905479
0.333984375000, -0.834472656250, 0.553955078125, -1.539062500000, -31.906250000000, -6.148437500000, 1491905479
0.165039062500, -0.831054687500, 0.570800781250, -13.898437500000, -18.773437500000, 4.757812500000, 1491905479
0.165039062500, -0.831054687500, 0.570800781250, -13.898437500000, -18.773437500000, 4.757812500000, 1491905479
0.165039062500, -0.831054687500, 0.570800781250, -13.898437500000, -18.773437500000, 4.757812500000, 1491905479
0.165039062500, -0.831054687500, 0.570800781250, -13.898437500000, -18.773437500000, 4.757812500000, 1491905479
0.165039062500, -0.831054687500, 0.570800781250, -13.898437500000, -18.773437500000, 4.757812500000, 1491905479
0.165039062500, -0.831054687500, 0.570800781250, -13.898437500000, -18.773437500000, 4.757812500000, 1491905479
0.165039062500, -0.831054687500, 0.570800781250, -13.898437500000, -18.773437500000, 4.757812500000, 1491905479
0.165039062500, -0.831054687500, 0.570800781250, -13.898437500000, -18.773437500000, 4.757812500000, 1491905479
0.140136718750, -1.058349609375, 0.532958984375, -19.804687500000, 8.398437500000, -8.898437500000, 1491905480
0.140136718750, -1.058349609375, 0.532958984375, -19.804687500000, 8.398437500000, -8.898437500000, 1491905480
0.140136718750, -1.058349609375, 0.532958984375, -19.804687500000, 8.398437500000, -8.898437500000, 1491905480
0.140136718750, -1.058349609375, 0.532958984375, -19.804687500000, 8.398437500000, -8.898437500000, 1491905480
0.140136718750, -1.058349609375, 0.532958984375, -19.804687500000, 8.398437500000, -8.898437500000, 1491905480
0.140136718750, -1.058349609375, 0.532958984375, -19.804687500000, 8.398437500000, -8.898437500000, 1491905480
-0.019531250000, -1.289794921875, 0.536132812500, 41.429687500000, 46.554687500000, 0.445312500000, 1491905480
-0.101318359375, -0.930664062500, 0.455810546875, -35.343750000000, 48.093750000000, 13.492187500000, 1491905480
-0.101318359375, -0.930664062500, 0.455810546875, -35.343750000000, 48.093750000000, 13.492187500000, 1491905480
-0.101318359375, -0.930664062500, 0.455810546875, -35.343750000000, 48.093750000000, 13.492187500000, 1491905480
-0.192382812500, -0.936035156250, 0.332275390625, 5.164062500000, 17.851562500000, -18.203125000000, 1491905480
-0.192382812500, -0.936035156250, 0.332275390625, 5.164062500000, 17.851562500000, -18.203125000000, 1491905480
-0.192382812500, -0.936035156250, 0.332275390625, 5.164062500000, 17.851562500000, -18.203125000000, 1491905480
-0.192382812500, -0.936035156250, 0.332275390625, 5.164062500000, 17.851562500000, -18.203125000000, 1491905480
-0.192382812500, -0.936035156250, 0.332275390625, 5.164062500000, 17.851562500000, -18.203125000000, 1491905480
-0.192382812500, -0.936035156250, 0.332275390625, 5.164062500000, 17.851562500000, -18.203125000000, 1491905480
-0.192382812500, -0.936035156250, 0.332275390625, 5.164062500000, 17.851562500000, -18.203125000000, 1491905480
-0.192382812500, -0.936035156250, 0.332275390625, 23.335937500000, 6.171875000000, -18.875000000000, 1491905480
-0.064697265625, -0.910156250000, 0.566894531250, -26.703125000000, 8.609375000000, -14.820312500000, 1491905480
-0.064697265625, -0.910156250000, 0.566894531250, -26.703125000000, 8.609375000000, -14.820312500000, 1491905480
-0.064697265625, -0.910156250000, 0.566894531250, -26.703125000000, 8.609375000000, -14.820312500000, 1491905480
-0.023681640625, -0.850341796875, 0.335693359375, -1.210937500000, 4.570312500000, -11.343750000000, 1491905480
-0.023681640625, -0.850341796875, 0.335693359375, -1.210937500000, 4.570312500000, -11.343750000000, 1491905480
-0.023681640625, -0.850341796875, 0.335693359375, -1.210937500000, 4.570312500000, -11.343750000000, 1491905480
-0.023681640625, -0.850341796875, 0.335693359375, -1.210937500000, 4.570312500000, -11.343750000000, 1491905480
-0.023681640625, -0.850341796875, 0.335693359375, -1.210937500000, 4.570312500000, -11.343750000000, 1491905480
-0.007324218750, -0.727050781250, 0.384521484375, -15.515625000000, 13.648437500000, -11.804687500000, 1491905480
-0.007324218750, -0.727050781250, 0.384521484375, -15.515625000000, 13.648437500000, -11.804687500000, 1491905480
-0.007324218750, -0.727050781250, 0.384521484375, -15.515625000000, 13.648437500000, -11.804687500000, 1491905480
-0.007324218750, -0.727050781250, 0.384521484375, -15.515625000000, 13.648437500000, -11.804687500000, 1491905480
-0.142333984375, -0.676025390625, 0.420166015625, 14.382812500000, 1.703125000000, -12.664062500000, 1491905480
-0.142333984375, -0.676025390625, 0.420166015625, 14.382812500000, 1.703125000000, -12.664062500000, 1491905480
-0.142333984375, -0.676025390625, 0.420166015625, 14.382812500000, 1.703125000000, -12.664062500000, 1491905480
-0.142333984375, -0.676025390625, 0.420166015625, 14.382812500000, 1.703125000000, -12.664062500000, 1491905480
-0.142333984375, -0.676025390625, 0.420166015625, 14.382812500000, 1.703125000000, -12.664062500000, 1491905480
-0.142333984375, -0.676025390625, 0.420166015625, 14.382812500000, 1.703125000000, -12.664062500000, 1491905480
-0.058105468750, -0.733398437500, 0.416015625000, -13.257812500000, 21.351562500000, -4.406250000000, 1491905480
-0.058105468750, -0.733398437500, 0.416015625000, -13.257812500000, 21.351562500000, -4.406250000000, 1491905480
-0.058105468750, -0.733398437500, 0.416015625000, -13.257812500000, 21.351562500000, -4.406250000000, 1491905480
-0.060546875000, -0.687255859375, 0.285888671875, -6.648437500000, 7.812500000000, -6.382812500000, 1491905480
-0.060546875000, -0.687255859375, 0.285888671875, -6.648437500000, 7.812500000000, -6.382812500000, 1491905480
-0.060546875000, -0.687255859375, 0.285888671875, -6.648437500000, 7.812500000000, -6.382812500000, 1491905480
-0.078369140625, -0.616455078125, 0.482177734375, -21.945312500000, 13.531250000000, -0.914062500000, 1491905480
-0.070312500000, -0.698486328125, 0.480712890625, -20.812500000000, 10.656250000000, -1.546875000000, 1491905480
-0.145507812500, -0.875732421875, 0.480957031250, -10.398437500000, 5.101562500000, -2.664062500000, 1491905480
-0.145507812500, -0.875732421875, 0.480957031250, -10.398437500000, 5.101562500000, -2.664062500000, 1491905480
-0.145507812500, -0.875732421875, 0.480957031250, -10.398437500000, 5.101562500000, -2.664062500000, 1491905480
-0.145507812500, -0.875732421875, 0.480957031250, -10.398437500000, 5.101562500000, -2.664062500000, 1491905480
-0.145507812500, -0.875732421875, 0.480957031250, -10.398437500000, 5.101562500000, -2.664062500000, 1491905480
-0.145507812500, -0.875732421875, 0.480957031250, -6.531250000000, 9.257812500000, -4.515625000000, 1491905480
-0.157714843750, -0.996337890625, 0.582519531250, -14.757812500000, 1.273437500000, -3.843750000000, 1491905480
-0.157714843750, -0.996337890625, 0.582519531250, -14.757812500000, 1.273437500000, -3.843750000000, 1491905480
-0.157714843750, -0.996337890625, 0.582519531250, -14.757812500000, 1.273437500000, -3.843750000000, 1491905480
-0.157714843750, -0.996337890625, 0.582519531250, -14.757812500000, 1.273437500000, -3.843750000000, 1491905480
-0.157714843750, -0.996337890625, 0.582519531250, -14.757812500000, 1.273437500000, -3.843750000000, 1491905480
-0.216796875000, -1.075683593750, 0.629638671875, -17.164062500000, -2.757812500000, -7.664062500000, 1491905480
-0.108154296875, -1.127441406250, 0.652343750000, -13.539062500000, -8.921875000000, -2.484375000000, 1491905480
-0.108154296875, -1.127441406250, 0.652343750000, -13.539062500000, -8.921875000000, -2.484375000000, 1491905480
-0.142333984375, -1.251708984375, 0.425048828125, -21.226562500000, -13.648437500000, -16.218750000000, 1491905481
-0.142333984375, -1.251708984375, 0.425048828125, -21.226562500000, -13.648437500000, -16.218750000000, 1491905481
-0.142333984375, -1.251708984375, 0.425048828125, -21.226562500000, -13.648437500000, -16.218750000000, 1491905481
0.131591796875, -1.248779296875, 0.504638671875, 14.460937500000, -28.718750000000, -18.390625000000, 1491905481
0.131591796875, -1.248779296875, 0.504638671875, 14.460937500000, -28.718750000000, -18.390625000000, 1491905481
0.101562500000, -0.735839843750, 0.564941406250, 10.898437500000, -3.304687500000, 2.382812500000, 1491905481
0.101562500000, -0.735839843750, 0.564941406250, 10.898437500000, -3.304687500000, 2.382812500000, 1491905481
0.101562500000, -0.735839843750, 0.564941406250, 10.898437500000, -3.304687500000, 2.382812500000, 1491905481
0.101562500000, -0.735839843750, 0.564941406250, 10.898437500000, -3.304687500000, 2.382812500000, 1491905481
0.101562500000, -0.735839843750, 0.564941406250, 10.898437500000, -3.304687500000, 2.382812500000, 1491905481
0.101562500000, -0.735839843750, 0.564941406250, 10.898437500000, -3.304687500000, 2.382812500000, 1491905481
0.101562500000, -0.735839843750, 0.564941406250, 10.898437500000, -3.304687500000, 2.382812500000, 1491905481
0.101562500000, -0.735839843750, 0.564941406250, 10.898437500000, -3.304687500000, 2.382812500000, 1491905481
0.101562500000, -0.735839843750, 0.564941406250, 10.898437500000, -3.304687500000, 2.382812500000, 1491905481
0.101562500000, -0.735839843750, 0.564941406250, 10.898437500000, -3.304687500000, 2.382812500000, 1491905481
0.100830078125, -0.686279296875, 0.528320312500, 2.679687500000, 7.562500000000, 5.703125000000, 1491905481
0.219726562500, -0.663330078125, 0.430175781250, 0.289062500000, 6.945312500000, 7.406250000000, 1491905481
0.219726562500, -0.663330078125, 0.430175781250, 0.289062500000, 6.945312500000, 7.406250000000, 1491905481
0.219726562500, -0.663330078125, 0.430175781250, 0.289062500000, 6.945312500000, 7.406250000000, 1491905481
0.219726562500, -0.663330078125, 0.430175781250, 0.289062500000, 6.945312500000, 7.406250000000, 1491905481
0.219726562500, -0.663330078125, 0.430175781250, 0.289062500000, 6.945312500000, 7.406250000000, 1491905481
0.219726562500, -0.663330078125, 0.430175781250, 0.289062500000, 6.945312500000, 7.406250000000, 1491905481
0.041748046875, -0.630126953125, 0.443847656250, -3.601562500000, 5.445312500000, 4.234375000000, 1491905481
0.188964843750, -0.780517578125, 0.484863281250, -20.320312500000, 15.375000000000, -0.890625000000, 1491905481
0.188964843750, -0.780517578125, 0.484863281250, -20.320312500000, 15.375000000000, -0.890625000000, 1491905481
0.188964843750, -0.780517578125, 0.484863281250, -20.320312500000, 15.375000000000, -0.890625000000, 1491905481
0.188964843750, -0.780517578125, 0.484863281250, -20.320312500000, 15.375000000000, -0.890625000000, 1491905481
0.188964843750, -0.780517578125, 0.484863281250, -20.320312500000, 15.375000000000, -0.890625000000, 1491905481
0.188964843750, -0.780517578125, 0.484863281250, -20.320312500000, 15.375000000000, -0.890625000000, 1491905481
0.188964843750, -0.780517578125, 0.484863281250, -20.320312500000, 15.375000000000, -0.890625000000, 1491905481
0.188964843750, -0.780517578125, 0.484863281250, -20.320312500000, 15.375000000000, -0.890625000000, 1491905481
0.188964843750, -0.780517578125, 0.484863281250, -20.320312500000, 15.375000000000, -0.890625000000, 1491905481
0.164306640625, -0.726562500000, 0.542480468750, -23.109375000000, 18.523437500000, 5.578125000000, 1491905481
0.164306640625, -0.726562500000, 0.542480468750, -23.109375000000, 18.523437500000, 5.578125000000, 1491905481
0.164306640625, -0.726562500000, 0.542480468750, -23.109375000000, 18.523437500000, 5.578125000000, 1491905481
0.135253906250, -0.749755859375, 0.533203125000, -8.023437500000, 26.726562500000, 10.015625000000, 1491905481
0.135253906250, -0.749755859375, 0.533203125000, -8.023437500000, 26.726562500000, 10.015625000000, 1491905481
0.135253906250, -0.749755859375, 0.533203125000, -8.023437500000, 26.726562500000, 10.015625000000, 1491905481
0.135253906250, -0.749755859375, 0.533203125000, -8.023437500000, 26.726562500000, 10.015625000000, 1491905481
0.183837890625, -0.908447265625, 0.648193359375, -16.679687500000, 24.296875000000, 9.671875000000, 1491905481
0.183837890625, -0.908447265625, 0.648193359375, -16.679687500000, 24.296875000000, 9.671875000000, 1491905481
0.183837890625, -0.908447265625, 0.648193359375, -16.679687500000, 24.296875000000, 9.671875000000, 1491905481
0.183837890625, -0.908447265625, 0.648193359375, -16.679687500000, 24.296875000000, 9.671875000000, 1491905481
0.183837890625, -0.908447265625, 0.648193359375, -16.679687500000, 24.296875000000, 9.671875000000, 1491905481
0.183837890625, -0.908447265625, 0.648193359375, -16.679687500000, 24.296875000000, 9.671875000000, 1491905481
0.183837890625, -0.908447265625, 0.648193359375, -16.679687500000, 24.296875000000, 9.671875000000, 1491905481
0.183837890625, -0.908447265625, 0.648193359375, -16.679687500000, 24.296875000000, 9.671875000000, 1491905481
0.183837890625, -0.908447265625, 0.648193359375, -16.679687500000, 24.296875000000, 9.671875000000, 1491905481
-0.096191406250, -1.106201171875, 0.495117187500, 25.304687500000, 60.937500000000, 18.976562500000, 1491905481
-0.096191406250, -1.106201171875, 0.495117187500, 25.304687500000, 60.937500000000, 18.976562500000, 1491905481
-0.096191406250, -1.106201171875, 0.495117187500, 25.304687500000, 60.937500000000, 18.976562500000, 1491905481
-0.096191406250, -1.106201171875, 0.495117187500, 25.304687500000, 60.937500000000, 18.976562500000, 1491905481
-0.096191406250, -1.106201171875, 0.495117187500, 25.304687500000, 60.937500000000, 18.976562500000, 1491905481
-0.096191406250, -1.106201171875, 0.495117187500, 25.304687500000, 60.937500000000, 18.976562500000, 1491905481
-0.067871093750, -1.133544921875, 0.478271484375, -44.843750000000, 68.632812500000, 34.578125000000, 1491905481
0.086425781250, -0.967529296875, 0.444824218750, -1.632812500000, 45.335937500000, 22.343750000000, 1491905481
0.086425781250, -0.967529296875, 0.444824218750, -1.632812500000, 45.335937500000, 22.343750000000, 1491905481
-0.131835937500, -0.951171875000, 0.620849609375, 27.328125000000, 48.156250000000, 15.000000000000, 1491905481
-0.045898437500, -0.791015625000, 0.731689453125, 17.929687500000, 47.296875000000, 13.570312500000, 1491905481
-0.045898437500, -0.791015625000, 0.731689453125, 17.929687500000, 47.296875000000, 13.570312500000, 1491905481
-0.045898437500, -0.791015625000, 0.731689453125, 17.929687500000, 47.296875000000, 13.570312500000, 1491905481
-0.045898437500, -0.791015625000, 0.731689453125, 17.929687500000, 47.296875000000, 13.570312500000, 1491905481
0.004394531250, -0.876708984375, 0.660888671875, -7.945312500000, 45.390625000000, 18.289062500000, 1491905481
0.004394531250, -0.876708984375, 0.660888671875, -7.945312500000, 45.390625000000, 18.289062500000, 1491905481
0.004394531250, -0.876708984375, 0.660888671875, -7.945312500000, 45.390625000000, 18.289062500000, 1491905481
-0.017578125000, -0.759765625000, 0.483642578125, -10.640625000000, 45.835937500000, 19.789062500000, 1491905481
-0.017578125000, -0.759765625000, 0.483642578125, -10.640625000000, 45.835937500000, 19.789062500000, 1491905481
-0.017578125000, -0.759765625000, 0.483642578125, -10.640625000000, 45.835937500000, 19.789062500000, 1491905481
-0.017578125000, -0.759765625000, 0.483642578125, -10.640625000000, 45.835937500000, 19.789062500000, 1491905481
-0.017578125000, -0.759765625000, 0.483642578125, -10.640625000000, 45.835937500000, 19.789062500000, 1491905481
-0.017578125000, -0.759765625000, 0.483642578125, -10.640625000000, 45.835937500000, 19.789062500000, 1491905481
-0.018310546875, -0.773681640625, 0.426025390625, -12.429687500000, 50.468750000000, 23.968750000000, 1491905482
-0.018310546875, -0.773681640625, 0.426025390625, -12.429687500000, 50.468750000000, 23.968750000000, 1491905482
-0.018310546875, -0.773681640625, 0.426025390625, -12.429687500000, 50.468750000000, 23.968750000000, 1491905482
-0.048828125000, -0.691894531250, 0.441406250000, 3.046875000000, 44.828125000000, 29.117187500000, 1491905482
-0.048828125000, -0.691894531250, 0.441406250000, 3.046875000000, 44.828125000000, 29.117187500000, 1491905482
-0.048828125000, -0.691894531250, 0.441406250000, 3.046875000000, 44.828125000000, 29.117187500000, 1491905482
0.005615234375, -0.715576171875, 0.530517578125, 5.039062500000, 58.593750000000, 36.531250000000, 1491905482
-0.047363281250, -0.668457031250, 0.545654296875, 1.328125000000, 53.515625000000, 23.476562500000, 1491905482
-0.047363281250, -0.668457031250, 0.545654296875, 1.328125000000, 53.515625000000, 23.476562500000, 1491905482
-0.047363281250, -0.668457031250, 0.545654296875, 1.328125000000, 53.515625000000, 23.476562500000, 1491905482
-0.047363281250, -0.668457031250, 0.545654296875, 1.328125000000, 53.515625000000, 23.476562500000, 1491905482
-0.195556640625, -0.737792968750, 0.652587890625, -15.218750000000, 46.875000000000, 16.585937500000, 1491905482
-0.195556640625, -0.737792968750, 0.652587890625, -15.218750000000, 46.875000000000, 16.585937500000, 1491905482
-0.195556640625, -0.737792968750, 0.652587890625, -15.218750000000, 46.875000000000, 16.585937500000, 1491905482
-0.195556640625, -0.737792968750, 0.652587890625, -15.218750000000, 46.875000000000, 16.585937500000, 1491905482
-0.195556640625, -0.737792968750, 0.652587890625, -15.218750000000, 46.875000000000, 16.585937500000, 1491905482
-0.120361328125, -0.739990234375, 0.647216796875, -11.023437500000, 34.617187500000, 16.484375000000, 1491905482
-0.120361328125, -0.739990234375, 0.647216796875, -11.023437500000, 34.617187500000, 16.484375000000, 1491905482
-0.120361328125, -0.739990234375, 0.647216796875, -11.023437500000, 34.617187500000, 16.484375000000, 1491905482
-0.162841796875, -0.713378906250, 0.550292968750, -10.898437500000, 29.289062500000, 12.289062500000, 1491905482
-0.162841796875, -0.713378906250, 0.550292968750, -10.898437500000, 29.289062500000, 12.289062500000, 1491905482
-0.162841796875, -0.713378906250, 0.550292968750, -10.898437500000, 29.289062500000, 12.289062500000, 1491905482
-0.149902343750, -0.709716796875, 0.651367187500, -25.789062500000, 24.968750000000, 8.289062500000, 1491905482
-0.149902343750, -0.709716796875, 0.651367187500, -25.789062500000, 24.968750000000, 8.289062500000, 1491905482
-0.149902343750, -0.709716796875, 0.651367187500, -25.789062500000, 24.968750000000, 8.289062500000, 1491905482
0.099853515625, -1.232910156250, 0.589111328125, -5.007812500000, 6.648437500000, -8.054687500000, 1491905482
0.099853515625, -1.232910156250, 0.589111328125, -5.007812500000, 6.648437500000, -8.054687500000, 1491905482
0.099853515625, -1.232910156250, 0.589111328125, -5.007812500000, 6.648437500000, -8.054687500000, 1491905482
0.099853515625, -1.232910156250, 0.589111328125, -5.007812500000, 6.648437500000, -8.054687500000, 1491905482
0.099853515625, -1.232910156250, 0.589111328125, -5.007812500000, 6.648437500000, -8.054687500000, 1491905482
0.161376953125, -1.209960937500, 1.019042968750, 17.492187500000, -6.031250000000, 10.664062500000, 1491905482
0.161376953125, -1.209960937500, 1.019042968750, 17.492187500000, -6.031250000000, 10.664062500000, 1491905482
0.161376953125, -1.209960937500, 1.019042968750, 17.492187500000, -6.031250000000, 10.664062500000, 1491905482
0.161376953125, -1.209960937500, 1.019042968750, 17.492187500000, -6.031250000000, 10.664062500000, 1491905482
0.056884765625, -1.197998046875, 0.936279296875, -12.617187500000, 3.500000000000, 20.328125000000, 1491905482
0.029541015625, -0.999755859375, 0.738037109375, -17.992187500000, 10.789062500000, 17.453125000000, 1491905482
0.029541015625, -0.999755859375, 0.738037109375, -17.992187500000, 10.789062500000, 17.453125000000, 1491905482
0.029541015625, -0.999755859375, 0.738037109375, -17.992187500000, 10.789062500000, 17.453125000000, 1491905482
-0.025634765625, -0.677978515625, 0.569824218750, -24.984375000000, 15.867187500000, 16.046875000000, 1491905482
-0.025634765625, -0.677978515625, 0.569824218750, -24.984375000000, 15.867187500000, 16.046875000000, 1491905482
-0.025634765625, -0.677978515625, 0.569824218750, -24.984375000000, 15.867187500000, 16.046875000000, 1491905482
-0.025634765625, -0.677978515625, 0.569824218750, -24.984375000000, 15.867187500000, 16.046875000000, 1491905482
0.128417968750, -0.677001953125, 0.455322265625, 21.875000000000, 28.281250000000, 25.039062500000, 1491905482
0.083740234375, -0.778320312500, 0.409423828125, 21.875000000000, 28.281250000000, 25.039062500000, 1491905482
0.083740234375, -0.778320312500, 0.409423828125, 21.875000000000, 28.281250000000, 25.039062500000, 1491905482
0.083740234375, -0.778320312500, 0.409423828125, 21.875000000000, 28.281250000000, 25.039062500000, 1491905482
0.083740234375, -0.778320312500, 0.409423828125, 21.875000000000, 28.281250000000, 25.039062500000, 1491905482
0.083740234375, -0.778320312500, 0.409423828125, 21.875000000000, 28.281250000000, 25.039062500000, 1491905482
0.125732421875, -0.827880859375, 0.535400390625, 18.468750000000, 26.242187500000, 27.312500000000, 1491905482
0.125732421875, -0.827880859375, 0.535400390625, 18.468750000000, 26.242187500000, 27.312500000000, 1491905482
0.125732421875, -0.827880859375, 0.535400390625, 18.468750000000, 26.242187500000, 27.312500000000, 1491905482
0.036865234375, -0.897705078125, 0.646728515625, 21.718750000000, 17.414062500000, 25.070312500000, 1491905482
0.036865234375, -0.897705078125, 0.646728515625, 21.718750000000, 17.414062500000, 25.070312500000, 1491905482
0.036865234375, -0.897705078125, 0.646728515625, 21.718750000000, 17.414062500000, 25.070312500000, 1491905482
0.036865234375, -0.897705078125, 0.646728515625, 21.718750000000, 17.414062500000, 25.070312500000, 1491905482
0.148193359375, -0.799072265625, 0.608154296875, 17.835937500000, 11.375000000000, 20.250000000000, 1491905482
0.148193359375, -0.799072265625, 0.608154296875, 17.835937500000, 11.375000000000, 20.250000000000, 1491905482
0.148193359375, -0.799072265625, 0.608154296875, 17.835937500000, 11.375000000000, 20.250000000000, 1491905482
0.114013671875, -0.786865234375, 0.557128906250, 18.109375000000, 14.195312500000, 18.390625000000, 1491905482
0.105224609375, -0.837402343750, 0.551269531250, 5.851562500000, 22.109375000000, 16.257812500000, 1491905482
0.105224609375, -0.837402343750, 0.551269531250, 5.851562500000, 22.109375000000, 16.257812500000, 1491905482
0.105224609375, -0.837402343750, 0.551269531250, 5.851562500000, 22.109375000000, 16.257812500000, 1491905482
0.105224609375, -0.837402343750, 0.551269531250, 5.851562500000, 22.109375000000, 16.257812500000, 1491905482
0.037353515625, -0.743164062500, 0.630126953125, 11.343750000000, 15.953125000000, 12.453125000000, 1491905482
0.037353515625, -0.743164062500, 0.630126953125, 11.343750000000, 15.953125000000, 12.453125000000, 1491905482
0.037353515625, -0.743164062500, 0.630126953125, 11.343750000000, 15.953125000000, 12.453125000000, 1491905482
0.037353515625, -0.743164062500, 0.630126953125, 11.343750000000, 15.953125000000, 12.453125000000, 1491905483
0.037353515625, -0.743164062500, 0.630126953125, 11.343750000000, 15.953125000000, 12.453125000000, 1491905483
-0.018310546875, -0.800048828125, 0.477294921875, 2.687500000000, 20.742187500000, 5.968750000000, 1491905483
-0.018310546875, -0.800048828125, 0.477294921875, 2.687500000000, 20.742187500000, 5.968750000000, 1491905483
-0.018310546875, -0.800048828125, 0.477294921875, 2.687500000000, 20.742187500000, 5.968750000000, 1491905483
0.065185546875, -1.081542968750, 0.673583984375, 16.539062500000, 0.992187500000, -1.257812500000, 1491905483
0.065185546875, -1.081542968750, 0.673583984375, 16.539062500000, 0.992187500000, -1.257812500000, 1491905483
0.065185546875, -1.081542968750, 0.673583984375, 16.539062500000, 0.992187500000, -1.257812500000, 1491905483
0.018798828125, -0.961914062500, 0.605224609375, 2.406250000000, 18.726562500000, -12.546875000000, 1491905483
0.018798828125, -0.961914062500, 0.605224609375, 2.406250000000, 18.726562500000, -12.546875000000, 1491905483
0.078857421875, -0.854248046875, 0.293945312500, -18.125000000000, 5.320312500000, -5.093750000000, 1491905483
0.078857421875, -0.854248046875, 0.293945312500, -18.125000000000, 5.320312500000, -5.093750000000, 1491905483
0.078857421875, -0.854248046875, 0.293945312500, -18.125000000000, 5.320312500000, -5.093750000000, 1491905483
0.036865234375, -0.952392578125, 0.384277343750, -5.351562500000, 2.078125000000, -13.437500000000, 1491905483
0.090332031250, -0.932373046875, 0.303466796875, -2.992187500000, -7.835937500000, -13.476562500000, 1491905483
0.090332031250, -0.932373046875, 0.303466796875, -2.992187500000, -7.835937500000, -13.476562500000, 1491905483
0.090332031250, -0.932373046875, 0.303466796875, -2.992187500000, -7.835937500000, -13.476562500000, 1491905483
0.122070312500, -0.926025390625, 0.305419921875, 3.875000000000, -13.437500000000, -17.796875000000, 1491905483
-0.062988281250, -0.966064453125, 0.512939453125, -2.265625000000, 9.242187500000, 2.781250000000, 1491905483
-0.063232421875, -0.906005859375, 0.435302734375, -5.914062500000, 5.726562500000, 4.765625000000, 1491905483
-0.063232421875, -0.906005859375, 0.435302734375, -5.914062500000, 5.726562500000, 4.765625000000, 1491905483
-0.063232421875, -0.906005859375, 0.435302734375, -5.914062500000, 5.726562500000, 4.765625000000, 1491905483
-0.063232421875, -0.906005859375, 0.435302734375, -5.914062500000, 5.726562500000, 4.765625000000, 1491905483
-0.017578125000, -0.856445312500, 0.362548828125, -9.906250000000, 11.890625000000, 3.421875000000, 1491905483
-0.062988281250, -0.741455078125, 0.427734375000, -9.906250000000, 11.890625000000, 3.421875000000, 1491905483
-0.062988281250, -0.741455078125, 0.427734375000, -9.906250000000, 11.890625000000, 3.421875000000, 1491905483
-0.062988281250, -0.741455078125, 0.427734375000, -9.906250000000, 11.890625000000, 3.421875000000, 1491905483
-0.062988281250, -0.741455078125, 0.427734375000, -9.906250000000, 11.890625000000, 3.421875000000, 1491905483
-0.062988281250, -0.741455078125, 0.427734375000, -9.906250000000, 11.890625000000, 3.421875000000, 1491905483
-0.062988281250, -0.741455078125, 0.427734375000, -9.906250000000, 11.890625000000, 3.421875000000, 1491905483
-0.062988281250, -0.741455078125, 0.427734375000, -9.906250000000, 11.890625000000, 3.421875000000, 1491905483
-0.022460937500, -0.890869140625, 0.471435546875, -1.187500000000, 15.164062500000, -0.210937500000, 1491905483
-0.022460937500, -0.890869140625, 0.471435546875, -1.187500000000, 15.164062500000, -0.210937500000, 1491905483
-0.022460937500, -0.890869140625, 0.471435546875, -1.187500000000, 15.164062500000, -0.210937500000, 1491905483
-0.022460937500, -0.890869140625, 0.471435546875, -1.187500000000, 15.164062500000, -0.210937500000, 1491905483
-0.022460937500, -0.890869140625, 0.471435546875, -1.187500000000, 15.164062500000, -0.210937500000, 1491905483
-0.022460937500, -0.890869140625, 0.471435546875, -1.187500000000, 15.164062500000, -0.210937500000, 1491905483
-0.031005859375, -0.884521484375, 0.435791015625, -12.046875000000, 21.304687500000, 5.617187500000, 1491905483
-0.031005859375, -0.884521484375, 0.435791015625, -12.046875000000, 21.304687500000, 5.617187500000, 1491905483
-0.031005859375, -0.884521484375, 0.435791015625, -12.046875000000, 21.304687500000, 5.617187500000, 1491905483
-0.031005859375, -0.884521484375, 0.435791015625, -12.046875000000, 21.304687500000, 5.617187500000, 1491905483
-0.023437500000, -0.815185546875, 0.489746093750, -6.593750000000, 18.992187500000, 10.695312500000, 1491905483
-0.023437500000, -0.815185546875, 0.489746093750, -6.593750000000, 18.992187500000, 10.695312500000, 1491905483
-0.023437500000, -0.815185546875, 0.489746093750, -6.593750000000, 18.992187500000, 10.695312500000, 1491905483
