ACC_X,ACC_Y,ACC_Z,G_X,G_Y,G_Z,Unix Time
-0.083251953125, -0.957031250000, 0.410888671875, -19.250000000000, 1.093750000000, -9.375000000000, 1491906650
-0.083251953125, -0.957031250000, 0.410888671875, -19.250000000000, 1.093750000000, -9.375000000000, 1491906650
-0.083251953125, -0.957031250000, 0.410888671875, -19.250000000000, 1.093750000000, -9.375000000000, 1491906650
-0.010253906250, -0.900146484375, 0.286376953125, -16.484375000000, -1.531250000000, -10.320312500000, 1491906650
-0.010253906250, -0.900146484375, 0.286376953125, -16.484375000000, -1.531250000000, -10.320312500000, 1491906650
-0.010253906250, -0.900146484375, 0.286376953125, -16.484375000000, -1.531250000000, -10.320312500000, 1491906650
-0.043457031250, -0.871582031250, 0.445312500000, -2.140625000000, -6.835937500000, -8.046875000000, 1491906650
-0.043457031250, -0.871582031250, 0.445312500000, -2.140625000000, -6.835937500000, -8.046875000000, 1491906650
-0.043457031250, -0.871582031250, 0.445312500000, -2.140625000000, -6.835937500000, -8.046875000000, 1491906650
-0.043457031250, -0.871582031250, 0.445312500000, -2.140625000000, -6.835937500000, -8.046875000000, 1491906650
-0.000732421875, -0.914062500000, 0.411621093750, -0.046875000000, -10.742187500000, -6.851562500000, 1491906650
-0.000732421875, -0.914062500000, 0.411621093750, -0.046875000000, -10.742187500000, -6.851562500000, 1491906650
-0.000732421875, -0.914062500000, 0.411621093750, -0.046875000000, -10.742187500000, -6.851562500000, 1491906650
-0.000732421875, -0.914062500000, 0.411621093750, -0.046875000000, -10.742187500000, -6.851562500000, 1491906650
-0.017822265625, -0.906982421875, 0.344970703125, 4.031250000000, -8.632812500000, -4.007812500000, 1491906650
-0.017822265625, -0.906982421875, 0.344970703125, 4.031250000000, -8.632812500000, -4.007812500000, 1491906650
-0.017822265625, -0.906982421875, 0.344970703125, 4.031250000000, -8.632812500000, -4.007812500000, 1491906650
-0.017822265625, -0.906982421875, 0.344970703125, 4.031250000000, -8.632812500000, -4.007812500000, 1491906650
-0.017822265625, -0.906982421875, 0.344970703125, 4.031250000000, -8.632812500000, -4.007812500000, 1491906650
0.066894531250, -0.997558593750, 0.463623046875, 1.078125000000, -4.132812500000, -4.203125000000, 1491906650
0.066894531250, -0.997558593750, 0.463623046875, 1.078125000000, -4.132812500000, -4.203125000000, 1491906650
0.066894531250, -0.997558593750, 0.463623046875, 1.078125000000, -4.132812500000, -4.203125000000, 1491906650
0.066894531250, -0.997558593750, 0.463623046875, 1.078125000000, -4.132812500000, -4.203125000000, 1491906650
0.126953125000, -0.881103515625, 0.310058593750, 1.992187500000, -4.718750000000, -2.015625000000, 1491906650
0.126953125000, -0.881103515625, 0.310058593750, 1.992187500000, -4.718750000000, -2.015625000000, 1491906650
0.126953125000, -0.881103515625, 0.310058593750, 1.992187500000, -4.718750000000, -2.015625000000, 1491906650
0.032958984375, -1.009277343750, 0.373535156250, 4.359375000000, 0.468750000000, 0.937500000000, 1491906650
0.032958984375, -1.009277343750, 0.373535156250, 4.359375000000, 0.468750000000, 0.937500000000, 1491906650
0.032958984375, -1.009277343750, 0.373535156250, 4.359375000000, 0.468750000000, 0.937500000000, 1491906650
0.032958984375, -1.009277343750, 0.373535156250, 4.359375000000, 0.468750000000, 0.937500000000, 1491906650
-0.011962890625, -0.902832031250, 0.356933593750, 1.492187500000, 4.898437500000, -0.812500000000, 1491906650
-0.011962890625, -0.902832031250, 0.356933593750, 1.492187500000, 4.898437500000, -0.812500000000, 1491906650
-0.011962890625, -0.902832031250, 0.356933593750, 1.492187500000, 4.898437500000, -0.812500000000, 1491906650
-0.011962890625, -0.902832031250, 0.356933593750, 1.492187500000, 4.898437500000, -0.812500000000, 1491906650
-0.000000000000, -0.870605468750, 0.345458984375, 6.187500000000, 6.937500000000, -0.468750000000, 1491906650
-0.000000000000, -0.870605468750, 0.345458984375, 6.187500000000, 6.937500000000, -0.468750000000, 1491906650
-0.000000000000, -0.870605468750, 0.345458984375, 6.187500000000, 6.937500000000, -0.468750000000, 1491906650
-0.000000000000, -0.870605468750, 0.345458984375, 6.187500000000, 6.937500000000, -0.468750000000, 1491906650
-0.000000000000, -0.870605468750, 0.345458984375, 6.187500000000, 6.937500000000, -0.468750000000, 1491906650
0.009521484375, -0.854003906250, 0.389892578125, 15.898437500000, -4.437500000000, 5.851562500000, 1491906650
0.009521484375, -0.854003906250, 0.389892578125, 15.898437500000, -4.437500000000, 5.851562500000, 1491906650
0.009521484375, -0.854003906250, 0.389892578125, 15.898437500000, -4.437500000000, 5.851562500000, 1491906650
0.009521484375, -0.854003906250, 0.389892578125, 15.898437500000, -4.437500000000, 5.851562500000, 1491906650
0.000488281250, -0.874755859375, 0.430175781250, 29.710937500000, 2.500000000000, 10.304687500000, 1491906651
0.000488281250, -0.874755859375, 0.430175781250, 29.710937500000, 2.500000000000, 10.304687500000, 1491906651
0.000488281250, -0.874755859375, 0.430175781250, 29.710937500000, 2.500000000000, 10.304687500000, 1491906651
0.000488281250, -0.874755859375, 0.430175781250, 29.710937500000, 2.500000000000, 10.304687500000, 1491906651
0.064941406250, -0.801269531250, 0.236816406250, 41.210937500000, 10.578125000000, 17.242187500000, 1491906651
0.064941406250, -0.801269531250, 0.236816406250, 41.210937500000, 10.578125000000, 17.242187500000, 1491906651
0.064941406250, -0.801269531250, 0.236816406250, 41.210937500000, 10.578125000000, 17.242187500000, 1491906651
0.064941406250, -0.801269531250, 0.236816406250, 41.210937500000, 10.578125000000, 17.242187500000, 1491906651
-0.147949218750, -0.440429687500, 0.146972656250, 81.468750000000, 41.585937500000, 12.992187500000, 1491906651
-0.147949218750, -0.440429687500, 0.146972656250, 81.468750000000, 41.585937500000, 12.992187500000, 1491906651
-0.147949218750, -0.440429687500, 0.146972656250, 81.468750000000, 41.585937500000, 12.992187500000, 1491906651
-0.147949218750, -0.440429687500, 0.146972656250, 81.468750000000, 41.585937500000, 12.992187500000, 1491906651
0.067382812500, -0.198242187500, -0.009033203125, 82.742187500000, 41.125000000000, -35.601562500000, 1491906651
0.207031250000, -0.591796875000, -0.102294921875, 43.257812500000, 24.843750000000, -38.671875000000, 1491906651
0.207031250000, -0.591796875000, -0.102294921875, 43.257812500000, 24.843750000000, -38.671875000000, 1491906651
0.207031250000, -0.591796875000, -0.102294921875, 43.257812500000, 24.843750000000, -38.671875000000, 1491906651
0.207031250000, -0.591796875000, -0.102294921875, 43.257812500000, 24.843750000000, -38.671875000000, 1491906651
0.331787109375, -1.712402343750, -0.129882812500, -141.023437500000, -55.804687500000, 59.140625000000, 1491906651
0.331787109375, -1.712402343750, -0.129882812500, -141.023437500000, -55.804687500000, 59.140625000000, 1491906651
0.331787109375, -1.712402343750, -0.129882812500, -141.023437500000, -55.804687500000, 59.140625000000, 1491906651
0.331787109375, -1.712402343750, -0.129882812500, -141.023437500000, -55.804687500000, 59.140625000000, 1491906651
0.331787109375, -1.712402343750, -0.129882812500, -141.023437500000, -55.804687500000, 59.140625000000, 1491906651
0.558349609375, -3.143310546875, 0.062500000000, -98.359375000000, -13.937500000000, -20.976562500000, 1491906651
0.558349609375, -3.143310546875, 0.062500000000, -98.359375000000, -13.937500000000, -20.976562500000, 1491906651
0.191162109375, -0.597167968750, 0.186279296875, -41.671875000000, 137.906250000000, -33.351562500000, 1491906651
0.191162109375, -0.597167968750, 0.186279296875, -41.671875000000, 137.906250000000, -33.351562500000, 1491906651
0.191162109375, -0.597167968750, 0.186279296875, -41.671875000000, 137.906250000000, -33.351562500000, 1491906651
0.191162109375, -0.597167968750, 0.186279296875, -41.671875000000, 137.906250000000, -33.351562500000, 1491906651
0.191162109375, -0.597167968750, 0.186279296875, -41.671875000000, 137.906250000000, -33.351562500000, 1491906651
0.191162109375, -0.597167968750, 0.186279296875, -41.671875000000, 137.906250000000, -33.351562500000, 1491906651
-0.061767578125, 0.182617187500, 0.059082031250, -84.968750000000, 109.601562500000, -60.289062500000, 1491906651
-0.061767578125, 0.182617187500, 0.059082031250, -84.968750000000, 109.601562500000, -60.289062500000, 1491906651
-0.061767578125, 0.182617187500, 0.059082031250, -84.968750000000, 109.601562500000, -60.289062500000, 1491906651
-0.061767578125, 0.182617187500, 0.059082031250, -84.968750000000, 109.601562500000, -60.289062500000, 1491906651
-0.061767578125, 0.182617187500, 0.059082031250, -84.968750000000, 109.601562500000, -60.289062500000, 1491906651
-0.061767578125, 0.182617187500, 0.059082031250, -84.968750000000, 109.601562500000, -60.289062500000, 1491906651
-0.061767578125, 0.182617187500, 0.059082031250, -84.968750000000, 109.601562500000, -60.289062500000, 1491906651
-0.061767578125, 0.182617187500, 0.059082031250, -84.968750000000, 109.601562500000, -60.289062500000, 1491906651
-0.061767578125, 0.182617187500, 0.059082031250, -84.968750000000, 109.601562500000, -60.289062500000, 1491906651
-0.039550781250, 0.110107421875, 0.063232421875, -19.851562500000, -57.820312500000, -27.507812500000, 1491906651
-0.003417968750, -0.027099609375, 0.091796875000, -53.539062500000, -50.984375000000, -13.531250000000, 1491906651
-0.002929687500, 0.025634765625, 0.067871093750, -111.250000000000, -25.882812500000, -11.140625000000, 1491906651
-0.002929687500, 0.025634765625, 0.067871093750, -111.250000000000, -25.882812500000, -11.140625000000, 1491906651
-0.002929687500, 0.025634765625, 0.067871093750, -111.250000000000, -25.882812500000, -11.140625000000, 1491906651
-0.002929687500, 0.025634765625, 0.067871093750, -111.250000000000, -25.882812500000, -11.140625000000, 1491906651
-0.002929687500, 0.025634765625, 0.067871093750, -111.250000000000, -25.882812500000, -11.140625000000, 1491906651
-0.002929687500, 0.025634765625, 0.067871093750, -111.250000000000, -25.882812500000, -11.140625000000, 1491906651
0.014404296875, -0.072998046875, 0.000976562500, -220.132812500000, 0.906250000000, 28.617187500000, 1491906651
0.014404296875, -0.072998046875, 0.000976562500, -220.132812500000, 0.906250000000, 28.617187500000, 1491906651
0.014404296875, -0.072998046875, 0.000976562500, -220.132812500000, 0.906250000000, 28.617187500000, 1491906651
0.014404296875, -0.072998046875, 0.000976562500, -220.132812500000, 0.906250000000, 28.617187500000, 1491906651
0.014404296875, -0.072998046875, 0.000976562500, -220.132812500000, 0.906250000000, 28.617187500000, 1491906651
-0.022705078125, -0.066162109375, 0.077392578125, -87.929687500000, -184.171875000000, 1.429687500000, 1491906651
-0.022705078125, -0.066162109375, 0.077392578125, -87.929687500000, -184.171875000000, 1.429687500000, 1491906651
-0.022705078125, -0.066162109375, 0.077392578125, -87.929687500000, -184.171875000000, 1.429687500000, 1491906651
-0.022705078125, -0.066162109375, 0.077392578125, -87.929687500000, -184.171875000000, 1.429687500000, 1491906651
-0.024169921875, -0.193359375000, -0.020019531250, -84.570312500000, -73.148437500000, 6.757812500000, 1491906651
-0.024169921875, -0.193359375000, -0.020019531250, -84.570312500000, -73.148437500000, 6.757812500000, 1491906651
0.068847656250, 0.020507812500, 0.027587890625, -94.726562500000, -15.601562500000, 28.710937500000, 1491906651
0.031250000000, -0.023925781250, 0.005126953125, -91.289062500000, 8.093750000000, 29.703125000000, 1491906651
0.031250000000, -0.023925781250, 0.005126953125, -91.289062500000, 8.093750000000, 29.703125000000, 1491906651
0.031250000000, -0.023925781250, 0.005126953125, -91.289062500000, 8.093750000000, 29.703125000000, 1491906651
0.031250000000, -0.023925781250, 0.005126953125, -91.289062500000, 8.093750000000, 29.703125000000, 1491906651
0.031250000000, -0.023925781250, 0.005126953125, -91.289062500000, 8.093750000000, 29.703125000000, 1491906651
0.031250000000, -0.023925781250, 0.005126953125, -82.031250000000, 20.640625000000, 30.710937500000, 1491906651
0.229003906250, -1.007568359375, -0.157958984375, -149.882812500000, -78.812500000000, -94.703125000000, 1491906651
0.229003906250, -1.007568359375, -0.157958984375, -149.882812500000, -78.812500000000, -94.703125000000, 1491906651
0.229003906250, -1.007568359375, -0.157958984375, -149.882812500000, -78.812500000000, -94.703125000000, 1491906651
0.229003906250, -1.007568359375, -0.157958984375, -149.882812500000, -78.812500000000, -94.703125000000, 1491906651
0.839843750000, -4.225341796875, -0.543945312500, 253.992187500000, 253.992187500000, -42.070312500000, 1491906652
0.839843750000, -4.225341796875, -0.543945312500, 253.992187500000, 253.992187500000, -42.070312500000, 1491906652
0.839843750000, -4.225341796875, -0.543945312500, 253.992187500000, 253.992187500000, -42.070312500000, 1491906652
0.839843750000, -4.225341796875, -0.543945312500, 253.992187500000, 253.992187500000, -42.070312500000, 1491906652
-0.763427734375, -3.451416015625, 2.639160156250, -143.296875000000, -256.000000000000, 161.929687500000, 1491906652
0.555908203125, -1.791992187500, 0.457763671875, -256.000000000000, 43.750000000000, 27.125000000000, 1491906652
0.555908203125, -1.791992187500, 0.457763671875, -256.000000000000, 43.750000000000, 27.125000000000, 1491906652
0.450439453125, -1.557128906250, 0.052978515625, -256.000000000000, 188.851562500000, -51.078125000000, 1491906652
0.248535156250, -1.016601562500, -0.254882812500, 124.570312500000, 253.992187500000, -86.062500000000, 1491906652
0.248535156250, -1.016601562500, -0.254882812500, 124.570312500000, 253.992187500000, -86.062500000000, 1491906652
0.248535156250, -1.016601562500, -0.254882812500, 124.570312500000, 253.992187500000, -86.062500000000, 1491906652
0.248535156250, -1.016601562500, -0.254882812500, 124.570312500000, 253.992187500000, -86.062500000000, 1491906652
-0.198486328125, -0.959228515625, 0.528808593750, 70.585937500000, -45.367187500000, -31.367187500000, 1491906652
-0.198486328125, -0.959228515625, 0.528808593750, 70.585937500000, -45.367187500000, -31.367187500000, 1491906652
-0.066650390625, -0.864013671875, 0.343261718750, -25.750000000000, -18.726562500000, -18.398437500000, 1491906652
-0.066650390625, -0.864013671875, 0.343261718750, -25.750000000000, -18.726562500000, -18.398437500000, 1491906652
-0.066650390625, -0.864013671875, 0.343261718750, -25.750000000000, -18.726562500000, -18.398437500000, 1491906652
0.058105468750, -0.548828125000, 0.194091796875, -6.593750000000, 139.179687500000, -63.593750000000, 1491906652
-0.140625000000, -0.459472656250, 0.257324218750, 8.476562500000, 4.640625000000, -10.359375000000, 1491906652
-0.140625000000, -0.459472656250, 0.257324218750, 8.476562500000, 4.640625000000, -10.359375000000, 1491906652
-0.140625000000, -0.459472656250, 0.257324218750, 8.476562500000, 4.640625000000, -10.359375000000, 1491906652
-0.010498046875, -0.527832031250, 0.199951171875, -10.921875000000, 0.406250000000, -8.867187500000, 1491906652
0.022949218750, -0.487304687500, 0.122802734375, -13.117187500000, -4.281250000000, -8.789062500000, 1491906652
0.022949218750, -0.487304687500, 0.122802734375, -13.117187500000, -4.281250000000, -8.789062500000, 1491906652
0.022949218750, -0.487304687500, 0.122802734375, -13.117187500000, -4.281250000000, -8.789062500000, 1491906652
0.022949218750, -0.487304687500, 0.122802734375, -13.117187500000, -4.281250000000, -8.789062500000, 1491906652
0.022949218750, -0.487304687500, 0.122802734375, -13.117187500000, -4.281250000000, -8.789062500000, 1491906652
-0.049804687500, -0.876220703125, 0.168457031250, -6.234375000000, -29.921875000000, -5.765625000000, 1491906652
-0.049804687500, -0.876220703125, 0.168457031250, -6.234375000000, -29.921875000000, -5.765625000000, 1491906652
-0.049804687500, -0.876220703125, 0.168457031250, -6.234375000000, -29.921875000000, -5.765625000000, 1491906652
-0.049804687500, -0.876220703125, 0.168457031250, -6.234375000000, -29.921875000000, -5.765625000000, 1491906652
-0.049804687500, -0.876220703125, 0.168457031250, -6.234375000000, -29.921875000000, -5.765625000000, 1491906652
-0.039794921875, -1.191894531250, 0.359619140625, -48.968750000000, -17.398437500000, -7.882812500000, 1491906652
-0.039794921875, -1.191894531250, 0.359619140625, -48.968750000000, -17.398437500000, -7.882812500000, 1491906652
-0.039794921875, -1.191894531250, 0.359619140625, -48.968750000000, -17.398437500000, -7.882812500000, 1491906652
-0.039794921875, -1.191894531250, 0.359619140625, -48.968750000000, -17.398437500000, -7.882812500000, 1491906652
-0.039794921875, -1.191894531250, 0.359619140625, -48.968750000000, -17.398437500000, -7.882812500000, 1491906652
-0.067871093750, -0.694335937500, 0.011718750000, 24.265625000000, 55.765625000000, -16.476562500000, 1491906652
-0.067871093750, -0.694335937500, 0.011718750000, 24.265625000000, 55.765625000000, -16.476562500000, 1491906652
-0.067871093750, -0.694335937500, 0.011718750000, 24.265625000000, 55.765625000000, -16.476562500000, 1491906652
-0.067871093750, -0.694335937500, 0.011718750000, 24.265625000000, 55.765625000000, -16.476562500000, 1491906652
-0.067871093750, -0.694335937500, 0.011718750000, 24.265625000000, 55.765625000000, -16.476562500000, 1491906652
-0.175292968750, -0.873535156250, 0.181152343750, 35.562500000000, -22.187500000000, -5.656250000000, 1491906652
-0.175292968750, -0.873535156250, 0.181152343750, 35.562500000000, -22.187500000000, -5.656250000000, 1491906652
-0.175292968750, -0.873535156250, 0.181152343750, 35.562500000000, -22.187500000000, -5.656250000000, 1491906652
0.001708984375, -0.992919921875, 0.239990234375, -32.882812500000, 39.664062500000, -15.632812500000, 1491906652
-0.152587890625, -1.004882812500, 0.226806640625, -33.429687500000, 61.000000000000, -21.054687500000, 1491906652
-0.152587890625, -1.004882812500, 0.226806640625, -33.429687500000, 61.000000000000, -21.054687500000, 1491906652
-0.050048828125, -0.843505859375, 0.181152343750, -28.539062500000, 55.179687500000, -17.093750000000, 1491906652
-0.050048828125, -0.843505859375, 0.181152343750, -28.539062500000, 55.179687500000, -17.093750000000, 1491906652
-0.050048828125, -0.843505859375, 0.181152343750, -28.539062500000, 55.179687500000, -17.093750000000, 1491906652
-0.050048828125, -0.843505859375, 0.181152343750, -28.539062500000, 55.179687500000, -17.093750000000, 1491906652
-0.050048828125, -0.843505859375, 0.181152343750, -28.539062500000, 55.179687500000, -17.093750000000, 1491906652
-0.049072265625, -1.020507812500, 0.284667968750, 6.507812500000, -37.960937500000, 4.054687500000, 1491906652
-0.049072265625, -1.020507812500, 0.284667968750, 6.507812500000, -37.960937500000, 4.054687500000, 1491906652
-0.049072265625, -1.020507812500, 0.284667968750, 6.507812500000, -37.960937500000, 4.054687500000, 1491906652
-0.049072265625, -1.020507812500, 0.284667968750, 6.507812500000, -37.960937500000, 4.054687500000, 1491906652
-0.049072265625, -1.020507812500, 0.284667968750, 6.507812500000, -37.960937500000, 4.054687500000, 1491906652
0.020507812500, -0.909667968750, 0.330810546875, -9.882812500000, 5.390625000000, -10.437500000000, 1491906652
0.020507812500, -0.909667968750, 0.330810546875, -9.882812500000, 5.390625000000, -10.437500000000, 1491906652
0.020507812500, -0.909667968750, 0.330810546875, -9.882812500000, 5.390625000000, -10.437500000000, 1491906652
-0.018554687500, -0.945556640625, 0.285644531250, -4.687500000000, -10.125000000000, -1.171875000000, 1491906652
-0.018554687500, -0.945556640625, 0.285644531250, -4.687500000000, -10.125000000000, -1.171875000000, 1491906652
-0.018554687500, -0.945556640625, 0.285644531250, -4.687500000000, -10.125000000000, -1.171875000000, 1491906652
-0.018554687500, -0.945556640625, 0.285644531250, -4.687500000000, -10.125000000000, -1.171875000000, 1491906652
-0.050537109375, -1.013916015625, 0.379638671875, 2.492187500000, 15.656250000000, -3.234375000000, 1491906652
-0.050537109375, -1.013916015625, 0.379638671875, 2.492187500000, 15.656250000000, -3.234375000000, 1491906653
-0.050537109375, -1.013916015625, 0.379638671875, 2.492187500000, 15.656250000000, -3.234375000000, 1491906653
-0.088867187500, -0.930175781250, 0.230712890625, -3.546875000000, -2.757812500000, -3.875000000000, 1491906653
-0.088867187500, -0.930175781250, 0.230712890625, -3.546875000000, -2.757812500000, -3.875000000000, 1491906653
-0.088867187500, -0.930175781250, 0.230712890625, -3.546875000000, -2.757812500000, -3.875000000000, 1491906653
-0.023193359375, -0.852539062500, 0.314941406250, -1.382812500000, -2.117187500000, -3.445312500000, 1491906653
-0.023193359375, -0.852539062500, 0.314941406250, -1.382812500000, -2.117187500000, -3.445312500000, 1491906653
-0.023193359375, -0.852539062500, 0.314941406250, -1.382812500000, -2.117187500000, -3.445312500000, 1491906653
0.010986328125, -0.916015625000, 0.328857421875, -3.164062500000, -2.335937500000, -6.351562500000, 1491906653
0.010986328125, -0.916015625000, 0.328857421875, -3.164062500000, -2.335937500000, -6.351562500000, 1491906653
0.010986328125, -0.916015625000, 0.328857421875, -3.164062500000, -2.335937500000, -6.351562500000, 1491906653
0.010986328125, -0.916015625000, 0.328857421875, -3.164062500000, -2.335937500000, -6.351562500000, 1491906653
-0.073974609375, -0.970947265625, 0.292236328125, -1.984375000000, 8.796875000000, -1.234375000000, 1491906653
-0.073974609375, -0.970947265625, 0.292236328125, -1.984375000000, 8.796875000000, -1.234375000000, 1491906653
-0.073974609375, -0.970947265625, 0.292236328125, -1.984375000000, 8.796875000000, -1.234375000000, 1491906653
-0.073974609375, -0.970947265625, 0.292236328125, -1.984375000000, 8.796875000000, -1.234375000000, 1491906653
0.012695312500, -1.002441406250, 0.325439453125, -8.921875000000, 8.960937500000, -1.617187500000, 1491906653
-0.047851562500, -1.006835937500, 0.339843750000, -8.093750000000, 3.343750000000, -0.039062500000, 1491906653
-0.047851562500, -1.006835937500, 0.339843750000, -8.093750000000, 3.343750000000, -0.039062500000, 1491906653
-0.047851562500, -1.006835937500, 0.339843750000, -8.093750000000, 3.343750000000, -0.039062500000, 1491906653
-0.047851562500, -1.006835937500, 0.339843750000, -8.093750000000, 3.343750000000, -0.039062500000, 1491906653
-0.041992187500, -0.924316406250, 0.298583984375, -6.054687500000, 2.531250000000, -2.148437500000, 1491906653
-0.041992187500, -0.924316406250, 0.298583984375, -6.054687500000, 2.531250000000, -2.148437500000, 1491906653
-0.041992187500, -0.924316406250, 0.298583984375, -6.054687500000, 2.531250000000, -2.148437500000, 1491906653
-0.041992187500, -0.924316406250, 0.298583984375, -6.054687500000, 2.531250000000, -2.148437500000, 1491906653
-0.028076171875, -0.965576171875, 0.234619140625, -5.960937500000, -0.101562500000, -1.273437500000, 1491906653
-0.037109375000, -0.962890625000, 0.319091796875, -4.664062500000, 5.140625000000, -1.437500000000, 1491906653
-0.037109375000, -0.962890625000, 0.319091796875, -4.664062500000, 5.140625000000, -1.437500000000, 1491906653
-0.037109375000, -0.962890625000, 0.319091796875, -4.664062500000, 5.140625000000, -1.437500000000, 1491906653
-0.037109375000, -0.962890625000, 0.319091796875, -4.664062500000, 5.140625000000, -1.437500000000, 1491906653
0.010498046875, -1.001708984375, 0.234375000000, -10.054687500000, 6.289062500000, -1.156250000000, 1491906653
0.010498046875, -1.001708984375, 0.234375000000, -10.054687500000, 6.289062500000, -1.156250000000, 1491906653
0.010498046875, -1.001708984375, 0.234375000000, -10.054687500000, 6.289062500000, -1.156250000000, 1491906653
0.010498046875, -1.001708984375, 0.234375000000, -10.054687500000, 6.289062500000, -1.156250000000, 1491906653
-0.093017578125, -1.025390625000, 0.273681640625, -4.296875000000, -0.250000000000, -1.664062500000, 1491906653
-0.093017578125, -1.025390625000, 0.273681640625, -4.296875000000, -0.250000000000, -1.664062500000, 1491906653
-0.093017578125, -1.025390625000, 0.273681640625, -4.296875000000, -0.250000000000, -1.664062500000, 1491906653
-0.093017578125, -1.025390625000, 0.273681640625, -4.296875000000, -0.250000000000, -1.664062500000, 1491906653
-0.040039062500, -0.873535156250, 0.302490234375, -1.414062500000, -0.617187500000, -4.835937500000, 1491906653
-0.040039062500, -0.873535156250, 0.302490234375, -1.414062500000, -0.617187500000, -4.835937500000, 1491906653
-0.040039062500, -0.873535156250, 0.302490234375, -1.414062500000, -0.617187500000, -4.835937500000, 1491906653
-0.041503906250, -0.918945312500, 0.285400390625, -4.656250000000, 0.164062500000, -1.875000000000, 1491906653
-0.049072265625, -1.018798828125, 0.233642578125, -3.101562500000, 0.320312500000, -2.976562500000, 1491906653
-0.049072265625, -1.018798828125, 0.233642578125, -3.101562500000, 0.320312500000, -2.976562500000, 1491906653
-0.049072265625, -1.018798828125, 0.233642578125, -3.101562500000, 0.320312500000, -2.976562500000, 1491906653
-0.049072265625, -1.018798828125, 0.233642578125, -3.335937500000, -2.210937500000, -4.085937500000, 1491906653
0.025634765625, -1.022460937500, 0.324951171875, -3.828125000000, -2.601562500000, -2.500000000000, 1491906653
0.025634765625, -1.022460937500, 0.324951171875, -3.828125000000, -2.601562500000, -2.500000000000, 1491906653
0.025634765625, -1.022460937500, 0.324951171875, -3.828125000000, -2.601562500000, -2.500000000000, 1491906653
0.025634765625, -1.022460937500, 0.324951171875, -3.828125000000, -2.601562500000, -2.500000000000, 1491906653
0.025634765625, -1.022460937500, 0.324951171875, -3.828125000000, -2.601562500000, -2.500000000000, 1491906653
-0.050781250000, -0.861328125000, 0.237304687500, -4.101562500000, 2.640625000000, -1.429687500000, 1491906653
-0.050781250000, -0.861328125000, 0.237304687500, -4.101562500000, 2.640625000000, -1.429687500000, 1491906653
-0.050781250000, -0.861328125000, 0.237304687500, -4.101562500000, 2.640625000000, -1.429687500000, 1491906653
0.004394531250, -0.994140625000, 0.331054687500, -5.515625000000, -1.070312500000, -6.179687500000, 1491906653
0.021972656250, -0.921386718750, 0.324218750000, -7.085937500000, -2.554687500000, -5.250000000000, 1491906653
0.021972656250, -0.921386718750, 0.324218750000, -7.085937500000, -2.554687500000, -5.250000000000, 1491906653
-0.077880859375, -0.928710937500, 0.242675781250, -4.523437500000, -4.343750000000, -6.703125000000, 1491906653
-0.077880859375, -0.928710937500, 0.242675781250, -4.523437500000, -4.343750000000, -6.703125000000, 1491906653
-0.077880859375, -0.928710937500, 0.242675781250, -4.523437500000, -4.343750000000, -6.703125000000, 1491906653
-0.077880859375, -0.928710937500, 0.242675781250, -4.523437500000, -4.343750000000, -6.703125000000, 1491906653
-0.077880859375, -0.928710937500, 0.242675781250, -4.523437500000, -4.343750000000, -6.703125000000, 1491906653
-0.077880859375, -0.928710937500, 0.242675781250, -4.523437500000, -4.343750000000, -6.703125000000, 1491906653
-0.077880859375, -0.928710937500, 0.242675781250, -4.523437500000, -4.343750000000, -6.703125000000, 1491906653
-0.009033203125, -0.971435546875, 0.304199218750, -3.484375000000, -1.195312500000, -6.023437500000, 1491906654
0.030029296875, -0.933593750000, 0.292968750000, -3.484375000000, -1.195312500000, -6.023437500000, 1491906654
0.030029296875, -0.933593750000, 0.292968750000, -3.484375000000, -1.195312500000, -6.023437500000, 1491906654
0.030029296875, -0.933593750000, 0.292968750000, -3.484375000000, -1.195312500000, -6.023437500000, 1491906654
0.030029296875, -0.933593750000, 0.292968750000, -3.484375000000, -1.195312500000, -6.023437500000, 1491906654
0.030029296875, -0.933593750000, 0.292968750000, -3.484375000000, -1.195312500000, -6.023437500000, 1491906654
0.015625000000, -0.951416015625, 0.284179687500, -8.062500000000, 2.773437500000, -3.320312500000, 1491906654
-0.068115234375, -0.903808593750, 0.235351562500, -3.828125000000, -1.203125000000, -5.007812500000, 1491906654
-0.068115234375, -0.903808593750, 0.235351562500, -3.828125000000, -1.203125000000, -5.007812500000, 1491906654
-0.068115234375, -0.903808593750, 0.235351562500, -3.828125000000, -1.203125000000, -5.007812500000, 1491906654
-0.068115234375, -0.903808593750, 0.235351562500, -3.828125000000, -1.203125000000, -5.007812500000, 1491906654
0.023925781250, -0.968750000000, 0.247802734375, -5.093750000000, 2.382812500000, -4.179687500000, 1491906654
-0.041259765625, -1.081054687500, 0.297851562500, -5.093750000000, 2.382812500000, -4.179687500000, 1491906654
-0.041259765625, -1.081054687500, 0.297851562500, -5.093750000000, 2.382812500000, -4.179687500000, 1491906654
-0.041259765625, -1.081054687500, 0.297851562500, -6.273437500000, 2.867187500000, -6.312500000000, 1491906654
-0.041503906250, -0.927001953125, 0.239501953125, -2.960937500000, -1.257812500000, -2.289062500000, 1491906654
-0.041503906250, -0.927001953125, 0.239501953125, -2.960937500000, -1.257812500000, -2.289062500000, 1491906654
-0.041503906250, -0.927001953125, 0.239501953125, -2.960937500000, -1.257812500000, -2.289062500000, 1491906654
-0.041503906250, -0.927001953125, 0.239501953125, -2.960937500000, -1.257812500000, -2.289062500000, 1491906654
-0.071044921875, -1.022216796875, 0.239013671875, -3.375000000000, -0.492187500000, -3.101562500000, 1491906654
-0.071044921875, -1.022216796875, 0.239013671875, -3.375000000000, -0.492187500000, -3.101562500000, 1491906654
-0.071044921875, -1.022216796875, 0.239013671875, -3.375000000000, -0.492187500000, -3.101562500000, 1491906654
0.001464843750, -0.873046875000, 0.335937500000, 0.835937500000, 0.031250000000, 0.070312500000, 1491906654
0.016601562500, -0.898681640625, 0.228271484375, 0.835937500000, 0.031250000000, 0.070312500000, 1491906654
0.016601562500, -0.898681640625, 0.228271484375, 0.835937500000, 0.031250000000, 0.070312500000, 1491906654
0.016601562500, -0.898681640625, 0.228271484375, 0.835937500000, 0.031250000000, 0.070312500000, 1491906654
0.016601562500, -0.898681640625, 0.228271484375, 0.835937500000, 0.031250000000, 0.070312500000, 1491906654
-0.046875000000, -0.967529296875, 0.378417968750, -1.851562500000, -2.593750000000, 0.156250000000, 1491906654
-0.059082031250, -1.016113281250, 0.289550781250, -4.515625000000, -2.250000000000, -3.515625000000, 1491906654
-0.059082031250, -1.016113281250, 0.289550781250, -4.515625000000, -2.250000000000, -3.515625000000, 1491906654
-0.059082031250, -1.016113281250, 0.289550781250, -4.515625000000, -2.250000000000, -3.515625000000, 1491906654
-0.059082031250, -1.016113281250, 0.289550781250, -4.515625000000, -2.250000000000, -3.515625000000, 1491906654
-0.014892578125, -0.966796875000, 0.313720703125, -4.921875000000, -1.070312500000, -1.226562500000, 1491906654
-0.014892578125, -0.966796875000, 0.313720703125, -4.921875000000, -1.070312500000, -1.226562500000, 1491906654
-0.014892578125, -0.966796875000, 0.313720703125, -4.921875000000, -1.070312500000, -1.226562500000, 1491906654
0.024414062500, -0.934082031250, 0.236328125000, -4.718750000000, -3.625000000000, -4.148437500000, 1491906654
0.024414062500, -0.934082031250, 0.236328125000, -4.718750000000, -3.625000000000, -4.148437500000, 1491906654
0.024414062500, -0.934082031250, 0.236328125000, -4.718750000000, -3.625000000000, -4.148437500000, 1491906654
0.024414062500, -0.934082031250, 0.236328125000, -4.718750000000, -3.625000000000, -4.148437500000, 1491906654
0.024414062500, -0.934082031250, 0.236328125000, -4.718750000000, -3.625000000000, -4.148437500000, 1491906654
0.013671875000, -1.003662109375, 0.289550781250, -3.179687500000, -1.843750000000, -3.875000000000, 1491906654
0.001464843750, -1.024658203125, 0.231201171875, -3.070312500000, 0.664062500000, -3.414062500000, 1491906654
0.001464843750, -1.024658203125, 0.231201171875, -3.070312500000, 0.664062500000, -3.414062500000, 1491906654
0.001464843750, -1.024658203125, 0.231201171875, -3.070312500000, 0.664062500000, -3.414062500000, 1491906654
0.001464843750, -1.024658203125, 0.231201171875, -6.890625000000, -2.078125000000, -4.445312500000, 1491906654
0.020263671875, -0.962890625000, 0.236083984375, -2.867187500000, 1.195312500000, -3.953125000000, 1491906654
0.020263671875, -0.962890625000, 0.236083984375, -2.867187500000, 1.195312500000, -3.953125000000, 1491906654
0.020263671875, -0.962890625000, 0.236083984375, -2.867187500000, 1.195312500000, -3.953125000000, 1491906654
-0.081054687500, -0.913818359375, 0.285888671875, -4.203125000000, -4.437500000000, -3.976562500000, 1491906654
-0.081054687500, -0.913818359375, 0.285888671875, -4.203125000000, -4.437500000000, -3.976562500000, 1491906654
-0.081054687500, -0.913818359375, 0.285888671875, -4.203125000000, -4.437500000000, -3.976562500000, 1491906654
-0.081054687500, -0.913818359375, 0.285888671875, -4.203125000000, -4.437500000000, -3.976562500000, 1491906654
