ACC_X,ACC_Y,ACC_Z,G_X,G_Y,G_Z,Unix Time
-0.030761718750, -1.016113281250, 0.391113281250, 11.320312500000, 5.781250000000, -9.414062500000, 1491906270
-0.030761718750, -1.016113281250, 0.391113281250, 11.320312500000, 5.781250000000, -9.414062500000, 1491906270
0.010986328125, -1.299072265625, 0.290039062500, -18.585937500000, -17.742187500000, -19.929687500000, 1491906271
0.010986328125, -1.299072265625, 0.290039062500, -18.585937500000, -17.742187500000, -19.929687500000, 1491906271
0.010986328125, -1.299072265625, 0.290039062500, -18.585937500000, -17.742187500000, -19.929687500000, 1491906271
-0.158691406250, -1.441406250000, 0.321533203125, -23.820312500000, -20.617187500000, -19.382812500000, 1491906271
-0.158691406250, -1.441406250000, 0.321533203125, -23.820312500000, -20.617187500000, -19.382812500000, 1491906271
-0.158691406250, -1.441406250000, 0.321533203125, -23.820312500000, -20.617187500000, -19.382812500000, 1491906271
-0.158691406250, -1.441406250000, 0.321533203125, -23.820312500000, -20.617187500000, -19.382812500000, 1491906271
-0.158691406250, -1.441406250000, 0.321533203125, -23.820312500000, -20.617187500000, -19.382812500000, 1491906271
-0.158691406250, -1.441406250000, 0.321533203125, -23.820312500000, -20.617187500000, -19.382812500000, 1491906271
-0.193359375000, -0.865722656250, -0.067871093750, -5.257812500000, -36.195312500000, -8.109375000000, 1491906271
-0.193359375000, -0.865722656250, -0.067871093750, -5.257812500000, -36.195312500000, -8.109375000000, 1491906271
-0.193359375000, -0.865722656250, -0.067871093750, -5.257812500000, -36.195312500000, -8.109375000000, 1491906271
-0.054931640625, -0.757080078125, -0.105712890625, -2.148437500000, -44.031250000000, -11.648437500000, 1491906271
-0.054931640625, -0.757080078125, -0.105712890625, -2.148437500000, -44.031250000000, -11.648437500000, 1491906271
-0.085449218750, -1.212646484375, 0.204833984375, 11.460937500000, -22.437500000000, 1.789062500000, 1491906271
-0.085449218750, -1.212646484375, 0.204833984375, 11.460937500000, -22.437500000000, 1.789062500000, 1491906271
-0.085449218750, -1.212646484375, 0.204833984375, 11.460937500000, -22.437500000000, 1.789062500000, 1491906271
-0.085449218750, -1.212646484375, 0.204833984375, 11.460937500000, -22.437500000000, 1.789062500000, 1491906271
-0.085449218750, -1.212646484375, 0.204833984375, 11.460937500000, -22.437500000000, 1.789062500000, 1491906271
-0.079101562500, -1.000244140625, 0.089843750000, -2.757812500000, -52.585937500000, 20.992187500000, 1491906271
-0.079101562500, -1.000244140625, 0.089843750000, -2.757812500000, -52.585937500000, 20.992187500000, 1491906271
-0.079101562500, -1.000244140625, 0.089843750000, -2.757812500000, -52.585937500000, 20.992187500000, 1491906271
-0.075683593750, -0.860595703125, 0.206054687500, -1.875000000000, -7.195312500000, 8.726562500000, 1491906271
-0.075683593750, -0.860595703125, 0.206054687500, -1.875000000000, -7.195312500000, 8.726562500000, 1491906271
-0.075683593750, -0.860595703125, 0.206054687500, -1.875000000000, -7.195312500000, 8.726562500000, 1491906271
-0.145996093750, -0.895507812500, 0.257568359375, -19.156250000000, -36.265625000000, 9.695312500000, 1491906271
-0.145996093750, -0.895507812500, 0.257568359375, -19.156250000000, -36.265625000000, 9.695312500000, 1491906271
-0.145996093750, -0.895507812500, 0.257568359375, -19.156250000000, -36.265625000000, 9.695312500000, 1491906271
-0.090332031250, -0.856689453125, 0.268310546875, -18.843750000000, -19.960937500000, 3.632812500000, 1491906271
-0.090332031250, -0.856689453125, 0.268310546875, -18.843750000000, -19.960937500000, 3.632812500000, 1491906271
-0.039306640625, -0.920898437500, 0.306884765625, -21.625000000000, -16.492187500000, 6.242187500000, 1491906271
-0.039306640625, -0.920898437500, 0.306884765625, -21.625000000000, -16.492187500000, 6.242187500000, 1491906271
-0.039306640625, -0.920898437500, 0.306884765625, -21.625000000000, -16.492187500000, 6.242187500000, 1491906271
-0.039306640625, -0.920898437500, 0.306884765625, -21.625000000000, -16.492187500000, 6.242187500000, 1491906271
-0.073242187500, -0.992187500000, 0.229492187500, -19.812500000000, -12.390625000000, 5.351562500000, 1491906271
-0.039550781250, -0.910156250000, 0.188232421875, -19.812500000000, -12.390625000000, 5.351562500000, 1491906271
-0.039550781250, -0.910156250000, 0.188232421875, -19.812500000000, -12.390625000000, 5.351562500000, 1491906271
-0.039550781250, -0.910156250000, 0.188232421875, -19.812500000000, -12.390625000000, 5.351562500000, 1491906271
0.012207031250, -0.995849609375, 0.382568359375, -4.796875000000, 15.164062500000, 8.078125000000, 1491906271
0.012207031250, -0.995849609375, 0.382568359375, -4.796875000000, 15.164062500000, 8.078125000000, 1491906271
0.012207031250, -0.995849609375, 0.382568359375, -4.796875000000, 15.164062500000, 8.078125000000, 1491906271
0.023437500000, -1.249511718750, 0.361572265625, -39.226562500000, 27.070312500000, -1.375000000000, 1491906271
0.023437500000, -1.249511718750, 0.361572265625, -39.226562500000, 27.070312500000, -1.375000000000, 1491906271
0.023437500000, -1.249511718750, 0.361572265625, -39.226562500000, 27.070312500000, -1.375000000000, 1491906271
0.023437500000, -1.249511718750, 0.361572265625, -39.226562500000, 27.070312500000, -1.375000000000, 1491906271
-0.021728515625, -1.323730468750, 0.392822265625, -28.281250000000, 15.734375000000, -5.304687500000, 1491906271
-0.021728515625, -1.323730468750, 0.392822265625, -28.281250000000, 15.734375000000, -5.304687500000, 1491906271
-0.021728515625, -1.323730468750, 0.392822265625, -28.281250000000, 15.734375000000, -5.304687500000, 1491906271
0.143798828125, -0.765136718750, 0.037841796875, -22.234375000000, -10.500000000000, -0.960937500000, 1491906271
0.143798828125, -0.765136718750, 0.037841796875, -22.234375000000, -10.500000000000, -0.960937500000, 1491906271
0.143798828125, -0.765136718750, 0.037841796875, -22.234375000000, -10.500000000000, -0.960937500000, 1491906271
0.197753906250, -0.693603515625, 0.028808593750, -8.570312500000, 15.992187500000, -5.382812500000, 1491906271
0.197753906250, -0.693603515625, 0.028808593750, -8.570312500000, 15.992187500000, -5.382812500000, 1491906271
0.251953125000, -0.679687500000, -0.026611328125, -14.093750000000, 33.835937500000, -13.781250000000, 1491906271
0.057861328125, -0.958740234375, 0.257324218750, 13.960937500000, 20.242187500000, -13.539062500000, 1491906271
0.057861328125, -0.958740234375, 0.257324218750, 13.960937500000, 20.242187500000, -13.539062500000, 1491906271
0.057861328125, -0.958740234375, 0.257324218750, 13.960937500000, 20.242187500000, -13.539062500000, 1491906271
0.057861328125, -0.958740234375, 0.257324218750, 13.960937500000, 20.242187500000, -13.539062500000, 1491906271
-0.077880859375, -0.908691406250, 0.282714843750, 3.078125000000, 54.960937500000, -24.187500000000, 1491906271
-0.077880859375, -0.908691406250, 0.282714843750, 3.078125000000, 54.960937500000, -24.187500000000, 1491906271
-0.077880859375, -0.908691406250, 0.282714843750, 3.078125000000, 54.960937500000, -24.187500000000, 1491906271
-0.077880859375, -0.908691406250, 0.282714843750, 3.078125000000, 54.960937500000, -24.187500000000, 1491906271
-0.039550781250, -0.821289062500, 0.225585937500, 2.554687500000, 0.656250000000, -21.757812500000, 1491906271
-0.039550781250, -0.821289062500, 0.225585937500, 2.554687500000, 0.656250000000, -21.757812500000, 1491906271
-0.039550781250, -0.821289062500, 0.225585937500, 2.554687500000, 0.656250000000, -21.757812500000, 1491906271
-0.039550781250, -0.821289062500, 0.225585937500, 2.554687500000, 0.656250000000, -21.757812500000, 1491906271
-0.039550781250, -0.821289062500, 0.225585937500, 2.554687500000, 0.656250000000, -21.757812500000, 1491906271
0.077392578125, -0.855957031250, 0.403076171875, 1.140625000000, 0.648437500000, -16.546875000000, 1491906272
0.077392578125, -0.855957031250, 0.403076171875, 1.140625000000, 0.648437500000, -16.546875000000, 1491906272
0.070068359375, -0.943847656250, 0.345214843750, 2.132812500000, 13.117187500000, -12.984375000000, 1491906272
0.070068359375, -0.943847656250, 0.345214843750, 2.132812500000, 13.117187500000, -12.984375000000, 1491906272
0.070068359375, -0.943847656250, 0.345214843750, 2.132812500000, 13.117187500000, -12.984375000000, 1491906272
0.070068359375, -0.943847656250, 0.345214843750, 2.132812500000, 13.117187500000, -12.984375000000, 1491906272
0.070068359375, -0.943847656250, 0.345214843750, 2.132812500000, 13.117187500000, -12.984375000000, 1491906272
0.141601562500, -0.869873046875, 0.377441406250, 6.085937500000, 10.820312500000, -6.859375000000, 1491906272
0.141601562500, -0.869873046875, 0.377441406250, 6.085937500000, 10.820312500000, -6.859375000000, 1491906272
0.141601562500, -0.869873046875, 0.377441406250, 6.085937500000, 10.820312500000, -6.859375000000, 1491906272
-0.155517578125, -0.958251953125, 0.313720703125, 10.218750000000, 15.921875000000, -9.242187500000, 1491906272
-0.155517578125, -0.958251953125, 0.313720703125, 10.218750000000, 15.921875000000, -9.242187500000, 1491906272
-0.155517578125, -0.958251953125, 0.313720703125, 10.218750000000, 15.921875000000, -9.242187500000, 1491906272
-0.016601562500, -0.998779296875, 0.354492187500, -7.453125000000, -11.187500000000, -4.484375000000, 1491906272
-0.016601562500, -0.998779296875, 0.354492187500, -7.453125000000, -11.187500000000, -4.484375000000, 1491906272
-0.016601562500, -0.998779296875, 0.354492187500, -7.453125000000, -11.187500000000, -4.484375000000, 1491906272
-0.016601562500, -0.998779296875, 0.354492187500, -7.453125000000, -11.187500000000, -4.484375000000, 1491906272
-0.062988281250, -1.112792968750, 0.313232421875, -11.507812500000, -24.046875000000, -8.101562500000, 1491906272
-0.101562500000, -1.035644531250, 0.044189453125, -11.648437500000, -35.421875000000, 0.210937500000, 1491906272
-0.101562500000, -1.035644531250, 0.044189453125, -11.648437500000, -35.421875000000, 0.210937500000, 1491906272
-0.101562500000, -1.035644531250, 0.044189453125, -11.648437500000, -35.421875000000, 0.210937500000, 1491906272
-0.101562500000, -1.035644531250, 0.044189453125, -11.648437500000, -35.421875000000, 0.210937500000, 1491906272
-0.101562500000, -1.035644531250, 0.044189453125, -11.648437500000, -35.421875000000, 0.210937500000, 1491906272
-0.141357421875, -0.833251953125, -0.071533203125, 9.578125000000, -36.664062500000, -3.531250000000, 1491906272
-0.141357421875, -0.833251953125, -0.071533203125, 9.578125000000, -36.664062500000, -3.531250000000, 1491906272
-0.125244140625, -0.732666015625, -0.064453125000, 0.226562500000, -56.765625000000, -4.945312500000, 1491906272
-0.015380859375, -0.986572265625, 0.147216796875, 13.070312500000, -45.585937500000, -3.382812500000, 1491906272
-0.015380859375, -0.986572265625, 0.147216796875, 13.070312500000, -45.585937500000, -3.382812500000, 1491906272
-0.015380859375, -0.986572265625, 0.147216796875, 13.070312500000, -45.585937500000, -3.382812500000, 1491906272
-0.072998046875, -0.987548828125, 0.062500000000, -13.179687500000, -84.210937500000, 7.523437500000, 1491906272
-0.072998046875, -0.987548828125, 0.062500000000, -13.179687500000, -84.210937500000, 7.523437500000, 1491906272
-0.072998046875, -0.987548828125, 0.062500000000, -13.179687500000, -84.210937500000, 7.523437500000, 1491906272
-0.090576171875, -0.986572265625, 0.071289062500, -9.601562500000, -78.664062500000, 15.640625000000, 1491906272
-0.090576171875, -0.986572265625, 0.071289062500, -9.601562500000, -78.664062500000, 15.640625000000, 1491906272
-0.122070312500, -0.802246093750, 0.169921875000, -13.445312500000, -27.859375000000, 2.492187500000, 1491906272
-0.122070312500, -0.802246093750, 0.169921875000, -13.445312500000, -27.859375000000, 2.492187500000, 1491906272
-0.122070312500, -0.802246093750, 0.169921875000, -13.445312500000, -27.859375000000, 2.492187500000, 1491906272
-0.122070312500, -0.802246093750, 0.169921875000, -13.445312500000, -27.859375000000, 2.492187500000, 1491906272
-0.122070312500, -0.802246093750, 0.169921875000, -13.445312500000, -27.859375000000, 2.492187500000, 1491906272
-0.079589843750, -0.862304687500, 0.316162109375, -8.539062500000, -32.640625000000, 4.054687500000, 1491906272
-0.079589843750, -0.862304687500, 0.316162109375, -8.539062500000, -32.640625000000, 4.054687500000, 1491906272
-0.079589843750, -0.862304687500, 0.316162109375, -8.539062500000, -32.640625000000, 4.054687500000, 1491906272
-0.079589843750, -0.862304687500, 0.316162109375, -8.539062500000, -32.640625000000, 4.054687500000, 1491906272
-0.038818359375, -1.065429687500, 0.313476562500, -8.429687500000, -34.039062500000, 3.601562500000, 1491906272
-0.038818359375, -1.065429687500, 0.313476562500, -8.429687500000, -34.039062500000, 3.601562500000, 1491906272
-0.038818359375, -1.065429687500, 0.313476562500, -8.429687500000, -34.039062500000, 3.601562500000, 1491906272
-0.045166015625, -0.967285156250, 0.385498046875, -13.734375000000, -13.851562500000, 1.695312500000, 1491906272
-0.045166015625, -0.967285156250, 0.385498046875, -13.734375000000, -13.851562500000, 1.695312500000, 1491906272
-0.045166015625, -0.967285156250, 0.385498046875, -13.734375000000, -13.851562500000, 1.695312500000, 1491906272
-0.036376953125, -0.920410156250, 0.229248046875, -14.718750000000, -12.820312500000, 4.460937500000, 1491906272
-0.036376953125, -0.920410156250, 0.229248046875, -14.718750000000, -12.820312500000, 4.460937500000, 1491906272
0.007568359375, -1.087402343750, 0.361816406250, -8.648437500000, 14.117187500000, 0.992187500000, 1491906272
0.007568359375, -1.087402343750, 0.361816406250, -8.648437500000, 14.117187500000, 0.992187500000, 1491906272
0.007568359375, -1.087402343750, 0.361816406250, -8.648437500000, 14.117187500000, 0.992187500000, 1491906272
0.007568359375, -1.087402343750, 0.361816406250, -8.648437500000, 14.117187500000, 0.992187500000, 1491906272
0.007568359375, -1.087402343750, 0.361816406250, -8.648437500000, 14.117187500000, 0.992187500000, 1491906272
-0.174316406250, -1.110595703125, 0.296630859375, -28.937500000000, 16.515625000000, -10.382812500000, 1491906272
-0.174316406250, -1.110595703125, 0.296630859375, -28.937500000000, 16.515625000000, -10.382812500000, 1491906272
-0.174316406250, -1.110595703125, 0.296630859375, -28.937500000000, 16.515625000000, -10.382812500000, 1491906272
-0.037597656250, -1.189941406250, 0.312011718750, -16.335937500000, 17.320312500000, -20.625000000000, 1491906272
-0.037597656250, -1.189941406250, 0.312011718750, -16.335937500000, 17.320312500000, -20.625000000000, 1491906272
-0.037597656250, -1.189941406250, 0.312011718750, -16.335937500000, 17.320312500000, -20.625000000000, 1491906272
0.093750000000, -0.936035156250, 0.334960937500, -12.929687500000, -21.101562500000, -10.289062500000, 1491906272
0.093750000000, -0.936035156250, 0.334960937500, -12.929687500000, -21.101562500000, -10.289062500000, 1491906272
0.093750000000, -0.936035156250, 0.334960937500, -12.929687500000, -21.101562500000, -10.289062500000, 1491906272
0.243652343750, -0.879882812500, 0.126464843750, -22.960937500000, -14.609375000000, -11.109375000000, 1491906272
0.243652343750, -0.879882812500, 0.126464843750, -22.960937500000, -14.609375000000, -11.109375000000, 1491906272
0.066894531250, -0.958984375000, 0.193359375000, 7.375000000000, 25.093750000000, -19.617187500000, 1491906273
0.066894531250, -0.958984375000, 0.193359375000, 7.375000000000, 25.093750000000, -19.617187500000, 1491906273
0.066894531250, -0.958984375000, 0.193359375000, 7.375000000000, 25.093750000000, -19.617187500000, 1491906273
0.066894531250, -0.958984375000, 0.193359375000, 7.375000000000, 25.093750000000, -19.617187500000, 1491906273
0.323730468750, -0.988525390625, 0.230468750000, 13.601562500000, 5.070312500000, -6.734375000000, 1491906273
0.323730468750, -0.988525390625, 0.230468750000, 13.601562500000, 5.070312500000, -6.734375000000, 1491906273
0.323730468750, -0.988525390625, 0.230468750000, 13.601562500000, 5.070312500000, -6.734375000000, 1491906273
0.323730468750, -0.988525390625, 0.230468750000, 13.601562500000, 5.070312500000, -6.734375000000, 1491906273
0.057128906250, -0.908691406250, 0.383544921875, 32.515625000000, 41.648437500000, -1.351562500000, 1491906273
0.057128906250, -0.908691406250, 0.383544921875, 32.515625000000, 41.648437500000, -1.351562500000, 1491906273
0.057128906250, -0.908691406250, 0.383544921875, 32.515625000000, 41.648437500000, -1.351562500000, 1491906273
0.020019531250, -0.837402343750, 0.174316406250, 5.070312500000, 32.773437500000, -17.757812500000, 1491906273
0.020019531250, -0.837402343750, 0.174316406250, 5.070312500000, 32.773437500000, -17.757812500000, 1491906273
0.020019531250, -0.837402343750, 0.174316406250, 5.070312500000, 32.773437500000, -17.757812500000, 1491906273
0.020019531250, -0.837402343750, 0.174316406250, 5.070312500000, 32.773437500000, -17.757812500000, 1491906273
0.035156250000, -0.796142578125, 0.171630859375, 16.578125000000, 15.632812500000, -13.140625000000, 1491906273
0.035156250000, -0.796142578125, 0.171630859375, 16.578125000000, 15.632812500000, -13.140625000000, 1491906273
-0.007080078125, -1.063964843750, 0.247070312500, 14.960937500000, 25.164062500000, -12.023437500000, 1491906273
-0.007080078125, -1.063964843750, 0.247070312500, 14.960937500000, 25.164062500000, -12.023437500000, 1491906273
-0.007080078125, -1.063964843750, 0.247070312500, 14.960937500000, 25.164062500000, -12.023437500000, 1491906273
-0.007080078125, -1.063964843750, 0.247070312500, 14.960937500000, 25.164062500000, -12.023437500000, 1491906273
0.025878906250, -1.010498046875, 0.220458984375, 5.695312500000, 11.304687500000, -4.320312500000, 1491906273
0.025878906250, -1.010498046875, 0.220458984375, 5.695312500000, 11.304687500000, -4.320312500000, 1491906273
0.025878906250, -1.010498046875, 0.220458984375, 5.695312500000, 11.304687500000, -4.320312500000, 1491906273
-0.057128906250, -0.925781250000, 0.272949218750, -0.812500000000, 10.132812500000, -6.585937500000, 1491906273
-0.057128906250, -0.925781250000, 0.272949218750, -0.812500000000, 10.132812500000, -6.585937500000, 1491906273
-0.057128906250, -0.925781250000, 0.272949218750, -0.812500000000, 10.132812500000, -6.585937500000, 1491906273
-0.057128906250, -0.925781250000, 0.272949218750, -0.812500000000, 10.132812500000, -6.585937500000, 1491906273
-0.052978515625, -0.988525390625, 0.229003906250, 3.773437500000, 10.101562500000, -6.609375000000, 1491906273
-0.052978515625, -0.988525390625, 0.229003906250, 3.773437500000, 10.101562500000, -6.609375000000, 1491906273
-0.052978515625, -0.988525390625, 0.229003906250, 3.773437500000, 10.101562500000, -6.609375000000, 1491906273
-0.149414062500, -1.023193359375, 0.330322265625, 0.734375000000, -1.687500000000, -6.257812500000, 1491906273
-0.149414062500, -1.023193359375, 0.330322265625, 0.734375000000, -1.687500000000, -6.257812500000, 1491906273
-0.191406250000, -1.229003906250, 0.247558593750, -15.382812500000, -15.757812500000, -12.210937500000, 1491906273
-0.191406250000, -1.229003906250, 0.247558593750, -15.382812500000, -15.757812500000, -12.210937500000, 1491906273
-0.191406250000, -1.229003906250, 0.247558593750, -15.382812500000, -15.757812500000, -12.210937500000, 1491906273
-0.191406250000, -1.229003906250, 0.247558593750, -15.382812500000, -15.757812500000, -12.210937500000, 1491906273
-0.124267578125, -0.937988281250, -0.003662109375, -21.039062500000, -77.960937500000, -13.929687500000, 1491906273
-0.124267578125, -0.937988281250, -0.003662109375, -21.039062500000, -77.960937500000, -13.929687500000, 1491906273
-0.124267578125, -0.937988281250, -0.003662109375, -21.039062500000, -77.960937500000, -13.929687500000, 1491906273
-0.124267578125, -0.937988281250, -0.003662109375, -21.039062500000, -77.960937500000, -13.929687500000, 1491906273
-0.155761718750, -0.716308593750, -0.199707031250, 14.156250000000, -93.429687500000, -5.070312500000, 1491906273
-0.155761718750, -0.716308593750, -0.199707031250, 14.156250000000, -93.429687500000, -5.070312500000, 1491906273
-0.155761718750, -0.716308593750, -0.199707031250, 14.156250000000, -93.429687500000, -5.070312500000, 1491906273
-0.015869140625, -1.127685546875, 0.114501953125, 41.257812500000, -29.171875000000, -20.976562500000, 1491906273
-0.015869140625, -1.127685546875, 0.114501953125, 41.257812500000, -29.171875000000, -20.976562500000, 1491906273
-0.015869140625, -1.127685546875, 0.114501953125, 41.257812500000, -29.171875000000, -20.976562500000, 1491906273
0.125488281250, -1.276855468750, 0.340576171875, 62.710937500000, 13.773437500000, -26.414062500000, 1491906273
0.097167968750, -1.000976562500, 0.139892578125, 20.562500000000, -10.851562500000, -3.031250000000, 1491906273
0.097167968750, -1.000976562500, 0.139892578125, 20.562500000000, -10.851562500000, -3.031250000000, 1491906273
0.097167968750, -1.000976562500, 0.139892578125, 20.562500000000, -10.851562500000, -3.031250000000, 1491906273
0.097167968750, -1.000976562500, 0.139892578125, 20.562500000000, -10.851562500000, -3.031250000000, 1491906273
0.097167968750, -1.000976562500, 0.139892578125, 20.562500000000, -10.851562500000, -3.031250000000, 1491906273
0.097167968750, -1.000976562500, 0.139892578125, 20.562500000000, -10.851562500000, -3.031250000000, 1491906273
-0.025146484375, -0.805908203125, 0.252441406250, 20.148437500000, -2.414062500000, -3.468750000000, 1491906273
-0.025146484375, -0.805908203125, 0.252441406250, 20.148437500000, -2.414062500000, -3.468750000000, 1491906273
-0.210693359375, -0.924804687500, 0.110839843750, -28.054687500000, -85.375000000000, 1.460937500000, 1491906273
-0.210693359375, -0.924804687500, 0.110839843750, -28.054687500000, -85.375000000000, 1.460937500000, 1491906273
-0.210693359375, -0.924804687500, 0.110839843750, -28.054687500000, -85.375000000000, 1.460937500000, 1491906273
-0.210693359375, -0.924804687500, 0.110839843750, -28.054687500000, -85.375000000000, 1.460937500000, 1491906273
-0.065185546875, -1.018066406250, 0.169433593750, -5.015625000000, -29.320312500000, -5.710937500000, 1491906273
-0.065185546875, -1.018066406250, 0.169433593750, -5.015625000000, -29.320312500000, -5.710937500000, 1491906273
-0.065185546875, -1.018066406250, 0.169433593750, -5.015625000000, -29.320312500000, -5.710937500000, 1491906273
-0.188232421875, -0.981201171875, 0.203369140625, -8.750000000000, -5.875000000000, -6.750000000000, 1491906273
-0.188232421875, -0.981201171875, 0.203369140625, -8.750000000000, -5.875000000000, -6.750000000000, 1491906273
-0.188232421875, -0.981201171875, 0.203369140625, -8.750000000000, -5.875000000000, -6.750000000000, 1491906273
-0.188232421875, -0.981201171875, 0.203369140625, -8.750000000000, -5.875000000000, -6.750000000000, 1491906273
-0.046875000000, -1.064208984375, 0.220214843750, 1.023437500000, 4.882812500000, -3.546875000000, 1491906274
-0.046875000000, -1.064208984375, 0.220214843750, 1.023437500000, 4.882812500000, -3.546875000000, 1491906274
-0.046875000000, -1.064208984375, 0.220214843750, 1.023437500000, 4.882812500000, -3.546875000000, 1491906274
-0.143066406250, -1.086181640625, 0.338867187500, -6.148437500000, 14.859375000000, -5.351562500000, 1491906274
-0.143066406250, -1.086181640625, 0.338867187500, -6.148437500000, 14.859375000000, -5.351562500000, 1491906274
-0.144042968750, -1.327636718750, 0.300537109375, -24.515625000000, 8.601562500000, -11.453125000000, 1491906274
-0.144042968750, -1.327636718750, 0.300537109375, -24.515625000000, 8.601562500000, -11.453125000000, 1491906274
-0.144042968750, -1.327636718750, 0.300537109375, -24.515625000000, 8.601562500000, -11.453125000000, 1491906274
-0.144042968750, -1.327636718750, 0.300537109375, -24.515625000000, 8.601562500000, -11.453125000000, 1491906274
0.128173828125, -0.929199218750, 0.169677734375, 6.171875000000, 0.960937500000, -4.554687500000, 1491906274
0.128173828125, -0.929199218750, 0.169677734375, 6.171875000000, 0.960937500000, -4.554687500000, 1491906274
0.128173828125, -0.929199218750, 0.169677734375, 6.171875000000, 0.960937500000, -4.554687500000, 1491906274
0.128173828125, -0.929199218750, 0.169677734375, 6.171875000000, 0.960937500000, -4.554687500000, 1491906274
0.173095703125, -0.821777343750, 0.216064453125, -9.398437500000, 11.929687500000, -8.062500000000, 1491906274
0.173095703125, -0.821777343750, 0.216064453125, -9.398437500000, 11.929687500000, -8.062500000000, 1491906274
0.173095703125, -0.821777343750, 0.216064453125, -9.398437500000, 11.929687500000, -8.062500000000, 1491906274
0.037597656250, -0.782226562500, 0.142333984375, -15.796875000000, 24.460937500000, -13.570312500000, 1491906274
0.037597656250, -0.782226562500, 0.142333984375, -15.796875000000, 24.460937500000, -13.570312500000, 1491906274
0.037597656250, -0.782226562500, 0.142333984375, -15.796875000000, 24.460937500000, -13.570312500000, 1491906274
0.138183593750, -1.015869140625, 0.190917968750, -5.750000000000, 10.281250000000, -16.031250000000, 1491906274
0.145751953125, -1.069091796875, 0.379882812500, 30.085937500000, 40.500000000000, -0.570312500000, 1491906274
0.145751953125, -1.069091796875, 0.379882812500, 30.085937500000, 40.500000000000, -0.570312500000, 1491906274
0.145751953125, -1.069091796875, 0.379882812500, 30.085937500000, 40.500000000000, -0.570312500000, 1491906274
0.145751953125, -1.069091796875, 0.379882812500, 30.085937500000, 40.500000000000, -0.570312500000, 1491906274
-0.090576171875, -0.890136718750, 0.219482421875, -4.828125000000, 23.976562500000, -6.484375000000, 1491906274
-0.090576171875, -0.890136718750, 0.219482421875, -4.828125000000, 23.976562500000, -6.484375000000, 1491906274
-0.090576171875, -0.890136718750, 0.219482421875, -4.828125000000, 23.976562500000, -6.484375000000, 1491906274
-0.090576171875, -0.890136718750, 0.219482421875, -4.828125000000, 23.976562500000, -6.484375000000, 1491906274
-0.090576171875, -0.890136718750, 0.219482421875, -4.828125000000, 23.976562500000, -6.484375000000, 1491906274
0.143066406250, -0.848388671875, 0.156982421875, 4.296875000000, 38.773437500000, -11.851562500000, 1491906274
0.143066406250, -0.848388671875, 0.156982421875, 4.296875000000, 38.773437500000, -11.851562500000, 1491906274
0.143066406250, -0.848388671875, 0.156982421875, 4.296875000000, 38.773437500000, -11.851562500000, 1491906274
-0.013427734375, -1.011962890625, 0.228027343750, 11.671875000000, 42.625000000000, -11.140625000000, 1491906274
-0.013427734375, -1.011962890625, 0.228027343750, 11.671875000000, 42.625000000000, -11.140625000000, 1491906274
-0.013427734375, -1.011962890625, 0.228027343750, 11.671875000000, 42.625000000000, -11.140625000000, 1491906274
-0.004638671875, -0.919677734375, 0.326416015625, 6.687500000000, 40.421875000000, -12.460937500000, 1491906274
-0.004638671875, -0.919677734375, 0.326416015625, 6.687500000000, 40.421875000000, -12.460937500000, 1491906274
0.023925781250, -0.848632812500, 0.284423828125, -2.835937500000, 40.117187500000, -11.039062500000, 1491906274
0.023925781250, -0.848632812500, 0.284423828125, -2.835937500000, 40.117187500000, -11.039062500000, 1491906274
0.023925781250, -0.848632812500, 0.284423828125, -2.835937500000, 40.117187500000, -11.039062500000, 1491906274
-0.010253906250, -0.853515625000, 0.281494140625, -15.554687500000, 29.328125000000, -22.656250000000, 1491906274
-0.010253906250, -0.853515625000, 0.281494140625, -15.554687500000, 29.328125000000, -22.656250000000, 1491906274
-0.010253906250, -0.853515625000, 0.281494140625, -15.554687500000, 29.328125000000, -22.656250000000, 1491906274
-0.010253906250, -0.853515625000, 0.281494140625, -15.554687500000, 29.328125000000, -22.656250000000, 1491906274
-0.010253906250, -0.853515625000, 0.281494140625, -15.554687500000, 29.328125000000, -22.656250000000, 1491906274
-0.072753906250, -1.050537109375, 0.330810546875, -32.250000000000, 10.242187500000, -17.539062500000, 1491906274
-0.072753906250, -1.050537109375, 0.330810546875, -32.250000000000, 10.242187500000, -17.539062500000, 1491906274
-0.072753906250, -1.050537109375, 0.330810546875, -32.250000000000, 10.242187500000, -17.539062500000, 1491906274
-0.049560546875, -1.423828125000, 0.184082031250, -26.687500000000, 16.343750000000, -6.875000000000, 1491906274
-0.049560546875, -1.423828125000, 0.184082031250, -26.687500000000, 16.343750000000, -6.875000000000, 1491906274
-0.049560546875, -1.423828125000, 0.184082031250, -26.687500000000, 16.343750000000, -6.875000000000, 1491906274
-0.049560546875, -1.423828125000, 0.184082031250, -26.687500000000, 16.343750000000, -6.875000000000, 1491906274
-0.097656250000, -1.289062500000, -0.004394531250, -28.125000000000, 7.101562500000, -2.296875000000, 1491906274
-0.131347656250, -0.581298828125, 0.125976562500, -9.382812500000, -0.710937500000, 2.367187500000, 1491906274
-0.131347656250, -0.581298828125, 0.125976562500, -9.382812500000, -0.710937500000, 2.367187500000, 1491906274
-0.131347656250, -0.581298828125, 0.125976562500, -9.382812500000, -0.710937500000, 2.367187500000, 1491906274
-0.131347656250, -0.581298828125, 0.125976562500, -9.382812500000, -0.710937500000, 2.367187500000, 1491906274
-0.131347656250, -0.581298828125, 0.125976562500, -9.382812500000, -0.710937500000, 2.367187500000, 1491906274
0.081787109375, -0.806396484375, -0.040039062500, -39.031250000000, -49.351562500000, 5.640625000000, 1491906274
0.081787109375, -0.806396484375, -0.040039062500, -39.031250000000, -49.351562500000, 5.640625000000, 1491906274
-0.138916015625, -1.033691406250, 0.206787109375, -1.164062500000, 4.523437500000, 12.218750000000, 1491906274
-0.138916015625, -1.033691406250, 0.206787109375, -1.164062500000, 4.523437500000, 12.218750000000, 1491906274
-0.138916015625, -1.033691406250, 0.206787109375, -1.164062500000, 4.523437500000, 12.218750000000, 1491906274
-0.138916015625, -1.033691406250, 0.206787109375, -1.164062500000, 4.523437500000, 12.218750000000, 1491906274
-0.138916015625, -1.033691406250, 0.206787109375, -1.164062500000, 4.523437500000, 12.218750000000, 1491906274
0.078369140625, -1.051757812500, 0.272949218750, -6.148437500000, -19.898437500000, 20.015625000000, 1491906274
0.078369140625, -1.051757812500, 0.272949218750, -6.148437500000, -19.898437500000, 20.015625000000, 1491906274
0.078369140625, -1.051757812500, 0.272949218750, -6.148437500000, -19.898437500000, 20.015625000000, 1491906274
0.067871093750, -0.949462890625, 0.178955078125, -4.531250000000, -6.203125000000, 17.820312500000, 1491906275
-0.136962890625, -0.844238281250, 0.280273437500, -12.492187500000, 15.750000000000, 9.140625000000, 1491906275
-0.136962890625, -0.844238281250, 0.280273437500, -12.492187500000, 15.750000000000, 9.140625000000, 1491906275
-0.136962890625, -0.844238281250, 0.280273437500, -12.492187500000, 15.750000000000, 9.140625000000, 1491906275
-0.136962890625, -0.844238281250, 0.280273437500, -12.492187500000, 15.750000000000, 9.140625000000, 1491906275
-0.045654296875, -0.906982421875, 0.163574218750, -15.945312500000, 9.539062500000, 12.281250000000, 1491906275
-0.077636718750, -0.940673828125, 0.185302734375, -14.031250000000, 13.906250000000, 5.179687500000, 1491906275
0.017333984375, -1.021240234375, 0.259765625000, -10.507812500000, 18.398437500000, 5.890625000000, 1491906275
0.017333984375, -1.021240234375, 0.259765625000, -10.507812500000, 18.398437500000, 5.890625000000, 1491906275
0.002685546875, -0.997802734375, 0.230468750000, 6.085937500000, 34.632812500000, 6.445312500000, 1491906275
0.002685546875, -0.997802734375, 0.230468750000, 6.085937500000, 34.632812500000, 6.445312500000, 1491906275
0.002685546875, -0.997802734375, 0.230468750000, 6.085937500000, 34.632812500000, 6.445312500000, 1491906275
0.002685546875, -0.997802734375, 0.230468750000, 6.085937500000, 34.632812500000, 6.445312500000, 1491906275
0.002685546875, -0.997802734375, 0.230468750000, 6.085937500000, 34.632812500000, 6.445312500000, 1491906275
0.002685546875, -0.997802734375, 0.230468750000, 6.085937500000, 34.632812500000, 6.445312500000, 1491906275
0.002685546875, -0.997802734375, 0.230468750000, 6.085937500000, 34.632812500000, 6.445312500000, 1491906275
-0.052978515625, -1.080322265625, 0.274414062500, -5.695312500000, 44.500000000000, 3.742187500000, 1491906275
-0.052978515625, -1.080322265625, 0.274414062500, -5.695312500000, 44.500000000000, 3.742187500000, 1491906275
-0.052978515625, -1.080322265625, 0.274414062500, -5.695312500000, 44.500000000000, 3.742187500000, 1491906275
-0.107910156250, -1.102294921875, 0.337890625000, -31.945312500000, 31.578125000000, -1.882812500000, 1491906275
-0.107910156250, -1.102294921875, 0.337890625000, -31.945312500000, 31.578125000000, -1.882812500000, 1491906275
-0.107910156250, -1.102294921875, 0.337890625000, -31.945312500000, 31.578125000000, -1.882812500000, 1491906275
-0.107910156250, -1.102294921875, 0.337890625000, -31.945312500000, 31.578125000000, -1.882812500000, 1491906275
0.047119140625, -1.144775390625, 0.336425781250, -21.609375000000, 26.203125000000, 5.695312500000, 1491906275
0.047119140625, -1.144775390625, 0.336425781250, -21.609375000000, 26.203125000000, 5.695312500000, 1491906275
0.047119140625, -1.144775390625, 0.336425781250, -21.609375000000, 26.203125000000, 5.695312500000, 1491906275
0.058105468750, -0.852783203125, 0.156982421875, -6.382812500000, 21.078125000000, 12.500000000000, 1491906275
0.058105468750, -0.852783203125, 0.156982421875, -6.382812500000, 21.078125000000, 12.500000000000, 1491906275
0.058105468750, -0.852783203125, 0.156982421875, -6.382812500000, 21.078125000000, 12.500000000000, 1491906275
0.057373046875, -0.763427734375, 0.141357421875, -1.445312500000, 54.257812500000, 1.507812500000, 1491906275
0.057373046875, -0.763427734375, 0.141357421875, -1.445312500000, 54.257812500000, 1.507812500000, 1491906275
0.057373046875, -0.763427734375, 0.141357421875, -1.445312500000, 54.257812500000, 1.507812500000, 1491906275
0.192871093750, -1.028808593750, 0.216308593750, 10.843750000000, 49.460937500000, -4.500000000000, 1491906275
0.192871093750, -1.028808593750, 0.216308593750, 10.843750000000, 49.460937500000, -4.500000000000, 1491906275
0.192871093750, -1.028808593750, 0.216308593750, 10.843750000000, 49.460937500000, -4.500000000000, 1491906275
0.192871093750, -1.028808593750, 0.216308593750, 10.843750000000, 49.460937500000, -4.500000000000, 1491906275
0.207763671875, -1.127197265625, 0.263916015625, 0.976562500000, 20.703125000000, -0.343750000000, 1491906275
0.207763671875, -1.127197265625, 0.263916015625, 0.976562500000, 20.703125000000, -0.343750000000, 1491906275
0.207763671875, -1.127197265625, 0.263916015625, 0.976562500000, 20.703125000000, -0.343750000000, 1491906275
0.093017578125, -0.914550781250, 0.245361328125, 7.320312500000, 23.304687500000, -1.554687500000, 1491906275
0.093017578125, -0.914550781250, 0.245361328125, 7.320312500000, 23.304687500000, -1.554687500000, 1491906275
0.093017578125, -0.914550781250, 0.245361328125, 7.320312500000, 23.304687500000, -1.554687500000, 1491906275
0.093017578125, -0.914550781250, 0.245361328125, 7.320312500000, 23.304687500000, -1.554687500000, 1491906275
0.093017578125, -0.914550781250, 0.245361328125, 7.320312500000, 23.304687500000, -1.554687500000, 1491906275
0.093017578125, -0.914550781250, 0.245361328125, 5.578125000000, 28.898437500000, -8.218750000000, 1491906275
0.069580078125, -0.968261718750, 0.255126953125, 8.562500000000, 9.687500000000, -5.039062500000, 1491906275
0.069580078125, -0.968261718750, 0.255126953125, 8.562500000000, 9.687500000000, -5.039062500000, 1491906275
0.069580078125, -0.968261718750, 0.255126953125, 8.562500000000, 9.687500000000, -5.039062500000, 1491906275
0.069580078125, -0.968261718750, 0.255126953125, 8.562500000000, 9.687500000000, -5.039062500000, 1491906275
0.086181640625, -1.008056640625, 0.321533203125, 1.859375000000, -0.976562500000, -2.851562500000, 1491906275
0.086181640625, -1.008056640625, 0.321533203125, 1.859375000000, -0.976562500000, -2.851562500000, 1491906275
0.086181640625, -1.008056640625, 0.321533203125, 1.859375000000, -0.976562500000, -2.851562500000, 1491906275
0.146240234375, -0.959716796875, 0.284912109375, 3.023437500000, 8.476562500000, -1.968750000000, 1491906275
0.146240234375, -0.959716796875, 0.284912109375, 3.023437500000, 8.476562500000, -1.968750000000, 1491906275
0.146240234375, -0.959716796875, 0.284912109375, 3.023437500000, 8.476562500000, -1.968750000000, 1491906275
0.016845703125, -0.951904296875, 0.267822265625, 0.007812500000, -2.312500000000, -4.289062500000, 1491906275
0.016845703125, -0.951904296875, 0.267822265625, 0.007812500000, -2.312500000000, -4.289062500000, 1491906275
-0.030273437500, -0.920654296875, 0.241455078125, -1.234375000000, -20.125000000000, -8.953125000000, 1491906275
-0.030273437500, -0.920654296875, 0.241455078125, -1.234375000000, -20.125000000000, -8.953125000000, 1491906275
-0.030273437500, -0.920654296875, 0.241455078125, -1.234375000000, -20.125000000000, -8.953125000000, 1491906275
-0.000976562500, -1.022949218750, 0.270263671875, -6.218750000000, -29.234375000000, -12.609375000000, 1491906275
-0.000976562500, -1.022949218750, 0.270263671875, -6.218750000000, -29.234375000000, -12.609375000000, 1491906275
-0.000976562500, -1.022949218750, 0.270263671875, -6.218750000000, -29.234375000000, -12.609375000000, 1491906275
-0.000976562500, -1.022949218750, 0.270263671875, -6.218750000000, -29.234375000000, -12.609375000000, 1491906275
-0.000976562500, -1.022949218750, 0.270263671875, -6.218750000000, -29.234375000000, -12.609375000000, 1491906275
-0.072265625000, -1.129394531250, 0.242919921875, -11.796875000000, -36.000000000000, -17.117187500000, 1491906275
-0.072265625000, -1.129394531250, 0.242919921875, -11.796875000000, -36.000000000000, -17.117187500000, 1491906276
-0.072265625000, -1.129394531250, 0.242919921875, -11.796875000000, -36.000000000000, -17.117187500000, 1491906276
0.024902343750, -1.005615234375, 0.218017578125, -5.117187500000, -47.320312500000, -11.382812500000, 1491906276
0.024902343750, -1.005615234375, 0.218017578125, -5.117187500000, -47.320312500000, -11.382812500000, 1491906276
0.029785156250, -0.843994140625, 0.044677734375, -1.781250000000, -49.656250000000, -13.460937500000, 1491906276
-0.079833984375, -1.080322265625, 0.088867187500, -6.882812500000, -57.242187500000, -13.906250000000, 1491906276
-0.079833984375, -1.080322265625, 0.088867187500, -6.882812500000, -57.242187500000, -13.906250000000, 1491906276
-0.079833984375, -1.080322265625, 0.088867187500, -6.882812500000, -57.242187500000, -13.906250000000, 1491906276
-0.079833984375, -1.080322265625, 0.088867187500, -6.882812500000, -57.242187500000, -13.906250000000, 1491906276
-0.024902343750, -1.042480468750, 0.102783203125, 1.414062500000, -59.179687500000, -9.882812500000, 1491906276
0.000244140625, -1.153808593750, 0.045166015625, 12.898437500000, -42.015625000000, -11.007812500000, 1491906276
0.000244140625, -1.153808593750, 0.045166015625, 12.898437500000, -42.015625000000, -11.007812500000, 1491906276
0.000244140625, -1.153808593750, 0.045166015625, 12.898437500000, -42.015625000000, -11.007812500000, 1491906276
0.000244140625, -1.153808593750, 0.045166015625, 12.898437500000, -42.015625000000, -11.007812500000, 1491906276
0.000244140625, -1.153808593750, 0.045166015625, 12.898437500000, -42.015625000000, -11.007812500000, 1491906276
-0.154296875000, -1.004150390625, 0.210693359375, -2.117187500000, -39.828125000000, -13.507812500000, 1491906276
-0.154296875000, -1.004150390625, 0.210693359375, -2.117187500000, -39.828125000000, -13.507812500000, 1491906276
-0.154296875000, -1.004150390625, 0.210693359375, -2.117187500000, -39.828125000000, -13.507812500000, 1491906276
-0.143310546875, -0.946533203125, 0.191406250000, -9.578125000000, -39.773437500000, -13.898437500000, 1491906276
-0.143310546875, -0.946533203125, 0.191406250000, -9.578125000000, -39.773437500000, -13.898437500000, 1491906276
-0.143310546875, -0.946533203125, 0.191406250000, -9.578125000000, -39.773437500000, -13.898437500000, 1491906276
-0.143310546875, -0.946533203125, 0.191406250000, -9.578125000000, -39.773437500000, -13.898437500000, 1491906276
-0.134033203125, -0.991455078125, 0.210205078125, -6.703125000000, -37.890625000000, -12.531250000000, 1491906276
-0.016601562500, -1.025878906250, 0.058349609375, -5.789062500000, -23.500000000000, -9.835937500000, 1491906276
-0.016601562500, -1.025878906250, 0.058349609375, -5.789062500000, -23.500000000000, -9.835937500000, 1491906276
-0.016601562500, -1.025878906250, 0.058349609375, -5.789062500000, -23.500000000000, -9.835937500000, 1491906276
-0.016601562500, -1.025878906250, 0.058349609375, -5.789062500000, -23.500000000000, -9.835937500000, 1491906276
0.003173828125, -0.919677734375, 0.211425781250, -1.625000000000, -8.843750000000, -13.000000000000, 1491906276
0.003173828125, -0.919677734375, 0.211425781250, -1.625000000000, -8.843750000000, -13.000000000000, 1491906276
0.003173828125, -0.919677734375, 0.211425781250, -1.625000000000, -8.843750000000, -13.000000000000, 1491906276
0.003173828125, -0.919677734375, 0.211425781250, -1.625000000000, -8.843750000000, -13.000000000000, 1491906276
-0.087890625000, -1.008300781250, 0.106933593750, -6.882812500000, -8.195312500000, -4.242187500000, 1491906276
-0.087890625000, -1.008300781250, 0.106933593750, -6.882812500000, -8.195312500000, -4.242187500000, 1491906276
-0.087890625000, -1.008300781250, 0.106933593750, -6.882812500000, -8.195312500000, -4.242187500000, 1491906276
-0.087890625000, -1.008300781250, 0.106933593750, -6.882812500000, -8.195312500000, -4.242187500000, 1491906276
-0.053466796875, -0.939208984375, 0.122070312500, -10.671875000000, 4.117187500000, -2.390625000000, 1491906276
-0.053466796875, -0.939208984375, 0.122070312500, -10.671875000000, 4.117187500000, -2.390625000000, 1491906276
-0.053466796875, -0.939208984375, 0.122070312500, -10.671875000000, 4.117187500000, -2.390625000000, 1491906276
-0.108398437500, -0.925537109375, 0.258300781250, -10.687500000000, 8.304687500000, -1.273437500000, 1491906276
-0.028808593750, -1.068603515625, 0.329833984375, -13.109375000000, 19.703125000000, 2.054687500000, 1491906276
-0.028808593750, -1.068603515625, 0.329833984375, -13.109375000000, 19.703125000000, 2.054687500000, 1491906276
-0.028808593750, -1.068603515625, 0.329833984375, -13.109375000000, 19.703125000000, 2.054687500000, 1491906276
-0.028808593750, -1.068603515625, 0.329833984375, -13.109375000000, 19.703125000000, 2.054687500000, 1491906276
-0.028808593750, -1.068603515625, 0.329833984375, -13.109375000000, 19.703125000000, 2.054687500000, 1491906276
-0.053955078125, -0.939208984375, 0.253417968750, -16.156250000000, 17.585937500000, 3.578125000000, 1491906276
-0.053955078125, -0.939208984375, 0.253417968750, -16.156250000000, 17.585937500000, 3.578125000000, 1491906276
-0.053955078125, -0.939208984375, 0.253417968750, -16.156250000000, 17.585937500000, 3.578125000000, 1491906276
-0.053955078125, -0.939208984375, 0.253417968750, -16.156250000000, 17.585937500000, 3.578125000000, 1491906276
-0.055908203125, -0.873291015625, 0.168212890625, -13.156250000000, 22.484375000000, 2.195312500000, 1491906276
-0.055908203125, -0.873291015625, 0.168212890625, -13.156250000000, 22.484375000000, 2.195312500000, 1491906276
-0.055908203125, -0.873291015625, 0.168212890625, -13.156250000000, 22.484375000000, 2.195312500000, 1491906276
0.001220703125, -0.866699218750, 0.254150390625, -11.421875000000, 12.281250000000, 0.804687500000, 1491906276
0.001220703125, -0.866699218750, 0.254150390625, -11.421875000000, 12.281250000000, 0.804687500000, 1491906276
0.001220703125, -0.866699218750, 0.254150390625, -11.421875000000, 12.281250000000, 0.804687500000, 1491906276
-0.060058593750, -0.977050781250, 0.333984375000, -9.265625000000, 12.781250000000, 0.039062500000, 1491906276
-0.060058593750, -0.977050781250, 0.333984375000, -9.265625000000, 12.781250000000, 0.039062500000, 1491906276
0.019287109375, -0.918701171875, 0.384033203125, -2.515625000000, 19.218750000000, -4.656250000000, 1491906276
0.019287109375, -0.918701171875, 0.384033203125, -2.515625000000, 19.218750000000, -4.656250000000, 1491906276
0.019287109375, -0.918701171875, 0.384033203125, -2.515625000000, 19.218750000000, -4.656250000000, 1491906276
0.019287109375, -0.918701171875, 0.384033203125, -2.515625000000, 19.218750000000, -4.656250000000, 1491906276
0.019287109375, -0.918701171875, 0.384033203125, -2.515625000000, 19.218750000000, -4.656250000000, 1491906276
-0.128906250000, -1.019775390625, 0.262695312500, -1.109375000000, 12.265625000000, 0.726562500000, 1491906276
-0.128906250000, -1.019775390625, 0.262695312500, -1.109375000000, 12.265625000000, 0.726562500000, 1491906276
-0.128906250000, -1.019775390625, 0.262695312500, -1.109375000000, 12.265625000000, 0.726562500000, 1491906276
-0.058349609375, -0.915527343750, 0.182373046875, -1.960937500000, 14.976562500000, -6.125000000000, 1491906276
-0.058349609375, -0.915527343750, 0.182373046875, -1.960937500000, 14.976562500000, -6.125000000000, 1491906276
-0.058349609375, -0.915527343750, 0.182373046875, -1.960937500000, 14.976562500000, -6.125000000000, 1491906276
-0.071044921875, -0.937255859375, 0.270507812500, -4.812500000000, 10.078125000000, -2.218750000000, 1491906277
-0.071044921875, -0.937255859375, 0.270507812500, -4.812500000000, 10.078125000000, -2.218750000000, 1491906277
-0.071044921875, -0.937255859375, 0.270507812500, -4.812500000000, 10.078125000000, -2.218750000000, 1491906277
-0.053955078125, -0.982177734375, 0.181884765625, -4.703125000000, 10.890625000000, -4.625000000000, 1491906277
0.009277343750, -0.868896484375, 0.165771484375, -8.335937500000, 3.937500000000, -6.296875000000, 1491906277
0.009277343750, -0.868896484375, 0.165771484375, -8.335937500000, 3.937500000000, -6.296875000000, 1491906277
0.009277343750, -0.868896484375, 0.165771484375, -8.335937500000, 3.937500000000, -6.296875000000, 1491906277
0.009277343750, -0.868896484375, 0.165771484375, -8.335937500000, 3.937500000000, -6.296875000000, 1491906277
0.009277343750, -0.868896484375, 0.165771484375, -8.335937500000, 3.937500000000, -6.296875000000, 1491906277
0.008789062500, -1.000488281250, 0.247314453125, -3.562500000000, 4.429687500000, -4.921875000000, 1491906277
0.008789062500, -1.000488281250, 0.247314453125, -3.562500000000, 4.429687500000, -4.921875000000, 1491906277
-0.091552734375, -0.936523437500, 0.182861328125, -6.046875000000, 3.406250000000, -6.929687500000, 1491906277
-0.091552734375, -0.936523437500, 0.182861328125, -6.046875000000, 3.406250000000, -6.929687500000, 1491906277
-0.091552734375, -0.936523437500, 0.182861328125, -6.046875000000, 3.406250000000, -6.929687500000, 1491906277
0.030273437500, -0.932373046875, 0.264160156250, -3.710937500000, 1.890625000000, -3.781250000000, 1491906277
0.030273437500, -0.932373046875, 0.264160156250, -3.710937500000, 1.890625000000, -3.781250000000, 1491906277
0.030273437500, -0.932373046875, 0.264160156250, -3.710937500000, 1.890625000000, -3.781250000000, 1491906277
0.030273437500, -0.932373046875, 0.264160156250, -3.710937500000, 1.890625000000, -3.781250000000, 1491906277
0.030273437500, -0.932373046875, 0.264160156250, -3.710937500000, 1.890625000000, -3.781250000000, 1491906277
0.030273437500, -0.932373046875, 0.264160156250, -3.710937500000, 6.281250000000, -3.687500000000, 1491906277
0.004638671875, -0.862304687500, 0.232910156250, -5.398437500000, 2.828125000000, -1.648437500000, 1491906277
0.004638671875, -0.862304687500, 0.232910156250, -5.398437500000, 2.828125000000, -1.648437500000, 1491906277
0.004638671875, -0.862304687500, 0.232910156250, -5.398437500000, 2.828125000000, -1.648437500000, 1491906277
-0.029296875000, -1.022216796875, 0.259521484375, -4.125000000000, -0.851562500000, -3.148437500000, 1491906277
-0.029296875000, -1.022216796875, 0.259521484375, -4.125000000000, -0.851562500000, -3.148437500000, 1491906277
-0.029296875000, -1.022216796875, 0.259521484375, -4.125000000000, -0.851562500000, -3.148437500000, 1491906277
0.016601562500, -1.062988281250, 0.276367187500, -4.531250000000, -3.695312500000, -1.203125000000, 1491906277
-0.039550781250, -0.874755859375, 0.274414062500, -4.898437500000, -3.156250000000, -1.406250000000, 1491906277
-0.039550781250, -0.874755859375, 0.274414062500, -4.898437500000, -3.156250000000, -1.406250000000, 1491906277
-0.140625000000, -0.987792968750, 0.276855468750, -7.523437500000, -1.046875000000, -3.929687500000, 1491906277
-0.140625000000, -0.987792968750, 0.276855468750, -7.523437500000, -1.046875000000, -3.929687500000, 1491906277
-0.140625000000, -0.987792968750, 0.276855468750, -7.523437500000, -1.046875000000, -3.929687500000, 1491906277
-0.140625000000, -0.987792968750, 0.276855468750, -7.523437500000, -1.046875000000, -3.929687500000, 1491906277
-0.140625000000, -0.987792968750, 0.276855468750, -7.523437500000, -1.046875000000, -3.929687500000, 1491906277
-0.140625000000, -0.987792968750, 0.276855468750, -7.523437500000, -1.046875000000, -3.929687500000, 1491906277
-0.140625000000, -0.987792968750, 0.276855468750, -7.523437500000, -1.046875000000, -3.929687500000, 1491906277
-0.021972656250, -1.080810546875, 0.255859375000, 0.804687500000, 0.625000000000, -3.007812500000, 1491906277
-0.021972656250, -1.080810546875, 0.255859375000, 0.804687500000, 0.625000000000, -3.007812500000, 1491906277
-0.021972656250, -1.080810546875, 0.255859375000, 0.804687500000, 0.625000000000, -3.007812500000, 1491906277
-0.063476562500, -0.958740234375, 0.256347656250, -3.468750000000, -3.070312500000, -1.085937500000, 1491906277
-0.063476562500, -0.958740234375, 0.256347656250, -3.468750000000, -3.070312500000, -1.085937500000, 1491906277
-0.063476562500, -0.958740234375, 0.256347656250, -3.468750000000, -3.070312500000, -1.085937500000, 1491906277
0.025146484375, -0.986816406250, 0.169921875000, -1.968750000000, -0.414062500000, -1.671875000000, 1491906277
0.000244140625, -0.919677734375, 0.291503906250, -2.601562500000, 0.468750000000, -4.500000000000, 1491906277
0.000244140625, -0.919677734375, 0.291503906250, -2.601562500000, 0.468750000000, -4.500000000000, 1491906277
0.000244140625, -0.919677734375, 0.291503906250, -2.601562500000, 0.468750000000, -4.500000000000, 1491906277
0.000244140625, -0.919677734375, 0.291503906250, -2.601562500000, 0.468750000000, -4.500000000000, 1491906277
0.000244140625, -0.919677734375, 0.291503906250, -2.601562500000, 0.468750000000, -4.500000000000, 1491906277
0.000244140625, -0.919677734375, 0.291503906250, -2.601562500000, 0.468750000000, -4.500000000000, 1491906277
-0.002685546875, -0.925292968750, 0.291015625000, -2.351562500000, 0.242187500000, -6.718750000000, 1491906277
-0.002685546875, -0.925292968750, 0.291015625000, -2.351562500000, 0.242187500000, -6.718750000000, 1491906277
-0.002685546875, -0.925292968750, 0.291015625000, -2.351562500000, 0.242187500000, -6.718750000000, 1491906277
-0.072509765625, -0.978027343750, 0.291015625000, -1.992187500000, 0.625000000000, -1.835937500000, 1491906277
-0.072509765625, -0.978027343750, 0.291015625000, -1.992187500000, 0.625000000000, -1.835937500000, 1491906277
-0.072509765625, -0.978027343750, 0.291015625000, -1.992187500000, 0.625000000000, -1.835937500000, 1491906277
-0.086425781250, -0.969238281250, 0.227539062500, -3.445312500000, -2.015625000000, -2.226562500000, 1491906277
-0.086425781250, -0.969238281250, 0.227539062500, -3.445312500000, -2.015625000000, -2.226562500000, 1491906277
-0.086425781250, -0.969238281250, 0.227539062500, -3.445312500000, -2.015625000000, -2.226562500000, 1491906277
-0.086425781250, -0.969238281250, 0.227539062500, -3.445312500000, -2.015625000000, -2.226562500000, 1491906277
0.016357421875, -0.986572265625, 0.223144531250, -3.710937500000, 0.789062500000, -3.210937500000, 1491906277
0.080078125000, -0.919921875000, 0.248291015625, -2.843750000000, 3.421875000000, -4.539062500000, 1491906277
0.080078125000, -0.919921875000, 0.248291015625, -2.843750000000, 3.421875000000, -4.539062500000, 1491906277
0.080078125000, -0.919921875000, 0.248291015625, -2.843750000000, 3.421875000000, -4.539062500000, 1491906277
0.080078125000, -0.919921875000, 0.248291015625, -2.843750000000, 3.421875000000, -4.539062500000, 1491906277
0.080078125000, -0.919921875000, 0.248291015625, -2.843750000000, 3.421875000000, -4.539062500000, 1491906277
-0.072265625000, -0.983398437500, 0.282714843750, -1.109375000000, 1.546875000000, -4.375000000000, 1491906277
-0.072265625000, -0.983398437500, 0.282714843750, -1.109375000000, 1.546875000000, -4.375000000000, 1491906278
-0.072265625000, -0.983398437500, 0.282714843750, -1.109375000000, 1.546875000000, -4.375000000000, 1491906278
0.006591796875, -0.869873046875, 0.314697265625, -3.156250000000, 6.546875000000, -3.960937500000, 1491906278
0.006591796875, -0.869873046875, 0.314697265625, -3.156250000000, 6.546875000000, -3.960937500000, 1491906278
0.006591796875, -0.869873046875, 0.314697265625, -3.156250000000, 6.546875000000, -3.960937500000, 1491906278
0.006591796875, -0.869873046875, 0.314697265625, -3.156250000000, 6.546875000000, -3.960937500000, 1491906278
-0.058105468750, -0.981445312500, 0.288574218750, -2.304687500000, 3.273437500000, -6.085937500000, 1491906278
-0.058105468750, -0.981445312500, 0.288574218750, -2.304687500000, 3.273437500000, -6.085937500000, 1491906278
-0.058105468750, -0.981445312500, 0.288574218750, -2.304687500000, 3.273437500000, -6.085937500000, 1491906278
-0.034667968750, -0.889892578125, 0.232910156250, -7.000000000000, 0.257812500000, -6.406250000000, 1491906278
-0.034667968750, -0.889892578125, 0.232910156250, -7.000000000000, 0.257812500000, -6.406250000000, 1491906278
-0.078857421875, -0.920166015625, 0.236572265625, -3.132812500000, 4.835937500000, -2.882812500000, 1491906278
-0.078857421875, -0.920166015625, 0.236572265625, -3.132812500000, 4.835937500000, -2.882812500000, 1491906278
-0.078857421875, -0.920166015625, 0.236572265625, -3.132812500000, 4.835937500000, -2.882812500000, 1491906278
-0.078857421875, -0.920166015625, 0.236572265625, -3.132812500000, 4.835937500000, -2.882812500000, 1491906278
-0.065673828125, -0.969238281250, 0.269042968750, -3.859375000000, 4.203125000000, -6.617187500000, 1491906278
-0.065673828125, -0.969238281250, 0.269042968750, -3.859375000000, 4.203125000000, -6.617187500000, 1491906278
-0.065673828125, -0.969238281250, 0.269042968750, -3.859375000000, 4.203125000000, -6.617187500000, 1491906278
-0.065673828125, -0.969238281250, 0.269042968750, -3.859375000000, 4.203125000000, -6.617187500000, 1491906278
-0.104248046875, -0.968017578125, 0.260253906250, -4.742187500000, -0.265625000000, -3.742187500000, 1491906278
-0.104248046875, -0.968017578125, 0.260253906250, -4.742187500000, -0.265625000000, -3.742187500000, 1491906278
-0.104248046875, -0.968017578125, 0.260253906250, -4.742187500000, -0.265625000000, -3.742187500000, 1491906278
0.128173828125, -0.942626953125, 0.240478515625, -6.625000000000, 0.781250000000, -3.156250000000, 1491906278
0.128173828125, -0.942626953125, 0.240478515625, -6.625000000000, 0.781250000000, -3.156250000000, 1491906278
0.128173828125, -0.942626953125, 0.240478515625, -6.625000000000, 0.781250000000, -3.156250000000, 1491906278
-0.039062500000, -0.968261718750, 0.164550781250, -4.187500000000, 0.187500000000, -4.875000000000, 1491906278
0.014160156250, -0.932373046875, 0.255859375000, -3.070312500000, 2.570312500000, -3.445312500000, 1491906278
0.014160156250, -0.932373046875, 0.255859375000, -3.070312500000, 2.570312500000, -3.445312500000, 1491906278
0.014160156250, -0.932373046875, 0.255859375000, -3.070312500000, 2.570312500000, -3.445312500000, 1491906278
0.014160156250, -0.932373046875, 0.255859375000, -3.070312500000, 2.570312500000, -3.445312500000, 1491906278
-0.039062500000, -0.854003906250, 0.284912109375, -4.789062500000, 0.921875000000, -3.171875000000, 1491906278
-0.039062500000, -0.854003906250, 0.284912109375, -4.789062500000, 0.921875000000, -3.171875000000, 1491906278
-0.039062500000, -0.854003906250, 0.284912109375, -4.789062500000, 0.921875000000, -3.171875000000, 1491906278
-0.039062500000, -0.854003906250, 0.284912109375, -4.789062500000, 0.921875000000, -3.171875000000, 1491906278
-0.080078125000, -0.962402343750, 0.256591796875, -1.460937500000, 0.875000000000, -1.640625000000, 1491906278
-0.080078125000, -0.962402343750, 0.256591796875, -1.460937500000, 0.875000000000, -1.640625000000, 1491906278
-0.080078125000, -0.962402343750, 0.256591796875, -1.460937500000, 0.875000000000, -1.640625000000, 1491906278
-0.080078125000, -0.962402343750, 0.256591796875, -1.460937500000, 0.875000000000, -1.640625000000, 1491906278
-0.045898437500, -0.957519531250, 0.316162109375, -1.976562500000, 0.382812500000, -4.742187500000, 1491906278
-0.045898437500, -0.957519531250, 0.316162109375, -1.976562500000, 0.382812500000, -4.742187500000, 1491906278
-0.045898437500, -0.957519531250, 0.316162109375, -1.976562500000, 0.382812500000, -4.742187500000, 1491906278
