ACC_X,ACC_Y,ACC_Z,G_X,G_Y,G_Z,Unix Time
0.018066406250, -0.834472656250, 0.291748046875, 0.789062500000, -24.437500000000, -8.554687500000, 1491906863
0.018066406250, -0.834472656250, 0.291748046875, 0.789062500000, -24.437500000000, -8.554687500000, 1491906863
0.018066406250, -0.834472656250, 0.291748046875, 0.789062500000, -24.437500000000, -8.554687500000, 1491906863
0.018066406250, -0.834472656250, 0.291748046875, 0.789062500000, -24.437500000000, -8.554687500000, 1491906863
0.018066406250, -0.834472656250, 0.291748046875, 0.789062500000, -24.437500000000, -8.554687500000, 1491906863
0.062255859375, -0.894531250000, 0.229492187500, 4.109375000000, -30.890625000000, -3.867187500000, 1491906863
0.062255859375, -0.894531250000, 0.229492187500, 4.109375000000, -30.890625000000, -3.867187500000, 1491906863
0.062255859375, -0.894531250000, 0.229492187500, 4.109375000000, -30.890625000000, -3.867187500000, 1491906863
0.062255859375, -0.894531250000, 0.229492187500, 4.109375000000, -30.890625000000, -3.867187500000, 1491906863
-0.017822265625, -0.952148437500, 0.287597656250, 2.523437500000, -22.484375000000, -2.796875000000, 1491906863
-0.017822265625, -0.952148437500, 0.287597656250, 2.523437500000, -22.484375000000, -2.796875000000, 1491906863
-0.017822265625, -0.952148437500, 0.287597656250, 2.523437500000, -22.484375000000, -2.796875000000, 1491906863
0.108154296875, -0.917968750000, 0.305664062500, -0.023437500000, -10.640625000000, -4.351562500000, 1491906863
0.108154296875, -0.917968750000, 0.305664062500, -0.023437500000, -10.640625000000, -4.351562500000, 1491906863
0.108154296875, -0.917968750000, 0.305664062500, -0.023437500000, -10.640625000000, -4.351562500000, 1491906863
0.108154296875, -0.917968750000, 0.305664062500, -0.023437500000, -10.640625000000, -4.351562500000, 1491906863
0.135253906250, -0.941162109375, 0.293701171875, 2.265625000000, -7.992187500000, 0.546875000000, 1491906863
0.135253906250, -0.941162109375, 0.293701171875, 2.265625000000, -7.992187500000, 0.546875000000, 1491906863
0.135253906250, -0.941162109375, 0.293701171875, 2.265625000000, -7.992187500000, 0.546875000000, 1491906863
-0.006347656250, -0.956542968750, 0.293945312500, 1.781250000000, 1.750000000000, 5.523437500000, 1491906863
-0.006347656250, -0.956542968750, 0.293945312500, 1.781250000000, 1.750000000000, 5.523437500000, 1491906863
-0.006347656250, -0.956542968750, 0.293945312500, 1.781250000000, 1.750000000000, 5.523437500000, 1491906863
0.109375000000, -0.926513671875, 0.310302734375, 1.671875000000, 0.328125000000, 7.109375000000, 1491906863
0.220947265625, -1.089843750000, 0.366455078125, -20.429687500000, 21.070312500000, 24.437500000000, 1491906863
0.220947265625, -1.089843750000, 0.366455078125, -20.429687500000, 21.070312500000, 24.437500000000, 1491906863
0.220947265625, -1.089843750000, 0.366455078125, -20.429687500000, 21.070312500000, 24.437500000000, 1491906863
0.251464843750, -1.155273437500, 0.336914062500, -18.265625000000, 21.609375000000, 26.406250000000, 1491906863
0.251464843750, -1.155273437500, 0.336914062500, -18.265625000000, 21.609375000000, 26.406250000000, 1491906863
0.251464843750, -1.155273437500, 0.336914062500, -18.265625000000, 21.609375000000, 26.406250000000, 1491906863
0.251464843750, -1.155273437500, 0.336914062500, -18.265625000000, 21.609375000000, 26.406250000000, 1491906863
0.251464843750, -1.155273437500, 0.336914062500, -18.265625000000, 21.609375000000, 26.406250000000, 1491906863
0.251464843750, -1.155273437500, 0.336914062500, -18.265625000000, 21.609375000000, 26.406250000000, 1491906863
0.060791015625, -0.969482421875, 0.296386718750, -1.851562500000, 7.726562500000, 18.156250000000, 1491906863
0.060791015625, -0.969482421875, 0.296386718750, -1.851562500000, 7.726562500000, 18.156250000000, 1491906863
0.060791015625, -0.969482421875, 0.296386718750, -1.851562500000, 7.726562500000, 18.156250000000, 1491906863
0.122070312500, -0.886230468750, 0.280029296875, -6.960937500000, 17.890625000000, 14.500000000000, 1491906863
0.122070312500, -0.886230468750, 0.280029296875, -6.960937500000, 17.890625000000, 14.500000000000, 1491906863
0.122070312500, -0.886230468750, 0.280029296875, -6.960937500000, 17.890625000000, 14.500000000000, 1491906863
0.185058593750, -0.856201171875, 0.230224609375, -7.304687500000, 30.367187500000, 11.679687500000, 1491906863
0.185058593750, -0.856201171875, 0.230224609375, -7.304687500000, 30.367187500000, 11.679687500000, 1491906863
0.185058593750, -0.856201171875, 0.230224609375, -7.304687500000, 30.367187500000, 11.679687500000, 1491906863
0.185058593750, -0.856201171875, 0.230224609375, -7.304687500000, 30.367187500000, 11.679687500000, 1491906863
0.249267578125, -0.858154296875, 0.243408203125, -7.773437500000, 32.867187500000, 12.312500000000, 1491906863
0.257812500000, -0.955566406250, 0.276123046875, -1.578125000000, 29.617187500000, 14.015625000000, 1491906863
0.257812500000, -0.955566406250, 0.276123046875, -1.578125000000, 29.617187500000, 14.015625000000, 1491906863
0.175537109375, -0.848632812500, 0.179687500000, -2.710937500000, 40.312500000000, 13.468750000000, 1491906863
0.175537109375, -0.848632812500, 0.179687500000, -2.710937500000, 40.312500000000, 13.468750000000, 1491906863
0.175537109375, -0.848632812500, 0.179687500000, -2.710937500000, 40.312500000000, 13.468750000000, 1491906863
0.175537109375, -0.848632812500, 0.179687500000, -2.710937500000, 40.312500000000, 13.468750000000, 1491906863
0.175537109375, -0.848632812500, 0.179687500000, -2.710937500000, 40.312500000000, 13.468750000000, 1491906863
0.181640625000, -0.902832031250, 0.298339843750, 1.875000000000, 24.335937500000, -0.750000000000, 1491906863
0.181640625000, -0.902832031250, 0.298339843750, 1.875000000000, 24.335937500000, -0.750000000000, 1491906863
0.181640625000, -0.902832031250, 0.298339843750, 1.875000000000, 24.335937500000, -0.750000000000, 1491906863
0.181640625000, -0.902832031250, 0.298339843750, 1.875000000000, 24.335937500000, -0.750000000000, 1491906863
0.181640625000, -0.902832031250, 0.298339843750, 1.875000000000, 24.335937500000, -0.750000000000, 1491906863
0.254394531250, -0.917724609375, 0.411132812500, -2.468750000000, 17.992187500000, 0.867187500000, 1491906863
0.254394531250, -0.917724609375, 0.411132812500, -2.468750000000, 17.992187500000, 0.867187500000, 1491906863
0.254394531250, -0.917724609375, 0.411132812500, -2.468750000000, 17.992187500000, 0.867187500000, 1491906863
0.381591796875, -0.800048828125, 0.389160156250, -3.304687500000, 23.687500000000, 2.734375000000, 1491906863
0.280029296875, -0.894775390625, 0.308105468750, -1.960937500000, 16.718750000000, -2.257812500000, 1491906863
0.280029296875, -0.894775390625, 0.308105468750, -1.960937500000, 16.718750000000, -2.257812500000, 1491906863
0.192626953125, -0.847656250000, 0.356201171875, -4.562500000000, 9.265625000000, -1.718750000000, 1491906864
0.192626953125, -0.847656250000, 0.356201171875, -4.562500000000, 9.265625000000, -1.718750000000, 1491906864
0.192626953125, -0.847656250000, 0.356201171875, -4.562500000000, 9.265625000000, -1.718750000000, 1491906864
0.192626953125, -0.847656250000, 0.356201171875, -4.562500000000, 9.265625000000, -1.718750000000, 1491906864
0.192626953125, -0.847656250000, 0.356201171875, -4.562500000000, 9.265625000000, -1.718750000000, 1491906864
0.319580078125, -0.904785156250, 0.445800781250, 0.164062500000, 7.382812500000, -5.851562500000, 1491906864
0.319580078125, -0.904785156250, 0.445800781250, 0.164062500000, 7.382812500000, -5.851562500000, 1491906864
0.319580078125, -0.904785156250, 0.445800781250, 0.164062500000, 7.382812500000, -5.851562500000, 1491906864
0.319580078125, -0.904785156250, 0.445800781250, 0.164062500000, 7.382812500000, -5.851562500000, 1491906864
0.319580078125, -0.904785156250, 0.445800781250, 0.164062500000, 7.382812500000, -5.851562500000, 1491906864
0.272460937500, -0.963623046875, 0.461181640625, 0.304687500000, 1.062500000000, -13.273437500000, 1491906864
0.272460937500, -0.963623046875, 0.461181640625, 0.304687500000, 1.062500000000, -13.273437500000, 1491906864
0.272460937500, -0.963623046875, 0.461181640625, 0.304687500000, 1.062500000000, -13.273437500000, 1491906864
0.329589843750, -0.874023437500, 0.390625000000, -1.453125000000, 0.914062500000, -15.343750000000, 1491906864
0.329589843750, -0.874023437500, 0.390625000000, -1.453125000000, 0.914062500000, -15.343750000000, 1491906864
0.329589843750, -0.874023437500, 0.390625000000, -1.453125000000, 0.914062500000, -15.343750000000, 1491906864
0.329589843750, -0.874023437500, 0.390625000000, -1.453125000000, 0.914062500000, -15.343750000000, 1491906864
0.329589843750, -0.874023437500, 0.390625000000, -1.453125000000, 0.914062500000, -15.343750000000, 1491906864
0.329589843750, -0.874023437500, 0.390625000000, -1.453125000000, 0.914062500000, -15.343750000000, 1491906864
0.329589843750, -0.874023437500, 0.390625000000, -1.453125000000, 0.914062500000, -15.343750000000, 1491906864
0.230468750000, -0.927246093750, 0.445068359375, -6.414062500000, -5.242187500000, -18.554687500000, 1491906864
0.230468750000, -0.927246093750, 0.445068359375, -6.414062500000, -5.242187500000, -18.554687500000, 1491906864
0.230468750000, -0.927246093750, 0.445068359375, -6.414062500000, -5.242187500000, -18.554687500000, 1491906864
0.219238281250, -1.086425781250, 0.417480468750, -11.054687500000, -10.453125000000, -18.734375000000, 1491906864
0.219238281250, -1.086425781250, 0.417480468750, -11.054687500000, -10.453125000000, -18.734375000000, 1491906864
0.219238281250, -1.086425781250, 0.417480468750, -11.054687500000, -10.453125000000, -18.734375000000, 1491906864
0.177001953125, -0.929931640625, 0.413330078125, -8.648437500000, -21.117187500000, -21.195312500000, 1491906864
0.177001953125, -0.929931640625, 0.413330078125, -8.648437500000, -21.117187500000, -21.195312500000, 1491906864
0.177001953125, -0.929931640625, 0.413330078125, -8.648437500000, -21.117187500000, -21.195312500000, 1491906864
0.123046875000, -0.942382812500, 0.276123046875, 4.539062500000, -11.171875000000, -22.093750000000, 1491906864
0.123046875000, -0.942382812500, 0.276123046875, 4.539062500000, -11.171875000000, -22.093750000000, 1491906864
0.123046875000, -0.942382812500, 0.276123046875, 4.539062500000, -11.171875000000, -22.093750000000, 1491906864
0.123046875000, -0.942382812500, 0.276123046875, 4.539062500000, -11.171875000000, -22.093750000000, 1491906864
0.072753906250, -0.864501953125, 0.251953125000, -4.796875000000, -30.601562500000, -23.007812500000, 1491906864
0.072753906250, -0.864501953125, 0.251953125000, -4.796875000000, -30.601562500000, -23.007812500000, 1491906864
0.072753906250, -0.864501953125, 0.251953125000, -4.796875000000, -30.601562500000, -23.007812500000, 1491906864
0.072753906250, -0.864501953125, 0.251953125000, -4.796875000000, -30.601562500000, -23.007812500000, 1491906864
-0.005371093750, -0.930419921875, 0.227050781250, 2.109375000000, -42.835937500000, -25.429687500000, 1491906864
-0.000488281250, -0.872558593750, 0.187500000000, 1.351562500000, -48.085937500000, -26.601562500000, 1491906864
-0.000488281250, -0.872558593750, 0.187500000000, 1.351562500000, -48.085937500000, -26.601562500000, 1491906864
-0.000488281250, -0.872558593750, 0.187500000000, 1.351562500000, -48.085937500000, -26.601562500000, 1491906864
-0.000488281250, -0.872558593750, 0.187500000000, 1.351562500000, -48.085937500000, -26.601562500000, 1491906864
0.078613281250, -0.939941406250, 0.342773437500, 12.109375000000, -62.484375000000, -25.125000000000, 1491906864
0.078613281250, -0.939941406250, 0.342773437500, 12.109375000000, -62.484375000000, -25.125000000000, 1491906864
0.078613281250, -0.939941406250, 0.342773437500, 12.109375000000, -62.484375000000, -25.125000000000, 1491906864
0.078613281250, -0.939941406250, 0.342773437500, 12.109375000000, -62.484375000000, -25.125000000000, 1491906864
0.145263671875, -0.834472656250, 0.319824218750, -2.992187500000, -19.421875000000, -5.984375000000, 1491906864
0.145263671875, -0.834472656250, 0.319824218750, -2.992187500000, -19.421875000000, -5.984375000000, 1491906864
0.145263671875, -0.834472656250, 0.319824218750, -2.992187500000, -19.421875000000, -5.984375000000, 1491906864
0.145263671875, -0.834472656250, 0.319824218750, -2.992187500000, -19.421875000000, -5.984375000000, 1491906864
0.145263671875, -0.834472656250, 0.319824218750, -2.992187500000, -19.421875000000, -5.984375000000, 1491906864
0.145263671875, -0.834472656250, 0.319824218750, -2.992187500000, -19.421875000000, -5.984375000000, 1491906864
0.079345703125, -0.879638671875, 0.403076171875, -6.265625000000, -17.085937500000, -5.617187500000, 1491906864
0.079345703125, -0.879638671875, 0.403076171875, -6.265625000000, -17.085937500000, -5.617187500000, 1491906864
0.079345703125, -0.879638671875, 0.403076171875, -6.265625000000, -17.085937500000, -5.617187500000, 1491906864
0.039062500000, -0.922851562500, 0.347900390625, -10.203125000000, -13.820312500000, -8.937500000000, 1491906864
0.039062500000, -0.922851562500, 0.347900390625, -10.203125000000, -13.820312500000, -8.937500000000, 1491906864
0.039062500000, -0.922851562500, 0.347900390625, -10.203125000000, -13.820312500000, -8.937500000000, 1491906864
0.039062500000, -0.922851562500, 0.347900390625, -10.203125000000, -13.820312500000, -8.937500000000, 1491906864
0.191894531250, -0.968505859375, 0.396972656250, -4.015625000000, -10.421875000000, 0.539062500000, 1491906864
0.191894531250, -0.968505859375, 0.396972656250, -4.015625000000, -10.421875000000, 0.539062500000, 1491906864
0.191894531250, -0.968505859375, 0.396972656250, -4.015625000000, -10.421875000000, 0.539062500000, 1491906864
0.191894531250, -0.968505859375, 0.396972656250, -4.015625000000, -10.421875000000, 0.539062500000, 1491906864
0.061279296875, -0.857421875000, 0.302246093750, -4.078125000000, -5.757812500000, 2.492187500000, 1491906864
0.252197265625, -0.811523437500, 0.345947265625, -2.820312500000, -5.375000000000, 4.179687500000, 1491906864
0.252197265625, -0.811523437500, 0.345947265625, -2.820312500000, -5.375000000000, 4.179687500000, 1491906864
0.252197265625, -0.811523437500, 0.345947265625, -2.820312500000, -5.375000000000, 4.179687500000, 1491906864
0.252197265625, -0.811523437500, 0.345947265625, -2.820312500000, -5.375000000000, 4.179687500000, 1491906864
0.155029296875, -0.944580078125, 0.331054687500, -3.648437500000, 1.406250000000, 8.960937500000, 1491906864
0.155029296875, -0.944580078125, 0.331054687500, -3.648437500000, 1.406250000000, 8.960937500000, 1491906865
0.155029296875, -0.944580078125, 0.331054687500, -3.648437500000, 1.406250000000, 8.960937500000, 1491906865
0.155029296875, -0.944580078125, 0.331054687500, -3.648437500000, 1.406250000000, 8.960937500000, 1491906865
0.085693359375, -0.979248046875, 0.362792968750, -3.156250000000, -2.351562500000, 8.898437500000, 1491906865
0.085693359375, -0.979248046875, 0.362792968750, -3.156250000000, -2.351562500000, 8.898437500000, 1491906865
0.085693359375, -0.979248046875, 0.362792968750, -3.156250000000, -2.351562500000, 8.898437500000, 1491906865
0.128173828125, -0.980712890625, 0.351318359375, -10.429687500000, 5.359375000000, 10.109375000000, 1491906865
0.128173828125, -0.980712890625, 0.351318359375, -10.429687500000, 5.359375000000, 10.109375000000, 1491906865
0.128173828125, -0.980712890625, 0.351318359375, -10.429687500000, 5.359375000000, 10.109375000000, 1491906865
0.265136718750, -1.079345703125, 0.467529296875, -13.398437500000, 11.164062500000, 13.859375000000, 1491906865
0.265136718750, -1.079345703125, 0.467529296875, -13.398437500000, 11.164062500000, 13.859375000000, 1491906865
0.265136718750, -1.079345703125, 0.467529296875, -13.398437500000, 11.164062500000, 13.859375000000, 1491906865
0.108398437500, -0.934814453125, 0.341796875000, -7.648437500000, 8.796875000000, 11.734375000000, 1491906865
0.108398437500, -0.934814453125, 0.341796875000, -7.648437500000, 8.796875000000, 11.734375000000, 1491906865
0.108398437500, -0.934814453125, 0.341796875000, -7.648437500000, 8.796875000000, 11.734375000000, 1491906865
0.121337890625, -0.829101562500, 0.293457031250, -8.015625000000, 9.523437500000, 6.851562500000, 1491906865
0.121337890625, -0.829101562500, 0.293457031250, -8.015625000000, 9.523437500000, 6.851562500000, 1491906865
0.121337890625, -0.829101562500, 0.293457031250, -8.015625000000, 9.523437500000, 6.851562500000, 1491906865
0.121337890625, -0.829101562500, 0.293457031250, -8.015625000000, 9.523437500000, 6.851562500000, 1491906865
0.121337890625, -0.829101562500, 0.293457031250, -8.015625000000, 9.523437500000, 6.851562500000, 1491906865
0.121337890625, -0.829101562500, 0.293457031250, -8.015625000000, 9.523437500000, 6.851562500000, 1491906865
0.201660156250, -0.854003906250, 0.233642578125, -9.132812500000, 22.429687500000, 5.476562500000, 1491906865
0.201660156250, -0.854003906250, 0.233642578125, -9.132812500000, 22.429687500000, 5.476562500000, 1491906865
0.201660156250, -0.854003906250, 0.233642578125, -9.132812500000, 22.429687500000, 5.476562500000, 1491906865
0.201660156250, -0.854003906250, 0.233642578125, -9.132812500000, 22.429687500000, 5.476562500000, 1491906865
0.353759765625, -0.931152343750, 0.315185546875, 0.742187500000, 34.937500000000, 7.710937500000, 1491906865
0.353759765625, -0.931152343750, 0.315185546875, 0.742187500000, 34.937500000000, 7.710937500000, 1491906865
0.353759765625, -0.931152343750, 0.315185546875, 0.742187500000, 34.937500000000, 7.710937500000, 1491906865
0.353759765625, -0.931152343750, 0.315185546875, 0.742187500000, 34.937500000000, 7.710937500000, 1491906865
0.353759765625, -0.931152343750, 0.315185546875, 0.742187500000, 34.937500000000, 7.710937500000, 1491906865
0.235351562500, -0.999755859375, 0.391357421875, 0.351562500000, 36.703125000000, 10.742187500000, 1491906865
0.235351562500, -0.999755859375, 0.391357421875, 0.351562500000, 36.703125000000, 10.742187500000, 1491906865
0.235351562500, -0.999755859375, 0.391357421875, 0.351562500000, 36.703125000000, 10.742187500000, 1491906865
0.235351562500, -0.999755859375, 0.391357421875, 0.351562500000, 36.703125000000, 10.742187500000, 1491906865
0.235351562500, -0.999755859375, 0.391357421875, 0.351562500000, 36.703125000000, 10.742187500000, 1491906865
0.199462890625, -0.975585937500, 0.390869140625, 1.984375000000, 23.070312500000, 6.070312500000, 1491906865
0.199462890625, -0.975585937500, 0.390869140625, 1.984375000000, 23.070312500000, 6.070312500000, 1491906865
0.199462890625, -0.975585937500, 0.390869140625, 1.984375000000, 23.070312500000, 6.070312500000, 1491906865
0.155517578125, -0.872558593750, 0.369384765625, 3.781250000000, 21.312500000000, -0.289062500000, 1491906865
0.179199218750, -0.784423828125, 0.297607421875, -0.031250000000, 21.679687500000, -2.398437500000, 1491906865
0.179199218750, -0.784423828125, 0.297607421875, -0.031250000000, 21.679687500000, -2.398437500000, 1491906865
0.179199218750, -0.784423828125, 0.297607421875, -0.031250000000, 21.679687500000, -2.398437500000, 1491906865
0.179199218750, -0.784423828125, 0.297607421875, -0.031250000000, 21.679687500000, -2.398437500000, 1491906865
0.220214843750, -0.773437500000, 0.291259765625, 1.046875000000, 26.171875000000, -1.554687500000, 1491906865
0.252929687500, -0.893554687500, 0.311767578125, 3.304687500000, 18.398437500000, -1.570312500000, 1491906865
0.252929687500, -0.893554687500, 0.311767578125, 3.304687500000, 18.398437500000, -1.570312500000, 1491906865
0.252929687500, -0.893554687500, 0.311767578125, 3.304687500000, 18.398437500000, -1.570312500000, 1491906865
0.252929687500, -0.893554687500, 0.311767578125, 3.304687500000, 18.398437500000, -1.570312500000, 1491906865
0.229980468750, -0.865722656250, 0.399414062500, 3.812500000000, 12.343750000000, -4.609375000000, 1491906865
0.185791015625, -0.867675781250, 0.435546875000, -1.929687500000, 8.937500000000, -5.429687500000, 1491906865
0.185791015625, -0.867675781250, 0.435546875000, -1.929687500000, 8.937500000000, -5.429687500000, 1491906865
0.185791015625, -0.867675781250, 0.435546875000, -1.929687500000, 8.937500000000, -5.429687500000, 1491906865
0.185791015625, -0.867675781250, 0.435546875000, -1.929687500000, 8.937500000000, -5.429687500000, 1491906865
0.185791015625, -0.867675781250, 0.435546875000, -1.929687500000, 8.937500000000, -5.429687500000, 1491906865
0.242187500000, -0.903320312500, 0.359375000000, -2.320312500000, 2.148437500000, -10.859375000000, 1491906865
0.242187500000, -0.903320312500, 0.359375000000, -2.320312500000, 2.148437500000, -10.859375000000, 1491906865
0.242187500000, -0.903320312500, 0.359375000000, -2.320312500000, 2.148437500000, -10.859375000000, 1491906865
0.242187500000, -0.903320312500, 0.359375000000, -2.320312500000, 2.148437500000, -10.859375000000, 1491906865
0.186767578125, -0.847412109375, 0.400878906250, 0.601562500000, 2.390625000000, -9.062500000000, 1491906865
0.198486328125, -0.971923828125, 0.358398437500, -14.906250000000, 0.054687500000, -22.937500000000, 1491906865
0.198486328125, -0.971923828125, 0.358398437500, -14.906250000000, 0.054687500000, -22.937500000000, 1491906865
0.198486328125, -0.971923828125, 0.358398437500, -14.906250000000, 0.054687500000, -22.937500000000, 1491906865
0.198486328125, -0.971923828125, 0.358398437500, -14.906250000000, 0.054687500000, -22.937500000000, 1491906865
0.198486328125, -0.971923828125, 0.358398437500, -14.906250000000, 0.054687500000, -22.937500000000, 1491906866
0.268066406250, -1.076416015625, 0.350585937500, -11.265625000000, -3.710937500000, -21.101562500000, 1491906866
0.268066406250, -1.076416015625, 0.350585937500, -11.265625000000, -3.710937500000, -21.101562500000, 1491906866
0.268066406250, -1.076416015625, 0.350585937500, -11.265625000000, -3.710937500000, -21.101562500000, 1491906866
0.268066406250, -1.076416015625, 0.350585937500, -11.265625000000, -3.710937500000, -21.101562500000, 1491906866
0.268066406250, -1.076416015625, 0.350585937500, -11.265625000000, -3.710937500000, -21.101562500000, 1491906866
0.208496093750, -0.980957031250, 0.342529296875, -2.656250000000, -20.273437500000, -20.406250000000, 1491906866
0.205078125000, -1.010498046875, 0.394042968750, -2.656250000000, -20.273437500000, -20.406250000000, 1491906866
0.205078125000, -1.010498046875, 0.394042968750, -2.656250000000, -20.273437500000, -20.406250000000, 1491906866
0.205078125000, -1.010498046875, 0.394042968750, -2.656250000000, -20.273437500000, -20.406250000000, 1491906866
0.205078125000, -1.010498046875, 0.394042968750, -2.656250000000, -20.273437500000, -20.406250000000, 1491906866
0.056640625000, -0.807861328125, 0.325439453125, -5.453125000000, -20.625000000000, -19.570312500000, 1491906866
-0.028564453125, -0.894775390625, 0.292968750000, -1.812500000000, -40.484375000000, -24.539062500000, 1491906866
-0.028564453125, -0.894775390625, 0.292968750000, -1.812500000000, -40.484375000000, -24.539062500000, 1491906866
-0.028564453125, -0.894775390625, 0.292968750000, -1.812500000000, -40.484375000000, -24.539062500000, 1491906866
-0.028564453125, -0.894775390625, 0.292968750000, -1.812500000000, -40.484375000000, -24.539062500000, 1491906866
0.014892578125, -1.023193359375, 0.282714843750, 6.406250000000, -58.375000000000, -28.585937500000, 1491906866
0.014892578125, -1.023193359375, 0.282714843750, 6.406250000000, -58.375000000000, -28.585937500000, 1491906866
0.014892578125, -1.023193359375, 0.282714843750, 6.406250000000, -58.375000000000, -28.585937500000, 1491906866
0.014892578125, -1.023193359375, 0.282714843750, 6.406250000000, -58.375000000000, -28.585937500000, 1491906866
0.014892578125, -1.023193359375, 0.282714843750, 6.406250000000, -58.375000000000, -28.585937500000, 1491906866
0.199218750000, -1.001464843750, 0.375244140625, -0.921875000000, -34.750000000000, -13.906250000000, 1491906866
0.187500000000, -0.871826171875, 0.378173828125, -0.429687500000, -26.960937500000, -9.218750000000, 1491906866
0.187500000000, -0.871826171875, 0.378173828125, -0.429687500000, -26.960937500000, -9.218750000000, 1491906866
0.187500000000, -0.871826171875, 0.378173828125, -0.429687500000, -26.960937500000, -9.218750000000, 1491906866
0.187500000000, -0.871826171875, 0.378173828125, 2.625000000000, -23.929687500000, -7.546875000000, 1491906866
0.129150390625, -0.805908203125, 0.375488281250, -0.585937500000, -24.453125000000, -10.242187500000, 1491906866
0.129150390625, -0.805908203125, 0.375488281250, -0.585937500000, -24.453125000000, -10.242187500000, 1491906866
0.129150390625, -0.805908203125, 0.375488281250, -0.585937500000, -24.453125000000, -10.242187500000, 1491906866
0.129150390625, -0.805908203125, 0.375488281250, -0.585937500000, -24.453125000000, -10.242187500000, 1491906866
0.129150390625, -0.805908203125, 0.375488281250, -0.585937500000, -24.453125000000, -10.242187500000, 1491906866
0.077148437500, -0.908447265625, 0.347900390625, -0.320312500000, -25.632812500000, -10.289062500000, 1491906866
0.077148437500, -0.908447265625, 0.347900390625, -0.320312500000, -25.632812500000, -10.289062500000, 1491906866
0.077148437500, -0.908447265625, 0.347900390625, -0.320312500000, -25.632812500000, -10.289062500000, 1491906866
0.190917968750, -0.914794921875, 0.450683593750, 6.750000000000, -17.976562500000, -3.593750000000, 1491906866
0.182128906250, -0.954833984375, 0.377685546875, 2.726562500000, -12.773437500000, -6.406250000000, 1491906866
0.182128906250, -0.954833984375, 0.377685546875, 2.726562500000, -12.773437500000, -6.406250000000, 1491906866
0.061279296875, -0.915527343750, 0.241943359375, 2.625000000000, -3.609375000000, 4.843750000000, 1491906866
0.061279296875, -0.915527343750, 0.241943359375, 2.625000000000, -3.609375000000, 4.843750000000, 1491906866
0.061279296875, -0.915527343750, 0.241943359375, 2.625000000000, -3.609375000000, 4.843750000000, 1491906866
0.061279296875, -0.915527343750, 0.241943359375, 2.625000000000, -3.609375000000, 4.843750000000, 1491906866
0.061279296875, -0.915527343750, 0.241943359375, 2.625000000000, -3.609375000000, 4.843750000000, 1491906866
0.061279296875, -0.915527343750, 0.241943359375, 2.625000000000, -3.609375000000, 4.843750000000, 1491906866
0.200927734375, -1.022705078125, 0.286865234375, 2.218750000000, -1.039062500000, 6.265625000000, 1491906866
0.084716796875, -0.937011718750, 0.397460937500, 4.203125000000, 0.140625000000, 6.476562500000, 1491906866
0.084716796875, -0.937011718750, 0.397460937500, 4.203125000000, 0.140625000000, 6.476562500000, 1491906866
0.084716796875, -0.937011718750, 0.397460937500, 4.203125000000, 0.140625000000, 6.476562500000, 1491906866
0.037841796875, -0.971191406250, 0.411865234375, -2.140625000000, 4.367187500000, 9.296875000000, 1491906866
0.037841796875, -0.971191406250, 0.411865234375, -2.140625000000, 4.367187500000, 9.296875000000, 1491906866
0.037841796875, -0.971191406250, 0.411865234375, -2.140625000000, 4.367187500000, 9.296875000000, 1491906866
0.137939453125, -0.926269531250, 0.355468750000, -8.390625000000, 8.851562500000, 14.351562500000, 1491906866
0.168701171875, -1.023193359375, 0.398681640625, -14.195312500000, 30.914062500000, 20.500000000000, 1491906866
0.168701171875, -1.023193359375, 0.398681640625, -14.195312500000, 30.914062500000, 20.500000000000, 1491906866
0.168701171875, -1.023193359375, 0.398681640625, -14.195312500000, 30.914062500000, 20.500000000000, 1491906866
0.168701171875, -1.023193359375, 0.398681640625, -14.195312500000, 30.914062500000, 20.500000000000, 1491906866
0.209228515625, -1.049316406250, 0.290283203125, -3.593750000000, 31.554687500000, 17.171875000000, 1491906866
0.045410156250, -1.029052734375, 0.313476562500, -3.593750000000, 31.554687500000, 17.171875000000, 1491906866
0.045410156250, -1.029052734375, 0.313476562500, -3.593750000000, 31.554687500000, 17.171875000000, 1491906866
0.045410156250, -1.029052734375, 0.313476562500, -3.593750000000, 31.554687500000, 17.171875000000, 1491906866
0.045410156250, -1.029052734375, 0.313476562500, -3.593750000000, 31.554687500000, 17.171875000000, 1491906866
0.188232421875, -0.853027343750, 0.293457031250, -4.523437500000, 16.718750000000, 12.851562500000, 1491906866
0.188232421875, -0.853027343750, 0.293457031250, -4.523437500000, 16.718750000000, 12.851562500000, 1491906866
0.138916015625, -0.783691406250, 0.309326171875, -10.820312500000, 17.335937500000, 7.140625000000, 1491906866
0.138916015625, -0.783691406250, 0.309326171875, -10.820312500000, 17.335937500000, 7.140625000000, 1491906866
0.138916015625, -0.783691406250, 0.309326171875, -10.820312500000, 17.335937500000, 7.140625000000, 1491906866
0.249755859375, -0.873535156250, 0.201904296875, -11.445312500000, 30.687500000000, 6.265625000000, 1491906866
0.249755859375, -0.873535156250, 0.201904296875, -11.445312500000, 30.687500000000, 6.265625000000, 1491906866
0.249755859375, -0.873535156250, 0.201904296875, -11.445312500000, 30.687500000000, 6.265625000000, 1491906866
0.249755859375, -0.873535156250, 0.201904296875, -11.445312500000, 30.687500000000, 6.265625000000, 1491906866
0.249755859375, -0.873535156250, 0.201904296875, -11.445312500000, 30.687500000000, 6.265625000000, 1491906866
0.280761718750, -0.974853515625, 0.294677734375, 0.617187500000, 23.648437500000, 5.781250000000, 1491906867
0.280761718750, -0.974853515625, 0.294677734375, 0.617187500000, 23.648437500000, 5.781250000000, 1491906867
0.280761718750, -0.974853515625, 0.294677734375, 0.617187500000, 23.648437500000, 5.781250000000, 1491906867
0.172119140625, -1.010253906250, 0.309082031250, -0.601562500000, 23.570312500000, 5.625000000000, 1491906867
0.172119140625, -1.010253906250, 0.309082031250, -0.601562500000, 23.570312500000, 5.625000000000, 1491906867
0.172119140625, -1.010253906250, 0.309082031250, -0.601562500000, 23.570312500000, 5.625000000000, 1491906867
0.172119140625, -1.010253906250, 0.309082031250, -0.601562500000, 23.570312500000, 5.625000000000, 1491906867
0.263183593750, -1.019775390625, 0.376953125000, 4.765625000000, 22.406250000000, -0.281250000000, 1491906867
0.113769531250, -0.804931640625, 0.385742187500, -0.109375000000, 19.492187500000, 0.789062500000, 1491906867
0.113769531250, -0.804931640625, 0.385742187500, -0.109375000000, 19.492187500000, 0.789062500000, 1491906867
0.113769531250, -0.804931640625, 0.385742187500, -0.109375000000, 19.492187500000, 0.789062500000, 1491906867
0.113769531250, -0.804931640625, 0.385742187500, -0.109375000000, 19.492187500000, 0.789062500000, 1491906867
0.113769531250, -0.804931640625, 0.385742187500, -0.109375000000, 19.492187500000, 0.789062500000, 1491906867
0.241699218750, -0.899902343750, 0.357666015625, -0.578125000000, 24.195312500000, 0.171875000000, 1491906867
0.258056640625, -0.809326171875, 0.317871093750, -2.671875000000, 25.476562500000, -0.007812500000, 1491906867
0.258056640625, -0.809326171875, 0.317871093750, -2.671875000000, 25.476562500000, -0.007812500000, 1491906867
0.258056640625, -0.809326171875, 0.317871093750, -2.671875000000, 25.476562500000, -0.007812500000, 1491906867
0.258056640625, -0.809326171875, 0.317871093750, -2.671875000000, 25.476562500000, -0.007812500000, 1491906867
0.258056640625, -0.809326171875, 0.317871093750, -2.671875000000, 25.476562500000, -0.007812500000, 1491906867
0.322021484375, -0.931152343750, 0.374755859375, 2.812500000000, 13.578125000000, -1.695312500000, 1491906867
0.322021484375, -0.931152343750, 0.374755859375, 2.812500000000, 13.578125000000, -1.695312500000, 1491906867
0.322021484375, -0.931152343750, 0.374755859375, 2.812500000000, 13.578125000000, -1.695312500000, 1491906867
0.278320312500, -0.883789062500, 0.347900390625, -2.335937500000, 5.945312500000, -1.117187500000, 1491906867
0.278320312500, -0.883789062500, 0.347900390625, -2.335937500000, 5.945312500000, -1.117187500000, 1491906867
0.278320312500, -0.883789062500, 0.347900390625, -2.335937500000, 5.945312500000, -1.117187500000, 1491906867
0.278320312500, -0.883789062500, 0.347900390625, -2.335937500000, 5.945312500000, -1.117187500000, 1491906867
0.164306640625, -0.897216796875, 0.444335937500, 0.703125000000, 5.937500000000, -3.351562500000, 1491906867
0.164306640625, -0.881835937500, 0.348876953125, -3.875000000000, 4.664062500000, -8.656250000000, 1491906867
0.164306640625, -0.881835937500, 0.348876953125, -3.875000000000, 4.664062500000, -8.656250000000, 1491906867
0.164306640625, -0.881835937500, 0.348876953125, -3.875000000000, 4.664062500000, -8.656250000000, 1491906867
0.164306640625, -0.881835937500, 0.348876953125, -3.875000000000, 4.664062500000, -8.656250000000, 1491906867
0.164306640625, -0.881835937500, 0.348876953125, -3.875000000000, 4.664062500000, -8.656250000000, 1491906867
0.218017578125, -0.871826171875, 0.347900390625, -5.093750000000, 0.710937500000, -10.523437500000, 1491906867
0.218017578125, -0.871826171875, 0.347900390625, -5.093750000000, 0.710937500000, -10.523437500000, 1491906867
0.218017578125, -0.871826171875, 0.347900390625, -5.093750000000, 0.710937500000, -10.523437500000, 1491906867
0.177978515625, -0.924072265625, 0.411621093750, -8.312500000000, 0.429687500000, -12.781250000000, 1491906867
0.163574218750, -0.980712890625, 0.515136718750, -21.679687500000, -8.976562500000, -15.421875000000, 1491906867
0.163574218750, -0.980712890625, 0.515136718750, -21.679687500000, -8.976562500000, -15.421875000000, 1491906867
0.163574218750, -0.980712890625, 0.515136718750, -21.679687500000, -8.976562500000, -15.421875000000, 1491906867
0.163574218750, -0.980712890625, 0.515136718750, -21.679687500000, -8.976562500000, -15.421875000000, 1491906867
0.163574218750, -0.980712890625, 0.515136718750, -21.679687500000, -8.976562500000, -15.421875000000, 1491906867
0.163574218750, -0.980712890625, 0.515136718750, -21.679687500000, -8.976562500000, -15.421875000000, 1491906867
0.231201171875, -0.983642578125, 0.523681640625, -9.570312500000, -24.242187500000, -26.687500000000, 1491906867
0.231201171875, -0.983642578125, 0.523681640625, -9.570312500000, -24.242187500000, -26.687500000000, 1491906867
0.231201171875, -0.983642578125, 0.523681640625, -9.570312500000, -24.242187500000, -26.687500000000, 1491906867
0.265625000000, -0.861572265625, 0.235107421875, -8.562500000000, -4.187500000000, -18.890625000000, 1491906867
0.265625000000, -0.861572265625, 0.235107421875, -8.562500000000, -4.187500000000, -18.890625000000, 1491906867
0.265625000000, -0.861572265625, 0.235107421875, -8.562500000000, -4.187500000000, -18.890625000000, 1491906867
0.076171875000, -0.850830078125, 0.264648437500, -2.835937500000, -28.648437500000, -23.117187500000, 1491906867
0.076171875000, -0.850830078125, 0.264648437500, -2.835937500000, -28.648437500000, -23.117187500000, 1491906867
0.076171875000, -0.850830078125, 0.264648437500, -2.835937500000, -28.648437500000, -23.117187500000, 1491906867
0.076171875000, -0.850830078125, 0.264648437500, -2.835937500000, -28.648437500000, -23.117187500000, 1491906867
0.136962890625, -0.854980468750, 0.286376953125, 9.125000000000, -60.335937500000, -28.890625000000, 1491906867
0.136962890625, -0.854980468750, 0.286376953125, 9.125000000000, -60.335937500000, -28.890625000000, 1491906867
0.136962890625, -0.854980468750, 0.286376953125, 9.125000000000, -60.335937500000, -28.890625000000, 1491906867
0.136962890625, -0.854980468750, 0.286376953125, 9.125000000000, -60.335937500000, -28.890625000000, 1491906867
0.136962890625, -0.854980468750, 0.286376953125, 9.125000000000, -60.335937500000, -28.890625000000, 1491906867
0.037597656250, -1.034423828125, 0.374023437500, 7.445312500000, -52.101562500000, -17.734375000000, 1491906867
0.109619140625, -1.083007812500, 0.403808593750, 7.445312500000, -52.101562500000, -17.734375000000, 1491906867
0.109619140625, -1.083007812500, 0.403808593750, 7.445312500000, -52.101562500000, -17.734375000000, 1491906867
0.109619140625, -1.083007812500, 0.403808593750, 7.445312500000, -52.101562500000, -17.734375000000, 1491906867
0.154052734375, -0.808105468750, 0.393066406250, 0.578125000000, -7.468750000000, -8.789062500000, 1491906867
0.075683593750, -0.896240234375, 0.289550781250, -0.695312500000, -13.609375000000, -10.445312500000, 1491906867
0.075683593750, -0.896240234375, 0.289550781250, -0.695312500000, -13.609375000000, -10.445312500000, 1491906867
0.075683593750, -0.896240234375, 0.289550781250, -0.695312500000, -13.609375000000, -10.445312500000, 1491906867
0.074707031250, -0.942138671875, 0.377197265625, 1.531250000000, -25.296875000000, -10.921875000000, 1491906868
0.072265625000, -0.858642578125, 0.321289062500, 2.593750000000, -24.921875000000, -9.593750000000, 1491906868
0.072265625000, -0.858642578125, 0.321289062500, 2.593750000000, -24.921875000000, -9.593750000000, 1491906868
0.072265625000, -0.858642578125, 0.321289062500, 2.593750000000, -24.921875000000, -9.593750000000, 1491906868
0.072265625000, -0.858642578125, 0.321289062500, 2.593750000000, -24.921875000000, -9.593750000000, 1491906868
0.072265625000, -0.858642578125, 0.321289062500, 2.593750000000, -24.921875000000, -9.593750000000, 1491906868
0.089843750000, -0.939208984375, 0.302978515625, -0.750000000000, -17.000000000000, -5.195312500000, 1491906868
0.089843750000, -0.939208984375, 0.302978515625, -0.750000000000, -17.000000000000, -5.195312500000, 1491906868
0.089843750000, -0.939208984375, 0.302978515625, -0.750000000000, -17.000000000000, -5.195312500000, 1491906868
0.089843750000, -0.939208984375, 0.302978515625, -0.750000000000, -17.000000000000, -5.195312500000, 1491906868
0.138671875000, -1.007568359375, 0.308105468750, 3.101562500000, -11.960937500000, -2.296875000000, 1491906868
0.138671875000, -1.007568359375, 0.308105468750, 3.101562500000, -11.960937500000, -2.296875000000, 1491906868
0.138671875000, -1.007568359375, 0.308105468750, 3.101562500000, -11.960937500000, -2.296875000000, 1491906868
0.138671875000, -1.007568359375, 0.308105468750, 3.101562500000, -11.960937500000, -2.296875000000, 1491906868
0.043701171875, -1.004150390625, 0.246582031250, 0.039062500000, -6.656250000000, 3.726562500000, 1491906868
0.043701171875, -1.004150390625, 0.246582031250, 0.039062500000, -6.656250000000, 3.726562500000, 1491906868
0.043701171875, -1.004150390625, 0.246582031250, 0.039062500000, -6.656250000000, 3.726562500000, 1491906868
0.043701171875, -1.004150390625, 0.246582031250, 0.039062500000, -6.656250000000, 3.726562500000, 1491906868
0.043701171875, -1.004150390625, 0.246582031250, 0.039062500000, -6.656250000000, 3.726562500000, 1491906868
0.148437500000, -1.015869140625, 0.404541015625, -4.398437500000, -4.429687500000, 7.585937500000, 1491906868
0.210693359375, -0.968261718750, 0.391113281250, -9.460937500000, 8.890625000000, 7.890625000000, 1491906868
0.210693359375, -0.968261718750, 0.391113281250, -9.460937500000, 8.890625000000, 7.890625000000, 1491906868
0.210693359375, -0.968261718750, 0.391113281250, -9.460937500000, 8.890625000000, 7.890625000000, 1491906868
0.179443359375, -1.096435546875, 0.462890625000, -17.179687500000, 20.578125000000, 15.781250000000, 1491906868
0.179443359375, -1.096435546875, 0.462890625000, -17.179687500000, 20.578125000000, 15.781250000000, 1491906868
0.179443359375, -1.096435546875, 0.462890625000, -17.179687500000, 20.578125000000, 15.781250000000, 1491906868
0.179443359375, -1.096435546875, 0.462890625000, -17.179687500000, 20.578125000000, 15.781250000000, 1491906868
0.179443359375, -1.096435546875, 0.462890625000, -17.179687500000, 20.578125000000, 15.781250000000, 1491906868
0.179443359375, -1.096435546875, 0.462890625000, -17.179687500000, 20.578125000000, 15.781250000000, 1491906868
0.147705078125, -1.090332031250, 0.302001953125, -22.890625000000, 30.500000000000, 22.617187500000, 1491906868
0.147705078125, -1.090332031250, 0.302001953125, -22.890625000000, 30.500000000000, 22.617187500000, 1491906868
0.147705078125, -1.090332031250, 0.302001953125, -22.890625000000, 30.500000000000, 22.617187500000, 1491906868
0.199462890625, -0.796386718750, 0.242431640625, 0.351562500000, 17.664062500000, 10.195312500000, 1491906868
0.199462890625, -0.796386718750, 0.242431640625, 0.351562500000, 17.664062500000, 10.195312500000, 1491906868
0.199462890625, -0.796386718750, 0.242431640625, 0.351562500000, 17.664062500000, 10.195312500000, 1491906868
0.214111328125, -0.893066406250, 0.278808593750, -9.054687500000, 34.609375000000, 8.718750000000, 1491906868
0.214111328125, -0.893066406250, 0.278808593750, -9.054687500000, 34.609375000000, 8.718750000000, 1491906868
0.214111328125, -0.893066406250, 0.278808593750, -9.054687500000, 34.609375000000, 8.718750000000, 1491906868
0.225097656250, -0.966552734375, 0.254638671875, -6.015625000000, 37.414062500000, 10.468750000000, 1491906868
0.302246093750, -0.908447265625, 0.280273437500, -6.015625000000, 37.414062500000, 10.468750000000, 1491906868
0.302246093750, -0.908447265625, 0.280273437500, -6.015625000000, 37.414062500000, 10.468750000000, 1491906868
0.302246093750, -0.908447265625, 0.280273437500, -6.015625000000, 37.414062500000, 10.468750000000, 1491906868
0.302246093750, -0.908447265625, 0.280273437500, -6.015625000000, 37.414062500000, 10.468750000000, 1491906868
0.302246093750, -0.908447265625, 0.280273437500, -6.015625000000, 37.414062500000, 10.468750000000, 1491906868
0.302246093750, -0.908447265625, 0.280273437500, -6.015625000000, 37.414062500000, 10.468750000000, 1491906868
0.287353515625, -0.931396484375, 0.277099609375, 4.484375000000, 28.734375000000, 12.757812500000, 1491906868
0.287353515625, -0.931396484375, 0.277099609375, 4.484375000000, 28.734375000000, 12.757812500000, 1491906868
0.287353515625, -0.931396484375, 0.277099609375, 4.484375000000, 28.734375000000, 12.757812500000, 1491906868
0.251953125000, -1.010498046875, 0.395263671875, -6.398437500000, 33.960937500000, 9.132812500000, 1491906868
0.251953125000, -1.010498046875, 0.395263671875, -6.398437500000, 33.960937500000, 9.132812500000, 1491906868
0.251953125000, -1.010498046875, 0.395263671875, -6.398437500000, 33.960937500000, 9.132812500000, 1491906868
0.251953125000, -1.010498046875, 0.395263671875, -6.398437500000, 33.960937500000, 9.132812500000, 1491906868
0.159423828125, -0.917236328125, 0.382568359375, 0.039062500000, 17.593750000000, -0.429687500000, 1491906868
0.159423828125, -0.917236328125, 0.382568359375, 0.039062500000, 17.593750000000, -0.429687500000, 1491906868
0.159423828125, -0.917236328125, 0.382568359375, 0.039062500000, 17.593750000000, -0.429687500000, 1491906868
0.207275390625, -0.871093750000, 0.300292968750, -0.695312500000, 20.414062500000, -0.585937500000, 1491906868
0.207275390625, -0.871093750000, 0.300292968750, -0.695312500000, 20.414062500000, -0.585937500000, 1491906868
0.207275390625, -0.871093750000, 0.300292968750, -0.695312500000, 20.414062500000, -0.585937500000, 1491906868
0.184814453125, -0.871093750000, 0.378417968750, -0.320312500000, 19.031250000000, -2.625000000000, 1491906868
0.169433593750, -1.010498046875, 0.328857421875, 0.445312500000, 17.976562500000, -1.773437500000, 1491906868
0.169433593750, -1.010498046875, 0.328857421875, 0.445312500000, 17.976562500000, -1.773437500000, 1491906868
0.169433593750, -1.010498046875, 0.328857421875, 0.445312500000, 17.976562500000, -1.773437500000, 1491906868
0.169433593750, -1.010498046875, 0.328857421875, 0.445312500000, 17.976562500000, -1.773437500000, 1491906868
0.180419921875, -0.863769531250, 0.347412109375, -0.718750000000, 15.609375000000, -4.929687500000, 1491906868
0.223388671875, -0.945312500000, 0.442138671875, 3.359375000000, 7.367187500000, -5.382812500000, 1491906868
0.223388671875, -0.945312500000, 0.442138671875, 3.359375000000, 7.367187500000, -5.382812500000, 1491906868
0.223388671875, -0.945312500000, 0.442138671875, 3.359375000000, 7.367187500000, -5.382812500000, 1491906868
0.223388671875, -0.945312500000, 0.442138671875, 3.359375000000, 7.367187500000, -5.382812500000, 1491906868
0.275390625000, -0.947021484375, 0.286621093750, -4.679687500000, 1.984375000000, -12.500000000000, 1491906869
0.275390625000, -0.947021484375, 0.286621093750, -4.679687500000, 1.984375000000, -12.500000000000, 1491906869
0.275390625000, -0.947021484375, 0.286621093750, -4.679687500000, 1.984375000000, -12.500000000000, 1491906869
0.275390625000, -0.947021484375, 0.286621093750, -4.679687500000, 1.984375000000, -12.500000000000, 1491906869
0.275390625000, -0.947021484375, 0.286621093750, -4.679687500000, 1.984375000000, -12.500000000000, 1491906869
0.275390625000, -0.947021484375, 0.286621093750, -4.679687500000, 1.984375000000, -12.500000000000, 1491906869
0.275390625000, -0.947021484375, 0.286621093750, -4.679687500000, 1.984375000000, -12.500000000000, 1491906869
0.158691406250, -0.927001953125, 0.402099609375, -2.664062500000, -2.484375000000, -14.984375000000, 1491906869
0.158691406250, -0.927001953125, 0.402099609375, -2.664062500000, -2.484375000000, -14.984375000000, 1491906869
0.158691406250, -0.927001953125, 0.402099609375, -2.664062500000, -2.484375000000, -14.984375000000, 1491906869
0.172607421875, -1.008056640625, 0.441162109375, -7.703125000000, -4.578125000000, -17.921875000000, 1491906869
0.172607421875, -1.008056640625, 0.441162109375, -7.703125000000, -4.578125000000, -17.921875000000, 1491906869
0.172607421875, -1.008056640625, 0.441162109375, -7.703125000000, -4.578125000000, -17.921875000000, 1491906869
0.259521484375, -0.918945312500, 0.357666015625, -8.203125000000, -28.398437500000, -19.429687500000, 1491906869
0.259521484375, -0.918945312500, 0.357666015625, -8.203125000000, -28.398437500000, -19.429687500000, 1491906869
0.259521484375, -0.918945312500, 0.357666015625, -8.203125000000, -28.398437500000, -19.429687500000, 1491906869
0.259521484375, -0.918945312500, 0.357666015625, -8.203125000000, -28.398437500000, -19.429687500000, 1491906869
0.250976562500, -0.871337890625, 0.300781250000, 1.601562500000, -16.859375000000, -20.039062500000, 1491906869
0.250976562500, -0.871337890625, 0.300781250000, 1.601562500000, -16.859375000000, -20.039062500000, 1491906869
0.250976562500, -0.871337890625, 0.300781250000, 1.601562500000, -16.859375000000, -20.039062500000, 1491906869
0.250976562500, -0.871337890625, 0.300781250000, 1.601562500000, -16.859375000000, -20.039062500000, 1491906869
0.250976562500, -0.871337890625, 0.300781250000, 1.601562500000, -16.859375000000, -20.039062500000, 1491906869
0.250976562500, -0.871337890625, 0.300781250000, 1.601562500000, -16.859375000000, -20.039062500000, 1491906869
0.213378906250, -0.859375000000, 0.304443359375, 4.789062500000, -22.671875000000, -13.757812500000, 1491906869
0.054687500000, -0.953613281250, 0.223876953125, -1.359375000000, -34.929687500000, -20.609375000000, 1491906869
0.054687500000, -0.953613281250, 0.223876953125, -1.359375000000, -34.929687500000, -20.609375000000, 1491906869
0.054687500000, -0.953613281250, 0.223876953125, -1.359375000000, -34.929687500000, -20.609375000000, 1491906869
0.054687500000, -0.953613281250, 0.223876953125, -1.359375000000, -34.929687500000, -20.609375000000, 1491906869
0.054687500000, -0.953613281250, 0.223876953125, -0.601562500000, -45.578125000000, -20.664062500000, 1491906869
0.071044921875, -0.902099609375, 0.254150390625, -0.773437500000, -51.710937500000, -21.335937500000, 1491906869
0.071044921875, -0.902099609375, 0.254150390625, -0.773437500000, -51.710937500000, -21.335937500000, 1491906869
0.071044921875, -0.902099609375, 0.254150390625, -0.773437500000, -51.710937500000, -21.335937500000, 1491906869
-0.014648437500, -0.984863281250, 0.316162109375, 3.765625000000, -53.265625000000, -24.382812500000, 1491906869
-0.014648437500, -0.984863281250, 0.316162109375, 3.765625000000, -53.265625000000, -24.382812500000, 1491906869
-0.014648437500, -0.984863281250, 0.316162109375, 3.765625000000, -53.265625000000, -24.382812500000, 1491906869
0.135498046875, -0.871093750000, 0.303222656250, -2.835937500000, -26.382812500000, -6.906250000000, 1491906869
0.036376953125, -0.955078125000, 0.303466796875, -2.835937500000, -26.382812500000, -6.906250000000, 1491906869
0.036376953125, -0.955078125000, 0.303466796875, -2.835937500000, -26.382812500000, -6.906250000000, 1491906869
-0.000732421875, -0.883300781250, 0.321044921875, -0.375000000000, -29.312500000000, -10.156250000000, 1491906869
-0.000732421875, -0.883300781250, 0.321044921875, -0.375000000000, -29.312500000000, -10.156250000000, 1491906869
-0.000732421875, -0.883300781250, 0.321044921875, -0.375000000000, -29.312500000000, -10.156250000000, 1491906869
-0.000732421875, -0.883300781250, 0.321044921875, -0.375000000000, -29.312500000000, -10.156250000000, 1491906869
-0.000732421875, -0.883300781250, 0.321044921875, -0.375000000000, -29.312500000000, -10.156250000000, 1491906869
-0.000732421875, -0.883300781250, 0.321044921875, -0.375000000000, -29.312500000000, -10.156250000000, 1491906869
0.033447265625, -0.864990234375, 0.320800781250, -1.109375000000, -21.148437500000, -6.796875000000, 1491906869
0.033447265625, -0.864990234375, 0.320800781250, -1.109375000000, -21.148437500000, -6.796875000000, 1491906869
0.033447265625, -0.864990234375, 0.320800781250, -1.109375000000, -21.148437500000, -6.796875000000, 1491906869
0.033447265625, -0.864990234375, 0.320800781250, -1.109375000000, -21.148437500000, -6.796875000000, 1491906869
0.033447265625, -0.864990234375, 0.320800781250, -1.109375000000, -21.148437500000, -6.796875000000, 1491906869
0.043701171875, -0.978515625000, 0.243164062500, 1.906250000000, -21.132812500000, -8.875000000000, 1491906869
0.119384765625, -0.959716796875, 0.265380859375, 1.156250000000, -13.320312500000, -0.117187500000, 1491906869
0.119384765625, -0.959716796875, 0.265380859375, 1.156250000000, -13.320312500000, -0.117187500000, 1491906869
0.119384765625, -0.959716796875, 0.265380859375, 1.156250000000, -13.320312500000, -0.117187500000, 1491906869
0.119384765625, -0.959716796875, 0.265380859375, 1.156250000000, -13.320312500000, -0.117187500000, 1491906869
0.119384765625, -0.959716796875, 0.265380859375, 1.156250000000, -13.320312500000, -0.117187500000, 1491906869
0.139892578125, -0.960449218750, 0.239257812500, 2.085937500000, -1.210937500000, 8.890625000000, 1491906869
0.139892578125, -0.960449218750, 0.239257812500, 2.085937500000, -1.210937500000, 8.890625000000, 1491906869
0.139892578125, -0.960449218750, 0.239257812500, 2.085937500000, -1.210937500000, 8.890625000000, 1491906869
0.097900390625, -1.024414062500, 0.381347656250, 0.734375000000, 8.007812500000, 10.953125000000, 1491906869
0.097900390625, -1.024414062500, 0.381347656250, 0.734375000000, 8.007812500000, 10.953125000000, 1491906869
0.098876953125, -0.907226562500, 0.308349609375, -9.554687500000, 21.953125000000, 18.414062500000, 1491906869
0.098876953125, -0.907226562500, 0.308349609375, -9.554687500000, 21.953125000000, 18.414062500000, 1491906869
0.098876953125, -0.907226562500, 0.308349609375, -9.554687500000, 21.953125000000, 18.414062500000, 1491906869
0.194091796875, -0.856201171875, 0.381347656250, -11.125000000000, 26.492187500000, 20.593750000000, 1491906869
0.097167968750, -0.869628906250, 0.401123046875, -11.578125000000, 29.851562500000, 17.765625000000, 1491906869
0.097167968750, -0.869628906250, 0.401123046875, -11.578125000000, 29.851562500000, 17.765625000000, 1491906869
0.097167968750, -0.869628906250, 0.401123046875, -11.578125000000, 29.851562500000, 17.765625000000, 1491906869
0.097167968750, -0.869628906250, 0.401123046875, -11.578125000000, 29.851562500000, 17.765625000000, 1491906870
0.166015625000, -0.922119140625, 0.351562500000, -23.281250000000, 55.039062500000, 26.015625000000, 1491906870
0.166015625000, -0.922119140625, 0.351562500000, -23.281250000000, 55.039062500000, 26.015625000000, 1491906870
0.166015625000, -0.922119140625, 0.351562500000, -23.281250000000, 55.039062500000, 26.015625000000, 1491906870
0.119140625000, -0.869628906250, 0.217529296875, -2.875000000000, 16.734375000000, 10.992187500000, 1491906870
0.158935546875, -0.940185546875, 0.229980468750, 1.484375000000, 15.257812500000, 5.796875000000, 1491906870
0.158935546875, -0.940185546875, 0.229980468750, 1.484375000000, 15.257812500000, 5.796875000000, 1491906870
0.158935546875, -0.940185546875, 0.229980468750, 1.484375000000, 15.257812500000, 5.796875000000, 1491906870
0.210693359375, -0.857910156250, 0.336425781250, -1.226562500000, 14.117187500000, 5.515625000000, 1491906870
0.205810546875, -0.949951171875, 0.304931640625, -9.726562500000, 24.906250000000, 4.554687500000, 1491906870
0.205810546875, -0.949951171875, 0.304931640625, -9.726562500000, 24.906250000000, 4.554687500000, 1491906870
0.205810546875, -0.949951171875, 0.304931640625, -9.726562500000, 24.906250000000, 4.554687500000, 1491906870
0.205810546875, -0.949951171875, 0.304931640625, -9.726562500000, 24.906250000000, 4.554687500000, 1491906870
0.183593750000, -1.014892578125, 0.207031250000, -7.710937500000, 31.218750000000, 4.507812500000, 1491906870
0.183593750000, -1.014892578125, 0.207031250000, -7.710937500000, 31.218750000000, 4.507812500000, 1491906870
0.183593750000, -1.014892578125, 0.207031250000, -7.710937500000, 31.218750000000, 4.507812500000, 1491906870
0.183593750000, -1.014892578125, 0.207031250000, -7.710937500000, 31.218750000000, 4.507812500000, 1491906870
0.226074218750, -1.084716796875, 0.439941406250, -2.203125000000, 26.281250000000, 7.148437500000, 1491906870
0.226074218750, -1.084716796875, 0.439941406250, -2.203125000000, 26.281250000000, 7.148437500000, 1491906870
0.226074218750, -1.084716796875, 0.439941406250, -2.203125000000, 26.281250000000, 7.148437500000, 1491906870
0.226074218750, -1.084716796875, 0.439941406250, -2.203125000000, 26.281250000000, 7.148437500000, 1491906870
0.202148437500, -0.997802734375, 0.382324218750, -8.039062500000, 25.492187500000, 5.289062500000, 1491906870
0.202148437500, -0.997802734375, 0.382324218750, -8.039062500000, 25.492187500000, 5.289062500000, 1491906870
0.202148437500, -0.997802734375, 0.382324218750, -8.039062500000, 25.492187500000, 5.289062500000, 1491906870
0.202148437500, -0.997802734375, 0.382324218750, -8.039062500000, 25.492187500000, 5.289062500000, 1491906870
0.202148437500, -0.997802734375, 0.382324218750, -8.039062500000, 25.492187500000, 5.289062500000, 1491906870
0.202148437500, -0.997802734375, 0.382324218750, -8.039062500000, 25.492187500000, 5.289062500000, 1491906870
0.167968750000, -0.890136718750, 0.394531250000, -5.109375000000, 22.906250000000, 2.562500000000, 1491906870
0.167968750000, -0.890136718750, 0.394531250000, -5.109375000000, 22.906250000000, 2.562500000000, 1491906870
0.167968750000, -0.890136718750, 0.394531250000, -5.109375000000, 22.906250000000, 2.562500000000, 1491906870
0.183837890625, -0.772216796875, 0.242187500000, -6.710937500000, 20.039062500000, -0.890625000000, 1491906870
0.183837890625, -0.772216796875, 0.242187500000, -6.710937500000, 20.039062500000, -0.890625000000, 1491906870
0.183837890625, -0.772216796875, 0.242187500000, -6.710937500000, 20.039062500000, -0.890625000000, 1491906870
0.183837890625, -0.772216796875, 0.242187500000, -6.710937500000, 20.039062500000, -0.890625000000, 1491906870
0.262207031250, -0.920410156250, 0.248779296875, -1.226562500000, 12.992187500000, -1.398437500000, 1491906870
0.262207031250, -0.920410156250, 0.248779296875, -1.226562500000, 12.992187500000, -1.398437500000, 1491906870
0.262207031250, -0.920410156250, 0.248779296875, -1.226562500000, 12.992187500000, -1.398437500000, 1491906870
0.206542968750, -0.958251953125, 0.456542968750, -3.218750000000, 10.593750000000, -3.804687500000, 1491906870
0.206542968750, -0.958251953125, 0.456542968750, -3.218750000000, 10.593750000000, -3.804687500000, 1491906870
0.206542968750, -0.958251953125, 0.456542968750, -3.218750000000, 10.593750000000, -3.804687500000, 1491906870
0.247558593750, -0.882568359375, 0.443359375000, -1.101562500000, 12.445312500000, -3.007812500000, 1491906870
0.187011718750, -0.793945312500, 0.375488281250, -6.031250000000, 0.171875000000, -12.312500000000, 1491906870
0.187011718750, -0.793945312500, 0.375488281250, -6.031250000000, 0.171875000000, -12.312500000000, 1491906870
0.187011718750, -0.793945312500, 0.375488281250, -6.031250000000, 0.171875000000, -12.312500000000, 1491906870
0.213134765625, -0.958007812500, 0.465576171875, -5.664062500000, -1.601562500000, -16.210937500000, 1491906870
0.213134765625, -0.958007812500, 0.465576171875, -5.664062500000, -1.601562500000, -16.210937500000, 1491906870
0.213134765625, -0.958007812500, 0.465576171875, -5.664062500000, -1.601562500000, -16.210937500000, 1491906870
0.213134765625, -0.958007812500, 0.465576171875, -5.664062500000, -1.601562500000, -16.210937500000, 1491906870
0.213134765625, -0.958007812500, 0.465576171875, -5.664062500000, -1.601562500000, -16.210937500000, 1491906870
0.210205078125, -0.864746093750, 0.450683593750, -5.007812500000, -10.390625000000, -15.867187500000, 1491906870
0.210205078125, -0.864746093750, 0.450683593750, -5.007812500000, -10.390625000000, -15.867187500000, 1491906870
0.210205078125, -0.864746093750, 0.450683593750, -5.007812500000, -10.390625000000, -15.867187500000, 1491906870
0.210205078125, -0.864746093750, 0.450683593750, -5.007812500000, -10.390625000000, -15.867187500000, 1491906870
0.179199218750, -0.866943359375, 0.408691406250, -3.250000000000, -19.039062500000, -22.445312500000, 1491906870
0.179199218750, -0.866943359375, 0.408691406250, -3.250000000000, -19.039062500000, -22.445312500000, 1491906870
0.179199218750, -0.866943359375, 0.408691406250, -3.250000000000, -19.039062500000, -22.445312500000, 1491906870
0.220703125000, -0.998535156250, 0.462890625000, -11.078125000000, -9.093750000000, -25.476562500000, 1491906870
0.220703125000, -0.998535156250, 0.462890625000, -11.078125000000, -9.093750000000, -25.476562500000, 1491906870
0.220703125000, -0.998535156250, 0.462890625000, -11.078125000000, -9.093750000000, -25.476562500000, 1491906870
0.220703125000, -0.998535156250, 0.462890625000, -11.078125000000, -9.093750000000, -25.476562500000, 1491906870
0.290283203125, -1.007324218750, 0.248779296875, -2.437500000000, -14.617187500000, -21.117187500000, 1491906870
0.290283203125, -1.007324218750, 0.248779296875, -2.437500000000, -14.617187500000, -21.117187500000, 1491906870
0.290283203125, -1.007324218750, 0.248779296875, -2.437500000000, -14.617187500000, -21.117187500000, 1491906870
0.304443359375, -1.011962890625, 0.303222656250, 8.804687500000, -9.781250000000, -17.281250000000, 1491906870
-0.024902343750, -0.908447265625, 0.290771484375, -8.046875000000, -6.390625000000, -12.187500000000, 1491906871
0.065185546875, -0.933837890625, 0.285400390625, 0.023437500000, -33.210937500000, -18.953125000000, 1491906871
0.065185546875, -0.933837890625, 0.285400390625, 0.023437500000, -33.210937500000, -18.953125000000, 1491906871
0.065185546875, -0.933837890625, 0.285400390625, 0.023437500000, -33.210937500000, -18.953125000000, 1491906871
0.065185546875, -0.933837890625, 0.285400390625, 0.023437500000, -33.210937500000, -18.953125000000, 1491906871
0.041259765625, -1.004882812500, 0.383789062500, -2.156250000000, -36.125000000000, -15.484375000000, 1491906871
0.131835937500, -1.029785156250, 0.326171875000, -2.125000000000, -32.804687500000, -16.445312500000, 1491906871
0.131835937500, -1.029785156250, 0.326171875000, -2.125000000000, -32.804687500000, -16.445312500000, 1491906871
0.131835937500, -1.029785156250, 0.326171875000, -2.125000000000, -32.804687500000, -16.445312500000, 1491906871
0.131835937500, -1.029785156250, 0.326171875000, -2.125000000000, -32.804687500000, -16.445312500000, 1491906871
0.131835937500, -1.029785156250, 0.326171875000, -2.125000000000, -32.804687500000, -16.445312500000, 1491906871
0.131835937500, -1.029785156250, 0.326171875000, -2.125000000000, -32.804687500000, -16.445312500000, 1491906871
0.062255859375, -0.850585937500, 0.221191406250, -2.601562500000, -35.250000000000, -18.117187500000, 1491906871
0.072509765625, -0.925292968750, 0.388183593750, 10.289062500000, -55.929687500000, -17.906250000000, 1491906871
0.072509765625, -0.925292968750, 0.388183593750, 10.289062500000, -55.929687500000, -17.906250000000, 1491906871
0.072509765625, -0.925292968750, 0.388183593750, 10.289062500000, -55.929687500000, -17.906250000000, 1491906871
0.072509765625, -0.925292968750, 0.388183593750, 10.289062500000, -55.929687500000, -17.906250000000, 1491906871
0.072509765625, -0.925292968750, 0.388183593750, 10.289062500000, -55.929687500000, -17.906250000000, 1491906871
0.104003906250, -0.916748046875, 0.344970703125, -0.843750000000, -30.968750000000, -10.937500000000, 1491906871
0.104003906250, -0.916748046875, 0.344970703125, -0.843750000000, -30.968750000000, -10.937500000000, 1491906871
0.104003906250, -0.916748046875, 0.344970703125, -0.843750000000, -30.968750000000, -10.937500000000, 1491906871
0.104003906250, -0.916748046875, 0.344970703125, -0.843750000000, -30.968750000000, -10.937500000000, 1491906871
0.054199218750, -0.916503906250, 0.352783203125, -4.328125000000, -23.679687500000, -8.320312500000, 1491906871
0.054199218750, -0.916503906250, 0.352783203125, -4.328125000000, -23.679687500000, -8.320312500000, 1491906871
0.054199218750, -0.916503906250, 0.352783203125, -4.328125000000, -23.679687500000, -8.320312500000, 1491906871
0.081054687500, -0.827880859375, 0.312500000000, -5.523437500000, -19.296875000000, -3.367187500000, 1491906871
0.187988281250, -0.899902343750, 0.339355468750, -3.484375000000, -14.765625000000, -4.820312500000, 1491906871
0.187988281250, -0.899902343750, 0.339355468750, -3.484375000000, -14.765625000000, -4.820312500000, 1491906871
0.147705078125, -0.911865234375, 0.355224609375, -3.000000000000, -15.882812500000, -4.406250000000, 1491906871
0.139404296875, -0.937744140625, 0.293212890625, 1.250000000000, -11.804687500000, -4.132812500000, 1491906871
0.139404296875, -0.937744140625, 0.293212890625, 1.250000000000, -11.804687500000, -4.132812500000, 1491906871
0.139404296875, -0.937744140625, 0.293212890625, 1.250000000000, -11.804687500000, -4.132812500000, 1491906871
0.139404296875, -0.937744140625, 0.293212890625, 1.250000000000, -11.804687500000, -4.132812500000, 1491906871
0.139404296875, -0.937744140625, 0.293212890625, 1.250000000000, -11.804687500000, -4.132812500000, 1491906871
0.132080078125, -0.969238281250, 0.400634765625, 0.828125000000, 0.500000000000, 2.101562500000, 1491906871
0.132080078125, -0.969238281250, 0.400634765625, 0.828125000000, 0.500000000000, 2.101562500000, 1491906871
0.132080078125, -0.969238281250, 0.400634765625, 0.828125000000, 0.500000000000, 2.101562500000, 1491906871
0.132080078125, -0.969238281250, 0.400634765625, 0.828125000000, 0.500000000000, 2.101562500000, 1491906871
0.214843750000, -0.807617187500, 0.311279296875, 0.671875000000, 4.921875000000, 8.359375000000, 1491906871
0.206542968750, -0.948730468750, 0.302734375000, 6.031250000000, 9.375000000000, 9.210937500000, 1491906871
0.206542968750, -0.948730468750, 0.302734375000, 6.031250000000, 9.375000000000, 9.210937500000, 1491906871
0.206542968750, -0.948730468750, 0.302734375000, 6.031250000000, 9.375000000000, 9.210937500000, 1491906871
0.206542968750, -0.948730468750, 0.302734375000, 6.031250000000, 9.375000000000, 9.210937500000, 1491906871
0.206542968750, -0.948730468750, 0.302734375000, 6.031250000000, 9.375000000000, 9.210937500000, 1491906871
0.193359375000, -0.960937500000, 0.438720703125, -10.382812500000, 36.421875000000, 17.671875000000, 1491906871
0.193359375000, -0.960937500000, 0.438720703125, -10.382812500000, 36.421875000000, 17.671875000000, 1491906871
0.193359375000, -0.960937500000, 0.438720703125, -10.382812500000, 36.421875000000, 17.671875000000, 1491906871
0.193359375000, -0.960937500000, 0.438720703125, -10.382812500000, 36.421875000000, 17.671875000000, 1491906871
0.104003906250, -1.062500000000, 0.419921875000, -10.484375000000, 27.031250000000, 18.453125000000, 1491906871
0.104003906250, -1.062500000000, 0.419921875000, -10.484375000000, 27.031250000000, 18.453125000000, 1491906871
0.104003906250, -1.062500000000, 0.419921875000, -10.484375000000, 27.031250000000, 18.453125000000, 1491906871
0.108886718750, -1.026611328125, 0.453369140625, -7.937500000000, 26.742187500000, 15.734375000000, 1491906871
0.108886718750, -1.026611328125, 0.453369140625, -7.937500000000, 26.742187500000, 15.734375000000, 1491906871
0.108886718750, -1.026611328125, 0.453369140625, -7.937500000000, 26.742187500000, 15.734375000000, 1491906871
0.132568359375, -0.949707031250, 0.304199218750, -5.562500000000, 19.445312500000, 8.414062500000, 1491906871
0.132568359375, -0.949707031250, 0.304199218750, -5.562500000000, 19.445312500000, 8.414062500000, 1491906871
0.132568359375, -0.949707031250, 0.304199218750, -5.562500000000, 19.445312500000, 8.414062500000, 1491906871
0.132568359375, -0.949707031250, 0.304199218750, -5.562500000000, 19.445312500000, 8.414062500000, 1491906871
0.132568359375, -0.949707031250, 0.304199218750, -5.562500000000, 19.445312500000, 8.414062500000, 1491906871
0.132568359375, -0.949707031250, 0.304199218750, -5.562500000000, 19.445312500000, 8.414062500000, 1491906871
0.132568359375, -0.949707031250, 0.304199218750, -5.562500000000, 19.445312500000, 8.414062500000, 1491906871
0.281005859375, -0.838134765625, 0.164550781250, -10.367187500000, 33.125000000000, 3.742187500000, 1491906871
0.281005859375, -0.838134765625, 0.164550781250, -10.367187500000, 33.125000000000, 3.742187500000, 1491906871
0.281005859375, -0.838134765625, 0.164550781250, -10.367187500000, 33.125000000000, 3.742187500000, 1491906871
0.281005859375, -0.838134765625, 0.164550781250, -10.367187500000, 33.125000000000, 3.742187500000, 1491906871
0.281005859375, -0.838134765625, 0.164550781250, -10.367187500000, 33.125000000000, 3.742187500000, 1491906871
0.281005859375, -0.838134765625, 0.164550781250, -10.367187500000, 33.125000000000, 3.742187500000, 1491906871
0.377929687500, -1.028564453125, 0.448486328125, -0.554687500000, 24.046875000000, 8.000000000000, 1491906872
0.377929687500, -1.028564453125, 0.448486328125, -0.554687500000, 24.046875000000, 8.000000000000, 1491906872
0.377929687500, -1.028564453125, 0.448486328125, -0.554687500000, 24.046875000000, 8.000000000000, 1491906872
0.377929687500, -1.028564453125, 0.448486328125, -0.554687500000, 24.046875000000, 8.000000000000, 1491906872
0.377929687500, -1.028564453125, 0.448486328125, -0.554687500000, 24.046875000000, 8.000000000000, 1491906872
0.377929687500, -1.028564453125, 0.448486328125, -0.554687500000, 24.046875000000, 8.000000000000, 1491906872
0.377929687500, -1.028564453125, 0.448486328125, -0.554687500000, 24.046875000000, 8.000000000000, 1491906872
0.054687500000, -0.884765625000, 0.343994140625, 0.468750000000, 19.828125000000, -2.335937500000, 1491906872
0.157714843750, -0.805175781250, 0.331542968750, -0.882812500000, 8.820312500000, -6.062500000000, 1491906872
0.157714843750, -0.805175781250, 0.331542968750, -0.882812500000, 8.820312500000, -6.062500000000, 1491906872
0.274414062500, -0.968017578125, 0.361572265625, 3.445312500000, 2.796875000000, -9.132812500000, 1491906872
0.177734375000, -0.849609375000, 0.453613281250, 3.445312500000, 2.796875000000, -9.132812500000, 1491906872
0.177734375000, -0.849609375000, 0.453613281250, 3.445312500000, 2.796875000000, -9.132812500000, 1491906872
0.177734375000, -0.849609375000, 0.453613281250, 3.445312500000, 2.796875000000, -9.132812500000, 1491906872
0.177734375000, -0.849609375000, 0.453613281250, 3.445312500000, 2.796875000000, -9.132812500000, 1491906872
0.177734375000, -0.849609375000, 0.453613281250, 3.445312500000, 2.796875000000, -9.132812500000, 1491906872
0.177734375000, -0.849609375000, 0.453613281250, 3.445312500000, 2.796875000000, -9.132812500000, 1491906872
0.177734375000, -0.849609375000, 0.453613281250, 3.445312500000, 2.796875000000, -9.132812500000, 1491906872
0.215332031250, -0.749267578125, 0.358154296875, 2.265625000000, -0.664062500000, -9.171875000000, 1491906872
0.215332031250, -0.749267578125, 0.358154296875, 2.265625000000, -0.664062500000, -9.171875000000, 1491906872
0.215332031250, -0.749267578125, 0.358154296875, 2.265625000000, -0.664062500000, -9.171875000000, 1491906872
0.215332031250, -0.749267578125, 0.358154296875, 2.265625000000, -0.664062500000, -9.171875000000, 1491906872
0.215332031250, -0.749267578125, 0.358154296875, 2.265625000000, -0.664062500000, -9.171875000000, 1491906872
0.215332031250, -0.749267578125, 0.358154296875, 2.265625000000, -0.664062500000, -9.171875000000, 1491906872
0.315429687500, -0.896728515625, 0.407226562500, -1.500000000000, -0.367187500000, -11.250000000000, 1491906872
0.315429687500, -0.896728515625, 0.407226562500, -1.500000000000, -0.367187500000, -11.250000000000, 1491906872
0.315429687500, -0.896728515625, 0.407226562500, -1.500000000000, -0.367187500000, -11.250000000000, 1491906872
0.121826171875, -0.862304687500, 0.400146484375, -1.960937500000, 2.835937500000, -14.445312500000, 1491906872
0.262695312500, -0.888427734375, 0.466796875000, -3.687500000000, -9.265625000000, -18.812500000000, 1491906872
0.262695312500, -0.888427734375, 0.466796875000, -3.687500000000, -9.265625000000, -18.812500000000, 1491906872
0.262695312500, -0.888427734375, 0.466796875000, -3.687500000000, -9.265625000000, -18.812500000000, 1491906872
0.262695312500, -0.888427734375, 0.466796875000, -3.687500000000, -9.265625000000, -18.812500000000, 1491906872
0.226318359375, -0.947021484375, 0.399414062500, -9.695312500000, -3.609375000000, -13.210937500000, 1491906872
0.226318359375, -0.947021484375, 0.399414062500, -9.695312500000, -3.609375000000, -13.210937500000, 1491906872
0.226318359375, -0.947021484375, 0.399414062500, -9.695312500000, -3.609375000000, -13.210937500000, 1491906872
0.117675781250, -1.013427734375, 0.450683593750, -10.632812500000, 2.695312500000, -18.164062500000, 1491906872
0.117675781250, -1.013427734375, 0.450683593750, -10.632812500000, 2.695312500000, -18.164062500000, 1491906872
0.117675781250, -1.013427734375, 0.450683593750, -10.632812500000, 2.695312500000, -18.164062500000, 1491906872
0.117675781250, -1.013427734375, 0.450683593750, -10.632812500000, 2.695312500000, -18.164062500000, 1491906872
0.117675781250, -1.013427734375, 0.450683593750, -10.632812500000, 2.695312500000, -18.164062500000, 1491906872
0.128662109375, -0.923828125000, 0.365966796875, -3.843750000000, -3.875000000000, -17.117187500000, 1491906872
0.197753906250, -1.000244140625, 0.467285156250, -6.804687500000, 2.585937500000, -11.171875000000, 1491906872
0.116455078125, -1.064208984375, 0.369384765625, -6.804687500000, 2.585937500000, -11.171875000000, 1491906872
0.116455078125, -1.064208984375, 0.369384765625, -6.804687500000, 2.585937500000, -11.171875000000, 1491906872
0.116455078125, -1.064208984375, 0.369384765625, -6.804687500000, 2.585937500000, -11.171875000000, 1491906872
0.116455078125, -1.064208984375, 0.369384765625, -6.804687500000, 2.585937500000, -11.171875000000, 1491906872
0.322998046875, -1.011718750000, 0.297607421875, -7.695312500000, 2.398437500000, -8.773437500000, 1491906872
0.148681640625, -0.956054687500, 0.401611328125, -3.125000000000, -3.046875000000, -7.429687500000, 1491906872
0.148681640625, -0.956054687500, 0.401611328125, -3.125000000000, -3.046875000000, -7.429687500000, 1491906872
0.148681640625, -0.956054687500, 0.401611328125, -3.125000000000, -3.046875000000, -7.429687500000, 1491906872
-0.004882812500, -0.887207031250, 0.294433593750, -8.148437500000, -14.765625000000, -12.781250000000, 1491906872
-0.004882812500, -0.887207031250, 0.294433593750, -8.148437500000, -14.765625000000, -12.781250000000, 1491906872
-0.004882812500, -0.887207031250, 0.294433593750, -8.148437500000, -14.765625000000, -12.781250000000, 1491906872
-0.130126953125, -1.019775390625, 0.274902343750, 2.750000000000, -39.195312500000, -22.078125000000, 1491906872
0.037353515625, -0.848144531250, 0.171875000000, 3.671875000000, -46.335937500000, -19.515625000000, 1491906872
0.037353515625, -0.848144531250, 0.171875000000, 3.671875000000, -46.335937500000, -19.515625000000, 1491906872
0.037353515625, -0.848144531250, 0.171875000000, 3.671875000000, -46.335937500000, -19.515625000000, 1491906872
0.132324218750, -1.050537109375, 0.295654296875, 12.023437500000, -56.593750000000, -19.070312500000, 1491906872
0.132324218750, -1.050537109375, 0.295654296875, 12.023437500000, -56.593750000000, -19.070312500000, 1491906872
0.132324218750, -1.050537109375, 0.295654296875, 12.023437500000, -56.593750000000, -19.070312500000, 1491906872
0.132324218750, -1.050537109375, 0.295654296875, 12.023437500000, -56.593750000000, -19.070312500000, 1491906872
0.123779296875, -1.129882812500, 0.387939453125, -0.226562500000, -38.523437500000, -11.218750000000, 1491906872
0.123779296875, -1.129882812500, 0.387939453125, -0.226562500000, -38.523437500000, -11.218750000000, 1491906872
0.123779296875, -1.129882812500, 0.387939453125, -0.226562500000, -38.523437500000, -11.218750000000, 1491906872
0.088134765625, -0.897216796875, 0.282714843750, 0.765625000000, -38.015625000000, -10.945312500000, 1491906872
0.088134765625, -0.897216796875, 0.282714843750, 0.765625000000, -38.015625000000, -10.945312500000, 1491906873
0.088134765625, -0.897216796875, 0.282714843750, 0.765625000000, -38.015625000000, -10.945312500000, 1491906873
0.088134765625, -0.897216796875, 0.282714843750, 0.765625000000, -38.015625000000, -10.945312500000, 1491906873
-0.015869140625, -0.874023437500, 0.329345703125, -4.242187500000, -30.500000000000, -7.617187500000, 1491906873
0.075683593750, -0.960937500000, 0.333496093750, -4.343750000000, -30.078125000000, -7.445312500000, 1491906873
0.075683593750, -0.960937500000, 0.333496093750, -4.343750000000, -30.078125000000, -7.445312500000, 1491906873
0.075683593750, -0.960937500000, 0.333496093750, -4.343750000000, -30.078125000000, -7.445312500000, 1491906873
0.075683593750, -0.960937500000, 0.333496093750, -4.343750000000, -30.078125000000, -7.445312500000, 1491906873
0.043457031250, -0.989990234375, 0.356933593750, 2.820312500000, -30.929687500000, -12.757812500000, 1491906873
0.043457031250, -0.989990234375, 0.356933593750, 2.820312500000, -30.929687500000, -12.757812500000, 1491906873
0.043457031250, -0.989990234375, 0.356933593750, 2.820312500000, -30.929687500000, -12.757812500000, 1491906873
0.157714843750, -1.016845703125, 0.399658203125, -1.492187500000, -9.992187500000, 0.593750000000, 1491906873
0.157714843750, -1.016845703125, 0.399658203125, -1.492187500000, -9.992187500000, 0.593750000000, 1491906873
0.157714843750, -1.016845703125, 0.399658203125, -1.492187500000, -9.992187500000, 0.593750000000, 1491906873
0.107421875000, -1.019042968750, 0.397949218750, -2.187500000000, -4.335937500000, 4.007812500000, 1491906873
0.208740234375, -0.957763671875, 0.296386718750, -2.164062500000, -6.367187500000, 1.578125000000, 1491906873
0.208740234375, -0.957763671875, 0.296386718750, -2.164062500000, -6.367187500000, 1.578125000000, 1491906873
0.208740234375, -0.957763671875, 0.296386718750, -2.164062500000, -6.367187500000, 1.578125000000, 1491906873
0.208740234375, -0.957763671875, 0.296386718750, -2.164062500000, -6.367187500000, 1.578125000000, 1491906873
0.208740234375, -0.957763671875, 0.296386718750, -2.164062500000, -6.367187500000, 1.578125000000, 1491906873
0.097656250000, -0.905029296875, 0.298339843750, 2.000000000000, 4.921875000000, 8.289062500000, 1491906873
0.097656250000, -0.905029296875, 0.298339843750, 2.000000000000, 4.921875000000, 8.289062500000, 1491906873
0.097656250000, -0.905029296875, 0.298339843750, 2.000000000000, 4.921875000000, 8.289062500000, 1491906873
0.097656250000, -0.905029296875, 0.298339843750, 2.000000000000, 4.921875000000, 8.289062500000, 1491906873
0.209716796875, -0.905273437500, 0.299316406250, 0.000000000000, 8.804687500000, 9.343750000000, 1491906873
0.209716796875, -0.905273437500, 0.299316406250, 0.000000000000, 8.804687500000, 9.343750000000, 1491906873
0.106201171875, -0.995117187500, 0.360595703125, -17.500000000000, 27.468750000000, 21.375000000000, 1491906873
0.106201171875, -0.995117187500, 0.360595703125, -17.500000000000, 27.468750000000, 21.375000000000, 1491906873
0.106201171875, -0.995117187500, 0.360595703125, -17.500000000000, 27.468750000000, 21.375000000000, 1491906873
0.106201171875, -0.995117187500, 0.360595703125, -17.500000000000, 27.468750000000, 21.375000000000, 1491906873
0.106201171875, -0.995117187500, 0.360595703125, -17.500000000000, 27.468750000000, 21.375000000000, 1491906873
0.215332031250, -0.987548828125, 0.373779296875, -15.117187500000, 28.789062500000, 19.875000000000, 1491906873
0.215332031250, -0.987548828125, 0.373779296875, -15.117187500000, 28.789062500000, 19.875000000000, 1491906873
0.215332031250, -0.987548828125, 0.373779296875, -15.117187500000, 28.789062500000, 19.875000000000, 1491906873
0.214599609375, -1.082763671875, 0.374511718750, -5.296875000000, 27.515625000000, 20.148437500000, 1491906873
0.214599609375, -1.082763671875, 0.374511718750, -5.296875000000, 27.515625000000, 20.148437500000, 1491906873
0.214599609375, -1.082763671875, 0.374511718750, -5.296875000000, 27.515625000000, 20.148437500000, 1491906873
0.183349609375, -0.815673828125, 0.313964843750, -7.710937500000, 24.906250000000, 12.523437500000, 1491906873
0.183349609375, -0.815673828125, 0.313964843750, -7.710937500000, 24.906250000000, 12.523437500000, 1491906873
0.183349609375, -0.815673828125, 0.313964843750, -7.710937500000, 24.906250000000, 12.523437500000, 1491906873
0.185302734375, -0.784667968750, 0.292480468750, -8.781250000000, 24.609375000000, 8.820312500000, 1491906873
0.185302734375, -0.784667968750, 0.292480468750, -8.781250000000, 24.609375000000, 8.820312500000, 1491906873
0.185302734375, -0.784667968750, 0.292480468750, -8.781250000000, 24.609375000000, 8.820312500000, 1491906873
0.185302734375, -0.784667968750, 0.292480468750, -8.781250000000, 24.609375000000, 8.820312500000, 1491906873
0.225097656250, -0.918701171875, 0.160888671875, -8.109375000000, 33.062500000000, 8.890625000000, 1491906873
0.225097656250, -0.918701171875, 0.160888671875, -8.109375000000, 33.062500000000, 8.890625000000, 1491906873
0.225097656250, -0.918701171875, 0.160888671875, -8.109375000000, 33.062500000000, 8.890625000000, 1491906873
0.275634765625, -0.927734375000, 0.403808593750, -8.929687500000, 43.210937500000, 14.453125000000, 1491906873
0.275634765625, -0.927734375000, 0.403808593750, -8.929687500000, 43.210937500000, 14.453125000000, 1491906873
0.275634765625, -0.927734375000, 0.403808593750, -8.929687500000, 43.210937500000, 14.453125000000, 1491906873
0.275634765625, -0.927734375000, 0.403808593750, -8.164062500000, 41.406250000000, 12.710937500000, 1491906873
0.184326171875, -1.016601562500, 0.351562500000, -10.250000000000, 38.625000000000, 7.515625000000, 1491906873
0.184326171875, -1.016601562500, 0.351562500000, -10.250000000000, 38.625000000000, 7.515625000000, 1491906873
0.184326171875, -1.016601562500, 0.351562500000, -10.250000000000, 38.625000000000, 7.515625000000, 1491906873
0.184326171875, -1.016601562500, 0.351562500000, -10.250000000000, 38.625000000000, 7.515625000000, 1491906873
0.184326171875, -1.016601562500, 0.351562500000, -10.250000000000, 38.625000000000, 7.515625000000, 1491906873
0.184326171875, -1.016601562500, 0.351562500000, -10.250000000000, 38.625000000000, 7.515625000000, 1491906873
0.186279296875, -0.871582031250, 0.377197265625, -7.218750000000, 31.171875000000, -0.921875000000, 1491906873
0.186279296875, -0.871582031250, 0.377197265625, -7.218750000000, 31.171875000000, -0.921875000000, 1491906873
0.186279296875, -0.871582031250, 0.377197265625, -7.218750000000, 31.171875000000, -0.921875000000, 1491906873
0.151367187500, -0.807128906250, 0.378417968750, -4.726562500000, 25.125000000000, -0.312500000000, 1491906873
0.262207031250, -0.803466796875, 0.361083984375, -3.765625000000, 26.140625000000, -1.679687500000, 1491906873
0.262207031250, -0.803466796875, 0.361083984375, -3.765625000000, 26.140625000000, -1.679687500000, 1491906873
0.262207031250, -0.803466796875, 0.361083984375, -3.765625000000, 26.140625000000, -1.679687500000, 1491906873
0.265380859375, -0.871826171875, 0.399902343750, -0.937500000000, 16.132812500000, -6.453125000000, 1491906873
0.265380859375, -0.871826171875, 0.399902343750, -0.937500000000, 16.132812500000, -6.453125000000, 1491906873
0.265380859375, -0.871826171875, 0.399902343750, -0.937500000000, 16.132812500000, -6.453125000000, 1491906873
0.265380859375, -0.871826171875, 0.399902343750, -0.937500000000, 16.132812500000, -6.453125000000, 1491906873
0.265380859375, -0.871826171875, 0.399902343750, -0.937500000000, 16.132812500000, -6.453125000000, 1491906873
0.212402343750, -0.885498046875, 0.466308593750, 4.281250000000, 4.453125000000, -8.695312500000, 1491906874
0.212402343750, -0.885498046875, 0.466308593750, 4.281250000000, 4.453125000000, -8.695312500000, 1491906874
0.212402343750, -0.885498046875, 0.466308593750, 4.281250000000, 4.453125000000, -8.695312500000, 1491906874
0.212402343750, -0.885498046875, 0.466308593750, 4.281250000000, 4.453125000000, -8.695312500000, 1491906874
0.113769531250, -0.801269531250, 0.464599609375, -0.875000000000, 6.179687500000, -11.054687500000, 1491906874
0.113769531250, -0.801269531250, 0.464599609375, -0.875000000000, 6.179687500000, -11.054687500000, 1491906874
0.113769531250, -0.801269531250, 0.464599609375, -0.875000000000, 6.179687500000, -11.054687500000, 1491906874
0.260009765625, -0.875244140625, 0.407470703125, 4.695312500000, 0.500000000000, -18.804687500000, 1491906874
0.260009765625, -0.875244140625, 0.407470703125, 4.695312500000, 0.500000000000, -18.804687500000, 1491906874
0.260009765625, -0.875244140625, 0.407470703125, 4.695312500000, 0.500000000000, -18.804687500000, 1491906874
0.203857421875, -0.965820312500, 0.366699218750, 5.289062500000, -14.125000000000, -17.492187500000, 1491906874
0.203857421875, -0.965820312500, 0.366699218750, 5.289062500000, -14.125000000000, -17.492187500000, 1491906874
0.203857421875, -0.965820312500, 0.366699218750, 5.289062500000, -14.125000000000, -17.492187500000, 1491906874
0.203857421875, -0.965820312500, 0.366699218750, 5.289062500000, -14.125000000000, -17.492187500000, 1491906874
0.238769531250, -1.016357421875, 0.465087890625, 2.687500000000, -7.656250000000, -17.382812500000, 1491906874
0.238769531250, -1.016357421875, 0.465087890625, 2.687500000000, -7.656250000000, -17.382812500000, 1491906874
0.222900390625, -1.026367187500, 0.354736328125, -5.679687500000, -15.000000000000, -23.671875000000, 1491906874
0.222900390625, -1.026367187500, 0.354736328125, -5.679687500000, -15.000000000000, -23.671875000000, 1491906874
0.222900390625, -1.026367187500, 0.354736328125, -5.679687500000, -15.000000000000, -23.671875000000, 1491906874
0.222900390625, -1.026367187500, 0.354736328125, -5.679687500000, -15.000000000000, -23.671875000000, 1491906874
0.084716796875, -0.955078125000, 0.340087890625, -2.468750000000, -10.398437500000, -21.078125000000, 1491906874
0.084716796875, -0.955078125000, 0.340087890625, -2.468750000000, -10.398437500000, -21.078125000000, 1491906874
0.084716796875, -0.955078125000, 0.340087890625, -2.468750000000, -10.398437500000, -21.078125000000, 1491906874
0.141357421875, -0.992187500000, 0.324462890625, -0.703125000000, -28.554687500000, -20.937500000000, 1491906874
0.141357421875, -0.992187500000, 0.324462890625, -0.703125000000, -28.554687500000, -20.937500000000, 1491906874
0.141357421875, -0.992187500000, 0.324462890625, -0.703125000000, -28.554687500000, -20.937500000000, 1491906874
0.141357421875, -0.992187500000, 0.324462890625, -0.703125000000, -28.554687500000, -20.937500000000, 1491906874
0.016601562500, -0.954589843750, 0.206542968750, -0.695312500000, -56.929687500000, -25.898437500000, 1491906874
-0.092529296875, -0.956542968750, 0.334716796875, -0.695312500000, -56.929687500000, -25.898437500000, 1491906874
-0.092529296875, -0.956542968750, 0.334716796875, -0.695312500000, -56.929687500000, -25.898437500000, 1491906874
-0.092529296875, -0.956542968750, 0.334716796875, -0.695312500000, -56.929687500000, -25.898437500000, 1491906874
0.087890625000, -1.080078125000, 0.222167968750, -2.859375000000, -63.335937500000, -29.734375000000, 1491906874
0.087890625000, -1.080078125000, 0.222167968750, -2.859375000000, -63.335937500000, -29.734375000000, 1491906874
0.027099609375, -0.948486328125, 0.222656250000, -2.148437500000, -62.304687500000, -32.468750000000, 1491906874
0.094482421875, -1.032714843750, 0.339843750000, 2.281250000000, -68.859375000000, -19.382812500000, 1491906874
0.094482421875, -1.032714843750, 0.339843750000, 2.281250000000, -68.859375000000, -19.382812500000, 1491906874
0.094482421875, -1.032714843750, 0.339843750000, 2.281250000000, -68.859375000000, -19.382812500000, 1491906874
0.061523437500, -0.921630859375, 0.286865234375, -5.390625000000, -42.484375000000, -8.492187500000, 1491906874
0.061523437500, -0.921630859375, 0.286865234375, -5.390625000000, -42.484375000000, -8.492187500000, 1491906874
0.061523437500, -0.921630859375, 0.286865234375, -5.390625000000, -42.484375000000, -8.492187500000, 1491906874
0.061523437500, -0.921630859375, 0.286865234375, -5.390625000000, -42.484375000000, -8.492187500000, 1491906874
0.146240234375, -0.784912109375, 0.338378906250, -2.992187500000, -42.593750000000, -7.015625000000, 1491906874
0.146240234375, -0.784912109375, 0.338378906250, -2.992187500000, -42.593750000000, -7.015625000000, 1491906874
0.146240234375, -0.784912109375, 0.338378906250, -2.992187500000, -42.593750000000, -7.015625000000, 1491906874
0.146240234375, -0.784912109375, 0.338378906250, -2.992187500000, -42.593750000000, -7.015625000000, 1491906874
0.058105468750, -0.967773437500, 0.346435546875, -6.281250000000, -34.320312500000, -5.945312500000, 1491906874
0.058105468750, -0.967773437500, 0.346435546875, -6.281250000000, -34.320312500000, -5.945312500000, 1491906874
0.058105468750, -0.967773437500, 0.346435546875, -6.281250000000, -34.320312500000, -5.945312500000, 1491906874
0.058105468750, -0.967773437500, 0.346435546875, -6.281250000000, -34.320312500000, -5.945312500000, 1491906874
0.097412109375, -0.915039062500, 0.306152343750, -8.671875000000, -27.570312500000, -8.539062500000, 1491906874
0.048095703125, -1.001708984375, 0.341064453125, -2.265625000000, -16.929687500000, -3.101562500000, 1491906874
0.048095703125, -1.001708984375, 0.341064453125, -2.265625000000, -16.929687500000, -3.101562500000, 1491906874
0.048095703125, -1.001708984375, 0.341064453125, -2.265625000000, -16.929687500000, -3.101562500000, 1491906874
0.048095703125, -1.001708984375, 0.341064453125, -2.265625000000, -16.929687500000, -3.101562500000, 1491906874
0.113281250000, -1.016357421875, 0.397949218750, 0.890625000000, -9.226562500000, -4.445312500000, 1491906874
0.113281250000, -1.016357421875, 0.397949218750, 0.890625000000, -9.226562500000, -4.445312500000, 1491906874
0.113281250000, -1.016357421875, 0.397949218750, 0.890625000000, -9.226562500000, -4.445312500000, 1491906874
0.113281250000, -1.016357421875, 0.397949218750, 0.890625000000, -9.226562500000, -4.445312500000, 1491906874
0.113281250000, -1.016357421875, 0.397949218750, 0.890625000000, -9.226562500000, -4.445312500000, 1491906874
0.194335937500, -0.864257812500, 0.300292968750, -1.843750000000, 8.843750000000, 1.054687500000, 1491906874
0.194335937500, -0.864257812500, 0.300292968750, -1.843750000000, 8.843750000000, 1.054687500000, 1491906874
0.194335937500, -0.864257812500, 0.300292968750, -1.843750000000, 8.843750000000, 1.054687500000, 1491906874
0.116699218750, -0.913330078125, 0.364990234375, -1.492187500000, 19.875000000000, 9.312500000000, 1491906874
0.116699218750, -0.913330078125, 0.364990234375, -1.492187500000, 19.875000000000, 9.312500000000, 1491906874
0.116699218750, -0.913330078125, 0.364990234375, -1.492187500000, 19.875000000000, 9.312500000000, 1491906875
0.116699218750, -0.913330078125, 0.364990234375, -1.492187500000, 19.875000000000, 9.312500000000, 1491906875
0.117675781250, -0.990966796875, 0.364501953125, -8.859375000000, 37.109375000000, 13.382812500000, 1491906875
0.117675781250, -0.990966796875, 0.364501953125, -8.859375000000, 37.109375000000, 13.382812500000, 1491906875
0.117675781250, -0.990966796875, 0.364501953125, -8.859375000000, 37.109375000000, 13.382812500000, 1491906875
0.117675781250, -0.990966796875, 0.364501953125, -8.859375000000, 37.109375000000, 13.382812500000, 1491906875
0.117675781250, -0.990966796875, 0.364501953125, -8.859375000000, 37.109375000000, 13.382812500000, 1491906875
0.124511718750, -1.027832031250, 0.465087890625, -14.882812500000, 37.539062500000, 16.851562500000, 1491906875
0.225097656250, -0.985839843750, 0.513183593750, -13.117187500000, 50.421875000000, 19.210937500000, 1491906875
0.225097656250, -0.985839843750, 0.513183593750, -13.117187500000, 50.421875000000, 19.210937500000, 1491906875
0.225097656250, -0.985839843750, 0.513183593750, -13.117187500000, 50.421875000000, 19.210937500000, 1491906875
0.271240234375, -0.932128906250, 0.351806640625, -12.460937500000, 43.937500000000, 21.015625000000, 1491906875
0.107666015625, -1.003173828125, 0.396240234375, -6.234375000000, 19.859375000000, 9.609375000000, 1491906875
0.107666015625, -1.003173828125, 0.396240234375, -6.234375000000, 19.859375000000, 9.609375000000, 1491906875
0.107666015625, -1.003173828125, 0.396240234375, -6.234375000000, 19.859375000000, 9.609375000000, 1491906875
0.107666015625, -1.003173828125, 0.396240234375, -6.234375000000, 19.859375000000, 9.609375000000, 1491906875
0.105712890625, -0.918945312500, 0.289062500000, -6.593750000000, 23.500000000000, 9.070312500000, 1491906875
0.133300781250, -0.882568359375, 0.375488281250, -1.929687500000, 16.359375000000, 8.484375000000, 1491906875
0.133300781250, -0.882568359375, 0.375488281250, -1.929687500000, 16.359375000000, 8.484375000000, 1491906875
0.133300781250, -0.882568359375, 0.375488281250, -1.929687500000, 16.359375000000, 8.484375000000, 1491906875
0.133300781250, -0.882568359375, 0.375488281250, -1.929687500000, 16.359375000000, 8.484375000000, 1491906875
0.188232421875, -0.892578125000, 0.319824218750, -8.312500000000, 20.718750000000, 10.460937500000, 1491906875
0.209472656250, -0.952636718750, 0.177490234375, -8.031250000000, 22.664062500000, 4.687500000000, 1491906875
0.209472656250, -0.952636718750, 0.177490234375, -8.031250000000, 22.664062500000, 4.687500000000, 1491906875
0.209472656250, -0.952636718750, 0.177490234375, -8.031250000000, 22.664062500000, 4.687500000000, 1491906875
0.209472656250, -0.952636718750, 0.177490234375, -8.031250000000, 22.664062500000, 4.687500000000, 1491906875
0.209472656250, -0.952636718750, 0.177490234375, -8.031250000000, 22.664062500000, 4.687500000000, 1491906875
0.232666015625, -0.873046875000, 0.247314453125, -2.593750000000, 21.828125000000, 3.859375000000, 1491906875
0.232666015625, -0.873046875000, 0.247314453125, -2.593750000000, 21.828125000000, 3.859375000000, 1491906875
0.232666015625, -0.873046875000, 0.247314453125, -2.593750000000, 21.828125000000, 3.859375000000, 1491906875
0.232666015625, -0.873046875000, 0.247314453125, -2.593750000000, 21.828125000000, 3.859375000000, 1491906875
0.313232421875, -0.921875000000, 0.248535156250, -2.312500000000, 25.757812500000, 4.000000000000, 1491906875
0.313232421875, -0.921875000000, 0.248535156250, -2.312500000000, 25.757812500000, 4.000000000000, 1491906875
0.313232421875, -0.921875000000, 0.248535156250, -2.312500000000, 25.757812500000, 4.000000000000, 1491906875
0.328125000000, -0.908447265625, 0.393798828125, -6.234375000000, 20.593750000000, 4.679687500000, 1491906875
0.328125000000, -0.908447265625, 0.393798828125, -6.234375000000, 20.593750000000, 4.679687500000, 1491906875
0.254394531250, -0.904052734375, 0.346435546875, -8.132812500000, 21.867187500000, 2.257812500000, 1491906875
0.254394531250, -0.904052734375, 0.346435546875, -8.132812500000, 21.867187500000, 2.257812500000, 1491906875
0.254394531250, -0.904052734375, 0.346435546875, -8.132812500000, 21.867187500000, 2.257812500000, 1491906875
0.254394531250, -0.904052734375, 0.346435546875, -8.132812500000, 21.867187500000, 2.257812500000, 1491906875
0.254394531250, -0.904052734375, 0.346435546875, -8.132812500000, 21.867187500000, 2.257812500000, 1491906875
0.114746093750, -0.862792968750, 0.364990234375, -3.773437500000, 23.859375000000, -3.781250000000, 1491906875
0.147460937500, -0.854248046875, 0.387939453125, -0.742187500000, 17.273437500000, -3.265625000000, 1491906875
0.147460937500, -0.854248046875, 0.387939453125, -0.742187500000, 17.273437500000, -3.265625000000, 1491906875
0.147460937500, -0.854248046875, 0.387939453125, -0.742187500000, 17.273437500000, -3.265625000000, 1491906875
0.147460937500, -0.854248046875, 0.387939453125, -0.742187500000, 17.273437500000, -3.265625000000, 1491906875
0.147460937500, -0.854248046875, 0.387939453125, -0.742187500000, 17.273437500000, -3.265625000000, 1491906875
0.198242187500, -0.867675781250, 0.389160156250, 1.492187500000, 14.101562500000, -9.593750000000, 1491906875
0.186767578125, -0.903564453125, 0.401123046875, -0.320312500000, 10.421875000000, -9.125000000000, 1491906875
0.175781250000, -0.881591796875, 0.364746093750, 0.382812500000, 5.531250000000, -10.562500000000, 1491906875
0.162353515625, -0.796875000000, 0.353271484375, 1.734375000000, -0.562500000000, -14.640625000000, 1491906875
0.162353515625, -0.796875000000, 0.353271484375, 1.734375000000, -0.562500000000, -14.640625000000, 1491906875
0.162353515625, -0.796875000000, 0.353271484375, 1.734375000000, -0.562500000000, -14.640625000000, 1491906875
0.216552734375, -0.902099609375, 0.365722656250, 2.335937500000, 0.273437500000, -13.359375000000, 1491906875
0.216552734375, -0.902099609375, 0.365722656250, 2.335937500000, 0.273437500000, -13.359375000000, 1491906875
0.216552734375, -0.902099609375, 0.365722656250, 2.335937500000, 0.273437500000, -13.359375000000, 1491906875
0.216552734375, -0.902099609375, 0.365722656250, 2.335937500000, 0.273437500000, -13.359375000000, 1491906875
0.216552734375, -0.902099609375, 0.365722656250, 2.335937500000, 0.273437500000, -13.359375000000, 1491906875
0.280029296875, -0.897949218750, 0.306396484375, 2.335937500000, -8.507812500000, -15.546875000000, 1491906875
0.280029296875, -0.897949218750, 0.306396484375, 2.335937500000, -8.507812500000, -15.546875000000, 1491906875
0.280029296875, -0.897949218750, 0.306396484375, 2.335937500000, -8.507812500000, -15.546875000000, 1491906875
0.280029296875, -0.897949218750, 0.306396484375, 2.335937500000, -8.507812500000, -15.546875000000, 1491906875
0.264648437500, -0.861083984375, 0.307861328125, 0.757812500000, -11.570312500000, -18.203125000000, 1491906875
0.264648437500, -0.861083984375, 0.307861328125, 0.757812500000, -11.570312500000, -18.203125000000, 1491906875
0.264648437500, -0.861083984375, 0.307861328125, 0.757812500000, -11.570312500000, -18.203125000000, 1491906875
0.264648437500, -0.861083984375, 0.307861328125, 0.757812500000, -11.570312500000, -18.203125000000, 1491906875
0.186279296875, -1.065429687500, 0.468505859375, -3.437500000000, -5.671875000000, -19.757812500000, 1491906875
0.186279296875, -1.065429687500, 0.468505859375, -3.437500000000, -5.671875000000, -19.757812500000, 1491906875
0.186279296875, -1.065429687500, 0.468505859375, -3.437500000000, -5.671875000000, -19.757812500000, 1491906875
0.186279296875, -1.065429687500, 0.468505859375, -3.437500000000, -5.671875000000, -19.757812500000, 1491906875
0.213378906250, -1.014160156250, 0.313720703125, 0.187500000000, -0.320312500000, -20.914062500000, 1491906876
0.201904296875, -1.027343750000, 0.385498046875, -0.296875000000, -8.507812500000, -16.156250000000, 1491906876
0.201904296875, -1.027343750000, 0.385498046875, -0.296875000000, -8.507812500000, -16.156250000000, 1491906876
0.201904296875, -1.027343750000, 0.385498046875, -0.296875000000, -8.507812500000, -16.156250000000, 1491906876
0.201904296875, -1.027343750000, 0.385498046875, -0.296875000000, -8.507812500000, -16.156250000000, 1491906876
0.201904296875, -1.027343750000, 0.385498046875, -0.296875000000, -8.507812500000, -16.156250000000, 1491906876
0.080810546875, -1.024414062500, 0.239257812500, -8.937500000000, -12.296875000000, -11.984375000000, 1491906876
0.080810546875, -1.024414062500, 0.239257812500, -8.937500000000, -12.296875000000, -11.984375000000, 1491906876
0.080810546875, -1.024414062500, 0.239257812500, -8.937500000000, -12.296875000000, -11.984375000000, 1491906876
0.080810546875, -1.024414062500, 0.239257812500, -8.937500000000, -12.296875000000, -11.984375000000, 1491906876
-0.087890625000, -0.939208984375, 0.280273437500, -8.671875000000, -28.742187500000, -13.242187500000, 1491906876
-0.087890625000, -0.939208984375, 0.280273437500, -8.671875000000, -28.742187500000, -13.242187500000, 1491906876
-0.087890625000, -0.939208984375, 0.280273437500, -8.671875000000, -28.742187500000, -13.242187500000, 1491906876
0.022705078125, -0.923828125000, 0.200683593750, 4.539062500000, -55.781250000000, -23.109375000000, 1491906876
-0.067382812500, -1.006835937500, 0.226074218750, 6.609375000000, -62.820312500000, -24.906250000000, 1491906876
-0.067382812500, -1.006835937500, 0.226074218750, 6.609375000000, -62.820312500000, -24.906250000000, 1491906876
0.038818359375, -0.956787109375, 0.347656250000, 1.734375000000, -60.515625000000, -20.164062500000, 1491906876
0.205322265625, -0.985107421875, 0.293701171875, 0.921875000000, -48.695312500000, -11.734375000000, 1491906876
0.205322265625, -0.985107421875, 0.293701171875, 0.921875000000, -48.695312500000, -11.734375000000, 1491906876
0.205322265625, -0.985107421875, 0.293701171875, 0.921875000000, -48.695312500000, -11.734375000000, 1491906876
0.205322265625, -0.985107421875, 0.293701171875, 0.921875000000, -48.695312500000, -11.734375000000, 1491906876
0.104736328125, -0.869873046875, 0.295410156250, 0.710937500000, -45.617187500000, -8.914062500000, 1491906876
0.104736328125, -0.869873046875, 0.295410156250, 0.710937500000, -45.617187500000, -8.914062500000, 1491906876
0.104736328125, -0.869873046875, 0.295410156250, 0.710937500000, -45.617187500000, -8.914062500000, 1491906876
0.104736328125, -0.869873046875, 0.295410156250, 0.710937500000, -45.617187500000, -8.914062500000, 1491906876
0.104736328125, -0.869873046875, 0.295410156250, 0.710937500000, -45.617187500000, -8.914062500000, 1491906876
0.072998046875, -0.848388671875, 0.335205078125, -2.992187500000, -38.281250000000, -5.687500000000, 1491906876
0.118896484375, -0.955078125000, 0.297607421875, -2.992187500000, -38.281250000000, -5.687500000000, 1491906876
0.118896484375, -0.955078125000, 0.297607421875, -2.992187500000, -38.281250000000, -5.687500000000, 1491906876
0.118896484375, -0.955078125000, 0.297607421875, -2.992187500000, -38.281250000000, -5.687500000000, 1491906876
0.077636718750, -0.933837890625, 0.402099609375, -0.031250000000, -25.726562500000, -1.476562500000, 1491906876
0.077636718750, -0.933837890625, 0.402099609375, -0.031250000000, -25.726562500000, -1.476562500000, 1491906876
0.077636718750, -0.933837890625, 0.402099609375, -0.031250000000, -25.726562500000, -1.476562500000, 1491906876
0.077636718750, -0.933837890625, 0.402099609375, -0.031250000000, -25.726562500000, -1.476562500000, 1491906876
0.077636718750, -0.933837890625, 0.402099609375, -0.031250000000, -25.726562500000, -1.476562500000, 1491906876
0.077636718750, -0.933837890625, 0.402099609375, -0.031250000000, -25.726562500000, -1.476562500000, 1491906876
0.114990234375, -0.934814453125, 0.310058593750, 2.906250000000, -1.601562500000, 5.101562500000, 1491906876
0.114990234375, -0.934814453125, 0.310058593750, 2.906250000000, -1.601562500000, 5.101562500000, 1491906876
0.114990234375, -0.934814453125, 0.310058593750, 2.906250000000, -1.601562500000, 5.101562500000, 1491906876
0.114990234375, -0.934814453125, 0.310058593750, 2.906250000000, -1.601562500000, 5.101562500000, 1491906876
0.114990234375, -0.934814453125, 0.310058593750, 2.906250000000, -1.601562500000, 5.101562500000, 1491906876
0.189697265625, -0.959960937500, 0.382812500000, -0.593750000000, 0.226562500000, 9.031250000000, 1491906876
0.205566406250, -0.965332031250, 0.396240234375, -1.710937500000, 9.085937500000, 14.312500000000, 1491906876
0.205566406250, -0.965332031250, 0.396240234375, -1.710937500000, 9.085937500000, 14.312500000000, 1491906876
0.205566406250, -0.965332031250, 0.396240234375, -1.710937500000, 9.085937500000, 14.312500000000, 1491906876
0.156005859375, -0.937255859375, 0.246093750000, 0.296875000000, 16.023437500000, 15.859375000000, 1491906876
0.156005859375, -0.937255859375, 0.246093750000, 0.296875000000, 16.023437500000, 15.859375000000, 1491906876
0.202880859375, -0.923339843750, 0.459228515625, -9.250000000000, 28.484375000000, 19.101562500000, 1491906876
0.202880859375, -0.923339843750, 0.459228515625, -9.250000000000, 28.484375000000, 19.101562500000, 1491906876
0.202880859375, -0.923339843750, 0.459228515625, -9.250000000000, 28.484375000000, 19.101562500000, 1491906876
0.265625000000, -0.970214843750, 0.437500000000, -14.617187500000, 44.937500000000, 22.656250000000, 1491906876
0.121337890625, -1.025146484375, 0.322265625000, -15.796875000000, 51.210937500000, 21.890625000000, 1491906876
0.121337890625, -1.025146484375, 0.322265625000, -15.796875000000, 51.210937500000, 21.890625000000, 1491906876
0.121337890625, -1.025146484375, 0.322265625000, -15.796875000000, 51.210937500000, 21.890625000000, 1491906876
0.161376953125, -0.943115234375, 0.307861328125, -9.484375000000, 36.593750000000, 13.617187500000, 1491906876
0.161376953125, -0.943115234375, 0.307861328125, -9.484375000000, 36.593750000000, 13.617187500000, 1491906876
0.161376953125, -0.943115234375, 0.307861328125, -9.484375000000, 36.593750000000, 13.617187500000, 1491906876
0.161376953125, -0.943115234375, 0.307861328125, -9.484375000000, 36.593750000000, 13.617187500000, 1491906876
0.161376953125, -0.943115234375, 0.307861328125, -9.484375000000, 36.593750000000, 13.617187500000, 1491906876
0.161376953125, -0.943115234375, 0.307861328125, -9.484375000000, 36.593750000000, 13.617187500000, 1491906876
0.161376953125, -0.943115234375, 0.307861328125, -9.484375000000, 36.593750000000, 13.617187500000, 1491906876
0.161376953125, -0.943115234375, 0.307861328125, -9.484375000000, 36.593750000000, 13.617187500000, 1491906876
0.195312500000, -0.885742187500, 0.338134765625, -7.742187500000, 40.398437500000, 12.953125000000, 1491906876
0.161376953125, -0.919921875000, 0.385009765625, -10.992187500000, 25.765625000000, 5.328125000000, 1491906877
0.161376953125, -0.919921875000, 0.385009765625, -10.992187500000, 25.765625000000, 5.328125000000, 1491906877
0.161376953125, -0.919921875000, 0.385009765625, -10.992187500000, 25.765625000000, 5.328125000000, 1491906877
0.256103515625, -0.844238281250, 0.314941406250, -5.937500000000, 25.679687500000, 6.203125000000, 1491906877
0.256103515625, -0.844238281250, 0.314941406250, -5.937500000000, 25.679687500000, 6.203125000000, 1491906877
0.256103515625, -0.844238281250, 0.314941406250, -5.937500000000, 25.679687500000, 6.203125000000, 1491906877
0.256103515625, -0.844238281250, 0.314941406250, -5.937500000000, 25.679687500000, 6.203125000000, 1491906877
0.256103515625, -0.844238281250, 0.314941406250, -5.937500000000, 25.679687500000, 6.203125000000, 1491906877
0.324707031250, -0.890869140625, 0.178710937500, -3.625000000000, 23.117187500000, 3.070312500000, 1491906877
0.301025390625, -0.943115234375, 0.381591796875, 0.437500000000, 31.281250000000, 5.445312500000, 1491906877
0.301025390625, -0.943115234375, 0.381591796875, 0.437500000000, 31.281250000000, 5.445312500000, 1491906877
0.301025390625, -0.943115234375, 0.381591796875, 0.437500000000, 31.281250000000, 5.445312500000, 1491906877
0.301025390625, -0.943115234375, 0.381591796875, 0.437500000000, 31.281250000000, 5.445312500000, 1491906877
0.301025390625, -0.943115234375, 0.381591796875, 0.437500000000, 31.281250000000, 5.445312500000, 1491906877
0.293701171875, -0.916503906250, 0.309814453125, 2.601562500000, 30.187500000000, 8.109375000000, 1491906877
0.280029296875, -0.971435546875, 0.305664062500, -2.898437500000, 25.796875000000, 6.046875000000, 1491906877
0.280029296875, -0.971435546875, 0.305664062500, -2.898437500000, 25.796875000000, 6.046875000000, 1491906877
0.280029296875, -0.971435546875, 0.305664062500, -2.898437500000, 25.796875000000, 6.046875000000, 1491906877
0.256835937500, -0.906738281250, 0.292968750000, -3.687500000000, 28.125000000000, 4.328125000000, 1491906877
0.256835937500, -0.906738281250, 0.292968750000, -3.687500000000, 28.125000000000, 4.328125000000, 1491906877
0.256835937500, -0.906738281250, 0.292968750000, -3.687500000000, 28.125000000000, 4.328125000000, 1491906877
0.174560546875, -0.867187500000, 0.298095703125, -6.398437500000, 27.921875000000, 1.054687500000, 1491906877
0.234619140625, -0.880615234375, 0.396728515625, -6.789062500000, 28.992187500000, -1.390625000000, 1491906877
0.234619140625, -0.880615234375, 0.396728515625, -6.789062500000, 28.992187500000, -1.390625000000, 1491906877
0.234619140625, -0.880615234375, 0.396728515625, -6.789062500000, 28.992187500000, -1.390625000000, 1491906877
0.234619140625, -0.880615234375, 0.396728515625, -6.789062500000, 28.992187500000, -1.390625000000, 1491906877
0.234619140625, -0.880615234375, 0.396728515625, -6.789062500000, 28.992187500000, -1.390625000000, 1491906877
0.234619140625, -0.880615234375, 0.396728515625, -6.789062500000, 28.992187500000, -1.390625000000, 1491906877
0.223876953125, -0.903076171875, 0.404785156250, -4.078125000000, 17.796875000000, -4.921875000000, 1491906877
0.223876953125, -0.903076171875, 0.404785156250, -4.078125000000, 17.796875000000, -4.921875000000, 1491906877
0.223876953125, -0.903076171875, 0.404785156250, -4.078125000000, 17.796875000000, -4.921875000000, 1491906877
0.334228515625, -0.823730468750, 0.460449218750, -1.296875000000, 11.960937500000, -12.164062500000, 1491906877
0.334228515625, -0.823730468750, 0.460449218750, -1.296875000000, 11.960937500000, -12.164062500000, 1491906877
0.334228515625, -0.823730468750, 0.460449218750, -1.296875000000, 11.960937500000, -12.164062500000, 1491906877
0.283935546875, -0.895019531250, 0.439697265625, 0.460937500000, 5.296875000000, -8.539062500000, 1491906877
0.283935546875, -0.895019531250, 0.439697265625, 0.460937500000, 5.296875000000, -8.539062500000, 1491906877
0.177734375000, -0.872802734375, 0.450927734375, 2.851562500000, 4.437500000000, -13.640625000000, 1491906877
0.175048828125, -0.944335937500, 0.362304687500, 1.046875000000, -4.679687500000, -18.750000000000, 1491906877
0.175048828125, -0.944335937500, 0.362304687500, 1.046875000000, -4.679687500000, -18.750000000000, 1491906877
0.175048828125, -0.944335937500, 0.362304687500, 1.046875000000, -4.679687500000, -18.750000000000, 1491906877
0.171630859375, -0.930664062500, 0.489013671875, -4.132812500000, -12.429687500000, -20.617187500000, 1491906877
0.171630859375, -0.930664062500, 0.489013671875, -4.132812500000, -12.429687500000, -20.617187500000, 1491906877
0.171630859375, -0.930664062500, 0.489013671875, -4.132812500000, -12.429687500000, -20.617187500000, 1491906877
0.171630859375, -0.930664062500, 0.489013671875, -4.132812500000, -12.429687500000, -20.617187500000, 1491906877
0.171630859375, -0.930664062500, 0.489013671875, -4.132812500000, -12.429687500000, -20.617187500000, 1491906877
0.170410156250, -1.009277343750, 0.511230468750, -11.507812500000, -12.171875000000, -21.578125000000, 1491906877
0.182128906250, -0.974365234375, 0.410400390625, -6.203125000000, -22.273437500000, -26.804687500000, 1491906877
0.182128906250, -0.974365234375, 0.410400390625, -6.203125000000, -22.273437500000, -26.804687500000, 1491906877
0.182128906250, -0.974365234375, 0.410400390625, -6.203125000000, -22.273437500000, -26.804687500000, 1491906877
0.182128906250, -0.974365234375, 0.410400390625, -6.203125000000, -22.273437500000, -26.804687500000, 1491906877
0.182128906250, -0.974365234375, 0.410400390625, -6.203125000000, -22.273437500000, -26.804687500000, 1491906877
0.253417968750, -0.856689453125, 0.307861328125, 3.609375000000, -12.679687500000, -24.304687500000, 1491906877
0.253417968750, -0.856689453125, 0.307861328125, 3.609375000000, -12.679687500000, -24.304687500000, 1491906877
0.253417968750, -0.856689453125, 0.307861328125, 3.609375000000, -12.679687500000, -24.304687500000, 1491906877
0.139892578125, -0.807617187500, 0.358154296875, 3.726562500000, -13.273437500000, -20.320312500000, 1491906877
0.139892578125, -0.807617187500, 0.358154296875, 3.726562500000, -13.273437500000, -20.320312500000, 1491906877
0.139892578125, -0.807617187500, 0.358154296875, 3.726562500000, -13.273437500000, -20.320312500000, 1491906877
0.060546875000, -0.872802734375, 0.317138671875, -1.632812500000, -14.648437500000, -16.265625000000, 1491906877
0.060546875000, -0.872802734375, 0.317138671875, -1.632812500000, -14.648437500000, -16.265625000000, 1491906877
0.060546875000, -0.872802734375, 0.317138671875, -1.632812500000, -14.648437500000, -16.265625000000, 1491906877
-0.010742187500, -0.873046875000, 0.260986328125, -2.515625000000, -29.226562500000, -22.328125000000, 1491906877
-0.010742187500, -0.873046875000, 0.260986328125, -2.515625000000, -29.226562500000, -22.328125000000, 1491906877
-0.010742187500, -0.873046875000, 0.260986328125, -2.515625000000, -29.226562500000, -22.328125000000, 1491906877
-0.010742187500, -0.873046875000, 0.260986328125, -2.515625000000, -29.226562500000, -22.328125000000, 1491906877
0.038818359375, -0.931884765625, 0.220947265625, 6.625000000000, -47.023437500000, -26.617187500000, 1491906877
0.038818359375, -0.931884765625, 0.220947265625, 6.625000000000, -47.023437500000, -26.617187500000, 1491906877
0.038818359375, -0.931884765625, 0.220947265625, 6.625000000000, -47.023437500000, -26.617187500000, 1491906877
0.030029296875, -1.135986328125, 0.281494140625, 6.773437500000, -51.812500000000, -21.585937500000, 1491906877
0.030029296875, -1.135986328125, 0.281494140625, 6.773437500000, -51.812500000000, -21.585937500000, 1491906877
0.040039062500, -1.083007812500, 0.382324218750, 6.453125000000, -44.257812500000, -15.460937500000, 1491906878
0.040039062500, -1.083007812500, 0.382324218750, 6.453125000000, -44.257812500000, -15.460937500000, 1491906878
0.056152343750, -0.879638671875, 0.382080078125, -3.710937500000, -27.234375000000, -2.203125000000, 1491906878
0.056152343750, -0.879638671875, 0.382080078125, -3.710937500000, -27.234375000000, -2.203125000000, 1491906878
0.056152343750, -0.879638671875, 0.382080078125, -3.710937500000, -27.234375000000, -2.203125000000, 1491906878
0.056152343750, -0.879638671875, 0.382080078125, -3.710937500000, -27.234375000000, -2.203125000000, 1491906878
0.056152343750, -0.879638671875, 0.382080078125, -3.710937500000, -27.234375000000, -2.203125000000, 1491906878
0.056152343750, -0.879638671875, 0.382080078125, -3.710937500000, -27.234375000000, -2.203125000000, 1491906878
-0.064208984375, -0.822509765625, 0.230712890625, -6.101562500000, -28.031250000000, -2.171875000000, 1491906878
-0.064208984375, -0.822509765625, 0.230712890625, -6.101562500000, -28.031250000000, -2.171875000000, 1491906878
-0.064208984375, -0.822509765625, 0.230712890625, -6.101562500000, -28.031250000000, -2.171875000000, 1491906878
0.056640625000, -1.024902343750, 0.439453125000, -4.781250000000, -32.179687500000, -4.218750000000, 1491906878
0.056640625000, -1.024902343750, 0.439453125000, -4.781250000000, -32.179687500000, -4.218750000000, 1491906878
0.056640625000, -1.024902343750, 0.439453125000, -4.781250000000, -32.179687500000, -4.218750000000, 1491906878
0.207519531250, -0.907470703125, 0.381591796875, -4.890625000000, -27.945312500000, -4.882812500000, 1491906878
0.212646484375, -0.964843750000, 0.394775390625, -2.210937500000, -20.835937500000, -0.304687500000, 1491906878
0.212646484375, -0.964843750000, 0.394775390625, -2.210937500000, -20.835937500000, -0.304687500000, 1491906878
0.212646484375, -0.964843750000, 0.394775390625, -2.210937500000, -20.835937500000, -0.304687500000, 1491906878
0.212646484375, -0.964843750000, 0.394775390625, -2.210937500000, -20.835937500000, -0.304687500000, 1491906878
0.212646484375, -0.964843750000, 0.394775390625, -2.210937500000, -20.835937500000, -0.304687500000, 1491906878
0.200439453125, -0.997558593750, 0.447021484375, -1.054687500000, -9.531250000000, 1.781250000000, 1491906878
0.142089843750, -0.959472656250, 0.338378906250, -2.476562500000, -3.429687500000, 1.054687500000, 1491906878
0.142089843750, -0.959472656250, 0.338378906250, -2.476562500000, -3.429687500000, 1.054687500000, 1491906878
0.142089843750, -0.959472656250, 0.338378906250, -2.476562500000, -3.429687500000, 1.054687500000, 1491906878
0.103759765625, -1.025878906250, 0.287109375000, 0.054687500000, 0.968750000000, 6.171875000000, 1491906878
0.103759765625, -1.025878906250, 0.287109375000, 0.054687500000, 0.968750000000, 6.171875000000, 1491906878
0.095458984375, -1.018798828125, 0.402587890625, -1.000000000000, 7.453125000000, 10.531250000000, 1491906878
0.095458984375, -1.018798828125, 0.402587890625, -1.000000000000, 7.453125000000, 10.531250000000, 1491906878
0.095458984375, -1.018798828125, 0.402587890625, -1.000000000000, 7.453125000000, 10.531250000000, 1491906878
0.095458984375, -1.018798828125, 0.402587890625, -1.000000000000, 7.453125000000, 10.531250000000, 1491906878
0.159667968750, -0.978027343750, 0.350830078125, -1.968750000000, 17.601562500000, 9.906250000000, 1491906878
0.159667968750, -0.978027343750, 0.350830078125, -1.968750000000, 17.601562500000, 9.906250000000, 1491906878
0.186523437500, -1.028076171875, 0.395996093750, -4.421875000000, 18.835937500000, 14.804687500000, 1491906878
0.267822265625, -1.025390625000, 0.379638671875, -12.593750000000, 37.656250000000, 21.054687500000, 1491906878
0.267822265625, -1.025390625000, 0.379638671875, -12.593750000000, 37.656250000000, 21.054687500000, 1491906878
0.267822265625, -1.025390625000, 0.379638671875, -12.593750000000, 37.656250000000, 21.054687500000, 1491906878
0.267822265625, -1.025390625000, 0.379638671875, -12.593750000000, 37.656250000000, 21.054687500000, 1491906878
0.113281250000, -0.990966796875, 0.318847656250, -11.273437500000, 34.289062500000, 23.406250000000, 1491906878
0.113281250000, -0.990966796875, 0.318847656250, -11.273437500000, 34.289062500000, 23.406250000000, 1491906878
0.113281250000, -0.990966796875, 0.318847656250, -11.273437500000, 34.289062500000, 23.406250000000, 1491906878
0.212402343750, -0.933349609375, 0.342041015625, -8.382812500000, 24.171875000000, 15.039062500000, 1491906878
0.212402343750, -0.933349609375, 0.342041015625, -8.382812500000, 24.171875000000, 15.039062500000, 1491906878
0.212402343750, -0.933349609375, 0.342041015625, -8.382812500000, 24.171875000000, 15.039062500000, 1491906878
0.061767578125, -0.897705078125, 0.338378906250, 2.273437500000, 20.515625000000, 10.429687500000, 1491906878
0.061767578125, -0.897705078125, 0.338378906250, 2.273437500000, 20.515625000000, 10.429687500000, 1491906878
0.061767578125, -0.897705078125, 0.338378906250, 2.273437500000, 20.515625000000, 10.429687500000, 1491906878
0.061767578125, -0.897705078125, 0.338378906250, 2.273437500000, 20.515625000000, 10.429687500000, 1491906878
0.250732421875, -0.913818359375, 0.337402343750, -4.242187500000, 29.929687500000, 3.015625000000, 1491906878
0.250732421875, -0.913818359375, 0.337402343750, -4.242187500000, 29.929687500000, 3.015625000000, 1491906878
0.250732421875, -0.913818359375, 0.337402343750, -4.242187500000, 29.929687500000, 3.015625000000, 1491906878
0.253173828125, -0.809570312500, 0.170410156250, 6.312500000000, 32.031250000000, 6.906250000000, 1491906878
0.229980468750, -0.979492187500, 0.295654296875, 1.718750000000, 21.796875000000, 5.625000000000, 1491906878
0.229980468750, -0.979492187500, 0.295654296875, 1.718750000000, 21.796875000000, 5.625000000000, 1491906878
0.229980468750, -0.979492187500, 0.295654296875, 1.718750000000, 21.796875000000, 5.625000000000, 1491906878
0.229980468750, -0.979492187500, 0.295654296875, 1.718750000000, 21.796875000000, 5.625000000000, 1491906878
0.229980468750, -0.979492187500, 0.295654296875, 1.718750000000, 21.796875000000, 5.625000000000, 1491906878
0.229980468750, -0.979492187500, 0.295654296875, 1.718750000000, 21.796875000000, 5.625000000000, 1491906878
0.229980468750, -0.979492187500, 0.295654296875, 1.718750000000, 21.796875000000, 5.625000000000, 1491906878
0.229980468750, -0.979492187500, 0.295654296875, 1.718750000000, 21.796875000000, 5.625000000000, 1491906878
0.229980468750, -0.979492187500, 0.295654296875, 1.718750000000, 21.796875000000, 5.625000000000, 1491906878
0.167724609375, -0.811279296875, 0.332763671875, -7.460937500000, 17.570312500000, -4.851562500000, 1491906878
0.167724609375, -0.811279296875, 0.332763671875, -7.460937500000, 17.570312500000, -4.851562500000, 1491906878
0.167724609375, -0.811279296875, 0.332763671875, -7.460937500000, 17.570312500000, -4.851562500000, 1491906878
0.167724609375, -0.811279296875, 0.332763671875, -7.460937500000, 17.570312500000, -4.851562500000, 1491906878
0.167724609375, -0.811279296875, 0.332763671875, -7.460937500000, 17.570312500000, -4.851562500000, 1491906878
0.239013671875, -0.828125000000, 0.325927734375, -6.656250000000, 15.171875000000, -4.164062500000, 1491906878
0.265625000000, -0.803710937500, 0.330810546875, -6.359375000000, 13.148437500000, -5.679687500000, 1491906878
0.265625000000, -0.803710937500, 0.330810546875, -6.359375000000, 13.148437500000, -5.679687500000, 1491906879
0.265625000000, -0.803710937500, 0.330810546875, -6.359375000000, 13.148437500000, -5.679687500000, 1491906879
0.214599609375, -0.935058593750, 0.309814453125, -3.304687500000, 9.742187500000, -5.046875000000, 1491906879
0.214599609375, -0.935058593750, 0.309814453125, -3.304687500000, 9.742187500000, -5.046875000000, 1491906879
0.214599609375, -0.935058593750, 0.309814453125, -3.304687500000, 9.742187500000, -5.046875000000, 1491906879
0.214599609375, -0.935058593750, 0.309814453125, -3.304687500000, 9.742187500000, -5.046875000000, 1491906879
0.270996093750, -0.966064453125, 0.284179687500, -4.804687500000, 6.710937500000, -7.335937500000, 1491906879
0.264404296875, -0.945800781250, 0.403808593750, -6.320312500000, 6.046875000000, -6.484375000000, 1491906879
0.264404296875, -0.945800781250, 0.403808593750, -6.320312500000, 6.046875000000, -6.484375000000, 1491906879
0.264404296875, -0.945800781250, 0.403808593750, -6.320312500000, 6.046875000000, -6.484375000000, 1491906879
0.264404296875, -0.945800781250, 0.403808593750, -6.320312500000, 6.046875000000, -6.484375000000, 1491906879
0.264404296875, -0.945800781250, 0.403808593750, -6.320312500000, 6.046875000000, -6.484375000000, 1491906879
0.158447265625, -0.873046875000, 0.444091796875, -4.757812500000, -1.710937500000, -14.273437500000, 1491906879
0.158447265625, -0.873046875000, 0.444091796875, -4.757812500000, -1.710937500000, -14.273437500000, 1491906879
0.158447265625, -0.873046875000, 0.444091796875, -4.757812500000, -1.710937500000, -14.273437500000, 1491906879
0.248046875000, -0.956542968750, 0.389648437500, -6.984375000000, -2.226562500000, -11.523437500000, 1491906879
0.248046875000, -0.956542968750, 0.389648437500, -6.984375000000, -2.226562500000, -11.523437500000, 1491906879
0.248046875000, -0.956542968750, 0.389648437500, -6.984375000000, -2.226562500000, -11.523437500000, 1491906879
