ACC_X,ACC_Y,ACC_Z,G_X,G_Y,G_Z,Unix Time
0.020019531250, -0.940917968750, 0.256835937500, -1.867187500000, 4.625000000000, -2.218750000000, 1490588634
0.020019531250, -0.940917968750, 0.256835937500, -1.867187500000, 4.625000000000, -2.218750000000, 1490588634
0.020019531250, -0.940917968750, 0.256835937500, -1.867187500000, 4.625000000000, -2.218750000000, 1490588634
-0.063720703125, -0.986083984375, 0.179687500000, -4.156250000000, 4.242187500000, 0.140625000000, 1490588634
-0.063720703125, -0.986083984375, 0.179687500000, -4.156250000000, 4.242187500000, 0.140625000000, 1490588634
-0.063720703125, -0.986083984375, 0.179687500000, -4.156250000000, 4.242187500000, 0.140625000000, 1490588634
0.024414062500, -0.919433593750, 0.236816406250, -3.375000000000, 4.421875000000, -1.625000000000, 1490588634
0.024414062500, -0.919433593750, 0.236816406250, -3.375000000000, 4.421875000000, -1.625000000000, 1490588634
0.024414062500, -0.919433593750, 0.236816406250, -3.375000000000, 4.421875000000, -1.625000000000, 1490588634
0.090820312500, -1.049560546875, 0.256591796875, -3.054687500000, 4.781250000000, -2.351562500000, 1490588634
0.079833984375, -0.925048828125, 0.251464843750, -3.359375000000, 4.179687500000, -2.867187500000, 1490588634
-0.029785156250, -1.067626953125, 0.177490234375, -4.960937500000, 2.789062500000, -4.812500000000, 1490588634
-0.029785156250, -1.067626953125, 0.177490234375, -4.960937500000, 2.789062500000, -4.812500000000, 1490588634
-0.029785156250, -1.067626953125, 0.177490234375, -4.960937500000, 2.789062500000, -4.812500000000, 1490588634
-0.029785156250, -1.067626953125, 0.177490234375, -4.960937500000, 2.789062500000, -4.812500000000, 1490588634
-0.029785156250, -1.067626953125, 0.177490234375, -4.960937500000, 2.789062500000, -4.812500000000, 1490588634
0.018066406250, -1.020019531250, 0.278076171875, -3.375000000000, -0.804687500000, -3.351562500000, 1490588634
0.018066406250, -1.020019531250, 0.278076171875, -3.375000000000, -0.804687500000, -3.351562500000, 1490588634
0.018066406250, -1.020019531250, 0.278076171875, -3.375000000000, -0.804687500000, -3.351562500000, 1490588634
0.069580078125, -0.922363281250, 0.209228515625, -6.984375000000, -2.515625000000, -6.125000000000, 1490588634
0.069580078125, -0.922363281250, 0.209228515625, -6.984375000000, -2.515625000000, -6.125000000000, 1490588634
0.069580078125, -0.922363281250, 0.209228515625, -6.984375000000, -2.515625000000, -6.125000000000, 1490588634
0.088623046875, -1.042968750000, 0.273681640625, -6.835937500000, -4.132812500000, -3.906250000000, 1490588635
0.088623046875, -1.042968750000, 0.273681640625, -6.835937500000, -4.132812500000, -3.906250000000, 1490588635
0.088623046875, -1.042968750000, 0.273681640625, -6.835937500000, -4.132812500000, -3.906250000000, 1490588635
0.088623046875, -1.042968750000, 0.273681640625, -6.835937500000, -4.132812500000, -3.906250000000, 1490588635
-0.009033203125, -0.989990234375, 0.180664062500, -3.101562500000, -2.414062500000, -4.843750000000, 1490588635
-0.009033203125, -0.989990234375, 0.180664062500, -3.101562500000, -2.414062500000, -4.843750000000, 1490588635
-0.009033203125, -0.989990234375, 0.180664062500, -3.101562500000, -2.414062500000, -4.843750000000, 1490588635
-0.021972656250, -1.066894531250, 0.269531250000, -1.023437500000, -3.226562500000, -6.320312500000, 1490588635
-0.021972656250, -1.066894531250, 0.269531250000, -1.023437500000, -3.226562500000, -6.320312500000, 1490588635
-0.021972656250, -1.066894531250, 0.269531250000, -1.023437500000, -3.226562500000, -6.320312500000, 1490588635
0.038330078125, -0.980712890625, 0.312744140625, -10.289062500000, 2.875000000000, -4.437500000000, 1490588635
0.038330078125, -0.980712890625, 0.312744140625, -10.289062500000, 2.875000000000, -4.437500000000, 1490588635
0.038330078125, -0.980712890625, 0.312744140625, -10.289062500000, 2.875000000000, -4.437500000000, 1490588635
0.031738281250, -0.964111328125, 0.340820312500, -3.085937500000, 4.445312500000, -6.359375000000, 1490588635
0.031738281250, -0.964111328125, 0.340820312500, -3.085937500000, 4.445312500000, -6.359375000000, 1490588635
0.031738281250, -0.964111328125, 0.340820312500, -3.085937500000, 4.445312500000, -6.359375000000, 1490588635
0.031738281250, -0.964111328125, 0.340820312500, -3.085937500000, 4.445312500000, -6.359375000000, 1490588635
0.039794921875, -0.949462890625, 0.334960937500, -3.875000000000, 4.117187500000, -4.742187500000, 1490588635
0.039794921875, -0.949462890625, 0.334960937500, -3.875000000000, 4.117187500000, -4.742187500000, 1490588635
0.039794921875, -0.949462890625, 0.334960937500, -3.875000000000, 4.117187500000, -4.742187500000, 1490588635
0.039794921875, -0.949462890625, 0.334960937500, -3.875000000000, 4.117187500000, -4.742187500000, 1490588635
0.039794921875, -0.949462890625, 0.334960937500, -3.875000000000, 4.117187500000, -4.742187500000, 1490588635
0.039794921875, -0.949462890625, 0.334960937500, -3.875000000000, 4.117187500000, -4.742187500000, 1490588635
0.078369140625, -1.011230468750, 0.247802734375, -3.156250000000, 6.859375000000, -1.343750000000, 1490588635
0.078369140625, -1.011230468750, 0.247802734375, -3.156250000000, 6.859375000000, -1.343750000000, 1490588635
0.078369140625, -1.011230468750, 0.247802734375, -3.156250000000, 6.859375000000, -1.343750000000, 1490588635
-0.008789062500, -0.972412109375, 0.296875000000, -3.429687500000, 5.359375000000, -6.218750000000, 1490588635
-0.008789062500, -0.972412109375, 0.296875000000, -3.429687500000, 5.359375000000, -6.218750000000, 1490588635
-0.008789062500, -0.972412109375, 0.296875000000, -3.429687500000, 5.359375000000, -6.218750000000, 1490588635
0.004882812500, -0.954589843750, 0.236328125000, -1.296875000000, 3.953125000000, 0.648437500000, 1490588635
0.004882812500, -0.954589843750, 0.236328125000, -1.296875000000, 3.953125000000, 0.648437500000, 1490588635
0.004882812500, -0.954589843750, 0.236328125000, -1.296875000000, 3.953125000000, 0.648437500000, 1490588635
0.004882812500, -0.954589843750, 0.236328125000, -1.296875000000, 3.953125000000, 0.648437500000, 1490588635
0.077880859375, -0.924072265625, 0.247802734375, -4.312500000000, 3.070312500000, -0.984375000000, 1490588635
0.077880859375, -0.924072265625, 0.247802734375, -4.312500000000, 3.070312500000, -0.984375000000, 1490588635
0.077880859375, -0.924072265625, 0.247802734375, -4.312500000000, 3.070312500000, -0.984375000000, 1490588635
0.018554687500, -0.930664062500, 0.238281250000, -3.632812500000, -0.867187500000, -4.117187500000, 1490588635
0.018554687500, -0.930664062500, 0.238281250000, -3.632812500000, -0.867187500000, -4.117187500000, 1490588635
0.018554687500, -0.930664062500, 0.238281250000, -3.632812500000, -0.867187500000, -4.117187500000, 1490588635
-0.021728515625, -1.024902343750, 0.227539062500, -3.703125000000, 0.289062500000, -4.484375000000, 1490588635
-0.021728515625, -1.024902343750, 0.227539062500, -3.703125000000, 0.289062500000, -4.484375000000, 1490588635
-0.021728515625, -1.024902343750, 0.227539062500, -3.703125000000, 0.289062500000, -4.484375000000, 1490588635
-0.021728515625, -1.024902343750, 0.227539062500, -3.703125000000, 0.289062500000, -4.484375000000, 1490588635
-0.079589843750, -1.004394531250, 0.268798828125, -3.257812500000, 0.710937500000, -2.890625000000, 1490588635
-0.079589843750, -1.004394531250, 0.268798828125, -3.257812500000, 0.710937500000, -2.890625000000, 1490588635
-0.079589843750, -1.004394531250, 0.268798828125, -3.257812500000, 0.710937500000, -2.890625000000, 1490588635
0.044189453125, -1.029785156250, 0.325195312500, -4.468750000000, -1.421875000000, -1.859375000000, 1490588635
0.044189453125, -1.029785156250, 0.325195312500, -4.468750000000, -1.421875000000, -1.859375000000, 1490588635
0.044189453125, -1.029785156250, 0.325195312500, -4.468750000000, -1.421875000000, -1.859375000000, 1490588635
0.085205078125, -1.024658203125, 0.258300781250, -6.304687500000, -1.914062500000, -4.203125000000, 1490588635
0.085205078125, -1.024658203125, 0.258300781250, -6.304687500000, -1.914062500000, -4.203125000000, 1490588635
0.085205078125, -1.024658203125, 0.258300781250, -6.304687500000, -1.914062500000, -4.203125000000, 1490588635
0.089355468750, -1.029296875000, 0.162841796875, -1.828125000000, -1.609375000000, -1.390625000000, 1490588635
0.089355468750, -1.029296875000, 0.162841796875, -1.828125000000, -1.609375000000, -1.390625000000, 1490588635
0.089355468750, -1.029296875000, 0.162841796875, -1.828125000000, -1.609375000000, -1.390625000000, 1490588635
0.089355468750, -1.029296875000, 0.162841796875, -1.828125000000, -1.609375000000, -1.390625000000, 1490588635
0.052001953125, -1.025878906250, 0.323730468750, -6.312500000000, -3.031250000000, -2.507812500000, 1490588635
0.052001953125, -1.025878906250, 0.323730468750, -6.312500000000, -3.031250000000, -2.507812500000, 1490588635
0.052001953125, -1.025878906250, 0.323730468750, -6.312500000000, -3.031250000000, -2.507812500000, 1490588635
-0.021972656250, -1.021728515625, 0.249267578125, -6.421875000000, -3.195312500000, -3.015625000000, 1490588635
-0.021972656250, -1.021728515625, 0.249267578125, -6.421875000000, -3.195312500000, -3.015625000000, 1490588635
-0.021972656250, -1.021728515625, 0.249267578125, -6.421875000000, -3.195312500000, -3.015625000000, 1490588635
-0.024658203125, -0.930419921875, 0.235107421875, -1.929687500000, -1.921875000000, -6.148437500000, 1490588635
-0.024658203125, -0.930419921875, 0.235107421875, -1.929687500000, -1.921875000000, -6.148437500000, 1490588635
-0.024658203125, -0.930419921875, 0.235107421875, -1.929687500000, -1.921875000000, -6.148437500000, 1490588635
0.052001953125, -0.930908203125, 0.314941406250, -4.468750000000, -1.218750000000, -1.695312500000, 1490588636
0.052001953125, -0.930908203125, 0.314941406250, -4.468750000000, -1.218750000000, -1.695312500000, 1490588636
0.052001953125, -0.930908203125, 0.314941406250, -4.468750000000, -1.218750000000, -1.695312500000, 1490588636
0.052001953125, -0.930908203125, 0.314941406250, -4.468750000000, -1.218750000000, -1.695312500000, 1490588636
-0.067138671875, -0.932128906250, 0.263427734375, -4.179687500000, -1.343750000000, -2.843750000000, 1490588636
-0.067138671875, -0.932128906250, 0.263427734375, -4.179687500000, -1.343750000000, -2.843750000000, 1490588636
-0.067138671875, -0.932128906250, 0.263427734375, -4.179687500000, -1.343750000000, -2.843750000000, 1490588636
0.047363281250, -1.087158203125, 0.217773437500, 2.164062500000, -6.101562500000, -1.593750000000, 1490588636
0.047363281250, -1.087158203125, 0.217773437500, 2.164062500000, -6.101562500000, -1.593750000000, 1490588636
0.047363281250, -1.087158203125, 0.217773437500, 2.164062500000, -6.101562500000, -1.593750000000, 1490588636
-0.006591796875, -0.949951171875, 0.185791015625, -5.398437500000, 0.296875000000, -4.179687500000, 1490588636
-0.006591796875, -0.949951171875, 0.185791015625, -5.398437500000, 0.296875000000, -4.179687500000, 1490588636
-0.006591796875, -0.949951171875, 0.185791015625, -5.398437500000, 0.296875000000, -4.179687500000, 1490588636
-0.024902343750, -1.092529296875, 0.273925781250, -4.007812500000, -1.234375000000, -1.070312500000, 1490588636
-0.024902343750, -1.092529296875, 0.273925781250, -4.007812500000, -1.234375000000, -1.070312500000, 1490588636
-0.024902343750, -1.092529296875, 0.273925781250, -4.007812500000, -1.234375000000, -1.070312500000, 1490588636
-0.024902343750, -1.092529296875, 0.273925781250, -4.007812500000, -1.234375000000, -1.070312500000, 1490588636
0.024414062500, -0.976806640625, 0.288085937500, 0.109375000000, -0.585937500000, -4.179687500000, 1490588636
0.024414062500, -0.976806640625, 0.288085937500, 0.109375000000, -0.585937500000, -4.179687500000, 1490588636
0.024414062500, -0.976806640625, 0.288085937500, 0.109375000000, -0.585937500000, -4.179687500000, 1490588636
-0.006591796875, -1.015380859375, 0.184814453125, -4.140625000000, 2.414062500000, -2.539062500000, 1490588636
-0.006591796875, -1.015380859375, 0.184814453125, -4.140625000000, 2.414062500000, -2.539062500000, 1490588636
-0.006591796875, -1.015380859375, 0.184814453125, -4.140625000000, 2.414062500000, -2.539062500000, 1490588636
-0.072265625000, -1.035644531250, 0.237548828125, -1.437500000000, -2.140625000000, -1.296875000000, 1490588636
-0.072265625000, -1.035644531250, 0.237548828125, -1.437500000000, -2.140625000000, -1.296875000000, 1490588636
-0.072265625000, -1.035644531250, 0.237548828125, -1.437500000000, -2.140625000000, -1.296875000000, 1490588636
-0.031005859375, -1.026367187500, 0.232666015625, -6.789062500000, 2.078125000000, -4.328125000000, 1490588636
-0.031005859375, -1.026367187500, 0.232666015625, -6.789062500000, 2.078125000000, -4.328125000000, 1490588636
-0.031005859375, -1.026367187500, 0.232666015625, -6.789062500000, 2.078125000000, -4.328125000000, 1490588636
-0.031005859375, -1.026367187500, 0.232666015625, -6.789062500000, 2.078125000000, -4.328125000000, 1490588636
0.033447265625, -0.976806640625, 0.229003906250, -1.367187500000, 0.773437500000, -2.445312500000, 1490588636
0.033447265625, -0.976806640625, 0.229003906250, -1.367187500000, 0.773437500000, -2.445312500000, 1490588636
0.033447265625, -0.976806640625, 0.229003906250, -1.367187500000, 0.773437500000, -2.445312500000, 1490588636
-0.022216796875, -0.922851562500, 0.261474609375, -1.281250000000, -0.234375000000, -1.531250000000, 1490588636
-0.022216796875, -0.922851562500, 0.261474609375, -1.281250000000, -0.234375000000, -1.531250000000, 1490588636
-0.022216796875, -0.922851562500, 0.261474609375, -1.281250000000, -0.234375000000, -1.531250000000, 1490588636
0.081054687500, -0.970947265625, 0.228027343750, -3.914062500000, -0.937500000000, -2.929687500000, 1490588636
0.081054687500, -0.970947265625, 0.228027343750, -3.914062500000, -0.937500000000, -2.929687500000, 1490588636
0.081054687500, -0.970947265625, 0.228027343750, -3.914062500000, -0.937500000000, -2.929687500000, 1490588636
0.006347656250, -0.932617187500, 0.202392578125, -4.875000000000, -2.414062500000, -2.312500000000, 1490588636
0.006347656250, -0.932617187500, 0.202392578125, -4.875000000000, -2.414062500000, -2.312500000000, 1490588636
0.006347656250, -0.932617187500, 0.202392578125, -4.875000000000, -2.414062500000, -2.312500000000, 1490588636
0.006347656250, -0.932617187500, 0.202392578125, -4.875000000000, -2.414062500000, -2.312500000000, 1490588636
0.045166015625, -0.927246093750, 0.257568359375, -1.687500000000, -2.054687500000, -1.984375000000, 1490588636
0.045166015625, -0.927246093750, 0.257568359375, -1.687500000000, -2.054687500000, -1.984375000000, 1490588636
0.045166015625, -0.927246093750, 0.257568359375, -1.687500000000, -2.054687500000, -1.984375000000, 1490588636
0.022949218750, -0.915039062500, 0.208496093750, -3.296875000000, 0.023437500000, -1.921875000000, 1490588636
0.022949218750, -0.915039062500, 0.208496093750, -3.296875000000, 0.023437500000, -1.921875000000, 1490588636
0.022949218750, -0.915039062500, 0.208496093750, -3.296875000000, 0.023437500000, -1.921875000000, 1490588636
0.078369140625, -0.996826171875, 0.221191406250, -3.343750000000, -0.320312500000, -6.125000000000, 1490588636
0.078369140625, -0.996826171875, 0.221191406250, -3.343750000000, -0.320312500000, -6.125000000000, 1490588636
0.078369140625, -0.996826171875, 0.221191406250, -3.343750000000, -0.320312500000, -6.125000000000, 1490588636
0.096435546875, -1.082275390625, 0.224121093750, -4.062500000000, -0.101562500000, -1.687500000000, 1490588636
0.096435546875, -1.082275390625, 0.224121093750, -4.062500000000, -0.101562500000, -1.687500000000, 1490588636
0.096435546875, -1.082275390625, 0.224121093750, -4.062500000000, -0.101562500000, -1.687500000000, 1490588636
0.096435546875, -1.082275390625, 0.224121093750, -4.062500000000, -0.101562500000, -1.687500000000, 1490588636
-0.015625000000, -1.091064453125, 0.219238281250, -4.992187500000, -0.304687500000, -6.140625000000, 1490588636
0.078369140625, -0.926513671875, 0.184570312500, -1.843750000000, 2.039062500000, -1.601562500000, 1490588636
0.078369140625, -0.926513671875, 0.184570312500, -1.843750000000, 2.039062500000, -1.601562500000, 1490588636
0.078369140625, -0.926513671875, 0.184570312500, -1.843750000000, 2.039062500000, -1.601562500000, 1490588636
0.078369140625, -0.926513671875, 0.184570312500, -1.843750000000, 2.039062500000, -1.601562500000, 1490588636
0.078369140625, -0.926513671875, 0.184570312500, -1.843750000000, 2.039062500000, -1.601562500000, 1490588636
0.008056640625, -0.978759765625, 0.257568359375, -3.164062500000, -0.781250000000, -4.914062500000, 1490588636
0.008056640625, -0.978759765625, 0.257568359375, -3.164062500000, -0.781250000000, -4.914062500000, 1490588636
0.008056640625, -0.978759765625, 0.257568359375, -3.164062500000, -0.781250000000, -4.914062500000, 1490588636
0.138183593750, -1.015380859375, 0.279296875000, -4.343750000000, -0.187500000000, -4.796875000000, 1490588636
0.138183593750, -1.015380859375, 0.279296875000, -4.343750000000, -0.187500000000, -4.796875000000, 1490588636
0.138183593750, -1.015380859375, 0.279296875000, -4.343750000000, -0.187500000000, -4.796875000000, 1490588636
0.138183593750, -1.015380859375, 0.279296875000, -4.343750000000, -0.187500000000, -4.796875000000, 1490588637
-0.006835937500, -1.026855468750, 0.243164062500, -4.156250000000, -0.531250000000, -6.578125000000, 1490588637
-0.006835937500, -1.026855468750, 0.243164062500, -4.156250000000, -0.531250000000, -6.578125000000, 1490588637
-0.006835937500, -1.026855468750, 0.243164062500, -4.156250000000, -0.531250000000, -6.578125000000, 1490588637
0.096191406250, -1.073242187500, 0.245605468750, -2.132812500000, 2.710937500000, -1.953125000000, 1490588637
0.096191406250, -1.073242187500, 0.245605468750, -2.132812500000, 2.710937500000, -1.953125000000, 1490588637
0.096191406250, -1.073242187500, 0.245605468750, -2.132812500000, 2.710937500000, -1.953125000000, 1490588637
0.063720703125, -1.019287109375, 0.201904296875, -1.640625000000, -0.523437500000, -4.812500000000, 1490588637
0.063720703125, -1.019287109375, 0.201904296875, -1.640625000000, -0.523437500000, -4.812500000000, 1490588637
0.063720703125, -1.019287109375, 0.201904296875, -1.640625000000, -0.523437500000, -4.812500000000, 1490588637
0.079589843750, -0.980712890625, 0.213623046875, -3.421875000000, -1.101562500000, -4.578125000000, 1490588637
0.079589843750, -0.980712890625, 0.213623046875, -3.421875000000, -1.101562500000, -4.578125000000, 1490588637
0.079589843750, -0.980712890625, 0.213623046875, -3.421875000000, -1.101562500000, -4.578125000000, 1490588637
0.079589843750, -0.980712890625, 0.213623046875, -3.421875000000, -1.101562500000, -4.578125000000, 1490588637
0.038085937500, -1.014892578125, 0.247070312500, -4.500000000000, -1.406250000000, -1.914062500000, 1490588637
0.038085937500, -1.014892578125, 0.247070312500, -4.500000000000, -1.406250000000, -1.914062500000, 1490588637
0.038085937500, -1.014892578125, 0.247070312500, -4.500000000000, -1.406250000000, -1.914062500000, 1490588637
-0.012451171875, -0.919433593750, 0.317626953125, -1.734375000000, 0.242187500000, -1.843750000000, 1490588637
-0.012451171875, -0.919433593750, 0.317626953125, -1.734375000000, 0.242187500000, -1.843750000000, 1490588637
-0.012451171875, -0.919433593750, 0.317626953125, -1.734375000000, 0.242187500000, -1.843750000000, 1490588637
0.033203125000, -1.013183593750, 0.297363281250, -3.429687500000, -0.867187500000, -2.312500000000, 1490588637
0.033203125000, -1.013183593750, 0.297363281250, -3.429687500000, -0.867187500000, -2.312500000000, 1490588637
0.033203125000, -1.013183593750, 0.297363281250, -3.429687500000, -0.867187500000, -2.312500000000, 1490588637
0.023193359375, -0.947021484375, 0.251953125000, -3.820312500000, -1.445312500000, -4.531250000000, 1490588637
0.023193359375, -0.947021484375, 0.251953125000, -3.820312500000, -1.445312500000, -4.531250000000, 1490588637
0.023193359375, -0.947021484375, 0.251953125000, -3.820312500000, -1.445312500000, -4.531250000000, 1490588637
0.023193359375, -0.947021484375, 0.251953125000, -3.820312500000, -1.445312500000, -4.531250000000, 1490588637
-0.065429687500, -0.980224609375, 0.328857421875, -6.031250000000, 0.218750000000, -1.945312500000, 1490588637
-0.065429687500, -0.980224609375, 0.328857421875, -6.031250000000, 0.218750000000, -1.945312500000, 1490588637
-0.065429687500, -0.980224609375, 0.328857421875, -6.031250000000, 0.218750000000, -1.945312500000, 1490588637
-0.010253906250, -1.005371093750, 0.224121093750, -1.210937500000, -0.531250000000, -4.320312500000, 1490588637
-0.010253906250, -1.005371093750, 0.224121093750, -1.210937500000, -0.531250000000, -4.320312500000, 1490588637
-0.010253906250, -1.005371093750, 0.224121093750, -1.210937500000, -0.531250000000, -4.320312500000, 1490588637
0.080810546875, -0.985107421875, 0.114501953125, -3.101562500000, -0.554687500000, -4.859375000000, 1490588637
0.080810546875, -0.985107421875, 0.114501953125, -3.101562500000, -0.554687500000, -4.859375000000, 1490588637
0.080810546875, -0.985107421875, 0.114501953125, -3.101562500000, -0.554687500000, -4.859375000000, 1490588637
0.077148437500, -0.926269531250, 0.259521484375, -1.023437500000, -2.945312500000, -1.828125000000, 1490588637
0.077148437500, -0.926269531250, 0.259521484375, -1.023437500000, -2.945312500000, -1.828125000000, 1490588637
0.077148437500, -0.926269531250, 0.259521484375, -1.023437500000, -2.945312500000, -1.828125000000, 1490588637
0.077148437500, -0.926269531250, 0.259521484375, -1.023437500000, -2.945312500000, -1.828125000000, 1490588637
0.092529296875, -1.023925781250, 0.223876953125, -4.476562500000, -2.726562500000, -1.695312500000, 1490588637
0.092529296875, -1.023925781250, 0.223876953125, -4.476562500000, -2.726562500000, -1.695312500000, 1490588637
0.092529296875, -1.023925781250, 0.223876953125, -4.476562500000, -2.726562500000, -1.695312500000, 1490588637
0.088867187500, -1.027832031250, 0.259277343750, -4.328125000000, 0.570312500000, -3.179687500000, 1490588637
0.088867187500, -1.027832031250, 0.259277343750, -4.328125000000, 0.570312500000, -3.179687500000, 1490588637
0.088867187500, -1.027832031250, 0.259277343750, -4.328125000000, 0.570312500000, -3.179687500000, 1490588637
-0.015380859375, -0.979980468750, 0.273925781250, -4.351562500000, -2.609375000000, -3.007812500000, 1490588637
-0.015380859375, -0.979980468750, 0.273925781250, -4.351562500000, -2.609375000000, -3.007812500000, 1490588637
-0.015380859375, -0.979980468750, 0.273925781250, -4.351562500000, -2.609375000000, -3.007812500000, 1490588637
0.040771484375, -1.065185546875, 0.276123046875, -4.171875000000, -2.015625000000, -1.476562500000, 1490588637
0.040771484375, -1.065185546875, 0.276123046875, -4.171875000000, -2.015625000000, -1.476562500000, 1490588637
0.040771484375, -1.065185546875, 0.276123046875, -4.171875000000, -2.015625000000, -1.476562500000, 1490588637
0.022705078125, -0.960693359375, 0.237304687500, -3.304687500000, -1.250000000000, -4.546875000000, 1490588637
0.022705078125, -0.960693359375, 0.237304687500, -3.304687500000, -1.250000000000, -4.546875000000, 1490588637
0.022705078125, -0.960693359375, 0.237304687500, -3.304687500000, -1.250000000000, -4.546875000000, 1490588637
0.084960937500, -0.929687500000, 0.203125000000, -6.070312500000, -1.640625000000, -4.750000000000, 1490588637
0.084960937500, -0.929687500000, 0.203125000000, -6.070312500000, -1.640625000000, -4.750000000000, 1490588637
0.084960937500, -0.929687500000, 0.203125000000, -6.070312500000, -1.640625000000, -4.750000000000, 1490588637
0.084960937500, -0.929687500000, 0.203125000000, -6.070312500000, -1.640625000000, -4.750000000000, 1490588637
0.064941406250, -0.973876953125, 0.270751953125, -4.007812500000, -4.570312500000, -1.312500000000, 1490588637
0.064941406250, -0.973876953125, 0.270751953125, -4.007812500000, -4.570312500000, -1.312500000000, 1490588637
0.064941406250, -0.973876953125, 0.270751953125, -4.007812500000, -4.570312500000, -1.312500000000, 1490588637
-0.010009765625, -0.923828125000, 0.267578125000, -6.289062500000, -2.617187500000, -1.375000000000, 1490588637
-0.010009765625, -0.923828125000, 0.267578125000, -6.289062500000, -2.617187500000, -1.375000000000, 1490588637
-0.010009765625, -0.923828125000, 0.267578125000, -6.289062500000, -2.617187500000, -1.375000000000, 1490588637
-0.010009765625, -0.923828125000, 0.267578125000, -6.289062500000, -2.617187500000, -1.375000000000, 1490588637
-0.028320312500, -1.006835937500, 0.100341796875, -1.796875000000, -6.265625000000, 0.210937500000, 1490588638
-0.028320312500, -1.006835937500, 0.100341796875, -1.796875000000, -6.265625000000, 0.210937500000, 1490588638
-0.028320312500, -1.006835937500, 0.100341796875, -1.796875000000, -6.265625000000, 0.210937500000, 1490588638
0.025390625000, -1.027587890625, 0.325683593750, -5.617187500000, -4.156250000000, -3.585937500000, 1490588638
0.025390625000, -1.027587890625, 0.325683593750, -5.617187500000, -4.156250000000, -3.585937500000, 1490588638
0.025390625000, -1.027587890625, 0.325683593750, -5.617187500000, -4.156250000000, -3.585937500000, 1490588638
-0.007568359375, -0.886474609375, 0.269287109375, -0.851562500000, -3.445312500000, -1.906250000000, 1490588638
-0.007568359375, -0.886474609375, 0.269287109375, -0.851562500000, -3.445312500000, -1.906250000000, 1490588638
-0.007568359375, -0.886474609375, 0.269287109375, -0.851562500000, -3.445312500000, -1.906250000000, 1490588638
0.082519531250, -0.920166015625, 0.180664062500, -1.015625000000, -3.484375000000, -6.265625000000, 1490588638
0.082519531250, -0.920166015625, 0.180664062500, -1.015625000000, -3.484375000000, -6.265625000000, 1490588638
0.082519531250, -0.920166015625, 0.180664062500, -1.015625000000, -3.484375000000, -6.265625000000, 1490588638
0.082519531250, -0.920166015625, 0.180664062500, -1.015625000000, -3.484375000000, -6.265625000000, 1490588638
-0.021972656250, -0.979736328125, 0.266113281250, -3.500000000000, -4.953125000000, -1.070312500000, 1490588638
-0.021972656250, -0.979736328125, 0.266113281250, -3.500000000000, -4.953125000000, -1.070312500000, 1490588638
-0.021972656250, -0.979736328125, 0.266113281250, -3.500000000000, -4.953125000000, -1.070312500000, 1490588638
0.055664062500, -0.989990234375, 0.185302734375, -3.359375000000, -3.257812500000, -4.937500000000, 1490588638
0.055664062500, -0.989990234375, 0.185302734375, -3.359375000000, -3.257812500000, -4.937500000000, 1490588638
0.055664062500, -0.989990234375, 0.185302734375, -3.359375000000, -3.257812500000, -4.937500000000, 1490588638
-0.000244140625, -1.135253906250, 0.227050781250, -3.421875000000, -6.734375000000, -4.460937500000, 1490588638
-0.000244140625, -1.135253906250, 0.227050781250, -3.421875000000, -6.734375000000, -4.460937500000, 1490588638
-0.000244140625, -1.135253906250, 0.227050781250, -3.421875000000, -6.734375000000, -4.460937500000, 1490588638
0.043701171875, -1.086425781250, 0.230957031250, -2.898437500000, -5.429687500000, -6.304687500000, 1490588638
0.043701171875, -1.086425781250, 0.230957031250, -2.898437500000, -5.429687500000, -6.304687500000, 1490588638
0.043701171875, -1.086425781250, 0.230957031250, -2.898437500000, -5.429687500000, -6.304687500000, 1490588638
0.043701171875, -1.086425781250, 0.230957031250, -2.898437500000, -5.429687500000, -6.304687500000, 1490588638
0.094482421875, -0.964599609375, 0.239746093750, -3.617187500000, -8.828125000000, -6.898437500000, 1490588638
0.094482421875, -0.964599609375, 0.239746093750, -3.617187500000, -8.828125000000, -6.898437500000, 1490588638
0.094482421875, -0.964599609375, 0.239746093750, -3.617187500000, -8.828125000000, -6.898437500000, 1490588638
0.076660156250, -1.031005859375, 0.265136718750, -6.148437500000, -3.984375000000, -4.062500000000, 1490588638
0.076660156250, -1.031005859375, 0.265136718750, -6.148437500000, -3.984375000000, -4.062500000000, 1490588638
0.076660156250, -1.031005859375, 0.265136718750, -6.148437500000, -3.984375000000, -4.062500000000, 1490588638
0.046875000000, -1.074218750000, 0.221679687500, -3.867187500000, -5.281250000000, -4.796875000000, 1490588638
0.046875000000, -1.074218750000, 0.221679687500, -3.867187500000, -5.281250000000, -4.796875000000, 1490588638
0.046875000000, -1.074218750000, 0.221679687500, -3.867187500000, -5.281250000000, -4.796875000000, 1490588638
0.043945312500, -0.945800781250, 0.259521484375, -3.117187500000, -8.187500000000, -4.343750000000, 1490588638
0.043945312500, -0.945800781250, 0.259521484375, -3.117187500000, -8.187500000000, -4.343750000000, 1490588638
0.043945312500, -0.945800781250, 0.259521484375, -3.117187500000, -8.187500000000, -4.343750000000, 1490588638
0.043945312500, -0.945800781250, 0.259521484375, -3.117187500000, -8.187500000000, -4.343750000000, 1490588638
0.001220703125, -1.009033203125, 0.273925781250, -1.687500000000, -10.757812500000, -4.976562500000, 1490588638
0.001220703125, -1.009033203125, 0.273925781250, -1.687500000000, -10.757812500000, -4.976562500000, 1490588638
0.001220703125, -1.009033203125, 0.273925781250, -1.687500000000, -10.757812500000, -4.976562500000, 1490588638
0.046875000000, -1.001464843750, 0.227050781250, -4.710937500000, -10.875000000000, -2.085937500000, 1490588638
0.046875000000, -1.001464843750, 0.227050781250, -4.710937500000, -10.875000000000, -2.085937500000, 1490588638
0.046875000000, -1.001464843750, 0.227050781250, -4.710937500000, -10.875000000000, -2.085937500000, 1490588638
0.021728515625, -0.980468750000, 0.272705078125, -1.960937500000, -9.257812500000, -1.335937500000, 1490588638
0.021728515625, -0.980468750000, 0.272705078125, -1.960937500000, -9.257812500000, -1.335937500000, 1490588638
0.021728515625, -0.980468750000, 0.272705078125, -1.960937500000, -9.257812500000, -1.335937500000, 1490588638
-0.018310546875, -0.919189453125, 0.334228515625, -1.609375000000, -11.835937500000, -3.062500000000, 1490588638
0.026611328125, -0.956054687500, 0.254150390625, -2.437500000000, -14.609375000000, -4.429687500000, 1490588638
0.026611328125, -0.956054687500, 0.254150390625, -2.437500000000, -14.609375000000, -4.429687500000, 1490588638
-0.001220703125, -1.012695312500, 0.256835937500, 2.562500000000, -15.070312500000, -3.601562500000, 1490588638
-0.001220703125, -1.012695312500, 0.256835937500, 2.562500000000, -15.070312500000, -3.601562500000, 1490588638
-0.001220703125, -1.012695312500, 0.256835937500, 2.562500000000, -15.070312500000, -3.601562500000, 1490588638
-0.001220703125, -1.012695312500, 0.256835937500, 2.562500000000, -15.070312500000, -3.601562500000, 1490588638
-0.001220703125, -1.012695312500, 0.256835937500, -0.359375000000, -13.453125000000, -4.531250000000, 1490588638
0.040771484375, -1.075439453125, 0.242431640625, 2.437500000000, -16.906250000000, -1.148437500000, 1490588638
0.040771484375, -1.075439453125, 0.242431640625, 2.437500000000, -16.906250000000, -1.148437500000, 1490588638
0.040771484375, -1.075439453125, 0.242431640625, 2.437500000000, -16.906250000000, -1.148437500000, 1490588638
0.040771484375, -1.075439453125, 0.242431640625, 2.437500000000, -16.906250000000, -1.148437500000, 1490588638
0.069091796875, -1.026123046875, 0.265136718750, 0.679687500000, -16.703125000000, -1.351562500000, 1490588638
0.069091796875, -1.026123046875, 0.265136718750, 0.679687500000, -16.703125000000, -1.351562500000, 1490588638
0.069091796875, -1.026123046875, 0.265136718750, 0.679687500000, -16.703125000000, -1.351562500000, 1490588638
0.069091796875, -1.026123046875, 0.265136718750, 0.679687500000, -16.703125000000, -1.351562500000, 1490588638
0.069091796875, -1.026123046875, 0.265136718750, 0.679687500000, -16.703125000000, -1.351562500000, 1490588638
0.137207031250, -0.987792968750, 0.214843750000, 2.843750000000, -19.382812500000, -1.117187500000, 1490588638
0.137207031250, -0.987792968750, 0.214843750000, 2.843750000000, -19.382812500000, -1.117187500000, 1490588638
0.137207031250, -0.987792968750, 0.214843750000, 2.843750000000, -19.382812500000, -1.117187500000, 1490588638
0.085693359375, -0.974853515625, 0.097167968750, -5.164062500000, -20.906250000000, -4.664062500000, 1490588639
0.085693359375, -0.974853515625, 0.097167968750, -5.164062500000, -20.906250000000, -4.664062500000, 1490588639
0.085693359375, -0.974853515625, 0.097167968750, -5.164062500000, -20.906250000000, -4.664062500000, 1490588639
0.146240234375, -0.916748046875, 0.236816406250, 2.187500000000, -17.789062500000, -5.000000000000, 1490588639
0.146240234375, -0.916748046875, 0.236816406250, 2.187500000000, -17.789062500000, -5.000000000000, 1490588639
0.146240234375, -0.916748046875, 0.236816406250, 2.187500000000, -17.789062500000, -5.000000000000, 1490588639
-0.025146484375, -0.993896484375, 0.167968750000, -0.648437500000, -24.375000000000, -4.234375000000, 1490588639
-0.025146484375, -0.993896484375, 0.167968750000, -0.648437500000, -24.375000000000, -4.234375000000, 1490588639
-0.025146484375, -0.993896484375, 0.167968750000, -0.648437500000, -24.375000000000, -4.234375000000, 1490588639
-0.025146484375, -0.993896484375, 0.167968750000, -0.648437500000, -24.375000000000, -4.234375000000, 1490588639
-0.018066406250, -0.958007812500, 0.161865234375, -1.062500000000, -23.703125000000, -2.164062500000, 1490588639
-0.018066406250, -0.958007812500, 0.161865234375, -1.062500000000, -23.703125000000, -2.164062500000, 1490588639
-0.018066406250, -0.958007812500, 0.161865234375, -1.062500000000, -23.703125000000, -2.164062500000, 1490588639
0.050537109375, -0.972656250000, 0.237792968750, 0.445312500000, -23.554687500000, -2.703125000000, 1490588639
0.050537109375, -0.972656250000, 0.237792968750, 0.445312500000, -23.554687500000, -2.703125000000, 1490588639
0.050537109375, -0.972656250000, 0.237792968750, 0.445312500000, -23.554687500000, -2.703125000000, 1490588639
-0.092041015625, -0.962158203125, 0.214843750000, -2.023437500000, -28.578125000000, 4.906250000000, 1490588639
-0.092041015625, -0.962158203125, 0.214843750000, -2.023437500000, -28.578125000000, 4.906250000000, 1490588639
-0.092041015625, -0.962158203125, 0.214843750000, -2.023437500000, -28.578125000000, 4.906250000000, 1490588639
0.027832031250, -0.965332031250, 0.240478515625, -0.960937500000, -25.390625000000, 10.351562500000, 1490588639
0.128417968750, -0.873779296875, 0.200195312500, 4.890625000000, -26.414062500000, 10.601562500000, 1490588639
0.128417968750, -0.873779296875, 0.200195312500, 4.890625000000, -26.414062500000, 10.601562500000, 1490588639
0.184814453125, -0.843994140625, 0.185791015625, 10.187500000000, -23.632812500000, 9.578125000000, 1490588639
0.184814453125, -0.843994140625, 0.185791015625, 10.187500000000, -23.632812500000, 9.578125000000, 1490588639
0.184814453125, -0.843994140625, 0.185791015625, 10.187500000000, -23.632812500000, 9.578125000000, 1490588639
0.184814453125, -0.843994140625, 0.185791015625, 10.187500000000, -23.632812500000, 9.578125000000, 1490588639
0.184814453125, -0.843994140625, 0.185791015625, 10.187500000000, -23.632812500000, 9.578125000000, 1490588639
0.184814453125, -0.843994140625, 0.185791015625, 10.187500000000, -23.632812500000, 9.578125000000, 1490588639
0.180664062500, -0.872802734375, 0.334716796875, 19.492187500000, -26.476562500000, 10.015625000000, 1490588639
0.180664062500, -0.872802734375, 0.334716796875, 19.492187500000, -26.476562500000, 10.015625000000, 1490588639
0.180664062500, -0.872802734375, 0.334716796875, 19.492187500000, -26.476562500000, 10.015625000000, 1490588639
0.180664062500, -0.872802734375, 0.334716796875, 19.492187500000, -26.476562500000, 10.015625000000, 1490588639
0.455566406250, -1.074218750000, 0.185791015625, 12.531250000000, -7.757812500000, 10.609375000000, 1490588639
0.455566406250, -1.074218750000, 0.185791015625, 12.531250000000, -7.757812500000, 10.609375000000, 1490588639
0.455566406250, -1.074218750000, 0.185791015625, 12.531250000000, -7.757812500000, 10.609375000000, 1490588639
0.455566406250, -1.074218750000, 0.185791015625, 12.531250000000, -7.757812500000, 10.609375000000, 1490588639
0.301757812500, -1.063476562500, 0.339355468750, 15.304687500000, 9.664062500000, 1.757812500000, 1490588639
0.301757812500, -1.063476562500, 0.339355468750, 15.304687500000, 9.664062500000, 1.757812500000, 1490588639
0.301757812500, -1.063476562500, 0.339355468750, 15.304687500000, 9.664062500000, 1.757812500000, 1490588639
0.216308593750, -0.868652343750, 0.181884765625, -1.898437500000, -2.054687500000, 2.562500000000, 1490588639
0.216308593750, -0.868652343750, 0.181884765625, -1.898437500000, -2.054687500000, 2.562500000000, 1490588639
0.216308593750, -0.868652343750, 0.181884765625, -1.898437500000, -2.054687500000, 2.562500000000, 1490588639
0.260498046875, -0.932128906250, 0.158203125000, 18.437500000000, 3.734375000000, -8.343750000000, 1490588639
0.260498046875, -0.932128906250, 0.158203125000, 18.437500000000, 3.734375000000, -8.343750000000, 1490588639
0.260498046875, -0.932128906250, 0.158203125000, 18.437500000000, 3.734375000000, -8.343750000000, 1490588639
0.173339843750, -0.941162109375, 0.197265625000, 3.617187500000, -11.757812500000, -9.593750000000, 1490588639
0.173339843750, -0.941162109375, 0.197265625000, 3.617187500000, -11.757812500000, -9.593750000000, 1490588639
0.173339843750, -0.941162109375, 0.197265625000, 3.617187500000, -11.757812500000, -9.593750000000, 1490588639
0.173339843750, -0.941162109375, 0.197265625000, 3.617187500000, -11.757812500000, -9.593750000000, 1490588639
0.235107421875, -0.890380859375, 0.207275390625, -0.812500000000, -10.804687500000, -12.132812500000, 1490588639
0.235107421875, -0.890380859375, 0.207275390625, -0.812500000000, -10.804687500000, -12.132812500000, 1490588639
0.235107421875, -0.890380859375, 0.207275390625, -0.812500000000, -10.804687500000, -12.132812500000, 1490588639
0.299804687500, -0.969482421875, 0.161865234375, -2.640625000000, 0.429687500000, -14.093750000000, 1490588639
0.299804687500, -0.969482421875, 0.161865234375, -2.640625000000, 0.429687500000, -14.093750000000, 1490588639
0.299804687500, -0.969482421875, 0.161865234375, -2.640625000000, 0.429687500000, -14.093750000000, 1490588639
0.226806640625, -1.074707031250, 0.166992187500, -3.843750000000, 0.023437500000, -17.343750000000, 1490588639
0.226806640625, -1.074707031250, 0.166992187500, -3.843750000000, 0.023437500000, -17.343750000000, 1490588639
0.226806640625, -1.074707031250, 0.166992187500, -3.843750000000, 0.023437500000, -17.343750000000, 1490588639
0.246093750000, -1.133789062500, 0.274902343750, -13.335937500000, 4.968750000000, -26.382812500000, 1490588639
0.246093750000, -1.133789062500, 0.274902343750, -13.335937500000, 4.968750000000, -26.382812500000, 1490588639
0.246093750000, -1.133789062500, 0.274902343750, -13.335937500000, 4.968750000000, -26.382812500000, 1490588639
0.246093750000, -1.133789062500, 0.274902343750, -13.335937500000, 4.968750000000, -26.382812500000, 1490588639
0.253173828125, -1.253417968750, 0.229492187500, -37.398437500000, 8.789062500000, -24.703125000000, 1490588639
0.253173828125, -1.253417968750, 0.229492187500, -37.398437500000, 8.789062500000, -24.703125000000, 1490588639
0.253173828125, -1.253417968750, 0.229492187500, -37.398437500000, 8.789062500000, -24.703125000000, 1490588639
0.115722656250, -1.223632812500, 0.256835937500, -41.460937500000, -1.148437500000, -23.625000000000, 1490588639
0.115722656250, -1.223632812500, 0.256835937500, -41.460937500000, -1.148437500000, -23.625000000000, 1490588640
0.115722656250, -1.223632812500, 0.256835937500, -41.460937500000, -1.148437500000, -23.625000000000, 1490588640
0.079833984375, -1.211669921875, 0.189208984375, -27.640625000000, 2.898437500000, -19.921875000000, 1490588640
0.079833984375, -1.211669921875, 0.189208984375, -27.640625000000, 2.898437500000, -19.921875000000, 1490588640
0.079833984375, -1.211669921875, 0.189208984375, -27.640625000000, 2.898437500000, -19.921875000000, 1490588640
-0.164550781250, -0.798583984375, 0.090087890625, -32.820312500000, -19.203125000000, -33.695312500000, 1490588640
-0.164550781250, -0.798583984375, 0.090087890625, -32.820312500000, -19.203125000000, -33.695312500000, 1490588640
-0.164550781250, -0.798583984375, 0.090087890625, -32.820312500000, -19.203125000000, -33.695312500000, 1490588640
-0.164550781250, -0.798583984375, 0.090087890625, -32.820312500000, -19.203125000000, -33.695312500000, 1490588640
-0.061523437500, -0.895751953125, 0.044921875000, -17.031250000000, -29.867187500000, -38.554687500000, 1490588640
-0.061523437500, -0.895751953125, 0.044921875000, -17.031250000000, -29.867187500000, -38.554687500000, 1490588640
-0.061523437500, -0.895751953125, 0.044921875000, -17.031250000000, -29.867187500000, -38.554687500000, 1490588640
0.065185546875, -0.908935546875, 0.133300781250, -8.296875000000, -23.164062500000, -20.773437500000, 1490588640
0.065185546875, -0.908935546875, 0.133300781250, -8.296875000000, -23.164062500000, -20.773437500000, 1490588640
0.065185546875, -0.908935546875, 0.133300781250, -8.296875000000, -23.164062500000, -20.773437500000, 1490588640
0.135253906250, -0.871337890625, 0.111816406250, 1.335937500000, -9.304687500000, -3.687500000000, 1490588640
0.135253906250, -0.871337890625, 0.111816406250, 1.335937500000, -9.304687500000, -3.687500000000, 1490588640
0.135253906250, -0.871337890625, 0.111816406250, 1.335937500000, -9.304687500000, -3.687500000000, 1490588640
-0.004638671875, -0.956787109375, 0.167236328125, 5.664062500000, 11.023437500000, 7.218750000000, 1490588640
-0.004638671875, -0.956787109375, 0.167236328125, 5.664062500000, 11.023437500000, 7.218750000000, 1490588640
-0.004638671875, -0.956787109375, 0.167236328125, 5.664062500000, 11.023437500000, 7.218750000000, 1490588640
-0.004638671875, -0.956787109375, 0.167236328125, 5.664062500000, 11.023437500000, 7.218750000000, 1490588640
-0.031982421875, -0.864013671875, 0.190429687500, -0.929687500000, 20.265625000000, 8.328125000000, 1490588640
-0.031982421875, -0.864013671875, 0.190429687500, -0.929687500000, 20.265625000000, 8.328125000000, 1490588640
-0.031982421875, -0.864013671875, 0.190429687500, -0.929687500000, 20.265625000000, 8.328125000000, 1490588640
-0.066406250000, -0.914306640625, 0.234863281250, 5.953125000000, 20.921875000000, 2.578125000000, 1490588640
-0.066406250000, -0.914306640625, 0.234863281250, 5.953125000000, 20.921875000000, 2.578125000000, 1490588640
-0.066406250000, -0.914306640625, 0.234863281250, 5.953125000000, 20.921875000000, 2.578125000000, 1490588640
-0.052978515625, -0.963623046875, 0.278320312500, 4.226562500000, 24.226562500000, -2.843750000000, 1490588640
-0.052978515625, -0.963623046875, 0.278320312500, 4.226562500000, 24.226562500000, -2.843750000000, 1490588640
-0.052978515625, -0.963623046875, 0.278320312500, 4.226562500000, 24.226562500000, -2.843750000000, 1490588640
0.011962890625, -0.949218750000, 0.334228515625, -0.726562500000, 21.289062500000, 0.507812500000, 1490588640
0.011962890625, -0.949218750000, 0.334228515625, -0.726562500000, 21.289062500000, 0.507812500000, 1490588640
0.011962890625, -0.949218750000, 0.334228515625, -0.726562500000, 21.289062500000, 0.507812500000, 1490588640
0.011962890625, -0.949218750000, 0.334228515625, -0.726562500000, 21.289062500000, 0.507812500000, 1490588640
0.078613281250, -0.921875000000, 0.247558593750, -2.640625000000, 17.546875000000, 3.554687500000, 1490588640
0.078613281250, -0.921875000000, 0.247558593750, -2.640625000000, 17.546875000000, 3.554687500000, 1490588640
0.078613281250, -0.921875000000, 0.247558593750, -2.640625000000, 17.546875000000, 3.554687500000, 1490588640
-0.068603515625, -0.923583984375, 0.382568359375, -5.210937500000, 18.437500000000, 7.742187500000, 1490588640
-0.068603515625, -0.923583984375, 0.382568359375, -5.210937500000, 18.437500000000, 7.742187500000, 1490588640
-0.068603515625, -0.923583984375, 0.382568359375, -5.210937500000, 18.437500000000, 7.742187500000, 1490588640
-0.019042968750, -1.008544921875, 0.385498046875, -14.875000000000, 14.046875000000, 11.000000000000, 1490588640
-0.019042968750, -1.008544921875, 0.385498046875, -14.875000000000, 14.046875000000, 11.000000000000, 1490588640
-0.023193359375, -0.861572265625, 0.388427734375, -24.500000000000, 18.789062500000, 22.242187500000, 1490588640
-0.023193359375, -0.861572265625, 0.388427734375, -24.500000000000, 18.789062500000, 22.242187500000, 1490588640
-0.023193359375, -0.861572265625, 0.388427734375, -24.500000000000, 18.789062500000, 22.242187500000, 1490588640
-0.023193359375, -0.861572265625, 0.388427734375, -24.500000000000, 18.789062500000, 22.242187500000, 1490588640
0.016601562500, -1.403320312500, 0.209472656250, -43.367187500000, -9.242187500000, 38.617187500000, 1490588640
0.016601562500, -1.403320312500, 0.209472656250, -43.367187500000, -9.242187500000, 38.617187500000, 1490588640
0.016601562500, -1.403320312500, 0.209472656250, -43.367187500000, -9.242187500000, 38.617187500000, 1490588640
0.016601562500, -1.403320312500, 0.209472656250, -43.367187500000, -9.242187500000, 38.617187500000, 1490588640
0.165771484375, -0.941162109375, 0.046630859375, -13.500000000000, -27.250000000000, 30.843750000000, 1490588640
0.165771484375, -0.941162109375, 0.046630859375, -13.500000000000, -27.250000000000, 30.843750000000, 1490588640
0.165771484375, -0.941162109375, 0.046630859375, -13.500000000000, -27.250000000000, 30.843750000000, 1490588640
0.320068359375, -0.811035156250, 0.132568359375, 6.820312500000, 24.171875000000, 32.664062500000, 1490588640
0.320068359375, -0.811035156250, 0.132568359375, 6.820312500000, 24.171875000000, 32.664062500000, 1490588640
0.320068359375, -0.811035156250, 0.132568359375, 6.820312500000, 24.171875000000, 32.664062500000, 1490588640
0.205078125000, -0.934082031250, 0.057861328125, 7.695312500000, 13.882812500000, 18.781250000000, 1490588640
0.205078125000, -0.934082031250, 0.057861328125, 7.695312500000, 13.882812500000, 18.781250000000, 1490588640
0.205078125000, -0.934082031250, 0.057861328125, 7.695312500000, 13.882812500000, 18.781250000000, 1490588640
0.205078125000, -0.934082031250, 0.057861328125, 7.695312500000, 13.882812500000, 18.781250000000, 1490588640
0.133056640625, -1.025146484375, 0.089111328125, 4.851562500000, 26.273437500000, 9.640625000000, 1490588640
0.133056640625, -1.025146484375, 0.089111328125, 4.851562500000, 26.273437500000, 9.640625000000, 1490588640
0.133056640625, -1.025146484375, 0.089111328125, 4.851562500000, 26.273437500000, 9.640625000000, 1490588640
0.091796875000, -1.000732421875, 0.058349609375, 21.851562500000, 22.656250000000, -4.515625000000, 1490588640
0.091796875000, -1.000732421875, 0.058349609375, 21.851562500000, 22.656250000000, -4.515625000000, 1490588640
0.091796875000, -1.000732421875, 0.058349609375, 21.851562500000, 22.656250000000, -4.515625000000, 1490588641
0.051025390625, -0.922119140625, 0.204345703125, 8.570312500000, 3.593750000000, -9.312500000000, 1490588641
0.051025390625, -0.922119140625, 0.204345703125, 8.570312500000, 3.593750000000, -9.312500000000, 1490588641
0.051025390625, -0.922119140625, 0.204345703125, 8.570312500000, 3.593750000000, -9.312500000000, 1490588641
0.392822265625, -0.944091796875, 0.038574218750, 4.812500000000, -33.593750000000, -5.273437500000, 1490588641
0.392822265625, -0.944091796875, 0.038574218750, 4.812500000000, -33.593750000000, -5.273437500000, 1490588641
0.392822265625, -0.944091796875, 0.038574218750, 4.812500000000, -33.593750000000, -5.273437500000, 1490588641
0.392822265625, -0.944091796875, 0.038574218750, 4.812500000000, -33.593750000000, -5.273437500000, 1490588641
0.218261718750, -0.858642578125, 0.064697265625, 8.765625000000, -27.429687500000, -8.656250000000, 1490588641
0.218261718750, -0.858642578125, 0.064697265625, 8.765625000000, -27.429687500000, -8.656250000000, 1490588641
0.218261718750, -0.858642578125, 0.064697265625, 8.765625000000, -27.429687500000, -8.656250000000, 1490588641
0.287353515625, -0.944824218750, 0.158447265625, 13.773437500000, -29.929687500000, -1.257812500000, 1490588641
0.287353515625, -0.944824218750, 0.158447265625, 13.773437500000, -29.929687500000, -1.257812500000, 1490588641
0.287353515625, -0.944824218750, 0.158447265625, 13.773437500000, -29.929687500000, -1.257812500000, 1490588641
0.283447265625, -1.075927734375, 0.231445312500, -8.046875000000, -32.765625000000, -6.312500000000, 1490588641
0.283447265625, -1.075927734375, 0.231445312500, -8.046875000000, -32.765625000000, -6.312500000000, 1490588641
0.283447265625, -1.075927734375, 0.231445312500, -8.046875000000, -32.765625000000, -6.312500000000, 1490588641
0.321289062500, -0.921630859375, 0.274169921875, -10.757812500000, -30.351562500000, -13.140625000000, 1490588641
0.321289062500, -0.921630859375, 0.274169921875, -10.757812500000, -30.351562500000, -13.140625000000, 1490588641
0.321289062500, -0.921630859375, 0.274169921875, -10.757812500000, -30.351562500000, -13.140625000000, 1490588641
0.321289062500, -0.921630859375, 0.274169921875, -10.757812500000, -30.351562500000, -13.140625000000, 1490588641
0.338378906250, -0.948242187500, 0.179931640625, -14.656250000000, -14.109375000000, -18.585937500000, 1490588641
0.338378906250, -0.948242187500, 0.179931640625, -14.656250000000, -14.109375000000, -18.585937500000, 1490588641
0.338378906250, -0.948242187500, 0.179931640625, -14.656250000000, -14.109375000000, -18.585937500000, 1490588641
0.251464843750, -0.965087890625, 0.221679687500, -20.679687500000, -12.945312500000, -20.320312500000, 1490588641
0.251464843750, -0.965087890625, 0.221679687500, -20.679687500000, -12.945312500000, -20.320312500000, 1490588641
0.251464843750, -0.965087890625, 0.221679687500, -20.679687500000, -12.945312500000, -20.320312500000, 1490588641
0.264648437500, -1.083007812500, 0.393798828125, -25.507812500000, 2.734375000000, -22.429687500000, 1490588641
0.264648437500, -1.083007812500, 0.393798828125, -25.507812500000, 2.734375000000, -22.429687500000, 1490588641
0.264648437500, -1.083007812500, 0.393798828125, -25.507812500000, 2.734375000000, -22.429687500000, 1490588641
0.193359375000, -1.346435546875, 0.371337890625, -50.289062500000, 7.421875000000, -21.843750000000, 1490588641
0.193359375000, -1.346435546875, 0.371337890625, -50.289062500000, 7.421875000000, -21.843750000000, 1490588641
0.193359375000, -1.346435546875, 0.371337890625, -50.289062500000, 7.421875000000, -21.843750000000, 1490588641
0.193359375000, -1.346435546875, 0.371337890625, -50.289062500000, 7.421875000000, -21.843750000000, 1490588641
0.280029296875, -1.212890625000, 0.222167968750, -37.914062500000, 21.507812500000, -28.343750000000, 1490588641
0.280029296875, -1.212890625000, 0.222167968750, -37.914062500000, 21.507812500000, -28.343750000000, 1490588641
0.280029296875, -1.212890625000, 0.222167968750, -37.914062500000, 21.507812500000, -28.343750000000, 1490588641
0.079345703125, -1.087646484375, 0.165527343750, -26.054687500000, 26.945312500000, -20.476562500000, 1490588641
0.079345703125, -1.087646484375, 0.165527343750, -26.054687500000, 26.945312500000, -20.476562500000, 1490588641
0.079345703125, -1.087646484375, 0.165527343750, -26.054687500000, 26.945312500000, -20.476562500000, 1490588641
-0.127929687500, -0.803466796875, 0.191650390625, -19.328125000000, -1.125000000000, -26.359375000000, 1490588641
-0.127929687500, -0.803466796875, 0.191650390625, -19.328125000000, -1.125000000000, -26.359375000000, 1490588641
-0.127929687500, -0.803466796875, 0.191650390625, -19.328125000000, -1.125000000000, -26.359375000000, 1490588641
-0.156005859375, -0.905029296875, 0.143066406250, -9.585937500000, -24.265625000000, -28.265625000000, 1490588641
-0.156005859375, -0.905029296875, 0.143066406250, -9.585937500000, -24.265625000000, -28.265625000000, 1490588641
-0.156005859375, -0.905029296875, 0.143066406250, -9.585937500000, -24.265625000000, -28.265625000000, 1490588641
-0.156005859375, -0.905029296875, 0.143066406250, -9.585937500000, -24.265625000000, -28.265625000000, 1490588641
-0.075927734375, -1.010986328125, 0.162597656250, 16.414062500000, -28.781250000000, -22.109375000000, 1490588641
-0.075927734375, -1.010986328125, 0.162597656250, 16.414062500000, -28.781250000000, -22.109375000000, 1490588641
-0.075927734375, -1.010986328125, 0.162597656250, 16.414062500000, -28.781250000000, -22.109375000000, 1490588641
0.092773437500, -1.065917968750, 0.106201171875, 18.773437500000, -28.867187500000, -9.281250000000, 1490588641
0.092773437500, -1.065917968750, 0.106201171875, 18.773437500000, -28.867187500000, -9.281250000000, 1490588641
0.092773437500, -1.065917968750, 0.106201171875, 18.773437500000, -28.867187500000, -9.281250000000, 1490588641
-0.040527343750, -0.867919921875, 0.266845703125, 2.234375000000, 14.148437500000, -3.460937500000, 1490588641
-0.026123046875, -0.805908203125, 0.270751953125, 2.273437500000, 11.031250000000, -5.164062500000, 1490588641
-0.026123046875, -0.805908203125, 0.270751953125, 2.273437500000, 11.031250000000, -5.164062500000, 1490588641
-0.026123046875, -0.805908203125, 0.270751953125, 2.273437500000, 11.031250000000, -5.164062500000, 1490588641
-0.030761718750, -0.893066406250, 0.181152343750, 6.476562500000, 14.250000000000, -5.523437500000, 1490588641
-0.030761718750, -0.893066406250, 0.181152343750, 6.476562500000, 14.250000000000, -5.523437500000, 1490588641
-0.030761718750, -0.893066406250, 0.181152343750, 6.476562500000, 14.250000000000, -5.523437500000, 1490588641
-0.030761718750, -0.893066406250, 0.181152343750, 6.476562500000, 14.250000000000, -5.523437500000, 1490588641
-0.030761718750, -0.893066406250, 0.181152343750, 6.476562500000, 14.250000000000, -5.523437500000, 1490588641
-0.013916015625, -0.876464843750, 0.203857421875, 10.031250000000, 20.179687500000, -8.812500000000, 1490588641
-0.013916015625, -0.876464843750, 0.203857421875, 10.031250000000, 20.179687500000, -8.812500000000, 1490588642
0.035400390625, -1.028808593750, 0.183837890625, 1.164062500000, 29.304687500000, -6.835937500000, 1490588642
0.035400390625, -1.028808593750, 0.183837890625, 1.164062500000, 29.304687500000, -6.835937500000, 1490588642
0.035400390625, -1.028808593750, 0.183837890625, 1.164062500000, 29.304687500000, -6.835937500000, 1490588642
0.035400390625, -1.028808593750, 0.183837890625, 1.164062500000, 29.304687500000, -6.835937500000, 1490588642
0.007568359375, -1.020996093750, 0.220458984375, -1.257812500000, 28.859375000000, 5.195312500000, 1490588642
0.007568359375, -1.020996093750, 0.220458984375, -1.257812500000, 28.859375000000, 5.195312500000, 1490588642
0.007568359375, -1.020996093750, 0.220458984375, -1.257812500000, 28.859375000000, 5.195312500000, 1490588642
0.007568359375, -1.020996093750, 0.220458984375, -1.257812500000, 28.859375000000, 5.195312500000, 1490588642
0.007568359375, -1.020996093750, 0.220458984375, -1.257812500000, 28.859375000000, 5.195312500000, 1490588642
0.007568359375, -1.020996093750, 0.220458984375, -1.257812500000, 28.859375000000, 5.195312500000, 1490588642
0.007568359375, -1.020996093750, 0.220458984375, -1.257812500000, 28.859375000000, 5.195312500000, 1490588642
0.007568359375, -1.020996093750, 0.220458984375, -1.257812500000, 28.859375000000, 5.195312500000, 1490588642
0.006347656250, -0.959960937500, 0.294677734375, -5.226562500000, 17.593750000000, 6.226562500000, 1490588642
0.006347656250, -0.959960937500, 0.294677734375, -5.226562500000, 17.593750000000, 6.226562500000, 1490588642
0.006347656250, -0.959960937500, 0.294677734375, -5.226562500000, 17.593750000000, 6.226562500000, 1490588642
0.006347656250, -0.959960937500, 0.294677734375, -5.226562500000, 17.593750000000, 6.226562500000, 1490588642
0.006347656250, -0.959960937500, 0.294677734375, -5.226562500000, 17.593750000000, 6.226562500000, 1490588642
-0.044921875000, -1.027099609375, 0.335449218750, -12.679687500000, 20.375000000000, 9.695312500000, 1490588642
-0.044921875000, -1.027099609375, 0.335449218750, -12.679687500000, 20.375000000000, 9.695312500000, 1490588642
-0.044921875000, -1.027099609375, 0.335449218750, -12.679687500000, 20.375000000000, 9.695312500000, 1490588642
-0.044921875000, -1.027099609375, 0.335449218750, -12.679687500000, 20.375000000000, 9.695312500000, 1490588642
-0.044921875000, -1.027099609375, 0.335449218750, -12.679687500000, 20.375000000000, 9.695312500000, 1490588642
-0.030761718750, -0.869628906250, 0.364746093750, -18.843750000000, 22.132812500000, 13.945312500000, 1490588642
-0.030761718750, -0.869628906250, 0.364746093750, -18.843750000000, 22.132812500000, 13.945312500000, 1490588642
-0.030761718750, -0.869628906250, 0.364746093750, -18.843750000000, 22.132812500000, 13.945312500000, 1490588642
-0.044189453125, -1.246582031250, 0.271972656250, -34.382812500000, 12.289062500000, 19.156250000000, 1490588642
-0.044189453125, -1.246582031250, 0.271972656250, -34.382812500000, 12.289062500000, 19.156250000000, 1490588642
-0.044189453125, -1.246582031250, 0.271972656250, -34.382812500000, 12.289062500000, 19.156250000000, 1490588642
0.061523437500, -1.331054687500, 0.210449218750, -4.523437500000, -11.101562500000, 26.304687500000, 1490588642
0.061523437500, -1.331054687500, 0.210449218750, -4.523437500000, -11.101562500000, 26.304687500000, 1490588642
0.061523437500, -1.331054687500, 0.210449218750, -4.523437500000, -11.101562500000, 26.304687500000, 1490588642
0.152587890625, -0.883544921875, 0.200195312500, 18.093750000000, -8.585937500000, 31.156250000000, 1490588642
0.152587890625, -0.883544921875, 0.200195312500, 18.093750000000, -8.585937500000, 31.156250000000, 1490588642
0.152587890625, -0.883544921875, 0.200195312500, 18.093750000000, -8.585937500000, 31.156250000000, 1490588642
0.152587890625, -0.883544921875, 0.200195312500, 18.093750000000, -8.585937500000, 31.156250000000, 1490588642
0.025146484375, -0.695312500000, 0.185791015625, 15.109375000000, 13.515625000000, 19.929687500000, 1490588642
0.025146484375, -0.695312500000, 0.185791015625, 15.109375000000, 13.515625000000, 19.929687500000, 1490588642
0.025146484375, -0.695312500000, 0.185791015625, 15.109375000000, 13.515625000000, 19.929687500000, 1490588642
0.050048828125, -0.899169921875, 0.116699218750, 2.429687500000, -4.617187500000, 18.500000000000, 1490588642
0.050048828125, -0.899169921875, 0.116699218750, 2.429687500000, -4.617187500000, 18.500000000000, 1490588642
0.050048828125, -0.899169921875, 0.116699218750, 2.429687500000, -4.617187500000, 18.500000000000, 1490588642
0.108886718750, -0.931152343750, -0.012207031250, 15.085937500000, 5.742187500000, 7.859375000000, 1490588642
0.108886718750, -0.931152343750, -0.012207031250, 15.085937500000, 5.742187500000, 7.859375000000, 1490588642
0.125732421875, -1.131103515625, 0.126708984375, 33.632812500000, 10.484375000000, 3.187500000000, 1490588642
0.125732421875, -1.131103515625, 0.126708984375, 33.632812500000, 10.484375000000, 3.187500000000, 1490588642
0.125732421875, -1.131103515625, 0.126708984375, 33.632812500000, 10.484375000000, 3.187500000000, 1490588642
0.125732421875, -1.131103515625, 0.126708984375, 33.632812500000, 10.484375000000, 3.187500000000, 1490588642
0.125732421875, -1.131103515625, 0.126708984375, 33.632812500000, 10.484375000000, 3.187500000000, 1490588642
0.048339843750, -1.026611328125, 0.122314453125, 8.015625000000, -6.054687500000, 3.023437500000, 1490588642
0.048339843750, -1.026611328125, 0.122314453125, 8.015625000000, -6.054687500000, 3.023437500000, 1490588642
0.048339843750, -1.026611328125, 0.122314453125, 8.015625000000, -6.054687500000, 3.023437500000, 1490588642
0.172607421875, -0.998779296875, 0.062011718750, 3.632812500000, -20.250000000000, -0.085937500000, 1490588642
0.172607421875, -0.998779296875, 0.062011718750, 3.632812500000, -20.250000000000, -0.085937500000, 1490588642
0.172607421875, -0.998779296875, 0.062011718750, 3.632812500000, -20.250000000000, -0.085937500000, 1490588642
0.281005859375, -0.883789062500, 0.037841796875, -2.476562500000, -21.031250000000, 0.570312500000, 1490588642
0.281005859375, -0.883789062500, 0.037841796875, -2.476562500000, -21.031250000000, 0.570312500000, 1490588642
0.281005859375, -0.883789062500, 0.037841796875, -2.476562500000, -21.031250000000, 0.570312500000, 1490588642
0.248046875000, -0.960449218750, 0.052246093750, -4.703125000000, -16.421875000000, -0.257812500000, 1490588642
0.248046875000, -0.960449218750, 0.052246093750, -4.703125000000, -16.421875000000, -0.257812500000, 1490588642
0.248046875000, -0.960449218750, 0.052246093750, -4.703125000000, -16.421875000000, -0.257812500000, 1490588642
0.248046875000, -0.960449218750, 0.052246093750, -4.703125000000, -16.421875000000, -0.257812500000, 1490588642
0.166503906250, -0.872070312500, 0.170410156250, -12.671875000000, -30.296875000000, -5.734375000000, 1490588642
0.166503906250, -0.872070312500, 0.170410156250, -12.671875000000, -30.296875000000, -5.734375000000, 1490588642
0.166503906250, -0.872070312500, 0.170410156250, -12.671875000000, -30.296875000000, -5.734375000000, 1490588642
0.252441406250, -1.063720703125, 0.137451171875, -15.460937500000, -16.929687500000, -6.445312500000, 1490588642
0.252441406250, -1.063720703125, 0.137451171875, -15.460937500000, -16.929687500000, -6.445312500000, 1490588642
0.252441406250, -1.063720703125, 0.137451171875, -15.460937500000, -16.929687500000, -6.445312500000, 1490588642
0.100830078125, -1.069091796875, 0.279541015625, 10.421875000000, -10.632812500000, -14.000000000000, 1490588642
0.100830078125, -1.069091796875, 0.279541015625, 10.421875000000, -10.632812500000, -14.000000000000, 1490588642
0.100830078125, -1.069091796875, 0.279541015625, 10.421875000000, -10.632812500000, -14.000000000000, 1490588642
0.205566406250, -0.838867187500, 0.189697265625, -6.187500000000, -16.968750000000, -16.804687500000, 1490588643
0.205566406250, -0.838867187500, 0.189697265625, -6.187500000000, -16.968750000000, -16.804687500000, 1490588643
0.205566406250, -0.838867187500, 0.189697265625, -6.187500000000, -16.968750000000, -16.804687500000, 1490588643
0.205566406250, -0.838867187500, 0.189697265625, -6.187500000000, -16.968750000000, -16.804687500000, 1490588643
0.197021484375, -0.993164062500, 0.179443359375, 0.289062500000, -18.687500000000, -15.671875000000, 1490588643
0.197021484375, -0.993164062500, 0.179443359375, 0.289062500000, -18.687500000000, -15.671875000000, 1490588643
0.197021484375, -0.993164062500, 0.179443359375, 0.289062500000, -18.687500000000, -15.671875000000, 1490588643
0.251953125000, -0.940185546875, 0.204833984375, 0.242187500000, -9.492187500000, -12.000000000000, 1490588643
0.251953125000, -0.940185546875, 0.204833984375, 0.242187500000, -9.492187500000, -12.000000000000, 1490588643
0.251953125000, -0.940185546875, 0.204833984375, 0.242187500000, -9.492187500000, -12.000000000000, 1490588643
0.212890625000, -0.959716796875, 0.140625000000, -0.062500000000, -3.148437500000, -7.578125000000, 1490588643
0.212890625000, -0.959716796875, 0.140625000000, -0.062500000000, -3.148437500000, -7.578125000000, 1490588643
0.212890625000, -0.959716796875, 0.140625000000, -0.062500000000, -3.148437500000, -7.578125000000, 1490588643
0.097656250000, -1.031005859375, 0.051513671875, 3.640625000000, -3.617187500000, -11.515625000000, 1490588643
0.097656250000, -1.031005859375, 0.051513671875, 3.640625000000, -3.617187500000, -11.515625000000, 1490588643
0.097656250000, -1.031005859375, 0.051513671875, 3.640625000000, -3.617187500000, -11.515625000000, 1490588643
0.097656250000, -1.031005859375, 0.051513671875, 3.640625000000, -3.617187500000, -11.515625000000, 1490588643
0.076904296875, -0.952148437500, 0.152587890625, 6.632812500000, 0.328125000000, -14.781250000000, 1490588643
0.076904296875, -0.952148437500, 0.152587890625, 6.632812500000, 0.328125000000, -14.781250000000, 1490588643
0.076904296875, -0.952148437500, 0.152587890625, 6.632812500000, 0.328125000000, -14.781250000000, 1490588643
0.062255859375, -1.039062500000, 0.188964843750, 12.320312500000, 0.203125000000, -13.320312500000, 1490588643
0.062255859375, -1.039062500000, 0.188964843750, 12.320312500000, 0.203125000000, -13.320312500000, 1490588643
0.062255859375, -1.039062500000, 0.188964843750, 12.320312500000, 0.203125000000, -13.320312500000, 1490588643
0.069580078125, -0.911621093750, 0.168701171875, 3.390625000000, -4.031250000000, -18.132812500000, 1490588643
0.069580078125, -0.911621093750, 0.168701171875, 3.390625000000, -4.031250000000, -18.132812500000, 1490588643
0.069580078125, -0.911621093750, 0.168701171875, 3.390625000000, -4.031250000000, -18.132812500000, 1490588643
0.075439453125, -1.014892578125, 0.124755859375, 10.117187500000, 0.281250000000, -13.054687500000, 1490588643
0.075439453125, -1.014892578125, 0.124755859375, 10.117187500000, 0.281250000000, -13.054687500000, 1490588643
0.075439453125, -1.014892578125, 0.124755859375, 10.117187500000, 0.281250000000, -13.054687500000, 1490588643
0.075439453125, -1.014892578125, 0.124755859375, 10.117187500000, 0.281250000000, -13.054687500000, 1490588643
0.131591796875, -0.900146484375, 0.160400390625, 10.296875000000, 2.156250000000, -13.710937500000, 1490588643
0.131591796875, -0.900146484375, 0.160400390625, 10.296875000000, 2.156250000000, -13.710937500000, 1490588643
0.131591796875, -0.900146484375, 0.160400390625, 10.296875000000, 2.156250000000, -13.710937500000, 1490588643
0.074707031250, -0.935791015625, 0.095947265625, 14.906250000000, 6.140625000000, -11.523437500000, 1490588643
0.074707031250, -0.935791015625, 0.095947265625, 14.906250000000, 6.140625000000, -11.523437500000, 1490588643
0.074707031250, -0.935791015625, 0.095947265625, 14.906250000000, 6.140625000000, -11.523437500000, 1490588643
0.132568359375, -0.960693359375, 0.113769531250, 11.460937500000, 6.328125000000, -10.171875000000, 1490588643
0.132568359375, -0.960693359375, 0.113769531250, 11.460937500000, 6.328125000000, -10.171875000000, 1490588643
0.132568359375, -0.960693359375, 0.113769531250, 11.460937500000, 6.328125000000, -10.171875000000, 1490588643
0.124755859375, -0.851074218750, 0.214599609375, 12.710937500000, 3.562500000000, -9.031250000000, 1490588643
0.040039062500, -0.870117187500, 0.048828125000, 15.523437500000, 8.242187500000, -10.656250000000, 1490588643
0.040039062500, -0.870117187500, 0.048828125000, 15.523437500000, 8.242187500000, -10.656250000000, 1490588643
0.040039062500, -0.870117187500, 0.048828125000, 15.523437500000, 8.242187500000, -10.656250000000, 1490588643
0.128906250000, -0.904785156250, 0.199218750000, 19.828125000000, 12.484375000000, -10.914062500000, 1490588643
0.034179687500, -0.940429687500, 0.211425781250, 19.828125000000, 12.484375000000, -10.914062500000, 1490588643
0.034179687500, -0.940429687500, 0.211425781250, 19.828125000000, 12.484375000000, -10.914062500000, 1490588643
0.034179687500, -0.940429687500, 0.211425781250, 19.828125000000, 12.484375000000, -10.914062500000, 1490588643
0.125488281250, -0.872558593750, 0.095703125000, 13.781250000000, 9.406250000000, -7.523437500000, 1490588643
0.125488281250, -0.872558593750, 0.095703125000, 13.781250000000, 9.406250000000, -7.523437500000, 1490588643
0.125488281250, -0.872558593750, 0.095703125000, 13.781250000000, 9.406250000000, -7.523437500000, 1490588643
0.125488281250, -0.872558593750, 0.095703125000, 13.781250000000, 9.406250000000, -7.523437500000, 1490588643
0.125488281250, -0.872558593750, 0.095703125000, 13.781250000000, 9.406250000000, -7.523437500000, 1490588643
0.069580078125, -0.728271484375, 0.141113281250, 21.851562500000, 22.671875000000, -2.179687500000, 1490588643
0.069580078125, -0.728271484375, 0.141113281250, 21.851562500000, 22.671875000000, -2.179687500000, 1490588643
0.069580078125, -0.728271484375, 0.141113281250, 21.851562500000, 22.671875000000, -2.179687500000, 1490588643
0.069580078125, -0.728271484375, 0.141113281250, 21.851562500000, 22.671875000000, -2.179687500000, 1490588643
0.141845703125, -0.719726562500, 0.124023437500, 28.742187500000, 24.101562500000, -0.257812500000, 1490588643
0.141845703125, -0.719726562500, 0.124023437500, 28.742187500000, 24.101562500000, -0.257812500000, 1490588643
0.141845703125, -0.719726562500, 0.124023437500, 28.742187500000, 24.101562500000, -0.257812500000, 1490588643
0.208251953125, -0.688720703125, 0.188964843750, 47.312500000000, 19.921875000000, -12.671875000000, 1490588643
0.208251953125, -0.688720703125, 0.188964843750, 47.312500000000, 19.921875000000, -12.671875000000, 1490588643
0.208251953125, -0.688720703125, 0.188964843750, 47.312500000000, 19.921875000000, -12.671875000000, 1490588643
-0.010742187500, -0.659667968750, 0.190185546875, 40.468750000000, -8.445312500000, -10.968750000000, 1490588643
-0.010742187500, -0.659667968750, 0.190185546875, 40.468750000000, -8.445312500000, -10.968750000000, 1490588643
-0.010742187500, -0.659667968750, 0.190185546875, 40.468750000000, -8.445312500000, -10.968750000000, 1490588643
0.039306640625, -0.507080078125, 0.228271484375, 53.093750000000, -2.601562500000, -12.640625000000, 1490588643
0.039306640625, -0.507080078125, 0.228271484375, 53.093750000000, -2.601562500000, -12.640625000000, 1490588644
0.039306640625, -0.507080078125, 0.228271484375, 53.093750000000, -2.601562500000, -12.640625000000, 1490588644
0.039306640625, -0.507080078125, 0.228271484375, 53.093750000000, -2.601562500000, -12.640625000000, 1490588644
0.215820312500, -0.261474609375, 0.318847656250, 53.179687500000, 1.507812500000, -11.468750000000, 1490588644
0.215820312500, -0.261474609375, 0.318847656250, 53.179687500000, 1.507812500000, -11.468750000000, 1490588644
0.215820312500, -0.261474609375, 0.318847656250, 53.179687500000, 1.507812500000, -11.468750000000, 1490588644
-0.093017578125, -0.187011718750, -0.075195312500, 77.710937500000, -10.500000000000, -3.585937500000, 1490588644
-0.093017578125, -0.187011718750, -0.075195312500, 77.710937500000, -10.500000000000, -3.585937500000, 1490588644
0.067871093750, -0.611083984375, 0.154785156250, 152.976562500000, 29.929687500000, -27.312500000000, 1490588644
0.067871093750, -0.611083984375, 0.154785156250, 152.976562500000, 29.929687500000, -27.312500000000, 1490588644
0.067871093750, -0.611083984375, 0.154785156250, 152.976562500000, 29.929687500000, -27.312500000000, 1490588644
0.067871093750, -0.611083984375, 0.154785156250, 152.976562500000, 29.929687500000, -27.312500000000, 1490588644
0.067871093750, -0.611083984375, 0.154785156250, 152.976562500000, 29.929687500000, -27.312500000000, 1490588644
0.121093750000, -0.563476562500, 0.300292968750, 133.109375000000, 47.882812500000, -30.859375000000, 1490588644
0.121093750000, -0.563476562500, 0.300292968750, 133.109375000000, 47.882812500000, -30.859375000000, 1490588644
0.121093750000, -0.563476562500, 0.300292968750, 133.109375000000, 47.882812500000, -30.859375000000, 1490588644
0.121093750000, -0.563476562500, 0.300292968750, 133.109375000000, 47.882812500000, -30.859375000000, 1490588644
0.121093750000, -0.563476562500, 0.300292968750, 133.109375000000, 47.882812500000, -30.859375000000, 1490588644
0.121093750000, -0.563476562500, 0.300292968750, 133.109375000000, 47.882812500000, -30.859375000000, 1490588644
-0.133789062500, -4.657226562500, -0.432128906250, -256.000000000000, 117.539062500000, -6.671875000000, 1490588644
-0.133789062500, -4.657226562500, -0.432128906250, -256.000000000000, 117.539062500000, -6.671875000000, 1490588644
-0.133789062500, -4.657226562500, -0.432128906250, -256.000000000000, 117.539062500000, -6.671875000000, 1490588644
-0.133789062500, -4.657226562500, -0.432128906250, -256.000000000000, 117.539062500000, -6.671875000000, 1490588644
-0.133789062500, -4.657226562500, -0.432128906250, -256.000000000000, 117.539062500000, -6.671875000000, 1490588644
-0.133789062500, -4.657226562500, -0.432128906250, -256.000000000000, 117.539062500000, -6.671875000000, 1490588644
0.876708984375, -3.217285156250, 6.036865234375, -256.000000000000, -256.000000000000, -117.695312500000, 1490588644
0.876708984375, -3.217285156250, 6.036865234375, -256.000000000000, -256.000000000000, -117.695312500000, 1490588644
0.876708984375, -3.217285156250, 6.036865234375, -256.000000000000, -256.000000000000, -117.695312500000, 1490588644
0.876708984375, -3.217285156250, 6.036865234375, -256.000000000000, -256.000000000000, -117.695312500000, 1490588644
-0.522705078125, -2.670898437500, -0.000488281250, 253.085937500000, -247.101562500000, 66.531250000000, 1490588644
-0.522705078125, -2.670898437500, -0.000488281250, 253.085937500000, -247.101562500000, 66.531250000000, 1490588644
-0.522705078125, -2.670898437500, -0.000488281250, 253.085937500000, -247.101562500000, 66.531250000000, 1490588644
-0.273925781250, -0.374511718750, -1.038085937500, 18.296875000000, -1.429687500000, -66.726562500000, 1490588644
-0.273925781250, -0.374511718750, -1.038085937500, 18.296875000000, -1.429687500000, -66.726562500000, 1490588644
-0.273925781250, -0.374511718750, -1.038085937500, 18.296875000000, -1.429687500000, -66.726562500000, 1490588644
0.179687500000, 0.174316406250, -0.112060546875, 33.703125000000, -3.992187500000, -97.203125000000, 1490588644
0.179687500000, 0.174316406250, -0.112060546875, 33.703125000000, -3.992187500000, -97.203125000000, 1490588644
0.179687500000, 0.174316406250, -0.112060546875, 33.703125000000, -3.992187500000, -97.203125000000, 1490588644
0.213134765625, 0.427734375000, -0.286132812500, -31.828125000000, -18.687500000000, -40.710937500000, 1490588644
0.213134765625, 0.427734375000, -0.286132812500, -31.828125000000, -18.687500000000, -40.710937500000, 1490588644
0.213134765625, 0.427734375000, -0.286132812500, -31.828125000000, -18.687500000000, -40.710937500000, 1490588644
0.213134765625, 0.427734375000, -0.286132812500, -31.828125000000, -18.687500000000, -40.710937500000, 1490588644
0.276855468750, 0.087890625000, -0.898681640625, 16.898437500000, -20.445312500000, -45.937500000000, 1490588644
0.276855468750, 0.087890625000, -0.898681640625, 16.898437500000, -20.445312500000, -45.937500000000, 1490588644
0.276855468750, 0.087890625000, -0.898681640625, 16.898437500000, -20.445312500000, -45.937500000000, 1490588644
-0.054443359375, 0.088134765625, -1.434814453125, 10.867187500000, -25.312500000000, -12.265625000000, 1490588644
-0.054443359375, 0.088134765625, -1.434814453125, 10.867187500000, -25.312500000000, -12.265625000000, 1490588644
-0.054443359375, 0.088134765625, -1.434814453125, 10.867187500000, -25.312500000000, -12.265625000000, 1490588644
0.036132812500, 0.155029296875, -1.360839843750, -10.554687500000, -5.609375000000, -5.695312500000, 1490588644
0.036132812500, 0.155029296875, -1.360839843750, -10.554687500000, -5.609375000000, -5.695312500000, 1490588644
0.036132812500, 0.155029296875, -1.360839843750, -10.554687500000, -5.609375000000, -5.695312500000, 1490588644
0.135253906250, 0.048095703125, -1.178710937500, -42.429687500000, 0.195312500000, -12.179687500000, 1490588644
0.135253906250, 0.048095703125, -1.178710937500, -42.429687500000, 0.195312500000, -12.179687500000, 1490588644
0.135253906250, 0.048095703125, -1.178710937500, -42.429687500000, 0.195312500000, -12.179687500000, 1490588644
0.135253906250, 0.048095703125, -1.178710937500, -42.429687500000, 0.195312500000, -12.179687500000, 1490588644
-0.041503906250, -0.030273437500, -1.075439453125, -48.406250000000, -21.890625000000, -13.835937500000, 1490588644
-0.041503906250, -0.030273437500, -1.075439453125, -48.406250000000, -21.890625000000, -13.835937500000, 1490588644
-0.041503906250, -0.030273437500, -1.075439453125, -48.406250000000, -21.890625000000, -13.835937500000, 1490588644
-0.110839843750, -0.050537109375, -0.872802734375, -42.726562500000, -6.773437500000, -24.148437500000, 1490588644
-0.110839843750, -0.050537109375, -0.872802734375, -42.726562500000, -6.773437500000, -24.148437500000, 1490588644
-0.110839843750, -0.050537109375, -0.872802734375, -42.726562500000, -6.773437500000, -24.148437500000, 1490588644
0.031738281250, -0.170898437500, -0.872802734375, -23.203125000000, 1.921875000000, -17.054687500000, 1490588644
0.031738281250, -0.170898437500, -0.872802734375, -23.203125000000, 1.921875000000, -17.054687500000, 1490588644
-0.176269531250, -0.040039062500, -0.723632812500, 40.804687500000, 27.554687500000, 16.156250000000, 1490588644
-0.176269531250, -0.040039062500, -0.723632812500, 40.804687500000, 27.554687500000, 16.156250000000, 1490588644
-0.176269531250, -0.040039062500, -0.723632812500, 40.804687500000, 27.554687500000, 16.156250000000, 1490588644
-0.176269531250, -0.040039062500, -0.723632812500, 40.804687500000, 27.554687500000, 16.156250000000, 1490588645
-0.146728515625, -0.017822265625, -1.008789062500, 13.710937500000, 3.984375000000, 10.953125000000, 1490588645
-0.146728515625, -0.017822265625, -1.008789062500, 13.710937500000, 3.984375000000, 10.953125000000, 1490588645
-0.156494140625, -0.074951171875, -0.849365234375, 28.023437500000, 3.914062500000, -11.453125000000, 1490588645
-0.156494140625, -0.074951171875, -0.849365234375, 28.023437500000, 3.914062500000, -11.453125000000, 1490588645
-0.156494140625, -0.074951171875, -0.849365234375, 28.023437500000, 3.914062500000, -11.453125000000, 1490588645
-0.156494140625, -0.074951171875, -0.849365234375, 28.023437500000, 3.914062500000, -11.453125000000, 1490588645
-0.156494140625, -0.074951171875, -0.849365234375, 28.023437500000, 3.914062500000, -11.453125000000, 1490588645
-0.053222656250, -0.037841796875, -0.911376953125, 7.359375000000, 14.156250000000, -8.648437500000, 1490588645
-0.053222656250, -0.037841796875, -0.911376953125, 7.359375000000, 14.156250000000, -8.648437500000, 1490588645
-0.053222656250, -0.037841796875, -0.911376953125, 7.359375000000, 14.156250000000, -8.648437500000, 1490588645
-0.053222656250, -0.037841796875, -0.911376953125, 7.359375000000, 14.156250000000, -8.648437500000, 1490588645
-0.069824218750, -0.053466796875, -0.964599609375, -4.898437500000, -0.585937500000, -3.148437500000, 1490588645
-0.060546875000, -0.089599609375, -0.819580078125, -35.289062500000, 11.335937500000, -7.437500000000, 1490588645
-0.060546875000, -0.089599609375, -0.819580078125, -35.289062500000, 11.335937500000, -7.437500000000, 1490588645
-0.060546875000, -0.089599609375, -0.819580078125, -35.289062500000, 11.335937500000, -7.437500000000, 1490588645
-0.060546875000, -0.089599609375, -0.819580078125, -35.289062500000, 11.335937500000, -7.437500000000, 1490588645
-0.198242187500, -0.100097656250, -0.921386718750, -26.023437500000, -5.539062500000, -14.085937500000, 1490588645
-0.198242187500, -0.100097656250, -0.921386718750, -26.023437500000, -5.539062500000, -14.085937500000, 1490588645
-0.198242187500, -0.100097656250, -0.921386718750, -26.023437500000, -5.539062500000, -14.085937500000, 1490588645
-0.198242187500, -0.100097656250, -0.921386718750, -26.023437500000, -5.539062500000, -14.085937500000, 1490588645
-0.068115234375, -0.137939453125, -1.075195312500, 6.039062500000, 7.695312500000, -8.898437500000, 1490588645
-0.068115234375, -0.137939453125, -1.075195312500, 6.039062500000, 7.695312500000, -8.898437500000, 1490588645
-0.068115234375, -0.137939453125, -1.075195312500, 6.039062500000, 7.695312500000, -8.898437500000, 1490588645
-0.134277343750, 0.067626953125, -0.978759765625, 5.476562500000, 6.929687500000, -3.312500000000, 1490588645
-0.134277343750, 0.067626953125, -0.978759765625, 5.476562500000, 6.929687500000, -3.312500000000, 1490588645
-0.134277343750, 0.067626953125, -0.978759765625, 5.476562500000, 6.929687500000, -3.312500000000, 1490588645
-0.134277343750, 0.067626953125, -0.978759765625, 5.476562500000, 6.929687500000, -3.312500000000, 1490588645
0.015380859375, -0.057861328125, -1.069824218750, -5.203125000000, -6.460937500000, -2.671875000000, 1490588645
0.015380859375, -0.057861328125, -1.069824218750, -5.203125000000, -6.460937500000, -2.671875000000, 1490588645
0.015380859375, -0.057861328125, -1.069824218750, -5.203125000000, -6.460937500000, -2.671875000000, 1490588645
0.015380859375, -0.057861328125, -1.069824218750, -5.203125000000, -6.460937500000, -2.671875000000, 1490588645
-0.200439453125, -0.045898437500, -0.974609375000, -7.179687500000, -3.148437500000, -1.984375000000, 1490588645
-0.200439453125, -0.045898437500, -0.974609375000, -7.179687500000, -3.148437500000, -1.984375000000, 1490588645
-0.200439453125, -0.045898437500, -0.974609375000, -7.179687500000, -3.148437500000, -1.984375000000, 1490588645
-0.200439453125, -0.045898437500, -0.974609375000, -7.179687500000, -3.148437500000, -1.984375000000, 1490588645
-0.200439453125, -0.045898437500, -0.974609375000, -7.179687500000, -3.148437500000, -1.984375000000, 1490588645
-0.042968750000, -0.017578125000, -1.038330078125, -7.140625000000, -2.632812500000, -4.234375000000, 1490588645
-0.042968750000, -0.017578125000, -1.038330078125, -7.140625000000, -2.632812500000, -4.234375000000, 1490588645
-0.042968750000, -0.017578125000, -1.038330078125, -7.140625000000, -2.632812500000, -4.234375000000, 1490588645
-0.042968750000, -0.017578125000, -1.038330078125, -7.140625000000, -2.632812500000, -4.234375000000, 1490588645
0.015380859375, -0.059814453125, -0.969482421875, -8.039062500000, -1.171875000000, -6.164062500000, 1490588645
0.015380859375, -0.059814453125, -0.969482421875, -8.039062500000, -1.171875000000, -6.164062500000, 1490588645
0.015380859375, -0.059814453125, -0.969482421875, -8.039062500000, -1.171875000000, -6.164062500000, 1490588645
-0.126953125000, -0.037597656250, -0.865966796875, -6.906250000000, -5.054687500000, -4.515625000000, 1490588645
-0.126953125000, -0.037597656250, -0.865966796875, -6.906250000000, -5.054687500000, -4.515625000000, 1490588645
-0.126953125000, -0.037597656250, -0.865966796875, -6.906250000000, -5.054687500000, -4.515625000000, 1490588645
-0.060791015625, -0.030517578125, -0.894531250000, -6.578125000000, -4.648437500000, -2.437500000000, 1490588645
-0.060791015625, -0.030517578125, -0.894531250000, -6.578125000000, -4.648437500000, -2.437500000000, 1490588645
-0.060791015625, -0.030517578125, -0.894531250000, -6.578125000000, -4.648437500000, -2.437500000000, 1490588645
-0.098388671875, -0.136230468750, -1.012939453125, -7.578125000000, -0.609375000000, -4.078125000000, 1490588645
-0.098388671875, -0.136230468750, -1.012939453125, -7.578125000000, -0.609375000000, -4.078125000000, 1490588645
-0.098388671875, -0.136230468750, -1.012939453125, -7.578125000000, -0.609375000000, -4.078125000000, 1490588645
-0.098388671875, -0.136230468750, -1.012939453125, -7.578125000000, -0.609375000000, -4.078125000000, 1490588645
-0.057128906250, -0.130859375000, -0.974853515625, -6.351562500000, 2.468750000000, -2.882812500000, 1490588645
-0.057128906250, -0.130859375000, -0.974853515625, -6.351562500000, 2.468750000000, -2.882812500000, 1490588645
-0.057128906250, -0.130859375000, -0.974853515625, -6.351562500000, 2.468750000000, -2.882812500000, 1490588645
0.026611328125, -0.045410156250, -0.932617187500, -1.078125000000, 2.484375000000, -4.015625000000, 1490588645
0.026611328125, -0.045410156250, -0.932617187500, -1.078125000000, 2.484375000000, -4.015625000000, 1490588645
0.026611328125, -0.045410156250, -0.932617187500, -1.078125000000, 2.484375000000, -4.015625000000, 1490588645
0.007812500000, -0.033203125000, -0.952880859375, -4.367187500000, 2.484375000000, -1.421875000000, 1490588645
0.007812500000, -0.033203125000, -0.952880859375, -4.367187500000, 2.484375000000, -1.421875000000, 1490588645
0.007812500000, -0.033203125000, -0.952880859375, -4.367187500000, 2.484375000000, -1.421875000000, 1490588645
0.017578125000, -0.041748046875, -0.923828125000, -4.968750000000, 0.445312500000, -3.281250000000, 1490588645
0.017578125000, -0.041748046875, -0.923828125000, -4.968750000000, 0.445312500000, -3.281250000000, 1490588645
0.017578125000, -0.041748046875, -0.923828125000, -4.968750000000, 0.445312500000, -3.281250000000, 1490588645
0.017578125000, -0.041748046875, -0.923828125000, -4.968750000000, 0.445312500000, -3.281250000000, 1490588645
-0.154296875000, 0.007324218750, -0.971679687500, -6.250000000000, -1.906250000000, -3.757812500000, 1490588645
-0.154296875000, 0.007324218750, -0.971679687500, -6.250000000000, -1.906250000000, -3.757812500000, 1490588646
-0.154296875000, 0.007324218750, -0.971679687500, -6.250000000000, -1.906250000000, -3.757812500000, 1490588646
-0.144287109375, -0.046630859375, -0.850830078125, -4.867187500000, -2.703125000000, -1.304687500000, 1490588646
-0.144287109375, -0.046630859375, -0.850830078125, -4.867187500000, -2.703125000000, -1.304687500000, 1490588646
-0.144287109375, -0.046630859375, -0.850830078125, -4.867187500000, -2.703125000000, -1.304687500000, 1490588646
-0.203613281250, -0.098632812500, -0.977783203125, -2.578125000000, -0.625000000000, -3.609375000000, 1490588646
-0.203613281250, -0.098632812500, -0.977783203125, -2.578125000000, -0.625000000000, -3.609375000000, 1490588646
-0.203613281250, -0.098632812500, -0.977783203125, -2.578125000000, -0.625000000000, -3.609375000000, 1490588646
-0.090332031250, -0.147460937500, -0.980957031250, -3.000000000000, 2.625000000000, -2.640625000000, 1490588646
-0.090332031250, -0.147460937500, -0.980957031250, -3.000000000000, 2.625000000000, -2.640625000000, 1490588646
-0.090332031250, -0.147460937500, -0.980957031250, -3.000000000000, 2.625000000000, -2.640625000000, 1490588646
-0.090332031250, -0.147460937500, -0.980957031250, -3.000000000000, 2.625000000000, -2.640625000000, 1490588646
-0.087402343750, 0.016113281250, -0.926757812500, -4.101562500000, 0.578125000000, -1.882812500000, 1490588646
-0.087402343750, 0.016113281250, -0.926757812500, -4.101562500000, 0.578125000000, -1.882812500000, 1490588646
-0.087402343750, 0.016113281250, -0.926757812500, -4.101562500000, 0.578125000000, -1.882812500000, 1490588646
0.004638671875, -0.150146484375, -0.926513671875, -4.242187500000, -0.976562500000, -1.960937500000, 1490588646
0.004638671875, -0.150146484375, -0.926513671875, -4.242187500000, -0.976562500000, -1.960937500000, 1490588646
0.004638671875, -0.150146484375, -0.926513671875, -4.242187500000, -0.976562500000, -1.960937500000, 1490588646
-0.078125000000, 0.016601562500, -0.943847656250, -6.296875000000, -2.031250000000, -3.054687500000, 1490588646
-0.078125000000, 0.016601562500, -0.943847656250, -6.296875000000, -2.031250000000, -3.054687500000, 1490588646
-0.078125000000, 0.016601562500, -0.943847656250, -6.296875000000, -2.031250000000, -3.054687500000, 1490588646
-0.041992187500, -0.080078125000, -1.009033203125, -4.015625000000, 2.234375000000, -2.656250000000, 1490588646
-0.041992187500, -0.080078125000, -1.009033203125, -4.015625000000, 2.234375000000, -2.656250000000, 1490588646
-0.111083984375, 0.007324218750, -0.888183593750, -4.273437500000, 0.609375000000, -4.898437500000, 1490588646
-0.032470703125, -0.187744140625, -1.012939453125, -1.601562500000, 2.757812500000, -4.695312500000, 1490588646
-0.032470703125, -0.187744140625, -1.012939453125, -1.601562500000, 2.757812500000, -4.695312500000, 1490588646
-0.032470703125, -0.187744140625, -1.012939453125, -1.601562500000, 2.757812500000, -4.695312500000, 1490588646
-0.032470703125, -0.187744140625, -1.012939453125, -1.601562500000, 2.757812500000, -4.695312500000, 1490588646
-0.133056640625, -0.125976562500, -0.989257812500, -3.320312500000, -2.023437500000, -2.109375000000, 1490588646
-0.133056640625, -0.125976562500, -0.989257812500, -3.320312500000, -2.023437500000, -2.109375000000, 1490588646
-0.133056640625, -0.125976562500, -0.989257812500, -3.320312500000, -2.023437500000, -2.109375000000, 1490588646
-0.133056640625, -0.125976562500, -0.989257812500, -3.320312500000, -2.023437500000, -2.109375000000, 1490588646
-0.133056640625, -0.125976562500, -0.989257812500, -3.320312500000, -2.023437500000, -2.109375000000, 1490588646
-0.082763671875, -0.050292968750, -0.998535156250, -4.898437500000, 0.578125000000, -2.726562500000, 1490588646
-0.082763671875, -0.050292968750, -0.998535156250, -4.898437500000, 0.578125000000, -2.726562500000, 1490588646
-0.082763671875, -0.050292968750, -0.998535156250, -4.898437500000, 0.578125000000, -2.726562500000, 1490588646
-0.082763671875, -0.050292968750, -0.998535156250, -4.898437500000, 0.578125000000, -2.726562500000, 1490588646
-0.125732421875, -0.102050781250, -1.025390625000, -4.187500000000, 0.867187500000, -6.539062500000, 1490588646
-0.125732421875, -0.102050781250, -1.025390625000, -4.187500000000, 0.867187500000, -6.539062500000, 1490588646
-0.125732421875, -0.102050781250, -1.025390625000, -4.187500000000, 0.867187500000, -6.539062500000, 1490588646
-0.125732421875, -0.102050781250, -1.025390625000, -4.187500000000, 0.867187500000, -6.539062500000, 1490588646
-0.079833984375, -0.087646484375, -1.027587890625, -4.234375000000, -0.812500000000, -2.000000000000, 1490588646
-0.079833984375, -0.087646484375, -1.027587890625, -4.234375000000, -0.812500000000, -2.000000000000, 1490588646
-0.079833984375, -0.087646484375, -1.027587890625, -4.234375000000, -0.812500000000, -2.000000000000, 1490588646
-0.092529296875, 0.014160156250, -0.927490234375, -3.257812500000, -0.148437500000, -2.843750000000, 1490588646
-0.092529296875, 0.014160156250, -0.927490234375, -3.257812500000, -0.148437500000, -2.843750000000, 1490588646
-0.092529296875, 0.014160156250, -0.927490234375, -3.257812500000, -0.148437500000, -2.843750000000, 1490588646
-0.139648437500, -0.073242187500, -0.937255859375, -4.929687500000, -1.945312500000, -2.859375000000, 1490588646
-0.139648437500, -0.073242187500, -0.937255859375, -4.929687500000, -1.945312500000, -2.859375000000, 1490588646
-0.139648437500, -0.073242187500, -0.937255859375, -4.929687500000, -1.945312500000, -2.859375000000, 1490588646
-0.139648437500, -0.073242187500, -0.937255859375, -4.929687500000, -1.945312500000, -2.859375000000, 1490588646
-0.039550781250, -0.059082031250, -1.018310546875, -3.218750000000, 0.664062500000, -1.492187500000, 1490588646
-0.039550781250, -0.059082031250, -1.018310546875, -3.218750000000, 0.664062500000, -1.492187500000, 1490588646
-0.039550781250, -0.059082031250, -1.018310546875, -3.218750000000, 0.664062500000, -1.492187500000, 1490588646
-0.090576171875, -0.057861328125, -1.015869140625, -4.453125000000, -0.117187500000, -2.812500000000, 1490588646
-0.090576171875, -0.057861328125, -1.015869140625, -4.453125000000, -0.117187500000, -2.812500000000, 1490588646
-0.090576171875, -0.057861328125, -1.015869140625, -4.453125000000, -0.117187500000, -2.812500000000, 1490588646
-0.060302734375, -0.140869140625, -1.024658203125, -2.242187500000, 0.437500000000, -4.437500000000, 1490588646
-0.060302734375, -0.140869140625, -1.024658203125, -2.242187500000, 0.437500000000, -4.437500000000, 1490588646
-0.084472656250, -0.132812500000, -0.995605468750, -3.515625000000, 0.718750000000, -4.109375000000, 1490588646
-0.084472656250, -0.132812500000, -0.995605468750, -3.515625000000, 0.718750000000, -4.109375000000, 1490588646
-0.084472656250, -0.132812500000, -0.995605468750, -3.515625000000, 0.718750000000, -4.109375000000, 1490588646
-0.084472656250, -0.132812500000, -0.995605468750, -3.515625000000, 0.718750000000, -4.109375000000, 1490588646
-0.084472656250, -0.132812500000, -0.995605468750, -3.515625000000, 0.718750000000, -4.109375000000, 1490588646
-0.079101562500, -0.030761718750, -1.016357421875, -3.421875000000, -0.859375000000, -2.000000000000, 1490588646
-0.079101562500, -0.030761718750, -1.016357421875, -3.421875000000, -0.859375000000, -2.000000000000, 1490588646
-0.079101562500, -0.030761718750, -1.016357421875, -3.421875000000, -0.859375000000, -2.000000000000, 1490588646
-0.144531250000, -0.025146484375, -0.845947265625, -3.070312500000, 0.015625000000, -4.500000000000, 1490588647
-0.144531250000, -0.025146484375, -0.845947265625, -3.070312500000, 0.015625000000, -4.500000000000, 1490588647
-0.144531250000, -0.025146484375, -0.845947265625, -3.070312500000, 0.015625000000, -4.500000000000, 1490588647
-0.087646484375, -0.125244140625, -1.065185546875, -4.781250000000, -2.273437500000, -4.593750000000, 1490588647
-0.087646484375, -0.125244140625, -1.065185546875, -4.781250000000, -2.273437500000, -4.593750000000, 1490588647
-0.087646484375, -0.125244140625, -1.065185546875, -4.781250000000, -2.273437500000, -4.593750000000, 1490588647
-0.037109375000, -0.041748046875, -0.944580078125, -3.179687500000, 0.718750000000, -1.179687500000, 1490588647
-0.037109375000, -0.041748046875, -0.944580078125, -3.179687500000, 0.718750000000, -1.179687500000, 1490588647
-0.037109375000, -0.041748046875, -0.944580078125, -3.179687500000, 0.718750000000, -1.179687500000, 1490588647
-0.037109375000, -0.041748046875, -0.944580078125, -3.179687500000, 0.718750000000, -1.179687500000, 1490588647
-0.045898437500, -0.034667968750, -0.918945312500, -6.523437500000, 0.710937500000, -3.578125000000, 1490588647
-0.045898437500, -0.034667968750, -0.918945312500, -6.523437500000, 0.710937500000, -3.578125000000, 1490588647
-0.045898437500, -0.034667968750, -0.918945312500, -6.523437500000, 0.710937500000, -3.578125000000, 1490588647
-0.069335937500, 0.070556640625, -1.018310546875, -3.734375000000, -0.242187500000, -1.382812500000, 1490588647
-0.069335937500, 0.070556640625, -1.018310546875, -3.734375000000, -0.242187500000, -1.382812500000, 1490588647
-0.069335937500, 0.070556640625, -1.018310546875, -3.734375000000, -0.242187500000, -1.382812500000, 1490588647
-0.069335937500, 0.070556640625, -1.018310546875, -3.734375000000, -0.242187500000, -1.382812500000, 1490588647
-0.075683593750, -0.013671875000, -0.933837890625, -6.257812500000, -2.328125000000, -3.476562500000, 1490588647
-0.075683593750, -0.013671875000, -0.933837890625, -6.257812500000, -2.328125000000, -3.476562500000, 1490588647
-0.138427734375, -0.099121093750, -0.929443359375, -3.648437500000, -0.726562500000, -4.820312500000, 1490588647
0.030517578125, 0.004638671875, -1.013183593750, -3.726562500000, 0.765625000000, -4.929687500000, 1490588647
0.030517578125, 0.004638671875, -1.013183593750, -3.726562500000, 0.765625000000, -4.929687500000, 1490588647
0.030517578125, 0.004638671875, -1.013183593750, -3.726562500000, 0.765625000000, -4.929687500000, 1490588647
0.030517578125, 0.004638671875, -1.013183593750, -3.726562500000, 0.765625000000, -4.929687500000, 1490588647
0.030517578125, 0.004638671875, -1.013183593750, -3.726562500000, 0.765625000000, -4.929687500000, 1490588647
-0.065185546875, 0.000000000000, -1.015380859375, -3.570312500000, -2.929687500000, -2.703125000000, 1490588647
-0.065185546875, 0.000000000000, -1.015380859375, -3.570312500000, -2.929687500000, -2.703125000000, 1490588647
-0.065185546875, 0.000000000000, -1.015380859375, -3.570312500000, -2.929687500000, -2.703125000000, 1490588647
-0.141845703125, -0.103271484375, -0.848876953125, -4.781250000000, -1.132812500000, -1.429687500000, 1490588647
-0.127685546875, 0.011962890625, -1.018066406250, -6.062500000000, -2.203125000000, -2.179687500000, 1490588647
-0.127685546875, 0.011962890625, -1.018066406250, -6.062500000000, -2.203125000000, -2.179687500000, 1490588647
-0.127685546875, 0.011962890625, -1.018066406250, -6.062500000000, -2.203125000000, -2.179687500000, 1490588647
-0.045654296875, 0.000976562500, -1.083740234375, -4.492187500000, 0.281250000000, -4.109375000000, 1490588647
-0.045654296875, 0.000976562500, -1.083740234375, -4.492187500000, 0.281250000000, -4.109375000000, 1490588647
-0.045654296875, 0.000976562500, -1.083740234375, -4.492187500000, 0.281250000000, -4.109375000000, 1490588647
-0.045654296875, 0.000976562500, -1.083740234375, -4.492187500000, 0.281250000000, -4.109375000000, 1490588647
-0.088867187500, -0.097167968750, -0.926269531250, -4.398437500000, 0.976562500000, -2.718750000000, 1490588647
-0.088867187500, -0.097167968750, -0.926269531250, -4.398437500000, 0.976562500000, -2.718750000000, 1490588647
-0.088867187500, -0.097167968750, -0.926269531250, -4.398437500000, 0.976562500000, -2.718750000000, 1490588647
-0.075439453125, -0.093750000000, -0.944824218750, -3.109375000000, 0.304687500000, -1.062500000000, 1490588647
-0.075439453125, -0.093750000000, -0.944824218750, -3.109375000000, 0.304687500000, -1.062500000000, 1490588647
-0.075439453125, -0.093750000000, -0.944824218750, -3.109375000000, 0.304687500000, -1.062500000000, 1490588647
-0.050048828125, -0.074218750000, -1.013183593750, -3.492187500000, -2.539062500000, -6.125000000000, 1490588647
-0.071044921875, -0.049316406250, -0.852539062500, -1.328125000000, 0.257812500000, -1.320312500000, 1490588647
-0.071044921875, -0.049316406250, -0.852539062500, -1.328125000000, 0.257812500000, -1.320312500000, 1490588647
-0.071044921875, -0.049316406250, -0.852539062500, -1.328125000000, 0.257812500000, -1.320312500000, 1490588647
-0.083740234375, -0.082031250000, -0.951904296875, -1.234375000000, -2.656250000000, -4.203125000000, 1490588647
-0.083740234375, -0.082031250000, -0.951904296875, -1.234375000000, -2.656250000000, -4.203125000000, 1490588647
-0.083740234375, -0.082031250000, -0.951904296875, -1.234375000000, -2.656250000000, -4.203125000000, 1490588647
-0.083740234375, -0.082031250000, -0.951904296875, -1.234375000000, -2.656250000000, -4.203125000000, 1490588647
-0.083740234375, -0.082031250000, -0.951904296875, -1.234375000000, -2.656250000000, -4.203125000000, 1490588647
-0.038085937500, 0.005859375000, -1.014404296875, -3.664062500000, 0.007812500000, -3.382812500000, 1490588647
-0.038085937500, 0.005859375000, -1.014404296875, -3.664062500000, 0.007812500000, -3.382812500000, 1490588647
-0.038085937500, 0.005859375000, -1.014404296875, -3.664062500000, 0.007812500000, -3.382812500000, 1490588647
-0.038085937500, 0.005859375000, -1.014404296875, -3.664062500000, 0.007812500000, -3.382812500000, 1490588647
-0.076171875000, -0.141601562500, -0.966308593750, -3.320312500000, 0.898437500000, -1.812500000000, 1490588647
-0.076171875000, -0.141601562500, -0.966308593750, -3.320312500000, 0.898437500000, -1.812500000000, 1490588647
-0.076171875000, -0.141601562500, -0.966308593750, -3.320312500000, 0.898437500000, -1.812500000000, 1490588647
-0.089599609375, -0.149658203125, -0.968505859375, -4.054687500000, -0.953125000000, -3.539062500000, 1490588647
-0.089599609375, -0.149658203125, -0.968505859375, -4.054687500000, -0.953125000000, -3.539062500000, 1490588647
-0.089599609375, -0.149658203125, -0.968505859375, -4.054687500000, -0.953125000000, -3.539062500000, 1490588647
-0.089599609375, -0.149658203125, -0.968505859375, -4.054687500000, -0.953125000000, -3.539062500000, 1490588647
-0.074951171875, -0.074707031250, -0.968505859375, -3.210937500000, 0.804687500000, -1.500000000000, 1490588647
-0.074951171875, -0.074707031250, -0.968505859375, -3.210937500000, 0.804687500000, -1.500000000000, 1490588647
-0.074951171875, -0.074707031250, -0.968505859375, -3.210937500000, 0.804687500000, -1.500000000000, 1490588647
-0.081298828125, -0.061523437500, -1.000488281250, -4.648437500000, 0.171875000000, -3.367187500000, 1490588647
-0.081298828125, -0.061523437500, -1.000488281250, -4.648437500000, 0.171875000000, -3.367187500000, 1490588648
-0.081298828125, -0.061523437500, -1.000488281250, -4.648437500000, 0.171875000000, -3.367187500000, 1490588648
-0.156738281250, -0.067626953125, -0.914306640625, -3.007812500000, 0.421875000000, -4.679687500000, 1490588648
-0.156738281250, -0.067626953125, -0.914306640625, -3.007812500000, 0.421875000000, -4.679687500000, 1490588648
-0.156738281250, -0.067626953125, -0.914306640625, -3.007812500000, 0.421875000000, -4.679687500000, 1490588648
-0.123291015625, -0.052978515625, -0.992187500000, -6.765625000000, 0.734375000000, -1.968750000000, 1490588648
-0.123291015625, -0.052978515625, -0.992187500000, -6.765625000000, 0.734375000000, -1.968750000000, 1490588648
-0.123291015625, -0.052978515625, -0.992187500000, -6.765625000000, 0.734375000000, -1.968750000000, 1490588648
-0.133789062500, -0.028320312500, -1.014404296875, -3.609375000000, -0.796875000000, -1.320312500000, 1490588648
0.000244140625, -0.051513671875, -1.028320312500, -3.609375000000, -0.796875000000, -1.320312500000, 1490588648
0.000244140625, -0.051513671875, -1.028320312500, -3.609375000000, -0.796875000000, -1.320312500000, 1490588648
0.000244140625, -0.051513671875, -1.028320312500, -3.609375000000, -0.796875000000, -1.320312500000, 1490588648
-0.139160156250, -0.049804687500, -0.931152343750, -3.562500000000, 2.148437500000, -1.609375000000, 1490588648
-0.139160156250, -0.049804687500, -0.931152343750, -3.562500000000, 2.148437500000, -1.609375000000, 1490588648
-0.139160156250, -0.049804687500, -0.931152343750, -3.562500000000, 2.148437500000, -1.609375000000, 1490588648
-0.153076171875, -0.034423828125, -0.981933593750, -1.718750000000, -0.734375000000, -6.960937500000, 1490588648
-0.153076171875, -0.034423828125, -0.981933593750, -1.718750000000, -0.734375000000, -6.960937500000, 1490588648
-0.153076171875, -0.034423828125, -0.981933593750, -1.718750000000, -0.734375000000, -6.960937500000, 1490588648
-0.009033203125, -0.144287109375, -1.026611328125, -4.960937500000, 0.890625000000, -3.929687500000, 1490588648
-0.009033203125, -0.144287109375, -1.026611328125, -4.960937500000, 0.890625000000, -3.929687500000, 1490588648
-0.009033203125, -0.144287109375, -1.026611328125, -4.960937500000, 0.890625000000, -3.929687500000, 1490588648
-0.009033203125, -0.144287109375, -1.026611328125, -4.960937500000, 0.890625000000, -3.929687500000, 1490588648
-0.086425781250, -0.156005859375, -0.927001953125, -4.093750000000, -0.820312500000, -4.140625000000, 1490588648
-0.086425781250, -0.156005859375, -0.927001953125, -4.093750000000, -0.820312500000, -4.140625000000, 1490588648
-0.086425781250, -0.156005859375, -0.927001953125, -4.093750000000, -0.820312500000, -4.140625000000, 1490588648
0.020996093750, -0.125976562500, -0.909667968750, -3.921875000000, 0.437500000000, -4.078125000000, 1490588648
0.020996093750, -0.125976562500, -0.909667968750, -3.921875000000, 0.437500000000, -4.078125000000, 1490588648
0.020996093750, -0.125976562500, -0.909667968750, -3.921875000000, 0.437500000000, -4.078125000000, 1490588648
0.026123046875, 0.010986328125, -1.025878906250, -4.859375000000, -2.523437500000, -3.117187500000, 1490588648
0.026123046875, 0.010986328125, -1.025878906250, -4.859375000000, -2.523437500000, -3.117187500000, 1490588648
0.026123046875, 0.010986328125, -1.025878906250, -4.859375000000, -2.523437500000, -3.117187500000, 1490588648
-0.071533203125, -0.081298828125, -1.079101562500, -6.320312500000, -0.375000000000, -3.210937500000, 1490588648
-0.071533203125, -0.081298828125, -1.079101562500, -6.320312500000, -0.375000000000, -3.210937500000, 1490588648
-0.071533203125, -0.081298828125, -1.079101562500, -6.320312500000, -0.375000000000, -3.210937500000, 1490588648
-0.071533203125, -0.081298828125, -1.079101562500, -6.320312500000, -0.375000000000, -3.210937500000, 1490588648
-0.039306640625, -0.034667968750, -1.009033203125, -6.476562500000, 0.992187500000, -3.304687500000, 1490588648
-0.039306640625, -0.034667968750, -1.009033203125, -6.476562500000, 0.992187500000, -3.304687500000, 1490588648
-0.039306640625, -0.034667968750, -1.009033203125, -6.476562500000, 0.992187500000, -3.304687500000, 1490588648
-0.092529296875, -0.206542968750, -1.005615234375, -6.656250000000, 0.007812500000, -1.414062500000, 1490588648
-0.092529296875, -0.206542968750, -1.005615234375, -6.656250000000, 0.007812500000, -1.414062500000, 1490588648
-0.092529296875, -0.206542968750, -1.005615234375, -6.656250000000, 0.007812500000, -1.414062500000, 1490588648
-0.142333984375, -0.105468750000, -0.926757812500, -6.875000000000, -2.554687500000, -4.500000000000, 1490588648
-0.142333984375, -0.105468750000, -0.926757812500, -6.875000000000, -2.554687500000, -4.500000000000, 1490588648
-0.142333984375, -0.105468750000, -0.926757812500, -6.875000000000, -2.554687500000, -4.500000000000, 1490588648
-0.123779296875, -0.060058593750, -1.020019531250, -4.195312500000, 0.585937500000, -4.687500000000, 1490588648
-0.078125000000, -0.096679687500, -0.956542968750, -4.195312500000, 0.585937500000, -4.687500000000, 1490588648
-0.078125000000, -0.096679687500, -0.956542968750, -4.195312500000, 0.585937500000, -4.687500000000, 1490588648
-0.078125000000, -0.096679687500, -0.956542968750, -4.195312500000, 0.585937500000, -4.687500000000, 1490588648
0.012695312500, -0.075927734375, -0.923339843750, -4.257812500000, 0.265625000000, -4.789062500000, 1490588648
-0.106933593750, -0.049072265625, -0.946289062500, -1.484375000000, 0.554687500000, -4.554687500000, 1490588648
-0.106933593750, -0.049072265625, -0.946289062500, -1.484375000000, 0.554687500000, -4.554687500000, 1490588648
-0.106933593750, -0.049072265625, -0.946289062500, -1.484375000000, 0.554687500000, -4.554687500000, 1490588648
-0.106933593750, -0.049072265625, -0.946289062500, -1.484375000000, 0.554687500000, -4.554687500000, 1490588648
-0.139404296875, 0.012939453125, -0.928710937500, -4.617187500000, 0.390625000000, -1.117187500000, 1490588648
-0.140625000000, -0.039062500000, -0.976562500000, -1.835937500000, 2.585937500000, -1.164062500000, 1490588648
-0.140625000000, -0.039062500000, -0.976562500000, -1.835937500000, 2.585937500000, -1.164062500000, 1490588648
-0.140625000000, -0.039062500000, -0.976562500000, -1.835937500000, 2.585937500000, -1.164062500000, 1490588648
-0.162597656250, -0.128173828125, -0.995361328125, -1.085937500000, 0.304687500000, -2.046875000000, 1490588648
-0.162597656250, -0.128173828125, -0.995361328125, -1.085937500000, 0.304687500000, -2.046875000000, 1490588648
-0.162597656250, -0.128173828125, -0.995361328125, -1.085937500000, 0.304687500000, -2.046875000000, 1490588648
-0.162597656250, -0.128173828125, -0.995361328125, -1.085937500000, 0.304687500000, -2.046875000000, 1490588648
-0.132568359375, -0.081054687500, -1.012939453125, -4.945312500000, -0.226562500000, -3.125000000000, 1490588648
-0.132568359375, -0.081054687500, -1.012939453125, -4.945312500000, -0.226562500000, -3.125000000000, 1490588648
-0.132568359375, -0.081054687500, -1.012939453125, -4.945312500000, -0.226562500000, -3.125000000000, 1490588648
-0.072265625000, -0.065917968750, -0.985839843750, -4.570312500000, 2.312500000000, -4.750000000000, 1490588648
-0.072265625000, -0.065917968750, -0.985839843750, -4.570312500000, 2.312500000000, -4.750000000000, 1490588648
-0.072265625000, -0.065917968750, -0.985839843750, -4.570312500000, 2.312500000000, -4.750000000000, 1490588648
-0.074707031250, -0.105957031250, -0.909667968750, -1.945312500000, 2.195312500000, -1.242187500000, 1490588649
-0.074707031250, -0.105957031250, -0.909667968750, -1.945312500000, 2.195312500000, -1.242187500000, 1490588649
-0.074707031250, -0.105957031250, -0.909667968750, -1.945312500000, 2.195312500000, -1.242187500000, 1490588649
0.008300781250, -0.038574218750, -0.981689453125, -4.929687500000, -2.226562500000, -1.343750000000, 1490588649
0.008300781250, -0.038574218750, -0.981689453125, -4.929687500000, -2.226562500000, -1.343750000000, 1490588649
0.008300781250, -0.038574218750, -0.981689453125, -4.929687500000, -2.226562500000, -1.343750000000, 1490588649
0.008300781250, -0.038574218750, -0.981689453125, -4.929687500000, -2.226562500000, -1.343750000000, 1490588649
-0.043701171875, 0.003906250000, -1.010009765625, -4.781250000000, 0.664062500000, -1.859375000000, 1490588649
-0.043701171875, 0.003906250000, -1.010009765625, -4.781250000000, 0.664062500000, -1.859375000000, 1490588649
-0.043701171875, 0.003906250000, -1.010009765625, -4.781250000000, 0.664062500000, -1.859375000000, 1490588649
-0.141601562500, 0.027832031250, -0.997558593750, -3.828125000000, 0.484375000000, -4.421875000000, 1490588649
-0.141601562500, 0.027832031250, -0.997558593750, -3.828125000000, 0.484375000000, -4.421875000000, 1490588649
-0.141601562500, 0.027832031250, -0.997558593750, -3.828125000000, 0.484375000000, -4.421875000000, 1490588649
-0.092529296875, -0.117431640625, -1.075683593750, -4.734375000000, 0.835937500000, -1.898437500000, 1490588649
-0.092529296875, -0.117431640625, -1.075683593750, -4.734375000000, 0.835937500000, -1.898437500000, 1490588649
-0.092529296875, -0.117431640625, -1.075683593750, -4.734375000000, 0.835937500000, -1.898437500000, 1490588649
0.006591796875, -0.188964843750, -0.915527343750, -3.757812500000, -0.296875000000, -4.773437500000, 1490588649
0.006591796875, -0.188964843750, -0.915527343750, -3.757812500000, -0.296875000000, -4.773437500000, 1490588649
0.006591796875, -0.188964843750, -0.915527343750, -3.757812500000, -0.296875000000, -4.773437500000, 1490588649
0.006591796875, -0.188964843750, -0.915527343750, -3.757812500000, -0.296875000000, -4.773437500000, 1490588649
-0.109863281250, 0.004150390625, -0.931152343750, -4.554687500000, 0.703125000000, -4.179687500000, 1490588649
-0.109863281250, 0.004150390625, -0.931152343750, -4.554687500000, 0.703125000000, -4.179687500000, 1490588649
-0.092285156250, -0.137451171875, -1.064208984375, -4.859375000000, 0.859375000000, -1.250000000000, 1490588649
-0.092285156250, -0.137451171875, -1.064208984375, -4.859375000000, 0.859375000000, -1.250000000000, 1490588649
-0.092285156250, -0.137451171875, -1.064208984375, -4.859375000000, 0.859375000000, -1.250000000000, 1490588649
-0.092285156250, -0.137451171875, -1.064208984375, -4.859375000000, 0.859375000000, -1.250000000000, 1490588649
-0.046142578125, -0.143798828125, -0.931884765625, -3.539062500000, -0.625000000000, -1.843750000000, 1490588649
-0.046142578125, -0.143798828125, -0.931884765625, -3.539062500000, -0.625000000000, -1.843750000000, 1490588649
-0.046142578125, -0.143798828125, -0.931884765625, -3.539062500000, -0.625000000000, -1.843750000000, 1490588649
-0.052734375000, -0.064697265625, -0.922607421875, -4.570312500000, 2.156250000000, -4.445312500000, 1490588649
-0.067871093750, -0.105957031250, -0.955322265625, -4.546875000000, 0.476562500000, -1.445312500000, 1490588649
-0.067871093750, -0.105957031250, -0.955322265625, -4.546875000000, 0.476562500000, -1.445312500000, 1490588649
-0.067871093750, -0.105957031250, -0.955322265625, -4.546875000000, 0.476562500000, -1.445312500000, 1490588649
-0.067871093750, -0.105957031250, -0.955322265625, -3.781250000000, 0.640625000000, -4.976562500000, 1490588649
-0.099365234375, 0.017578125000, -0.968750000000, -6.375000000000, -2.898437500000, -4.289062500000, 1490588649
-0.099365234375, 0.017578125000, -0.968750000000, -6.375000000000, -2.898437500000, -4.289062500000, 1490588649
-0.099365234375, 0.017578125000, -0.968750000000, -6.375000000000, -2.898437500000, -4.289062500000, 1490588649
-0.120849609375, -0.042724609375, -1.023437500000, -3.523437500000, -0.593750000000, -1.460937500000, 1490588649
-0.120849609375, -0.042724609375, -1.023437500000, -3.523437500000, -0.593750000000, -1.460937500000, 1490588649
-0.120849609375, -0.042724609375, -1.023437500000, -3.523437500000, -0.593750000000, -1.460937500000, 1490588649
-0.120849609375, -0.042724609375, -1.023437500000, -3.523437500000, -0.593750000000, -1.460937500000, 1490588649
-0.120849609375, -0.042724609375, -1.023437500000, -3.523437500000, -0.593750000000, -1.460937500000, 1490588649
-0.100585937500, -0.077392578125, -0.908447265625, -4.460937500000, 0.968750000000, -6.101562500000, 1490588649
-0.100585937500, -0.077392578125, -0.908447265625, -4.460937500000, 0.968750000000, -6.101562500000, 1490588649
-0.100585937500, -0.077392578125, -0.908447265625, -4.460937500000, 0.968750000000, -6.101562500000, 1490588649
-0.100585937500, -0.077392578125, -0.908447265625, -4.460937500000, 0.968750000000, -6.101562500000, 1490588649
-0.055908203125, -0.096191406250, -0.970458984375, -4.773437500000, -2.085937500000, -4.445312500000, 1490588649
-0.055908203125, -0.096191406250, -0.970458984375, -4.773437500000, -2.085937500000, -4.445312500000, 1490588649
-0.055908203125, -0.096191406250, -0.970458984375, -4.773437500000, -2.085937500000, -4.445312500000, 1490588649
-0.056884765625, -0.093994140625, -0.929687500000, -3.218750000000, 0.773437500000, -6.187500000000, 1490588649
-0.056884765625, -0.093994140625, -0.929687500000, -3.218750000000, 0.773437500000, -6.187500000000, 1490588649
-0.056884765625, -0.093994140625, -0.929687500000, -3.218750000000, 0.773437500000, -6.187500000000, 1490588649
-0.052001953125, -0.060546875000, -0.916015625000, -3.984375000000, -0.164062500000, -3.164062500000, 1490588649
-0.052001953125, -0.060546875000, -0.916015625000, -3.984375000000, -0.164062500000, -3.164062500000, 1490588649
-0.052001953125, -0.060546875000, -0.916015625000, -3.984375000000, -0.164062500000, -3.164062500000, 1490588649
-0.142089843750, -0.101562500000, -1.007080078125, -1.710937500000, -0.812500000000, -2.945312500000, 1490588649
-0.142089843750, -0.101562500000, -1.007080078125, -1.710937500000, -0.812500000000, -2.945312500000, 1490588649
-0.142089843750, -0.101562500000, -1.007080078125, -1.710937500000, -0.812500000000, -2.945312500000, 1490588649
-0.142089843750, -0.101562500000, -1.007080078125, -1.710937500000, -0.812500000000, -2.945312500000, 1490588649
-0.050048828125, -0.098388671875, -0.932373046875, -3.476562500000, -0.101562500000, -3.421875000000, 1490588649
-0.050048828125, -0.098388671875, -0.932373046875, -3.476562500000, -0.101562500000, -3.421875000000, 1490588649
-0.050048828125, -0.098388671875, -0.932373046875, -3.476562500000, -0.101562500000, -3.421875000000, 1490588649
-0.129638671875, -0.111328125000, -0.931884765625, -4.726562500000, 0.453125000000, -1.726562500000, 1490588649
-0.129638671875, -0.111328125000, -0.931884765625, -4.726562500000, 0.453125000000, -1.726562500000, 1490588649
-0.129638671875, -0.111328125000, -0.931884765625, -4.726562500000, 0.453125000000, -1.726562500000, 1490588649
-0.050048828125, -0.188232421875, -1.028076171875, -6.125000000000, -2.984375000000, -1.859375000000, 1490588649
-0.050048828125, -0.188232421875, -1.028076171875, -6.125000000000, -2.984375000000, -1.859375000000, 1490588649
-0.050048828125, -0.188232421875, -1.028076171875, -6.125000000000, -2.984375000000, -1.859375000000, 1490588650
-0.048095703125, -0.062011718750, -0.931884765625, -4.960937500000, -2.789062500000, 0.335937500000, 1490588650
-0.048095703125, -0.062011718750, -0.931884765625, -4.960937500000, -2.789062500000, 0.335937500000, 1490588650
-0.048095703125, -0.062011718750, -0.931884765625, -4.960937500000, -2.789062500000, 0.335937500000, 1490588650
-0.048095703125, -0.062011718750, -0.931884765625, -4.960937500000, -2.789062500000, 0.335937500000, 1490588650
-0.101318359375, -0.060791015625, -0.975830078125, -3.875000000000, -2.414062500000, -3.203125000000, 1490588650
-0.101318359375, -0.060791015625, -0.975830078125, -3.875000000000, -2.414062500000, -3.203125000000, 1490588650
-0.101318359375, -0.060791015625, -0.975830078125, -3.875000000000, -2.414062500000, -3.203125000000, 1490588650
-0.106689453125, 0.016113281250, -0.936035156250, -3.664062500000, 0.539062500000, -4.890625000000, 1490588650
-0.106689453125, 0.016113281250, -0.936035156250, -3.664062500000, 0.539062500000, -4.890625000000, 1490588650
-0.106689453125, 0.016113281250, -0.936035156250, -3.664062500000, 0.539062500000, -4.890625000000, 1490588650
-0.121582031250, 0.001708984375, -1.017822265625, -3.796875000000, -0.187500000000, 0.171875000000, 1490588650
-0.121582031250, 0.001708984375, -1.017822265625, -3.796875000000, -0.187500000000, 0.171875000000, 1490588650
-0.121582031250, 0.001708984375, -1.017822265625, -3.796875000000, -0.187500000000, 0.171875000000, 1490588650
-0.200195312500, -0.052246093750, -0.905761718750, -1.343750000000, -2.179687500000, -1.890625000000, 1490588650
-0.200195312500, -0.052246093750, -0.905761718750, -1.343750000000, -2.179687500000, -1.890625000000, 1490588650
-0.200195312500, -0.052246093750, -0.905761718750, -1.343750000000, -2.179687500000, -1.890625000000, 1490588650
-0.200195312500, -0.052246093750, -0.905761718750, -1.343750000000, -2.179687500000, -1.890625000000, 1490588650
-0.130615234375, -0.049560546875, -1.007080078125, -3.539062500000, -0.406250000000, -2.929687500000, 1490588650
-0.130615234375, -0.049560546875, -1.007080078125, -3.539062500000, -0.406250000000, -2.929687500000, 1490588650
-0.130615234375, -0.049560546875, -1.007080078125, -3.539062500000, -0.406250000000, -2.929687500000, 1490588650
-0.208007812500, -0.139160156250, -0.978515625000, -4.468750000000, -0.859375000000, -1.531250000000, 1490588650
-0.208007812500, -0.139160156250, -0.978515625000, -4.468750000000, -0.859375000000, -1.531250000000, 1490588650
-0.208007812500, -0.139160156250, -0.978515625000, -4.468750000000, -0.859375000000, -1.531250000000, 1490588650
-0.145751953125, -0.047607421875, -1.009765625000, -3.007812500000, 0.921875000000, -3.101562500000, 1490588650
-0.145751953125, -0.047607421875, -1.009765625000, -3.007812500000, 0.921875000000, -3.101562500000, 1490588650
-0.145751953125, -0.047607421875, -1.009765625000, -3.007812500000, 0.921875000000, -3.101562500000, 1490588650
-0.162841796875, 0.007324218750, -1.065429687500, -3.710937500000, 0.757812500000, -1.789062500000, 1490588650
-0.162841796875, 0.007324218750, -1.065429687500, -3.710937500000, 0.757812500000, -1.789062500000, 1490588650
-0.162841796875, 0.007324218750, -1.065429687500, -3.710937500000, 0.757812500000, -1.789062500000, 1490588650
-0.162841796875, 0.007324218750, -1.065429687500, -3.710937500000, 0.757812500000, -1.789062500000, 1490588650
-0.038818359375, -0.057128906250, -0.956787109375, -4.554687500000, -0.929687500000, -2.695312500000, 1490588650
-0.038818359375, -0.057128906250, -0.956787109375, -4.554687500000, -0.929687500000, -2.695312500000, 1490588650
-0.038818359375, -0.057128906250, -0.956787109375, -4.554687500000, -0.929687500000, -2.695312500000, 1490588650
-0.139404296875, 0.015625000000, -1.002441406250, -4.273437500000, -0.859375000000, -4.851562500000, 1490588650
-0.132568359375, -0.094970703125, -0.922607421875, -4.398437500000, -0.585937500000, 0.109375000000, 1490588650
-0.053466796875, -0.106689453125, -1.015380859375, -3.296875000000, -0.601562500000, -3.265625000000, 1490588650
-0.141601562500, -0.154052734375, -0.920898437500, -3.539062500000, -0.773437500000, -4.914062500000, 1490588650
-0.141601562500, -0.154052734375, -0.920898437500, -3.539062500000, -0.773437500000, -4.914062500000, 1490588650
-0.141601562500, -0.154052734375, -0.920898437500, -3.539062500000, -0.773437500000, -4.914062500000, 1490588650
-0.141601562500, -0.154052734375, -0.920898437500, -3.539062500000, -0.773437500000, -4.914062500000, 1490588650
0.026855468750, -0.065673828125, -1.028320312500, -4.718750000000, -0.593750000000, -4.046875000000, 1490588650
0.026855468750, -0.065673828125, -1.028320312500, -4.718750000000, -0.593750000000, -4.046875000000, 1490588650
0.026855468750, -0.065673828125, -1.028320312500, -4.718750000000, -0.593750000000, -4.046875000000, 1490588650
0.026855468750, -0.065673828125, -1.028320312500, -4.718750000000, -0.593750000000, -4.046875000000, 1490588650
0.026855468750, -0.065673828125, -1.028320312500, -4.718750000000, -0.593750000000, -4.046875000000, 1490588650
0.026855468750, -0.065673828125, -1.028320312500, -4.718750000000, -0.593750000000, -4.046875000000, 1490588650
0.002685546875, -0.061523437500, -0.912353515625, -3.250000000000, -0.226562500000, -1.554687500000, 1490588650
0.002685546875, -0.061523437500, -0.912353515625, -3.250000000000, -0.226562500000, -1.554687500000, 1490588650
0.002685546875, -0.061523437500, -0.912353515625, -3.250000000000, -0.226562500000, -1.554687500000, 1490588650
-0.056884765625, -0.143310546875, -0.914794921875, -3.164062500000, -0.695312500000, 0.070312500000, 1490588650
