ACC_X,ACC_Y,ACC_Z,G_X,G_Y,G_Z,Unix Time
0.054687500000, -1.018066406250, 0.421142578125, -2.843750000000, 18.984375000000, 1.851562500000, 1490589622
-0.026367187500, -0.943359375000, 0.367919921875, -2.828125000000, 12.648437500000, 2.734375000000, 1490589622
-0.026367187500, -0.943359375000, 0.367919921875, -2.828125000000, 12.648437500000, 2.734375000000, 1490589622
-0.026367187500, -0.943359375000, 0.367919921875, -2.828125000000, 12.648437500000, 2.734375000000, 1490589622
0.071777343750, -1.003173828125, 0.374267578125, -4.734375000000, 8.320312500000, -2.351562500000, 1490589622
0.071777343750, -1.003173828125, 0.374267578125, -4.734375000000, 8.320312500000, -2.351562500000, 1490589622
0.071777343750, -1.003173828125, 0.374267578125, -4.734375000000, 8.320312500000, -2.351562500000, 1490589622
0.071777343750, -1.003173828125, 0.374267578125, -4.734375000000, 8.320312500000, -2.351562500000, 1490589622
0.071777343750, -1.003173828125, 0.374267578125, -4.734375000000, 8.320312500000, -2.351562500000, 1490589622
0.202636718750, -1.016113281250, 0.425048828125, -1.484375000000, 5.929687500000, 1.773437500000, 1490589622
0.096191406250, -0.970458984375, 0.442871093750, -3.835937500000, 5.210937500000, -0.632812500000, 1490589622
0.096191406250, -0.970458984375, 0.442871093750, -3.835937500000, 5.210937500000, -0.632812500000, 1490589622
0.096191406250, -0.970458984375, 0.442871093750, -3.835937500000, 5.210937500000, -0.632812500000, 1490589622
0.100830078125, -0.898437500000, 0.348876953125, -3.679687500000, 6.421875000000, 2.851562500000, 1490589622
0.100830078125, -0.898437500000, 0.348876953125, -3.679687500000, 6.421875000000, 2.851562500000, 1490589622
0.100830078125, -0.898437500000, 0.348876953125, -3.679687500000, 6.421875000000, 2.851562500000, 1490589622
0.100830078125, -0.898437500000, 0.348876953125, -3.679687500000, 6.421875000000, 2.851562500000, 1490589622
0.079833984375, -0.905761718750, 0.446289062500, -6.218750000000, 6.375000000000, 2.710937500000, 1490589622
0.079833984375, -0.905761718750, 0.446289062500, -6.218750000000, 6.375000000000, 2.710937500000, 1490589622
0.079833984375, -0.905761718750, 0.446289062500, -6.218750000000, 6.375000000000, 2.710937500000, 1490589622
-0.028808593750, -1.014160156250, 0.461181640625, -1.945312500000, 3.031250000000, -2.843750000000, 1490589622
-0.028808593750, -1.014160156250, 0.461181640625, -1.945312500000, 3.031250000000, -2.843750000000, 1490589622
-0.028808593750, -1.014160156250, 0.461181640625, -1.945312500000, 3.031250000000, -2.843750000000, 1490589622
0.055175781250, -0.921386718750, 0.387939453125, -1.734375000000, 4.687500000000, -0.929687500000, 1490589622
0.055175781250, -0.921386718750, 0.387939453125, -1.734375000000, 4.687500000000, -0.929687500000, 1490589622
0.055175781250, -0.921386718750, 0.387939453125, -1.734375000000, 4.687500000000, -0.929687500000, 1490589622
0.083251953125, -0.951171875000, 0.446044921875, -2.742187500000, 10.789062500000, 2.500000000000, 1490589622
0.083251953125, -0.951171875000, 0.446044921875, -2.742187500000, 10.789062500000, 2.500000000000, 1490589622
0.083251953125, -0.951171875000, 0.446044921875, -2.742187500000, 10.789062500000, 2.500000000000, 1490589622
0.135253906250, -0.974853515625, 0.451171875000, 2.718750000000, 4.406250000000, -2.062500000000, 1490589622
0.135253906250, -0.974853515625, 0.451171875000, 2.718750000000, 4.406250000000, -2.062500000000, 1490589622
0.135253906250, -0.974853515625, 0.451171875000, 2.718750000000, 4.406250000000, -2.062500000000, 1490589622
-0.025390625000, -0.863281250000, 0.442626953125, -1.703125000000, 1.242187500000, 0.515625000000, 1490589622
-0.008056640625, -1.080566406250, 0.521728515625, -1.703125000000, 1.242187500000, 0.515625000000, 1490589622
-0.008056640625, -1.080566406250, 0.521728515625, -1.703125000000, 1.242187500000, 0.515625000000, 1490589622
-0.008056640625, -1.080566406250, 0.521728515625, -1.703125000000, 1.242187500000, 0.515625000000, 1490589622
-0.007568359375, -0.871826171875, 0.461181640625, -2.664062500000, 1.859375000000, -0.187500000000, 1490589622
-0.007568359375, -0.871826171875, 0.461181640625, -2.664062500000, 1.859375000000, -0.187500000000, 1490589622
-0.007568359375, -0.871826171875, 0.461181640625, -2.664062500000, 1.859375000000, -0.187500000000, 1490589622
0.041748046875, -0.951904296875, 0.461914062500, -4.421875000000, 1.687500000000, -2.765625000000, 1490589622
0.041748046875, -0.951904296875, 0.461914062500, -4.421875000000, 1.687500000000, -2.765625000000, 1490589622
0.041748046875, -0.951904296875, 0.461914062500, -4.421875000000, 1.687500000000, -2.765625000000, 1490589622
0.041748046875, -0.951904296875, 0.461914062500, -4.421875000000, 1.687500000000, -2.765625000000, 1490589622
0.087402343750, -1.012695312500, 0.345947265625, -1.460937500000, 2.117187500000, -4.382812500000, 1490589622
0.087402343750, -1.012695312500, 0.345947265625, -1.460937500000, 2.117187500000, -4.382812500000, 1490589622
0.087402343750, -1.012695312500, 0.345947265625, -1.460937500000, 2.117187500000, -4.382812500000, 1490589622
-0.002685546875, -0.905761718750, 0.364501953125, -2.296875000000, -1.054687500000, -3.023437500000, 1490589622
-0.002685546875, -0.905761718750, 0.364501953125, -2.296875000000, -1.054687500000, -3.023437500000, 1490589622
-0.002685546875, -0.905761718750, 0.364501953125, -2.296875000000, -1.054687500000, -3.023437500000, 1490589622
0.015380859375, -0.933105468750, 0.355957031250, -1.125000000000, -1.984375000000, -3.875000000000, 1490589622
0.015380859375, -0.933105468750, 0.355957031250, -1.125000000000, -1.984375000000, -3.875000000000, 1490589622
0.015380859375, -0.933105468750, 0.355957031250, -1.125000000000, -1.984375000000, -3.875000000000, 1490589622
0.036865234375, -0.960449218750, 0.463623046875, -4.960937500000, -1.507812500000, -5.281250000000, 1490589622
0.036865234375, -0.960449218750, 0.463623046875, -4.960937500000, -1.507812500000, -5.281250000000, 1490589623
0.036865234375, -0.960449218750, 0.463623046875, -4.960937500000, -1.507812500000, -5.281250000000, 1490589623
0.036865234375, -0.960449218750, 0.463623046875, -4.960937500000, -1.507812500000, -5.281250000000, 1490589623
0.143310546875, -0.931884765625, 0.402832031250, -4.195312500000, -6.101562500000, -4.859375000000, 1490589623
0.143310546875, -0.931884765625, 0.402832031250, -4.195312500000, -6.101562500000, -4.859375000000, 1490589623
0.143310546875, -0.931884765625, 0.402832031250, -4.195312500000, -6.101562500000, -4.859375000000, 1490589623
0.136718750000, -0.928222656250, 0.448486328125, -3.335937500000, -4.796875000000, -4.859375000000, 1490589623
0.136718750000, -0.928222656250, 0.448486328125, -3.335937500000, -4.796875000000, -4.859375000000, 1490589623
0.136718750000, -0.928222656250, 0.448486328125, -3.335937500000, -4.796875000000, -4.859375000000, 1490589623
0.052246093750, -1.024414062500, 0.353027343750, -4.828125000000, -3.992187500000, -3.703125000000, 1490589623
0.052246093750, -1.024414062500, 0.353027343750, -4.828125000000, -3.992187500000, -3.703125000000, 1490589623
0.052246093750, -1.024414062500, 0.353027343750, -4.828125000000, -3.992187500000, -3.703125000000, 1490589623
0.043212890625, -0.940917968750, 0.359130859375, -1.007812500000, -6.351562500000, -3.562500000000, 1490589623
0.043212890625, -0.940917968750, 0.359130859375, -1.007812500000, -6.351562500000, -3.562500000000, 1490589623
0.043212890625, -0.940917968750, 0.359130859375, -1.007812500000, -6.351562500000, -3.562500000000, 1490589623
0.043212890625, -0.940917968750, 0.359130859375, -1.007812500000, -6.351562500000, -3.562500000000, 1490589623
0.033203125000, -0.886718750000, 0.358642578125, -1.554687500000, -3.828125000000, -2.601562500000, 1490589623
0.033203125000, -0.886718750000, 0.358642578125, -1.554687500000, -3.828125000000, -2.601562500000, 1490589623
0.033203125000, -0.886718750000, 0.358642578125, -1.554687500000, -3.828125000000, -2.601562500000, 1490589623
0.192382812500, -0.883056640625, 0.435058593750, -3.101562500000, -4.101562500000, -4.343750000000, 1490589623
0.192382812500, -0.883056640625, 0.435058593750, -3.101562500000, -4.101562500000, -4.343750000000, 1490589623
0.192382812500, -0.883056640625, 0.435058593750, -3.101562500000, -4.101562500000, -4.343750000000, 1490589623
-0.022460937500, -0.854492187500, 0.385498046875, -4.687500000000, -6.281250000000, -4.117187500000, 1490589623
-0.022460937500, -0.854492187500, 0.385498046875, -4.687500000000, -6.281250000000, -4.117187500000, 1490589623
-0.022460937500, -0.854492187500, 0.385498046875, -4.687500000000, -6.281250000000, -4.117187500000, 1490589623
0.150146484375, -0.858154296875, 0.284667968750, -5.929687500000, -1.234375000000, -4.976562500000, 1490589623
0.150146484375, -0.858154296875, 0.284667968750, -5.929687500000, -1.234375000000, -4.976562500000, 1490589623
0.150146484375, -0.858154296875, 0.284667968750, -5.929687500000, -1.234375000000, -4.976562500000, 1490589623
0.150146484375, -0.858154296875, 0.284667968750, -5.929687500000, -1.234375000000, -4.976562500000, 1490589623
0.073974609375, -0.958251953125, 0.405761718750, 4.585937500000, -3.789062500000, -4.062500000000, 1490589623
0.073974609375, -0.958251953125, 0.405761718750, 4.585937500000, -3.789062500000, -4.062500000000, 1490589623
0.073974609375, -0.958251953125, 0.405761718750, 4.585937500000, -3.789062500000, -4.062500000000, 1490589623
0.062011718750, -0.864013671875, 0.398437500000, -1.421875000000, -3.398437500000, -6.125000000000, 1490589623
0.062011718750, -0.864013671875, 0.398437500000, -1.421875000000, -3.398437500000, -6.125000000000, 1490589623
0.062011718750, -0.864013671875, 0.398437500000, -1.421875000000, -3.398437500000, -6.125000000000, 1490589623
-0.008789062500, -0.930908203125, 0.441406250000, -2.742187500000, -4.734375000000, -4.203125000000, 1490589623
-0.008789062500, -0.930908203125, 0.441406250000, -2.742187500000, -4.734375000000, -4.203125000000, 1490589623
-0.008789062500, -0.930908203125, 0.441406250000, -2.742187500000, -4.734375000000, -4.203125000000, 1490589623
0.098876953125, -0.915283203125, 0.388671875000, -3.710937500000, -1.023437500000, -4.578125000000, 1490589623
0.098876953125, -0.915283203125, 0.388671875000, -3.710937500000, -1.023437500000, -4.578125000000, 1490589623
0.098876953125, -0.915283203125, 0.388671875000, -3.710937500000, -1.023437500000, -4.578125000000, 1490589623
0.098876953125, -0.915283203125, 0.388671875000, -3.710937500000, -1.023437500000, -4.578125000000, 1490589623
0.188720703125, -0.874755859375, 0.393798828125, -4.796875000000, -1.273437500000, -3.656250000000, 1490589623
0.188720703125, -0.874755859375, 0.393798828125, -4.796875000000, -1.273437500000, -3.656250000000, 1490589623
0.188720703125, -0.874755859375, 0.393798828125, -4.796875000000, -1.273437500000, -3.656250000000, 1490589623
0.155029296875, -1.003173828125, 0.414306640625, -3.531250000000, -2.070312500000, -4.085937500000, 1490589623
0.155029296875, -1.003173828125, 0.414306640625, -3.531250000000, -2.070312500000, -4.085937500000, 1490589623
0.155029296875, -1.003173828125, 0.414306640625, -3.531250000000, -2.070312500000, -4.085937500000, 1490589623
0.110107421875, -0.918701171875, 0.440429687500, -3.578125000000, 2.070312500000, -1.171875000000, 1490589623
0.110107421875, -0.918701171875, 0.440429687500, -3.578125000000, 2.070312500000, -1.171875000000, 1490589623
0.110107421875, -0.918701171875, 0.440429687500, -3.578125000000, 2.070312500000, -1.171875000000, 1490589623
0.074462890625, -0.936767578125, 0.397705078125, -6.296875000000, -0.687500000000, -4.734375000000, 1490589623
0.074462890625, -0.936767578125, 0.397705078125, -6.296875000000, -0.687500000000, -4.734375000000, 1490589623
0.074462890625, -0.936767578125, 0.397705078125, -6.296875000000, -0.687500000000, -4.734375000000, 1490589623
0.074462890625, -0.936767578125, 0.397705078125, -6.296875000000, -0.687500000000, -4.734375000000, 1490589623
0.150146484375, -0.955810546875, 0.335693359375, -6.210937500000, 0.046875000000, -3.929687500000, 1490589623
0.150146484375, -0.955810546875, 0.335693359375, -6.210937500000, 0.046875000000, -3.929687500000, 1490589623
0.101562500000, -0.913330078125, 0.384277343750, -5.500000000000, -0.554687500000, -6.429687500000, 1490589623
0.101562500000, -0.913330078125, 0.384277343750, -5.500000000000, -0.554687500000, -6.429687500000, 1490589623
0.101562500000, -0.913330078125, 0.384277343750, -5.500000000000, -0.554687500000, -6.429687500000, 1490589623
0.101562500000, -0.913330078125, 0.384277343750, -5.500000000000, -0.554687500000, -6.429687500000, 1490589623
-0.021484375000, -0.866943359375, 0.311523437500, -6.804687500000, 0.500000000000, -4.750000000000, 1490589623
-0.021484375000, -0.866943359375, 0.311523437500, -6.804687500000, 0.500000000000, -4.750000000000, 1490589623
-0.021484375000, -0.866943359375, 0.311523437500, -6.804687500000, 0.500000000000, -4.750000000000, 1490589623
0.033691406250, -0.993164062500, 0.391357421875, -6.570312500000, 4.656250000000, -4.992187500000, 1490589623
0.033691406250, -0.993164062500, 0.391357421875, -6.570312500000, 4.656250000000, -4.992187500000, 1490589623
0.033691406250, -0.993164062500, 0.391357421875, -6.570312500000, 4.656250000000, -4.992187500000, 1490589623
0.033691406250, -0.993164062500, 0.391357421875, -6.570312500000, 4.656250000000, -4.992187500000, 1490589623
0.077880859375, -0.918945312500, 0.376220703125, -6.398437500000, 4.125000000000, -3.976562500000, 1490589624
0.077880859375, -0.918945312500, 0.376220703125, -6.398437500000, 4.125000000000, -3.976562500000, 1490589624
0.077880859375, -0.918945312500, 0.376220703125, -6.398437500000, 4.125000000000, -3.976562500000, 1490589624
0.188232421875, -0.858886718750, 0.308837890625, -6.835937500000, 2.562500000000, -1.453125000000, 1490589624
0.188232421875, -0.858886718750, 0.308837890625, -6.835937500000, 2.562500000000, -1.453125000000, 1490589624
0.188232421875, -0.858886718750, 0.308837890625, -6.835937500000, 2.562500000000, -1.453125000000, 1490589624
0.085205078125, -0.901611328125, 0.400878906250, -8.523437500000, 3.914062500000, -1.960937500000, 1490589624
0.085205078125, -0.901611328125, 0.400878906250, -8.523437500000, 3.914062500000, -1.960937500000, 1490589624
0.085205078125, -0.901611328125, 0.400878906250, -8.523437500000, 3.914062500000, -1.960937500000, 1490589624
0.042236328125, -1.067871093750, 0.457763671875, -2.585937500000, 2.070312500000, -8.171875000000, 1490589624
0.042236328125, -1.067871093750, 0.457763671875, -2.585937500000, 2.070312500000, -8.171875000000, 1490589624
0.042236328125, -1.067871093750, 0.457763671875, -2.585937500000, 2.070312500000, -8.171875000000, 1490589624
0.042236328125, -1.067871093750, 0.457763671875, -2.585937500000, 2.070312500000, -8.171875000000, 1490589624
0.133300781250, -0.918945312500, 0.403808593750, -8.539062500000, 2.445312500000, -3.453125000000, 1490589624
0.133300781250, -0.918945312500, 0.403808593750, -8.539062500000, 2.445312500000, -3.453125000000, 1490589624
0.133300781250, -0.918945312500, 0.403808593750, -8.539062500000, 2.445312500000, -3.453125000000, 1490589624
0.141113281250, -0.872070312500, 0.379882812500, -3.171875000000, -2.632812500000, -5.625000000000, 1490589624
0.141113281250, -0.872070312500, 0.379882812500, -3.171875000000, -2.632812500000, -5.625000000000, 1490589624
0.141113281250, -0.872070312500, 0.379882812500, -3.171875000000, -2.632812500000, -5.625000000000, 1490589624
0.048828125000, -0.922851562500, 0.385742187500, -6.734375000000, -2.359375000000, -1.632812500000, 1490589624
0.048828125000, -0.922851562500, 0.385742187500, -6.734375000000, -2.359375000000, -1.632812500000, 1490589624
0.048828125000, -0.922851562500, 0.385742187500, -6.734375000000, -2.359375000000, -1.632812500000, 1490589624
0.097167968750, -0.860107421875, 0.379882812500, -3.101562500000, -4.945312500000, -3.429687500000, 1490589624
0.097167968750, -0.860107421875, 0.379882812500, -3.101562500000, -4.945312500000, -3.429687500000, 1490589624
0.097167968750, -0.860107421875, 0.379882812500, -3.101562500000, -4.945312500000, -3.429687500000, 1490589624
0.097167968750, -0.860107421875, 0.379882812500, -3.101562500000, -4.945312500000, -3.429687500000, 1490589624
0.070312500000, -0.923095703125, 0.444580078125, -4.507812500000, -4.617187500000, -6.054687500000, 1490589624
0.070312500000, -0.923095703125, 0.444580078125, -4.507812500000, -4.617187500000, -6.054687500000, 1490589624
0.070312500000, -0.923095703125, 0.444580078125, -4.507812500000, -4.617187500000, -6.054687500000, 1490589624
0.055175781250, -0.912109375000, 0.377197265625, -1.750000000000, -4.390625000000, -4.625000000000, 1490589624
0.055175781250, -0.912109375000, 0.377197265625, -1.750000000000, -4.390625000000, -4.625000000000, 1490589624
0.055175781250, -0.912109375000, 0.377197265625, -1.750000000000, -4.390625000000, -4.625000000000, 1490589624
0.128662109375, -1.028320312500, 0.354003906250, -3.273437500000, -1.476562500000, -3.429687500000, 1490589624
0.128662109375, -1.028320312500, 0.354003906250, -3.273437500000, -1.476562500000, -3.429687500000, 1490589624
0.128662109375, -1.028320312500, 0.354003906250, -3.273437500000, -1.476562500000, -3.429687500000, 1490589624
0.084228515625, -0.903076171875, 0.339111328125, -4.460937500000, -1.671875000000, -6.359375000000, 1490589624
0.084228515625, -0.903076171875, 0.339111328125, -4.460937500000, -1.671875000000, -6.359375000000, 1490589624
0.084228515625, -0.903076171875, 0.339111328125, -4.460937500000, -1.671875000000, -6.359375000000, 1490589624
0.084228515625, -0.903076171875, 0.339111328125, -4.460937500000, -1.671875000000, -6.359375000000, 1490589624
0.129150390625, -0.917480468750, 0.387695312500, -4.382812500000, -4.125000000000, -1.695312500000, 1490589624
0.129150390625, -0.917480468750, 0.387695312500, -4.382812500000, -4.125000000000, -1.695312500000, 1490589624
0.129150390625, -0.917480468750, 0.387695312500, -4.382812500000, -4.125000000000, -1.695312500000, 1490589624
0.066650390625, -0.927490234375, 0.386474609375, -2.062500000000, -1.242187500000, -6.601562500000, 1490589624
0.066650390625, -0.927490234375, 0.386474609375, -2.062500000000, -1.242187500000, -6.601562500000, 1490589624
0.066650390625, -0.927490234375, 0.386474609375, -2.062500000000, -1.242187500000, -6.601562500000, 1490589624
0.098876953125, -0.933349609375, 0.428955078125, -2.117187500000, -1.414062500000, -1.562500000000, 1490589624
0.098876953125, -0.933349609375, 0.428955078125, -2.117187500000, -1.414062500000, -1.562500000000, 1490589624
0.098876953125, -0.933349609375, 0.428955078125, -2.117187500000, -1.414062500000, -1.562500000000, 1490589624
0.093750000000, -0.862792968750, 0.354980468750, 0.460937500000, -4.328125000000, -4.195312500000, 1490589624
0.093750000000, -0.862792968750, 0.354980468750, 0.460937500000, -4.328125000000, -4.195312500000, 1490589624
0.093750000000, -0.862792968750, 0.354980468750, 0.460937500000, -4.328125000000, -4.195312500000, 1490589624
0.093750000000, -0.862792968750, 0.354980468750, 0.460937500000, -4.328125000000, -4.195312500000, 1490589624
0.112792968750, -0.911376953125, 0.350585937500, 1.171875000000, -4.781250000000, -1.289062500000, 1490589624
0.112792968750, -0.911376953125, 0.350585937500, 1.171875000000, -4.781250000000, -1.289062500000, 1490589624
0.112792968750, -0.911376953125, 0.350585937500, 1.171875000000, -4.781250000000, -1.289062500000, 1490589624
0.141601562500, -0.964111328125, 0.375976562500, -4.187500000000, 0.937500000000, -1.195312500000, 1490589624
0.141601562500, -0.964111328125, 0.375976562500, -4.187500000000, 0.937500000000, -1.195312500000, 1490589624
0.141601562500, -0.964111328125, 0.375976562500, -4.187500000000, 0.937500000000, -1.195312500000, 1490589624
0.037109375000, -0.992187500000, 0.292724609375, 6.476562500000, -4.578125000000, -4.101562500000, 1490589624
0.037109375000, -0.992187500000, 0.292724609375, 6.476562500000, -4.578125000000, -4.101562500000, 1490589624
0.037109375000, -0.992187500000, 0.292724609375, 6.476562500000, -4.578125000000, -4.101562500000, 1490589624
0.037353515625, -1.000244140625, 0.387451171875, 1.382812500000, -4.937500000000, -5.492187500000, 1490589624
0.037353515625, -1.000244140625, 0.387451171875, 1.382812500000, -4.937500000000, -5.492187500000, 1490589624
0.037353515625, -1.000244140625, 0.387451171875, 1.382812500000, -4.937500000000, -5.492187500000, 1490589624
0.037353515625, -1.000244140625, 0.387451171875, 1.382812500000, -4.937500000000, -5.492187500000, 1490589624
0.077880859375, -0.955566406250, 0.375732421875, 3.710937500000, -4.546875000000, -3.117187500000, 1490589624
0.077880859375, -0.955566406250, 0.375732421875, 3.710937500000, -4.546875000000, -3.117187500000, 1490589624
0.077880859375, -0.955566406250, 0.375732421875, 3.710937500000, -4.546875000000, -3.117187500000, 1490589625
0.041503906250, -0.955322265625, 0.349121093750, 5.851562500000, -6.093750000000, -5.859375000000, 1490589625
0.041503906250, -0.955322265625, 0.349121093750, 5.851562500000, -6.093750000000, -5.859375000000, 1490589625
0.041503906250, -0.955322265625, 0.349121093750, 5.851562500000, -6.093750000000, -5.859375000000, 1490589625
-0.001464843750, -0.945312500000, 0.306884765625, 8.132812500000, -7.929687500000, -7.343750000000, 1490589625
-0.001464843750, -0.945312500000, 0.306884765625, 8.132812500000, -7.929687500000, -7.343750000000, 1490589625
-0.001464843750, -0.945312500000, 0.306884765625, 8.132812500000, -7.929687500000, -7.343750000000, 1490589625
0.030029296875, -0.866699218750, 0.319824218750, 13.773437500000, -8.859375000000, -9.257812500000, 1490589625
0.030029296875, -0.866699218750, 0.319824218750, 13.773437500000, -8.859375000000, -9.257812500000, 1490589625
0.030029296875, -0.866699218750, 0.319824218750, 13.773437500000, -8.859375000000, -9.257812500000, 1490589625
0.030029296875, -0.866699218750, 0.319824218750, 13.773437500000, -8.859375000000, -9.257812500000, 1490589625
0.151611328125, -0.967773437500, 0.308349609375, 16.796875000000, -9.453125000000, -10.539062500000, 1490589625
0.151611328125, -0.967773437500, 0.308349609375, 16.796875000000, -9.453125000000, -10.539062500000, 1490589625
0.151611328125, -0.967773437500, 0.308349609375, 16.796875000000, -9.453125000000, -10.539062500000, 1490589625
0.041015625000, -0.873535156250, 0.273437500000, 20.242187500000, -1.429687500000, 2.601562500000, 1490589625
0.041015625000, -0.873535156250, 0.273437500000, 20.242187500000, -1.429687500000, 2.601562500000, 1490589625
0.041015625000, -0.873535156250, 0.273437500000, 20.242187500000, -1.429687500000, 2.601562500000, 1490589625
0.031982421875, -0.940429687500, 0.208251953125, 20.328125000000, 12.609375000000, 14.273437500000, 1490589625
0.031982421875, -0.940429687500, 0.208251953125, 20.328125000000, 12.609375000000, 14.273437500000, 1490589625
0.031982421875, -0.940429687500, 0.208251953125, 20.328125000000, 12.609375000000, 14.273437500000, 1490589625
0.167236328125, -0.722167968750, 0.126220703125, 32.343750000000, 13.125000000000, 31.976562500000, 1490589625
0.167236328125, -0.722167968750, 0.126220703125, 32.343750000000, 13.125000000000, 31.976562500000, 1490589625
0.167236328125, -0.722167968750, 0.126220703125, 32.343750000000, 13.125000000000, 31.976562500000, 1490589625
0.167236328125, -0.722167968750, 0.126220703125, 32.343750000000, 13.125000000000, 31.976562500000, 1490589625
0.080810546875, -0.740722656250, 0.154052734375, 42.257812500000, -5.164062500000, 33.710937500000, 1490589625
0.080810546875, -0.740722656250, 0.154052734375, 42.257812500000, -5.164062500000, 33.710937500000, 1490589625
0.080810546875, -0.740722656250, 0.154052734375, 42.257812500000, -5.164062500000, 33.710937500000, 1490589625
0.067626953125, -0.752929687500, 0.184814453125, 39.882812500000, -10.492187500000, 32.718750000000, 1490589625
0.067626953125, -0.752929687500, 0.184814453125, 39.882812500000, -10.492187500000, 32.718750000000, 1490589625
0.067626953125, -0.752929687500, 0.184814453125, 39.882812500000, -10.492187500000, 32.718750000000, 1490589625
0.133789062500, -0.747802734375, 0.097900390625, 30.375000000000, -16.382812500000, 28.882812500000, 1490589625
0.133789062500, -0.747802734375, 0.097900390625, 30.375000000000, -16.382812500000, 28.882812500000, 1490589625
0.133789062500, -0.747802734375, 0.097900390625, 30.375000000000, -16.382812500000, 28.882812500000, 1490589625
0.122558593750, -0.779785156250, 0.125732421875, 9.273437500000, -8.601562500000, 26.859375000000, 1490589625
0.122558593750, -0.779785156250, 0.125732421875, 9.273437500000, -8.601562500000, 26.859375000000, 1490589625
0.122558593750, -0.779785156250, 0.125732421875, 9.273437500000, -8.601562500000, 26.859375000000, 1490589625
0.122558593750, -0.779785156250, 0.125732421875, 9.273437500000, -8.601562500000, 26.859375000000, 1490589625
0.094970703125, -0.746826171875, 0.035156250000, 11.898437500000, -26.289062500000, 26.234375000000, 1490589625
0.094970703125, -0.746826171875, 0.035156250000, 11.898437500000, -26.289062500000, 26.234375000000, 1490589625
0.094970703125, -0.746826171875, 0.035156250000, 11.898437500000, -26.289062500000, 26.234375000000, 1490589625
-0.009277343750, -0.662109375000, 0.055908203125, 6.585937500000, -50.234375000000, 13.257812500000, 1490589625
-0.009277343750, -0.662109375000, 0.055908203125, 6.585937500000, -50.234375000000, 13.257812500000, 1490589625
-0.009277343750, -0.662109375000, 0.055908203125, 6.585937500000, -50.234375000000, 13.257812500000, 1490589625
0.119384765625, -0.888916015625, 0.093750000000, -0.796875000000, -26.570312500000, 1.312500000000, 1490589625
0.119384765625, -0.888916015625, 0.093750000000, -0.796875000000, -26.570312500000, 1.312500000000, 1490589625
0.119384765625, -0.888916015625, 0.093750000000, -0.796875000000, -26.570312500000, 1.312500000000, 1490589625
0.209228515625, -0.693847656250, 0.033447265625, -36.054687500000, -83.335937500000, -4.125000000000, 1490589625
0.209228515625, -0.693847656250, 0.033447265625, -36.054687500000, -83.335937500000, -4.125000000000, 1490589625
0.209228515625, -0.693847656250, 0.033447265625, -36.054687500000, -83.335937500000, -4.125000000000, 1490589625
0.209228515625, -0.693847656250, 0.033447265625, -36.054687500000, -83.335937500000, -4.125000000000, 1490589625
0.189453125000, -0.905273437500, 0.066650390625, -61.406250000000, -106.859375000000, -9.250000000000, 1490589625
0.189453125000, -0.905273437500, 0.066650390625, -61.406250000000, -106.859375000000, -9.250000000000, 1490589625
0.189453125000, -0.905273437500, 0.066650390625, -61.406250000000, -106.859375000000, -9.250000000000, 1490589625
0.163085937500, -1.030029296875, 0.037109375000, -92.734375000000, -44.843750000000, -19.218750000000, 1490589625
0.163085937500, -1.030029296875, 0.037109375000, -92.734375000000, -44.843750000000, -19.218750000000, 1490589625
0.163085937500, -1.030029296875, 0.037109375000, -92.734375000000, -44.843750000000, -19.218750000000, 1490589625
0.219238281250, -0.968994140625, -0.004150390625, -90.882812500000, -5.828125000000, -10.187500000000, 1490589625
0.219238281250, -0.968994140625, -0.004150390625, -90.882812500000, -5.828125000000, -10.187500000000, 1490589625
0.219238281250, -0.968994140625, -0.004150390625, -90.882812500000, -5.828125000000, -10.187500000000, 1490589625
0.204833984375, -1.166503906250, -0.008544921875, -48.367187500000, 14.710937500000, -86.875000000000, 1490589625
0.204833984375, -1.166503906250, -0.008544921875, -48.367187500000, 14.710937500000, -86.875000000000, 1490589625
0.204833984375, -1.166503906250, -0.008544921875, -48.367187500000, 14.710937500000, -86.875000000000, 1490589625
0.204833984375, -1.166503906250, -0.008544921875, -48.367187500000, 14.710937500000, -86.875000000000, 1490589625
-0.192382812500, -1.145996093750, -0.010742187500, -86.523437500000, -63.242187500000, -54.906250000000, 1490589625
-0.192382812500, -1.145996093750, -0.010742187500, -86.523437500000, -63.242187500000, -54.906250000000, 1490589625
-0.192382812500, -1.145996093750, -0.010742187500, -86.523437500000, -63.242187500000, -54.906250000000, 1490589625
-0.148925781250, -1.049804687500, 0.031494140625, -90.031250000000, -91.640625000000, 10.914062500000, 1490589626
-0.148925781250, -1.049804687500, 0.031494140625, -90.031250000000, -91.640625000000, 10.914062500000, 1490589626
-0.148925781250, -1.049804687500, 0.031494140625, -90.031250000000, -91.640625000000, 10.914062500000, 1490589626
-0.205810546875, -0.928710937500, 0.076416015625, -81.789062500000, -54.007812500000, 13.882812500000, 1490589626
-0.205810546875, -0.928710937500, 0.076416015625, -81.789062500000, -54.007812500000, 13.882812500000, 1490589626
-0.260253906250, -0.996093750000, -0.011718750000, -74.515625000000, -66.140625000000, 69.015625000000, 1490589626
-0.260253906250, -0.996093750000, -0.011718750000, -74.515625000000, -66.140625000000, 69.015625000000, 1490589626
-0.260253906250, -0.996093750000, -0.011718750000, -74.515625000000, -66.140625000000, 69.015625000000, 1490589626
-0.260253906250, -0.996093750000, -0.011718750000, -74.515625000000, -66.140625000000, 69.015625000000, 1490589626
-0.260253906250, -0.996093750000, -0.011718750000, -74.515625000000, -66.140625000000, 69.015625000000, 1490589626
-0.308349609375, -1.482177734375, 0.119384765625, -91.375000000000, 80.320312500000, -25.601562500000, 1490589626
-0.308349609375, -1.482177734375, 0.119384765625, -91.375000000000, 80.320312500000, -25.601562500000, 1490589626
-0.308349609375, -1.482177734375, 0.119384765625, -91.375000000000, 80.320312500000, -25.601562500000, 1490589626
0.009277343750, -1.086914062500, 0.047363281250, -26.710937500000, 89.773437500000, 74.429687500000, 1490589626
0.009277343750, -1.086914062500, 0.047363281250, -26.710937500000, 89.773437500000, 74.429687500000, 1490589626
0.009277343750, -1.086914062500, 0.047363281250, -26.710937500000, 89.773437500000, 74.429687500000, 1490589626
0.450683593750, -1.927001953125, 0.062988281250, 158.203125000000, -31.820312500000, 32.046875000000, 1490589626
0.450683593750, -1.927001953125, 0.062988281250, 158.203125000000, -31.820312500000, 32.046875000000, 1490589626
0.450683593750, -1.927001953125, 0.062988281250, 158.203125000000, -31.820312500000, 32.046875000000, 1490589626
1.382568359375, -2.334716796875, 0.190185546875, 81.210937500000, -256.000000000000, 39.453125000000, 1490589626
1.382568359375, -2.334716796875, 0.190185546875, 81.210937500000, -256.000000000000, 39.453125000000, 1490589626
1.382568359375, -2.334716796875, 0.190185546875, 81.210937500000, -256.000000000000, 39.453125000000, 1490589626
1.382568359375, -2.334716796875, 0.190185546875, 81.210937500000, -256.000000000000, 39.453125000000, 1490589626
3.617675781250, -0.280029296875, 3.246337890625, 253.992187500000, 253.992187500000, 120.195312500000, 1490589626
3.617675781250, -0.280029296875, 3.246337890625, 253.992187500000, 253.992187500000, 120.195312500000, 1490589626
3.617675781250, -0.280029296875, 3.246337890625, 253.992187500000, 253.992187500000, 120.195312500000, 1490589626
0.382080078125, -0.556152343750, -0.043945312500, -256.000000000000, -99.679687500000, 158.781250000000, 1490589626
0.382080078125, -0.556152343750, -0.043945312500, -256.000000000000, -99.679687500000, 158.781250000000, 1490589626
0.382080078125, -0.556152343750, -0.043945312500, -256.000000000000, -99.679687500000, 158.781250000000, 1490589626
0.497802734375, -0.404052734375, 0.221435546875, -256.000000000000, -256.000000000000, 205.468750000000, 1490589626
0.497802734375, -0.404052734375, 0.221435546875, -256.000000000000, -256.000000000000, 205.468750000000, 1490589626
0.045410156250, 0.045166015625, 0.082519531250, -180.007812500000, -87.804687500000, 181.882812500000, 1490589626
0.045410156250, 0.045166015625, 0.082519531250, -180.007812500000, -87.804687500000, 181.882812500000, 1490589626
0.045410156250, 0.045166015625, 0.082519531250, -180.007812500000, -87.804687500000, 181.882812500000, 1490589626
0.045410156250, 0.045166015625, 0.082519531250, -180.007812500000, -87.804687500000, 181.882812500000, 1490589626
0.745849609375, 0.404296875000, 0.687011718750, -150.218750000000, 43.312500000000, 113.015625000000, 1490589626
0.745849609375, 0.404296875000, 0.687011718750, -150.218750000000, 43.312500000000, 113.015625000000, 1490589626
1.436279296875, -0.371826171875, 0.685058593750, -155.515625000000, 253.992187500000, 121.773437500000, 1490589626
1.436279296875, -0.371826171875, 0.685058593750, -155.515625000000, 253.992187500000, 121.773437500000, 1490589626
1.436279296875, -0.371826171875, 0.685058593750, -155.515625000000, 253.992187500000, 121.773437500000, 1490589626
1.436279296875, -0.371826171875, 0.685058593750, -155.515625000000, 253.992187500000, 121.773437500000, 1490589626
0.099365234375, 0.874755859375, 0.113769531250, -27.960937500000, -14.570312500000, -106.695312500000, 1490589626
0.500732421875, 0.317138671875, 0.116455078125, -151.203125000000, -150.007812500000, -98.156250000000, 1490589626
0.500732421875, 0.317138671875, 0.116455078125, -151.203125000000, -150.007812500000, -98.156250000000, 1490589626
0.500732421875, 0.317138671875, 0.116455078125, -151.203125000000, -150.007812500000, -98.156250000000, 1490589626
0.350585937500, 1.056396484375, 0.566650390625, -93.773437500000, -39.250000000000, -34.351562500000, 1490589626
0.350585937500, 1.056396484375, 0.566650390625, -93.773437500000, -39.250000000000, -34.351562500000, 1490589626
0.350585937500, 1.056396484375, 0.566650390625, -93.773437500000, -39.250000000000, -34.351562500000, 1490589626
0.350585937500, 1.056396484375, 0.566650390625, -93.773437500000, -39.250000000000, -34.351562500000, 1490589626
0.356445312500, -0.330322265625, 0.155517578125, 66.390625000000, 35.281250000000, -223.070312500000, 1490589626
0.356445312500, -0.330322265625, 0.155517578125, 66.390625000000, 35.281250000000, -223.070312500000, 1490589626
0.356445312500, -0.330322265625, 0.155517578125, 66.390625000000, 35.281250000000, -223.070312500000, 1490589626
0.789794921875, -0.275390625000, 0.329101562500, -49.195312500000, 78.085937500000, -99.164062500000, 1490589626
0.789794921875, -0.275390625000, 0.329101562500, -49.195312500000, 78.085937500000, -99.164062500000, 1490589626
0.789794921875, -0.275390625000, 0.329101562500, -49.195312500000, 78.085937500000, -99.164062500000, 1490589626
0.708740234375, 0.008544921875, 0.207519531250, 19.546875000000, 42.671875000000, -98.015625000000, 1490589626
0.708740234375, 0.008544921875, 0.207519531250, 19.546875000000, 42.671875000000, -98.015625000000, 1490589626
0.708740234375, 0.008544921875, 0.207519531250, 19.546875000000, 42.671875000000, -98.015625000000, 1490589626
0.695800781250, -0.518066406250, 0.540283203125, 12.484375000000, 16.804687500000, -35.859375000000, 1490589626
0.695800781250, -0.518066406250, 0.540283203125, 12.484375000000, 16.804687500000, -35.859375000000, 1490589626
0.695800781250, -0.518066406250, 0.540283203125, 12.484375000000, 16.804687500000, -35.859375000000, 1490589626
0.695800781250, -0.518066406250, 0.540283203125, 12.484375000000, 16.804687500000, -35.859375000000, 1490589626
0.637939453125, -0.300781250000, 0.278320312500, -6.453125000000, 11.320312500000, -8.710937500000, 1490589626
0.637939453125, -0.300781250000, 0.278320312500, -6.453125000000, 11.320312500000, -8.710937500000, 1490589626
0.637939453125, -0.300781250000, 0.278320312500, -6.453125000000, 11.320312500000, -8.710937500000, 1490589626
1.062988281250, -0.684326171875, 0.752685546875, 6.718750000000, 86.000000000000, -5.914062500000, 1490589626
1.062988281250, -0.684326171875, 0.752685546875, 6.718750000000, 86.000000000000, -5.914062500000, 1490589626
1.062988281250, -0.684326171875, 0.752685546875, 6.718750000000, 86.000000000000, -5.914062500000, 1490589626
1.136718750000, -0.570800781250, 0.751953125000, 21.382812500000, 26.445312500000, -18.140625000000, 1490589627
1.136718750000, -0.570800781250, 0.751953125000, 21.382812500000, 26.445312500000, -18.140625000000, 1490589627
1.136718750000, -0.570800781250, 0.751953125000, 21.382812500000, 26.445312500000, -18.140625000000, 1490589627
0.819335937500, -0.431396484375, 0.387451171875, -10.921875000000, 31.914062500000, -21.078125000000, 1490589627
0.819335937500, -0.431396484375, 0.387451171875, -10.921875000000, 31.914062500000, -21.078125000000, 1490589627
0.819335937500, -0.431396484375, 0.387451171875, -10.921875000000, 31.914062500000, -21.078125000000, 1490589627
0.819335937500, -0.431396484375, 0.387451171875, -10.921875000000, 31.914062500000, -21.078125000000, 1490589627
0.533447265625, -0.478027343750, 0.488037109375, -14.000000000000, 49.273437500000, -30.882812500000, 1490589627
0.533447265625, -0.478027343750, 0.488037109375, -14.000000000000, 49.273437500000, -30.882812500000, 1490589627
0.533447265625, -0.478027343750, 0.488037109375, -14.000000000000, 49.273437500000, -30.882812500000, 1490589627
0.713623046875, -0.500976562500, 0.484619140625, -6.585937500000, -3.210937500000, -12.898437500000, 1490589627
0.713623046875, -0.500976562500, 0.484619140625, -6.585937500000, -3.210937500000, -12.898437500000, 1490589627
0.713623046875, -0.500976562500, 0.484619140625, -6.585937500000, -3.210937500000, -12.898437500000, 1490589627
0.726562500000, -0.535156250000, 0.626464843750, -11.937500000000, -0.578125000000, -13.484375000000, 1490589627
0.726562500000, -0.535156250000, 0.626464843750, -11.937500000000, -0.578125000000, -13.484375000000, 1490589627
0.726562500000, -0.535156250000, 0.626464843750, -11.937500000000, -0.578125000000, -13.484375000000, 1490589627
0.702636718750, -0.610839843750, 0.652343750000, -25.703125000000, 9.804687500000, -8.523437500000, 1490589627
0.702636718750, -0.610839843750, 0.652343750000, -25.703125000000, 9.804687500000, -8.523437500000, 1490589627
0.702636718750, -0.610839843750, 0.652343750000, -25.703125000000, 9.804687500000, -8.523437500000, 1490589627
0.702636718750, -0.610839843750, 0.652343750000, -25.703125000000, 9.804687500000, -8.523437500000, 1490589627
0.628173828125, -0.424804687500, 0.588867187500, -25.132812500000, 100.296875000000, -33.546875000000, 1490589627
0.628173828125, -0.424804687500, 0.588867187500, -25.132812500000, 100.296875000000, -33.546875000000, 1490589627
0.628173828125, -0.424804687500, 0.588867187500, -25.132812500000, 100.296875000000, -33.546875000000, 1490589627
0.603759765625, -0.371826171875, 0.546875000000, -37.453125000000, 30.585937500000, -59.039062500000, 1490589627
0.603759765625, -0.371826171875, 0.546875000000, -37.453125000000, 30.585937500000, -59.039062500000, 1490589627
0.603759765625, -0.371826171875, 0.546875000000, -37.453125000000, 30.585937500000, -59.039062500000, 1490589627
0.425537109375, -0.585693359375, 0.611572265625, -21.468750000000, -36.671875000000, -71.226562500000, 1490589627
0.425537109375, -0.585693359375, 0.611572265625, -21.468750000000, -36.671875000000, -71.226562500000, 1490589627
0.772949218750, -0.511474609375, 0.822753906250, -20.156250000000, 4.703125000000, -35.570312500000, 1490589627
0.772949218750, -0.511474609375, 0.822753906250, -20.156250000000, 4.703125000000, -35.570312500000, 1490589627
0.772949218750, -0.511474609375, 0.822753906250, -20.156250000000, 4.703125000000, -35.570312500000, 1490589627
0.772949218750, -0.511474609375, 0.822753906250, -20.156250000000, 4.703125000000, -35.570312500000, 1490589627
0.510742187500, -0.521728515625, 0.731933593750, -39.132812500000, 50.828125000000, 5.328125000000, 1490589627
0.510742187500, -0.521728515625, 0.731933593750, -39.132812500000, 50.828125000000, 5.328125000000, 1490589627
0.510742187500, -0.521728515625, 0.731933593750, -39.132812500000, 50.828125000000, 5.328125000000, 1490589627
0.510742187500, -0.521728515625, 0.731933593750, -39.132812500000, 50.828125000000, 5.328125000000, 1490589627
0.394042968750, -0.443115234375, 0.750732421875, -36.203125000000, 15.265625000000, -0.968750000000, 1490589627
0.394042968750, -0.443115234375, 0.750732421875, -36.203125000000, 15.265625000000, -0.968750000000, 1490589627
0.587158203125, -0.468261718750, 0.751953125000, -2.500000000000, -9.781250000000, 3.281250000000, 1490589627
0.587158203125, -0.468261718750, 0.751953125000, -2.500000000000, -9.781250000000, 3.281250000000, 1490589627
0.587158203125, -0.468261718750, 0.751953125000, -2.500000000000, -9.781250000000, 3.281250000000, 1490589627
0.587158203125, -0.468261718750, 0.751953125000, -2.500000000000, -9.781250000000, 3.281250000000, 1490589627
0.590332031250, -0.497314453125, 0.723388671875, -6.757812500000, 12.914062500000, -7.429687500000, 1490589627
0.590332031250, -0.497314453125, 0.723388671875, -6.757812500000, 12.914062500000, -7.429687500000, 1490589627
0.590332031250, -0.497314453125, 0.723388671875, -6.757812500000, 12.914062500000, -7.429687500000, 1490589627
0.590332031250, -0.497314453125, 0.723388671875, -6.757812500000, 12.914062500000, -7.429687500000, 1490589627
0.496826171875, -0.356933593750, 0.764648437500, 16.226562500000, 3.031250000000, -20.289062500000, 1490589627
0.496826171875, -0.356933593750, 0.764648437500, 16.226562500000, 3.031250000000, -20.289062500000, 1490589627
0.496826171875, -0.356933593750, 0.764648437500, 16.226562500000, 3.031250000000, -20.289062500000, 1490589627
0.644042968750, -0.412597656250, 0.702148437500, 18.804687500000, -20.312500000000, -13.343750000000, 1490589627
0.644042968750, -0.412597656250, 0.702148437500, 18.804687500000, -20.312500000000, -13.343750000000, 1490589627
0.644042968750, -0.412597656250, 0.702148437500, 18.804687500000, -20.312500000000, -13.343750000000, 1490589627
0.478759765625, -0.486083984375, 0.685791015625, 14.976562500000, -26.921875000000, -12.000000000000, 1490589627
0.478759765625, -0.486083984375, 0.685791015625, 14.976562500000, -26.921875000000, -12.000000000000, 1490589627
0.478759765625, -0.486083984375, 0.685791015625, 14.976562500000, -26.921875000000, -12.000000000000, 1490589627
0.574951171875, -0.521484375000, 0.685791015625, 3.546875000000, -5.765625000000, -21.796875000000, 1490589627
0.574951171875, -0.521484375000, 0.685791015625, 3.546875000000, -5.765625000000, -21.796875000000, 1490589627
0.574951171875, -0.521484375000, 0.685791015625, 3.546875000000, -5.765625000000, -21.796875000000, 1490589627
0.550537109375, -0.695068359375, 0.704833984375, 7.507812500000, -14.257812500000, -11.164062500000, 1490589627
0.550537109375, -0.695068359375, 0.704833984375, 7.507812500000, -14.257812500000, -11.164062500000, 1490589627
0.550537109375, -0.695068359375, 0.704833984375, 7.507812500000, -14.257812500000, -11.164062500000, 1490589627
0.550537109375, -0.695068359375, 0.704833984375, 7.507812500000, -14.257812500000, -11.164062500000, 1490589627
0.567626953125, -0.543945312500, 0.674316406250, -1.703125000000, 8.656250000000, -1.875000000000, 1490589627
0.567626953125, -0.543945312500, 0.674316406250, -1.703125000000, 8.656250000000, -1.875000000000, 1490589627
0.567626953125, -0.543945312500, 0.674316406250, -1.703125000000, 8.656250000000, -1.875000000000, 1490589627
0.634033203125, -0.497314453125, 0.605957031250, 2.335937500000, -2.328125000000, -5.476562500000, 1490589628
0.634033203125, -0.497314453125, 0.605957031250, 2.335937500000, -2.328125000000, -5.476562500000, 1490589628
0.634033203125, -0.497314453125, 0.605957031250, 2.335937500000, -2.328125000000, -5.476562500000, 1490589628
0.531738281250, -0.531494140625, 0.602539062500, -6.781250000000, 2.578125000000, -3.632812500000, 1490589628
0.531738281250, -0.531494140625, 0.602539062500, -6.781250000000, 2.578125000000, -3.632812500000, 1490589628
0.531738281250, -0.531494140625, 0.602539062500, -6.781250000000, 2.578125000000, -3.632812500000, 1490589628
0.531738281250, -0.531494140625, 0.602539062500, -6.781250000000, 2.578125000000, -3.632812500000, 1490589628
0.625488281250, -0.576171875000, 0.676757812500, -7.757812500000, 4.406250000000, -4.257812500000, 1490589628
0.625488281250, -0.576171875000, 0.676757812500, -7.757812500000, 4.406250000000, -4.257812500000, 1490589628
0.625488281250, -0.576171875000, 0.676757812500, -7.757812500000, 4.406250000000, -4.257812500000, 1490589628
0.489990234375, -0.495605468750, 0.675781250000, -6.664062500000, -2.179687500000, -2.007812500000, 1490589628
0.489990234375, -0.495605468750, 0.675781250000, -6.664062500000, -2.179687500000, -2.007812500000, 1490589628
0.489990234375, -0.495605468750, 0.675781250000, -6.664062500000, -2.179687500000, -2.007812500000, 1490589628
0.627685546875, -0.490722656250, 0.599853515625, -3.609375000000, 0.187500000000, -4.375000000000, 1490589628
0.627685546875, -0.490722656250, 0.599853515625, -3.609375000000, 0.187500000000, -4.375000000000, 1490589628
0.627685546875, -0.490722656250, 0.599853515625, -3.609375000000, 0.187500000000, -4.375000000000, 1490589628
0.627685546875, -0.490722656250, 0.599853515625, -3.609375000000, 0.187500000000, -4.375000000000, 1490589628
0.572021484375, -0.568115234375, 0.718017578125, -3.210937500000, -1.125000000000, -4.601562500000, 1490589628
0.572021484375, -0.592041015625, 0.705078125000, -4.546875000000, -0.062500000000, -4.601562500000, 1490589628
0.572021484375, -0.592041015625, 0.705078125000, -4.546875000000, -0.062500000000, -4.601562500000, 1490589628
0.572021484375, -0.592041015625, 0.705078125000, -4.546875000000, -0.062500000000, -4.601562500000, 1490589628
0.572021484375, -0.592041015625, 0.705078125000, -4.546875000000, -0.062500000000, -4.601562500000, 1490589628
0.572021484375, -0.592041015625, 0.705078125000, -4.546875000000, -0.062500000000, -4.601562500000, 1490589628
0.473876953125, -0.410156250000, 0.754638671875, -2.539062500000, -2.539062500000, -3.328125000000, 1490589628
0.473876953125, -0.410156250000, 0.754638671875, -2.539062500000, -2.539062500000, -3.328125000000, 1490589628
0.473876953125, -0.410156250000, 0.754638671875, -2.539062500000, -2.539062500000, -3.328125000000, 1490589628
0.560791015625, -0.587890625000, 0.752929687500, -0.906250000000, -1.320312500000, -3.843750000000, 1490589628
0.560791015625, -0.587890625000, 0.752929687500, -0.906250000000, -1.320312500000, -3.843750000000, 1490589628
0.560791015625, -0.587890625000, 0.752929687500, -0.906250000000, -1.320312500000, -3.843750000000, 1490589628
0.564208984375, -0.630615234375, 0.691406250000, -2.343750000000, -0.835937500000, -6.015625000000, 1490589628
0.564208984375, -0.630615234375, 0.691406250000, -2.343750000000, -0.835937500000, -6.015625000000, 1490589628
0.564208984375, -0.630615234375, 0.691406250000, -2.343750000000, -0.835937500000, -6.015625000000, 1490589628
0.564208984375, -0.630615234375, 0.691406250000, -2.343750000000, -0.835937500000, -6.015625000000, 1490589628
0.573242187500, -0.654296875000, 0.674560546875, -4.015625000000, -2.296875000000, -6.015625000000, 1490589628
0.573242187500, -0.654296875000, 0.674560546875, -4.015625000000, -2.296875000000, -6.015625000000, 1490589628
0.573242187500, -0.654296875000, 0.674560546875, -4.015625000000, -2.296875000000, -6.015625000000, 1490589628
0.573730468750, -0.554199218750, 0.730712890625, -1.140625000000, -2.421875000000, -4.507812500000, 1490589628
0.495361328125, -0.515380859375, 0.768798828125, -3.164062500000, -0.085937500000, -3.250000000000, 1490589628
0.495361328125, -0.515380859375, 0.768798828125, -3.164062500000, -0.085937500000, -3.250000000000, 1490589628
0.495361328125, -0.515380859375, 0.768798828125, -3.164062500000, -0.085937500000, -3.250000000000, 1490589628
0.495361328125, -0.515380859375, 0.768798828125, -3.164062500000, -0.085937500000, -3.250000000000, 1490589628
0.495361328125, -0.515380859375, 0.768798828125, -3.164062500000, -0.085937500000, -3.250000000000, 1490589628
0.480712890625, -0.566894531250, 0.679199218750, -3.484375000000, 2.273437500000, -4.523437500000, 1490589628
0.480712890625, -0.566894531250, 0.679199218750, -3.484375000000, 2.273437500000, -4.523437500000, 1490589628
0.480712890625, -0.566894531250, 0.679199218750, -3.484375000000, 2.273437500000, -4.523437500000, 1490589628
0.480712890625, -0.566894531250, 0.679199218750, -3.484375000000, 2.273437500000, -4.523437500000, 1490589628
0.555419921875, -0.541992187500, 0.688720703125, -6.210937500000, 2.617187500000, -1.335937500000, 1490589628
0.555419921875, -0.541992187500, 0.688720703125, -6.210937500000, 2.617187500000, -1.335937500000, 1490589628
0.555419921875, -0.541992187500, 0.688720703125, -6.210937500000, 2.617187500000, -1.335937500000, 1490589628
0.487548828125, -0.705078125000, 0.690429687500, -3.617187500000, 1.312500000000, -4.476562500000, 1490589628
0.487548828125, -0.705078125000, 0.690429687500, -3.617187500000, 1.312500000000, -4.476562500000, 1490589628
0.487548828125, -0.705078125000, 0.690429687500, -3.617187500000, 1.312500000000, -4.476562500000, 1490589628
0.419921875000, -0.590087890625, 0.711914062500, -3.367187500000, -1.015625000000, -4.625000000000, 1490589628
0.419921875000, -0.590087890625, 0.711914062500, -3.367187500000, -1.015625000000, -4.625000000000, 1490589628
0.419921875000, -0.590087890625, 0.711914062500, -3.367187500000, -1.015625000000, -4.625000000000, 1490589628
0.422119140625, -0.583496093750, 0.686523437500, -4.625000000000, 0.445312500000, -3.132812500000, 1490589628
0.422119140625, -0.583496093750, 0.686523437500, -4.625000000000, 0.445312500000, -3.132812500000, 1490589628
0.422119140625, -0.583496093750, 0.686523437500, -4.625000000000, 0.445312500000, -3.132812500000, 1490589628
0.422119140625, -0.583496093750, 0.686523437500, -4.625000000000, 0.445312500000, -3.132812500000, 1490589628
0.539550781250, -0.581054687500, 0.718261718750, -6.429687500000, -0.328125000000, -3.156250000000, 1490589628
0.539550781250, -0.581054687500, 0.718261718750, -6.429687500000, -0.328125000000, -3.156250000000, 1490589628
0.539550781250, -0.581054687500, 0.718261718750, -6.429687500000, -0.328125000000, -3.156250000000, 1490589628
0.645751953125, -0.546875000000, 0.703125000000, -1.929687500000, 2.289062500000, -1.875000000000, 1490589628
0.480957031250, -0.493896484375, 0.705566406250, -1.210937500000, 0.304687500000, -4.312500000000, 1490589628
0.480957031250, -0.493896484375, 0.705566406250, -1.210937500000, 0.304687500000, -4.312500000000, 1490589628
0.480957031250, -0.493896484375, 0.705566406250, -1.210937500000, 0.304687500000, -4.312500000000, 1490589629
0.480957031250, -0.493896484375, 0.705566406250, -1.210937500000, 0.304687500000, -4.312500000000, 1490589629
0.480957031250, -0.493896484375, 0.705566406250, -1.210937500000, 0.304687500000, -4.312500000000, 1490589629
0.480957031250, -0.493896484375, 0.705566406250, -1.210937500000, 0.304687500000, -4.312500000000, 1490589629
0.500000000000, -0.526611328125, 0.667480468750, -4.570312500000, -0.710937500000, -3.320312500000, 1490589629
0.500000000000, -0.526611328125, 0.667480468750, -4.570312500000, -0.710937500000, -3.320312500000, 1490589629
0.500000000000, -0.526611328125, 0.667480468750, -4.570312500000, -0.710937500000, -3.320312500000, 1490589629
0.499511718750, -0.642089843750, 0.750976562500, -4.054687500000, 0.390625000000, -1.843750000000, 1490589629
0.499511718750, -0.642089843750, 0.750976562500, -4.054687500000, 0.390625000000, -1.843750000000, 1490589629
0.499511718750, -0.642089843750, 0.750976562500, -4.054687500000, 0.390625000000, -1.843750000000, 1490589629
0.500732421875, -0.595214843750, 0.675537109375, -4.789062500000, -0.742187500000, -3.820312500000, 1490589629
0.500732421875, -0.595214843750, 0.675537109375, -4.789062500000, -0.742187500000, -3.820312500000, 1490589629
0.500732421875, -0.595214843750, 0.675537109375, -4.789062500000, -0.742187500000, -3.820312500000, 1490589629
0.545410156250, -0.484619140625, 0.672607421875, -4.312500000000, -2.351562500000, -3.914062500000, 1490589629
0.545410156250, -0.484619140625, 0.672607421875, -4.312500000000, -2.351562500000, -3.914062500000, 1490589629
0.545410156250, -0.484619140625, 0.672607421875, -4.312500000000, -2.351562500000, -3.914062500000, 1490589629
0.588623046875, -0.691406250000, 0.710937500000, -4.101562500000, 0.359375000000, -4.085937500000, 1490589629
0.588623046875, -0.691406250000, 0.710937500000, -4.101562500000, 0.359375000000, -4.085937500000, 1490589629
0.588623046875, -0.691406250000, 0.710937500000, -4.101562500000, 0.359375000000, -4.085937500000, 1490589629
0.487548828125, -0.654541015625, 0.605224609375, -4.953125000000, 0.523437500000, -4.585937500000, 1490589629
0.585449218750, -0.554443359375, 0.714843750000, -4.953125000000, 0.523437500000, -4.585937500000, 1490589629
0.585449218750, -0.554443359375, 0.714843750000, -4.953125000000, 0.523437500000, -4.585937500000, 1490589629
0.585449218750, -0.554443359375, 0.714843750000, -4.953125000000, 0.523437500000, -4.585937500000, 1490589629
0.531982421875, -0.577392578125, 0.678710937500, -3.187500000000, -2.218750000000, -3.023437500000, 1490589629
0.531982421875, -0.577392578125, 0.678710937500, -3.187500000000, -2.218750000000, -3.023437500000, 1490589629
0.531982421875, -0.577392578125, 0.678710937500, -3.187500000000, -2.218750000000, -3.023437500000, 1490589629
0.473632812500, -0.582031250000, 0.696044921875, -1.726562500000, 0.750000000000, -3.585937500000, 1490589629
0.558105468750, -0.551269531250, 0.657470703125, -4.554687500000, -0.656250000000, -4.218750000000, 1490589629
0.558105468750, -0.551269531250, 0.657470703125, -4.554687500000, -0.656250000000, -4.218750000000, 1490589629
0.558105468750, -0.551269531250, 0.657470703125, -4.554687500000, -0.656250000000, -4.218750000000, 1490589629
0.558105468750, -0.551269531250, 0.657470703125, -4.554687500000, -0.656250000000, -4.218750000000, 1490589629
0.558105468750, -0.551269531250, 0.657470703125, -4.554687500000, -0.656250000000, -4.218750000000, 1490589629
0.558105468750, -0.551269531250, 0.657470703125, -4.554687500000, -0.656250000000, -4.218750000000, 1490589629
0.482910156250, -0.481933593750, 0.688720703125, -1.593750000000, 0.460937500000, -4.117187500000, 1490589629
0.482910156250, -0.481933593750, 0.688720703125, -1.593750000000, 0.460937500000, -4.117187500000, 1490589629
0.482910156250, -0.481933593750, 0.688720703125, -1.593750000000, 0.460937500000, -4.117187500000, 1490589629
0.543701171875, -0.546875000000, 0.623535156250, -3.187500000000, -0.789062500000, -3.382812500000, 1490589629
0.543701171875, -0.546875000000, 0.623535156250, -3.187500000000, -0.789062500000, -3.382812500000, 1490589629
0.543701171875, -0.546875000000, 0.623535156250, -3.187500000000, -0.789062500000, -3.382812500000, 1490589629
0.534912109375, -0.640136718750, 0.713378906250, -3.492187500000, 2.242187500000, -4.789062500000, 1490589629
0.534912109375, -0.640136718750, 0.713378906250, -3.492187500000, 2.242187500000, -4.789062500000, 1490589629
0.534912109375, -0.640136718750, 0.713378906250, -3.492187500000, 2.242187500000, -4.789062500000, 1490589629
0.542480468750, -0.647949218750, 0.617675781250, -3.992187500000, -0.648437500000, -4.765625000000, 1490589629
0.542480468750, -0.647949218750, 0.617675781250, -3.992187500000, -0.648437500000, -4.765625000000, 1490589629
0.542480468750, -0.647949218750, 0.617675781250, -3.992187500000, -0.648437500000, -4.765625000000, 1490589629
0.542480468750, -0.647949218750, 0.617675781250, -3.992187500000, -0.648437500000, -4.765625000000, 1490589629
0.508544921875, -0.556640625000, 0.755615234375, -4.617187500000, -0.179687500000, -3.578125000000, 1490589629
0.508544921875, -0.556640625000, 0.755615234375, -4.617187500000, -0.179687500000, -3.578125000000, 1490589629
0.543212890625, -0.516357421875, 0.698974609375, -6.875000000000, 0.734375000000, -6.570312500000, 1490589629
0.544189453125, -0.492675781250, 0.662841796875, -3.593750000000, -0.585937500000, -3.890625000000, 1490589629
0.544189453125, -0.492675781250, 0.662841796875, -3.593750000000, -0.585937500000, -3.890625000000, 1490589629
0.544189453125, -0.492675781250, 0.662841796875, -3.593750000000, -0.585937500000, -3.890625000000, 1490589629
0.613037109375, -0.481201171875, 0.675537109375, -3.171875000000, 2.398437500000, -6.039062500000, 1490589629
0.475830078125, -0.560302734375, 0.621337890625, -3.304687500000, 0.570312500000, -3.351562500000, 1490589629
0.488037109375, -0.519531250000, 0.695800781250, -3.304687500000, 0.570312500000, -3.351562500000, 1490589629
0.488037109375, -0.519531250000, 0.695800781250, -3.304687500000, 0.570312500000, -3.351562500000, 1490589629
0.488037109375, -0.519531250000, 0.695800781250, -3.304687500000, 0.570312500000, -3.351562500000, 1490589629
0.500000000000, -0.471191406250, 0.666748046875, -1.929687500000, 0.226562500000, -3.601562500000, 1490589629
0.500000000000, -0.471191406250, 0.666748046875, -1.929687500000, 0.226562500000, -3.601562500000, 1490589629
0.500000000000, -0.471191406250, 0.666748046875, -1.929687500000, 0.226562500000, -3.601562500000, 1490589629
0.500000000000, -0.471191406250, 0.666748046875, -1.929687500000, 0.226562500000, -3.601562500000, 1490589629
0.500000000000, -0.471191406250, 0.666748046875, -1.929687500000, 0.226562500000, -3.601562500000, 1490589629
0.417236328125, -0.550048828125, 0.603027343750, -1.609375000000, -0.406250000000, -3.382812500000, 1490589629
0.417236328125, -0.550048828125, 0.603027343750, -1.609375000000, -0.406250000000, -3.382812500000, 1490589629
0.417236328125, -0.550048828125, 0.603027343750, -1.609375000000, -0.406250000000, -3.382812500000, 1490589629
0.555664062500, -0.546142578125, 0.683593750000, -3.273437500000, 0.273437500000, -4.476562500000, 1490589630
0.501953125000, -0.572021484375, 0.757568359375, -3.585937500000, 2.210937500000, -2.835937500000, 1490589630
0.501953125000, -0.572021484375, 0.757568359375, -3.585937500000, 2.210937500000, -2.835937500000, 1490589630
0.475097656250, -0.487304687500, 0.775146484375, -3.015625000000, 0.453125000000, -1.734375000000, 1490589630
0.475097656250, -0.487304687500, 0.775146484375, -3.015625000000, 0.453125000000, -1.734375000000, 1490589630
0.475097656250, -0.487304687500, 0.775146484375, -3.015625000000, 0.453125000000, -1.734375000000, 1490589630
0.475097656250, -0.487304687500, 0.775146484375, -3.015625000000, 0.453125000000, -1.734375000000, 1490589630
0.475097656250, -0.487304687500, 0.775146484375, -3.015625000000, 0.453125000000, -1.734375000000, 1490589630
0.475097656250, -0.487304687500, 0.775146484375, -3.015625000000, 0.453125000000, -1.734375000000, 1490589630
0.558349609375, -0.540283203125, 0.677978515625, -6.234375000000, -0.476562500000, -1.898437500000, 1490589630
0.558349609375, -0.540283203125, 0.677978515625, -6.234375000000, -0.476562500000, -1.898437500000, 1490589630
0.558349609375, -0.540283203125, 0.677978515625, -6.234375000000, -0.476562500000, -1.898437500000, 1490589630
0.558349609375, -0.540283203125, 0.677978515625, -6.234375000000, -0.476562500000, -1.898437500000, 1490589630
0.591064453125, -0.602539062500, 0.695068359375, -3.359375000000, 0.820312500000, -3.250000000000, 1490589630
0.591064453125, -0.602539062500, 0.695068359375, -3.359375000000, 0.820312500000, -3.250000000000, 1490589630
0.591064453125, -0.602539062500, 0.695068359375, -3.359375000000, 0.820312500000, -3.250000000000, 1490589630
0.635742187500, -0.574462890625, 0.703613281250, -4.789062500000, 2.273437500000, -4.085937500000, 1490589630
0.635742187500, -0.574462890625, 0.703613281250, -4.789062500000, 2.273437500000, -4.085937500000, 1490589630
0.635742187500, -0.574462890625, 0.703613281250, -4.789062500000, 2.273437500000, -4.085937500000, 1490589630
0.635742187500, -0.574462890625, 0.703613281250, -4.789062500000, 2.273437500000, -4.085937500000, 1490589630
0.530761718750, -0.576416015625, 0.648925781250, -6.390625000000, -0.609375000000, -4.875000000000, 1490589630
0.530761718750, -0.576416015625, 0.648925781250, -6.390625000000, -0.609375000000, -4.875000000000, 1490589630
0.530761718750, -0.576416015625, 0.648925781250, -6.390625000000, -0.609375000000, -4.875000000000, 1490589630
0.643066406250, -0.579101562500, 0.651855468750, -4.203125000000, 2.539062500000, -3.750000000000, 1490589630
0.643066406250, -0.579101562500, 0.651855468750, -4.203125000000, 2.539062500000, -3.750000000000, 1490589630
0.643066406250, -0.579101562500, 0.651855468750, -4.203125000000, 2.539062500000, -3.750000000000, 1490589630
0.533203125000, -0.542968750000, 0.691162109375, -3.148437500000, 2.085937500000, -4.632812500000, 1490589630
0.533203125000, -0.542968750000, 0.691162109375, -3.148437500000, 2.085937500000, -4.632812500000, 1490589630
0.533203125000, -0.542968750000, 0.691162109375, -3.148437500000, 2.085937500000, -4.632812500000, 1490589630
0.556884765625, -0.688232421875, 0.676513671875, -1.250000000000, -2.007812500000, -2.914062500000, 1490589630
0.556884765625, -0.688232421875, 0.676513671875, -1.250000000000, -2.007812500000, -2.914062500000, 1490589630
0.556884765625, -0.688232421875, 0.676513671875, -1.250000000000, -2.007812500000, -2.914062500000, 1490589630
0.556884765625, -0.688232421875, 0.676513671875, -1.250000000000, -2.007812500000, -2.914062500000, 1490589630
0.542480468750, -0.594482421875, 0.667968750000, -1.882812500000, 1.554687500000, -6.898437500000, 1490589630
0.542480468750, -0.594482421875, 0.667968750000, -1.882812500000, 1.554687500000, -6.898437500000, 1490589630
0.542480468750, -0.594482421875, 0.667968750000, -1.882812500000, 1.554687500000, -6.898437500000, 1490589630
0.584472656250, -0.570312500000, 0.645263671875, -4.867187500000, -2.382812500000, -1.148437500000, 1490589630
0.584472656250, -0.570312500000, 0.645263671875, -4.867187500000, -2.382812500000, -1.148437500000, 1490589630
0.584472656250, -0.570312500000, 0.645263671875, -4.867187500000, -2.382812500000, -1.148437500000, 1490589630
0.522949218750, -0.545410156250, 0.694824218750, -3.039062500000, -0.718750000000, -2.960937500000, 1490589630
0.522949218750, -0.545410156250, 0.694824218750, -3.039062500000, -0.718750000000, -2.960937500000, 1490589630
0.522949218750, -0.545410156250, 0.694824218750, -3.039062500000, -0.718750000000, -2.960937500000, 1490589630
0.623291015625, -0.486816406250, 0.778320312500, -4.265625000000, -0.843750000000, -4.921875000000, 1490589630
0.623291015625, -0.486816406250, 0.778320312500, -4.265625000000, -0.843750000000, -4.921875000000, 1490589630
0.623291015625, -0.486816406250, 0.778320312500, -4.265625000000, -0.843750000000, -4.921875000000, 1490589630
0.623291015625, -0.486816406250, 0.778320312500, -4.265625000000, -0.843750000000, -4.921875000000, 1490589630
0.498046875000, -0.639648437500, 0.673339843750, -4.867187500000, -0.625000000000, -3.015625000000, 1490589630
0.498046875000, -0.639648437500, 0.673339843750, -4.867187500000, -0.625000000000, -3.015625000000, 1490589630
0.498046875000, -0.639648437500, 0.673339843750, -4.867187500000, -0.625000000000, -3.015625000000, 1490589630
0.566894531250, -0.583007812500, 0.712402343750, -3.484375000000, 0.804687500000, -1.015625000000, 1490589630
0.566894531250, -0.583007812500, 0.712402343750, -3.484375000000, 0.804687500000, -1.015625000000, 1490589630
0.566894531250, -0.583007812500, 0.712402343750, -3.484375000000, 0.804687500000, -1.015625000000, 1490589630
0.568603515625, -0.537109375000, 0.593994140625, -1.609375000000, 0.546875000000, -6.101562500000, 1490589630
0.568603515625, -0.537109375000, 0.593994140625, -1.609375000000, 0.546875000000, -6.101562500000, 1490589630
0.515625000000, -0.472412109375, 0.709960937500, -4.898437500000, -0.945312500000, -1.648437500000, 1490589630
0.515625000000, -0.472412109375, 0.709960937500, -4.898437500000, -0.945312500000, -1.648437500000, 1490589630
0.515625000000, -0.472412109375, 0.709960937500, -4.898437500000, -0.945312500000, -1.648437500000, 1490589630
0.515625000000, -0.472412109375, 0.709960937500, -4.898437500000, -0.945312500000, -1.648437500000, 1490589630
0.582275390625, -0.562011718750, 0.675048828125, -1.750000000000, 0.992187500000, -3.726562500000, 1490589630
0.539062500000, -0.558593750000, 0.701416015625, -4.632812500000, -0.812500000000, -6.382812500000, 1490589630
0.539062500000, -0.558593750000, 0.701416015625, -4.632812500000, -0.812500000000, -6.382812500000, 1490589630
0.539062500000, -0.558593750000, 0.701416015625, -4.632812500000, -0.812500000000, -6.382812500000, 1490589630
0.510253906250, -0.591308593750, 0.656738281250, -1.960937500000, -2.609375000000, -3.195312500000, 1490589630
0.510253906250, -0.591308593750, 0.656738281250, -1.960937500000, -2.609375000000, -3.195312500000, 1490589630
0.510253906250, -0.591308593750, 0.656738281250, -1.960937500000, -2.609375000000, -3.195312500000, 1490589630
0.565429687500, -0.572509765625, 0.657714843750, -4.234375000000, -0.984375000000, -3.210937500000, 1490589630
0.565429687500, -0.572509765625, 0.657714843750, -4.234375000000, -0.984375000000, -3.210937500000, 1490589630
0.572021484375, -0.579833984375, 0.710449218750, -3.312500000000, 0.914062500000, -4.281250000000, 1490589630
0.572021484375, -0.579833984375, 0.710449218750, -3.312500000000, 0.914062500000, -4.281250000000, 1490589630
0.572021484375, -0.579833984375, 0.710449218750, -3.312500000000, 0.914062500000, -4.281250000000, 1490589631
0.572021484375, -0.579833984375, 0.710449218750, -3.312500000000, 0.914062500000, -4.281250000000, 1490589631
0.572021484375, -0.579833984375, 0.710449218750, -3.312500000000, 0.914062500000, -4.281250000000, 1490589631
0.579833984375, -0.553466796875, 0.706542968750, -6.054687500000, -0.773437500000, -4.242187500000, 1490589631
0.579833984375, -0.553466796875, 0.706542968750, -6.054687500000, -0.773437500000, -4.242187500000, 1490589631
0.579833984375, -0.553466796875, 0.706542968750, -6.054687500000, -0.773437500000, -4.242187500000, 1490589631
0.525146484375, -0.580810546875, 0.704345703125, -4.546875000000, 2.781250000000, -1.914062500000, 1490589631
0.525146484375, -0.580810546875, 0.704345703125, -4.546875000000, 2.781250000000, -1.914062500000, 1490589631
0.525146484375, -0.580810546875, 0.704345703125, -4.546875000000, 2.781250000000, -1.914062500000, 1490589631
0.495849609375, -0.552978515625, 0.650146484375, -3.296875000000, -0.835937500000, -4.406250000000, 1490589631
0.495849609375, -0.552978515625, 0.650146484375, -3.296875000000, -0.835937500000, -4.406250000000, 1490589631
0.495849609375, -0.552978515625, 0.650146484375, -3.296875000000, -0.835937500000, -4.406250000000, 1490589631
0.571044921875, -0.492431640625, 0.686523437500, -3.445312500000, 0.585937500000, -6.507812500000, 1490589631
0.571044921875, -0.492431640625, 0.686523437500, -3.445312500000, 0.585937500000, -6.507812500000, 1490589631
0.571044921875, -0.492431640625, 0.686523437500, -3.445312500000, 0.585937500000, -6.507812500000, 1490589631
0.571044921875, -0.492431640625, 0.686523437500, -3.445312500000, 0.585937500000, -6.507812500000, 1490589631
0.565673828125, -0.644042968750, 0.668701171875, -6.312500000000, -0.023437500000, -6.031250000000, 1490589631
0.565673828125, -0.644042968750, 0.668701171875, -6.312500000000, -0.023437500000, -6.031250000000, 1490589631
0.565673828125, -0.644042968750, 0.668701171875, -6.312500000000, -0.023437500000, -6.031250000000, 1490589631
0.611816406250, -0.587158203125, 0.661132812500, -3.046875000000, -0.656250000000, -1.953125000000, 1490589631
0.611816406250, -0.587158203125, 0.661132812500, -3.046875000000, -0.656250000000, -1.953125000000, 1490589631
0.611816406250, -0.587158203125, 0.661132812500, -3.046875000000, -0.656250000000, -1.953125000000, 1490589631
0.491455078125, -0.591308593750, 0.674072265625, -1.359375000000, 2.132812500000, -4.562500000000, 1490589631
0.491455078125, -0.591308593750, 0.674072265625, -1.359375000000, 2.132812500000, -4.562500000000, 1490589631
0.491455078125, -0.591308593750, 0.674072265625, -1.359375000000, 2.132812500000, -4.562500000000, 1490589631
0.509765625000, -0.492675781250, 0.608398437500, -4.617187500000, 2.406250000000, -6.414062500000, 1490589631
0.509765625000, -0.492675781250, 0.608398437500, -4.617187500000, 2.406250000000, -6.414062500000, 1490589631
0.509765625000, -0.492675781250, 0.608398437500, -4.617187500000, 2.406250000000, -6.414062500000, 1490589631
0.509765625000, -0.492675781250, 0.608398437500, -4.617187500000, 2.406250000000, -6.414062500000, 1490589631
0.485107421875, -0.640625000000, 0.675292968750, -3.296875000000, -2.187500000000, -2.218750000000, 1490589631
0.485107421875, -0.640625000000, 0.675292968750, -3.296875000000, -2.187500000000, -2.218750000000, 1490589631
0.485107421875, -0.640625000000, 0.675292968750, -3.296875000000, -2.187500000000, -2.218750000000, 1490589631
0.499511718750, -0.489013671875, 0.618652343750, -3.187500000000, 0.718750000000, -3.226562500000, 1490589631
0.499511718750, -0.489013671875, 0.618652343750, -3.187500000000, 0.718750000000, -3.226562500000, 1490589631
0.499511718750, -0.489013671875, 0.618652343750, -3.187500000000, 0.718750000000, -3.226562500000, 1490589631
0.498779296875, -0.632080078125, 0.680419921875, -3.312500000000, -0.906250000000, -1.750000000000, 1490589631
0.498779296875, -0.632080078125, 0.680419921875, -3.312500000000, -0.906250000000, -1.750000000000, 1490589631
0.498779296875, -0.632080078125, 0.680419921875, -3.312500000000, -0.906250000000, -1.750000000000, 1490589631
0.498779296875, -0.632080078125, 0.680419921875, -3.312500000000, -0.906250000000, -1.750000000000, 1490589631
0.498779296875, -0.632080078125, 0.680419921875, -3.312500000000, -0.906250000000, -1.750000000000, 1490589631
0.643554687500, -0.586181640625, 0.682861328125, -4.445312500000, 0.085937500000, -6.093750000000, 1490589631
0.643554687500, -0.586181640625, 0.682861328125, -4.445312500000, 0.085937500000, -6.093750000000, 1490589631
0.643554687500, -0.586181640625, 0.682861328125, -4.445312500000, 0.085937500000, -6.093750000000, 1490589631
0.643554687500, -0.586181640625, 0.682861328125, -4.445312500000, 0.085937500000, -6.093750000000, 1490589631
0.637939453125, -0.552978515625, 0.668701171875, -4.750000000000, 0.835937500000, -2.781250000000, 1490589631
0.637939453125, -0.552978515625, 0.668701171875, -4.750000000000, 0.835937500000, -2.781250000000, 1490589631
0.431884765625, -0.590820312500, 0.685791015625, -1.984375000000, 0.906250000000, -4.695312500000, 1490589631
0.431884765625, -0.590820312500, 0.685791015625, -1.984375000000, 0.906250000000, -4.695312500000, 1490589631
0.431884765625, -0.590820312500, 0.685791015625, -1.984375000000, 0.906250000000, -4.695312500000, 1490589631
0.431884765625, -0.590820312500, 0.685791015625, -1.984375000000, 0.906250000000, -4.695312500000, 1490589631
0.427978515625, -0.492919921875, 0.698486328125, -3.687500000000, 0.554687500000, -4.789062500000, 1490589631
0.427978515625, -0.492919921875, 0.698486328125, -3.687500000000, 0.554687500000, -4.789062500000, 1490589631
0.427978515625, -0.492919921875, 0.698486328125, -3.687500000000, 0.554687500000, -4.789062500000, 1490589631
0.427978515625, -0.492919921875, 0.698486328125, -3.687500000000, 0.554687500000, -4.789062500000, 1490589631
0.607421875000, -0.487060546875, 0.616455078125, -1.234375000000, -0.804687500000, -4.960937500000, 1490589631
0.479980468750, -0.573974609375, 0.613769531250, -1.234375000000, -0.804687500000, -4.960937500000, 1490589631
0.479980468750, -0.573974609375, 0.613769531250, -1.234375000000, -0.804687500000, -4.960937500000, 1490589631
0.479980468750, -0.573974609375, 0.613769531250, -1.234375000000, -0.804687500000, -4.960937500000, 1490589631
0.493408203125, -0.496093750000, 0.690673828125, -6.265625000000, -0.328125000000, -1.875000000000, 1490589631
0.493408203125, -0.496093750000, 0.690673828125, -6.265625000000, -0.328125000000, -1.875000000000, 1490589631
0.493408203125, -0.496093750000, 0.690673828125, -6.265625000000, -0.328125000000, -1.875000000000, 1490589631
