ACC_X,ACC_Y,ACC_Z,G_X,G_Y,G_Z,Unix Time
0.272949218750, -1.004150390625, 0.451660156250, -4.359375000000, -2.820312500000, -6.421875000000, 1490588688
0.272949218750, -1.004150390625, 0.451660156250, -4.359375000000, -2.820312500000, -6.421875000000, 1490588688
0.272949218750, -1.004150390625, 0.451660156250, -4.359375000000, -2.820312500000, -6.421875000000, 1490588688
0.147705078125, -0.883544921875, 0.509277343750, -3.085937500000, -1.515625000000, -3.843750000000, 1490588688
0.145263671875, -0.801513671875, 0.430908203125, -4.226562500000, -3.460937500000, -4.195312500000, 1490588688
0.145263671875, -0.801513671875, 0.430908203125, -4.226562500000, -3.460937500000, -4.195312500000, 1490588688
0.145263671875, -0.801513671875, 0.430908203125, -4.226562500000, -3.460937500000, -4.195312500000, 1490588688
0.035156250000, -0.988525390625, 0.506103515625, -1.554687500000, -6.007812500000, -6.132812500000, 1490588688
0.035156250000, -0.988525390625, 0.506103515625, -1.554687500000, -6.007812500000, -6.132812500000, 1490588688
0.115478515625, -0.931396484375, 0.443847656250, -3.796875000000, -3.117187500000, -3.585937500000, 1490588688
0.115478515625, -0.931396484375, 0.443847656250, -3.796875000000, -3.117187500000, -3.585937500000, 1490588688
0.115478515625, -0.931396484375, 0.443847656250, -3.796875000000, -3.117187500000, -3.585937500000, 1490588688
0.115478515625, -0.931396484375, 0.443847656250, -3.796875000000, -3.117187500000, -3.585937500000, 1490588688
0.108886718750, -1.010986328125, 0.451904296875, -3.640625000000, -3.304687500000, -3.664062500000, 1490588688
0.108886718750, -1.010986328125, 0.451904296875, -3.640625000000, -3.304687500000, -3.664062500000, 1490588688
0.108886718750, -1.010986328125, 0.451904296875, -3.640625000000, -3.304687500000, -3.664062500000, 1490588688
0.108886718750, -1.010986328125, 0.451904296875, -3.640625000000, -3.304687500000, -3.664062500000, 1490588688
0.173095703125, -0.855468750000, 0.465576171875, -6.242187500000, -6.945312500000, -5.179687500000, 1490588688
0.173095703125, -0.855468750000, 0.465576171875, -6.242187500000, -6.945312500000, -5.179687500000, 1490588688
0.173095703125, -0.855468750000, 0.465576171875, -6.242187500000, -6.945312500000, -5.179687500000, 1490588688
0.188964843750, -0.961181640625, 0.432617187500, -8.898437500000, -2.851562500000, -8.234375000000, 1490588688
0.188964843750, -0.961181640625, 0.432617187500, -8.898437500000, -2.851562500000, -8.234375000000, 1490588688
0.188964843750, -0.961181640625, 0.432617187500, -8.898437500000, -2.851562500000, -8.234375000000, 1490588688
0.191406250000, -0.941650390625, 0.517089843750, 2.726562500000, -3.046875000000, -3.718750000000, 1490588688
0.191406250000, -0.941650390625, 0.517089843750, 2.726562500000, -3.046875000000, -3.718750000000, 1490588688
0.191406250000, -0.941650390625, 0.517089843750, 2.726562500000, -3.046875000000, -3.718750000000, 1490588688
0.135009765625, -0.912597656250, 0.423339843750, -4.757812500000, -3.968750000000, -8.781250000000, 1490588688
0.135009765625, -0.912597656250, 0.423339843750, -4.757812500000, -3.968750000000, -8.781250000000, 1490588688
0.135009765625, -0.912597656250, 0.423339843750, -4.757812500000, -3.968750000000, -8.781250000000, 1490588688
0.135009765625, -0.912597656250, 0.423339843750, -4.757812500000, -3.968750000000, -8.781250000000, 1490588688
0.141845703125, -0.905761718750, 0.485351562500, -4.859375000000, -8.281250000000, -8.179687500000, 1490588688
0.141845703125, -0.905761718750, 0.485351562500, -4.859375000000, -8.281250000000, -8.179687500000, 1490588688
0.141845703125, -0.905761718750, 0.485351562500, -4.859375000000, -8.281250000000, -8.179687500000, 1490588688
0.052490234375, -0.958496093750, 0.427978515625, -4.898437500000, -6.875000000000, -5.765625000000, 1490588688
0.052490234375, -0.958496093750, 0.427978515625, -4.898437500000, -6.875000000000, -5.765625000000, 1490588688
0.052490234375, -0.958496093750, 0.427978515625, -4.898437500000, -6.875000000000, -5.765625000000, 1490588688
0.083740234375, -0.853515625000, 0.417480468750, -10.585937500000, -5.531250000000, -6.703125000000, 1490588688
0.083740234375, -0.853515625000, 0.417480468750, -10.585937500000, -5.531250000000, -6.703125000000, 1490588688
0.197509765625, -0.905273437500, 0.511474609375, -6.671875000000, -3.218750000000, -5.531250000000, 1490588688
0.197509765625, -0.905273437500, 0.511474609375, -6.671875000000, -3.218750000000, -5.531250000000, 1490588688
0.197509765625, -0.905273437500, 0.511474609375, -6.671875000000, -3.218750000000, -5.531250000000, 1490588688
0.197509765625, -0.905273437500, 0.511474609375, -6.671875000000, -3.218750000000, -5.531250000000, 1490588688
0.197509765625, -0.905273437500, 0.511474609375, -6.671875000000, -3.218750000000, -5.531250000000, 1490588688
0.107177734375, -1.014892578125, 0.448242187500, -3.453125000000, -3.109375000000, -3.445312500000, 1490588688
0.107177734375, -1.014892578125, 0.448242187500, -3.453125000000, -3.109375000000, -3.445312500000, 1490588688
0.107177734375, -1.014892578125, 0.448242187500, -3.453125000000, -3.109375000000, -3.445312500000, 1490588688
0.107177734375, -1.014892578125, 0.448242187500, -3.453125000000, -3.109375000000, -3.445312500000, 1490588688
0.107177734375, -1.014892578125, 0.448242187500, -3.453125000000, -3.109375000000, -3.445312500000, 1490588688
0.107177734375, -1.014892578125, 0.448242187500, -3.453125000000, -3.109375000000, -3.445312500000, 1490588688
0.113281250000, -0.942138671875, 0.410400390625, -6.242187500000, 0.023437500000, -3.359375000000, 1490588689
0.113281250000, -0.942138671875, 0.410400390625, -6.242187500000, 0.023437500000, -3.359375000000, 1490588689
0.113281250000, -0.942138671875, 0.410400390625, -6.242187500000, 0.023437500000, -3.359375000000, 1490588689
0.113281250000, -0.942138671875, 0.410400390625, -6.242187500000, 0.023437500000, -3.359375000000, 1490588689
0.113281250000, -0.942138671875, 0.410400390625, -6.242187500000, 0.023437500000, -3.359375000000, 1490588689
0.120849609375, -1.006103515625, 0.496582031250, -5.679687500000, -0.484375000000, -3.304687500000, 1490588689
0.120849609375, -1.006103515625, 0.496582031250, -5.679687500000, -0.484375000000, -3.304687500000, 1490588689
0.120849609375, -1.006103515625, 0.496582031250, -5.679687500000, -0.484375000000, -3.304687500000, 1490588689
0.120849609375, -1.006103515625, 0.496582031250, -5.679687500000, -0.484375000000, -3.304687500000, 1490588689
0.120849609375, -1.006103515625, 0.496582031250, -5.679687500000, -0.484375000000, -3.304687500000, 1490588689
0.165283203125, -0.955566406250, 0.451904296875, -6.203125000000, 1.054687500000, -1.359375000000, 1490588689
0.165283203125, -0.955566406250, 0.451904296875, -6.203125000000, 1.054687500000, -1.359375000000, 1490588689
0.165283203125, -0.955566406250, 0.451904296875, -6.203125000000, 1.054687500000, -1.359375000000, 1490588689
0.234375000000, -0.950927734375, 0.465332031250, 2.281250000000, 0.820312500000, -2.671875000000, 1490588689
0.234375000000, -0.950927734375, 0.465332031250, 2.281250000000, 0.820312500000, -2.671875000000, 1490588689
0.234375000000, -0.950927734375, 0.465332031250, 2.281250000000, 0.820312500000, -2.671875000000, 1490588689
0.267089843750, -0.895507812500, 0.334472656250, 4.234375000000, -3.015625000000, -4.367187500000, 1490588689
0.267089843750, -0.895507812500, 0.334472656250, 4.234375000000, -3.015625000000, -4.367187500000, 1490588689
0.267089843750, -0.895507812500, 0.334472656250, 4.234375000000, -3.015625000000, -4.367187500000, 1490588689
0.267089843750, -0.895507812500, 0.334472656250, 4.234375000000, -3.015625000000, -4.367187500000, 1490588689
0.271484375000, -0.938964843750, 0.372314453125, 6.304687500000, -3.609375000000, -1.898437500000, 1490588689
0.271484375000, -0.938964843750, 0.372314453125, 6.304687500000, -3.609375000000, -1.898437500000, 1490588689
0.271484375000, -0.938964843750, 0.372314453125, 6.304687500000, -3.609375000000, -1.898437500000, 1490588689
0.251708984375, -0.844238281250, 0.425537109375, -2.140625000000, -2.382812500000, -3.179687500000, 1490588689
0.251708984375, -0.844238281250, 0.425537109375, -2.140625000000, -2.382812500000, -3.179687500000, 1490588689
0.251708984375, -0.844238281250, 0.425537109375, -2.140625000000, -2.382812500000, -3.179687500000, 1490588689
0.152343750000, -0.935058593750, 0.501220703125, 0.437500000000, 10.570312500000, -6.500000000000, 1490588689
0.152343750000, -0.935058593750, 0.501220703125, 0.437500000000, 10.570312500000, -6.500000000000, 1490588689
0.152343750000, -0.935058593750, 0.501220703125, 0.437500000000, 10.570312500000, -6.500000000000, 1490588689
0.131835937500, -0.947265625000, 0.420898437500, 2.976562500000, 2.617187500000, -14.164062500000, 1490588689
0.131835937500, -0.947265625000, 0.420898437500, 2.976562500000, 2.617187500000, -14.164062500000, 1490588689
0.131835937500, -0.947265625000, 0.420898437500, 2.976562500000, 2.617187500000, -14.164062500000, 1490588689
0.131835937500, -0.947265625000, 0.420898437500, 2.976562500000, 2.617187500000, -14.164062500000, 1490588689
0.154541015625, -0.899414062500, 0.500976562500, -3.195312500000, -2.273437500000, -14.515625000000, 1490588689
0.154541015625, -0.899414062500, 0.500976562500, -3.195312500000, -2.273437500000, -14.515625000000, 1490588689
0.154541015625, -0.899414062500, 0.500976562500, -3.195312500000, -2.273437500000, -14.515625000000, 1490588689
0.203125000000, -0.914306640625, 0.420166015625, -2.101562500000, 4.054687500000, -14.742187500000, 1490588689
0.203125000000, -0.914306640625, 0.420166015625, -2.101562500000, 4.054687500000, -14.742187500000, 1490588689
0.203125000000, -0.914306640625, 0.420166015625, -2.101562500000, 4.054687500000, -14.742187500000, 1490588689
-0.006103515625, -0.956054687500, 0.455322265625, -6.765625000000, 9.695312500000, -12.460937500000, 1490588689
-0.006103515625, -0.956054687500, 0.455322265625, -6.765625000000, 9.695312500000, -12.460937500000, 1490588689
-0.006103515625, -0.956054687500, 0.455322265625, -6.765625000000, 9.695312500000, -12.460937500000, 1490588689
0.051513671875, -0.955078125000, 0.459716796875, -3.382812500000, 7.210937500000, -16.539062500000, 1490588689
0.051513671875, -0.955078125000, 0.459716796875, -3.382812500000, 7.210937500000, -16.539062500000, 1490588689
0.051513671875, -0.955078125000, 0.459716796875, -3.382812500000, 7.210937500000, -16.539062500000, 1490588689
0.051513671875, -0.955078125000, 0.459716796875, -3.382812500000, 7.210937500000, -16.539062500000, 1490588689
0.065917968750, -0.923339843750, 0.513671875000, -6.687500000000, 6.921875000000, -10.968750000000, 1490588689
0.065917968750, -0.923339843750, 0.513671875000, -6.687500000000, 6.921875000000, -10.968750000000, 1490588689
0.065917968750, -0.923339843750, 0.513671875000, -6.687500000000, 6.921875000000, -10.968750000000, 1490588689
0.141845703125, -0.965332031250, 0.462646484375, -4.500000000000, 3.867187500000, -9.367187500000, 1490588689
0.141845703125, -0.965332031250, 0.462646484375, -4.500000000000, 3.867187500000, -9.367187500000, 1490588689
0.141845703125, -0.965332031250, 0.462646484375, -4.500000000000, 3.867187500000, -9.367187500000, 1490588689
0.089355468750, -0.858642578125, 0.414062500000, -4.007812500000, 1.320312500000, -7.882812500000, 1490588689
0.089355468750, -0.858642578125, 0.414062500000, -4.007812500000, 1.320312500000, -7.882812500000, 1490588689
0.089355468750, -0.858642578125, 0.414062500000, -4.007812500000, 1.320312500000, -7.882812500000, 1490588689
-0.020751953125, -0.936035156250, 0.508544921875, -4.976562500000, -5.203125000000, -9.312500000000, 1490588689
-0.020751953125, -0.936035156250, 0.508544921875, -4.976562500000, -5.203125000000, -9.312500000000, 1490588689
-0.020751953125, -0.936035156250, 0.508544921875, -4.976562500000, -5.203125000000, -9.312500000000, 1490588689
0.093505859375, -1.021728515625, 0.346191406250, -1.828125000000, -5.359375000000, -10.570312500000, 1490588689
0.093505859375, -1.021728515625, 0.346191406250, -1.828125000000, -5.359375000000, -10.570312500000, 1490588689
0.093505859375, -1.021728515625, 0.346191406250, -1.828125000000, -5.359375000000, -10.570312500000, 1490588689
0.056884765625, -0.958251953125, 0.461669921875, -1.234375000000, -8.117187500000, -9.992187500000, 1490588689
0.056884765625, -0.958251953125, 0.461669921875, -1.234375000000, -8.117187500000, -9.992187500000, 1490588689
0.056884765625, -0.958251953125, 0.461669921875, -1.234375000000, -8.117187500000, -9.992187500000, 1490588689
0.056884765625, -0.958251953125, 0.461669921875, -1.234375000000, -8.117187500000, -9.992187500000, 1490588689
0.059326171875, -0.905517578125, 0.459960937500, -1.335937500000, -8.992187500000, -7.421875000000, 1490588689
0.059326171875, -0.905517578125, 0.459960937500, -1.335937500000, -8.992187500000, -7.421875000000, 1490588689
0.059326171875, -0.905517578125, 0.459960937500, -1.335937500000, -8.992187500000, -7.421875000000, 1490588689
0.042968750000, -0.861572265625, 0.349609375000, -2.906250000000, -7.101562500000, -5.757812500000, 1490588690
0.042968750000, -0.861572265625, 0.349609375000, -2.906250000000, -7.101562500000, -5.757812500000, 1490588690
0.042968750000, -0.861572265625, 0.349609375000, -2.906250000000, -7.101562500000, -5.757812500000, 1490588690
0.042968750000, -0.861572265625, 0.349609375000, -2.906250000000, -7.101562500000, -5.757812500000, 1490588690
0.085449218750, -0.937255859375, 0.363037109375, -2.296875000000, -7.281250000000, -5.835937500000, 1490588690
0.040039062500, -1.016845703125, 0.429199218750, -6.406250000000, -6.789062500000, -6.101562500000, 1490588690
0.040039062500, -1.016845703125, 0.429199218750, -6.406250000000, -6.789062500000, -6.101562500000, 1490588690
0.040039062500, -1.016845703125, 0.429199218750, -6.406250000000, -6.789062500000, -6.101562500000, 1490588690
0.040039062500, -1.016845703125, 0.429199218750, -6.406250000000, -6.789062500000, -6.101562500000, 1490588690
0.040039062500, -1.016845703125, 0.429199218750, -6.406250000000, -6.789062500000, -6.101562500000, 1490588690
0.127441406250, -0.856201171875, 0.432617187500, -5.765625000000, 0.742187500000, -4.109375000000, 1490588690
0.127441406250, -0.856201171875, 0.432617187500, -5.765625000000, 0.742187500000, -4.109375000000, 1490588690
0.127441406250, -0.856201171875, 0.432617187500, -5.765625000000, 0.742187500000, -4.109375000000, 1490588690
0.032226562500, -1.022460937500, 0.418701171875, 1.710937500000, 0.265625000000, -2.273437500000, 1490588690
0.032226562500, -1.022460937500, 0.418701171875, 1.710937500000, 0.265625000000, -2.273437500000, 1490588690
0.032226562500, -1.022460937500, 0.418701171875, 1.710937500000, 0.265625000000, -2.273437500000, 1490588690
0.032226562500, -1.022460937500, 0.418701171875, 1.710937500000, 0.265625000000, -2.273437500000, 1490588690
0.052978515625, -0.906738281250, 0.502441406250, -5.820312500000, 0.570312500000, -0.578125000000, 1490588690
0.052978515625, -0.906738281250, 0.502441406250, -5.820312500000, 0.570312500000, -0.578125000000, 1490588690
0.052978515625, -0.906738281250, 0.502441406250, -5.820312500000, 0.570312500000, -0.578125000000, 1490588690
-0.041748046875, -0.939453125000, 0.413574218750, -6.960937500000, 1.546875000000, 1.125000000000, 1490588690
-0.041748046875, -0.939453125000, 0.413574218750, -6.960937500000, 1.546875000000, 1.125000000000, 1490588690
-0.041748046875, -0.939453125000, 0.413574218750, -6.960937500000, 1.546875000000, 1.125000000000, 1490588690
0.137695312500, -0.905273437500, 0.517089843750, -3.281250000000, 4.976562500000, 1.234375000000, 1490588690
0.137695312500, -0.905273437500, 0.517089843750, -3.281250000000, 4.976562500000, 1.234375000000, 1490588690
0.137695312500, -0.905273437500, 0.517089843750, -3.281250000000, 4.976562500000, 1.234375000000, 1490588690
0.078125000000, -0.850585937500, 0.419921875000, -4.695312500000, 2.453125000000, 2.921875000000, 1490588690
0.078125000000, -0.850585937500, 0.419921875000, -4.695312500000, 2.453125000000, 2.921875000000, 1490588690
0.078125000000, -0.850585937500, 0.419921875000, -4.695312500000, 2.453125000000, 2.921875000000, 1490588690
0.078125000000, -0.850585937500, 0.419921875000, -4.695312500000, 2.453125000000, 2.921875000000, 1490588690
0.080322265625, -0.948974609375, 0.434814453125, -6.882812500000, 1.117187500000, -0.539062500000, 1490588690
0.080322265625, -0.948974609375, 0.434814453125, -6.882812500000, 1.117187500000, -0.539062500000, 1490588690
0.056640625000, -0.968505859375, 0.473876953125, -7.234375000000, 1.078125000000, 2.898437500000, 1490588690
0.056640625000, -0.968505859375, 0.473876953125, -7.234375000000, 1.078125000000, 2.898437500000, 1490588690
0.056640625000, -0.968505859375, 0.473876953125, -7.234375000000, 1.078125000000, 2.898437500000, 1490588690
0.056640625000, -0.968505859375, 0.473876953125, -7.234375000000, 1.078125000000, 2.898437500000, 1490588690
0.145019531250, -0.927001953125, 0.455566406250, -4.835937500000, 6.945312500000, 1.484375000000, 1490588690
0.145019531250, -0.927001953125, 0.455566406250, -4.835937500000, 6.945312500000, 1.484375000000, 1490588690
0.145019531250, -0.927001953125, 0.455566406250, -4.835937500000, 6.945312500000, 1.484375000000, 1490588690
0.067871093750, -0.806396484375, 0.418701171875, -5.937500000000, 6.023437500000, 1.171875000000, 1490588690
0.067871093750, -0.806396484375, 0.418701171875, -5.937500000000, 6.023437500000, 1.171875000000, 1490588690
0.135009765625, -0.953369140625, 0.345458984375, -4.593750000000, 6.093750000000, 0.507812500000, 1490588690
0.135009765625, -0.953369140625, 0.345458984375, -4.593750000000, 6.093750000000, 0.507812500000, 1490588690
0.135009765625, -0.953369140625, 0.345458984375, -4.593750000000, 6.093750000000, 0.507812500000, 1490588690
0.135009765625, -0.953369140625, 0.345458984375, -4.593750000000, 6.093750000000, 0.507812500000, 1490588690
0.138427734375, -0.939208984375, 0.415527343750, -2.992187500000, 4.039062500000, -0.820312500000, 1490588690
0.138427734375, -0.939208984375, 0.415527343750, -2.992187500000, 4.039062500000, -0.820312500000, 1490588690
0.138427734375, -0.939208984375, 0.415527343750, -2.992187500000, 4.039062500000, -0.820312500000, 1490588690
0.138427734375, -0.939208984375, 0.415527343750, -2.992187500000, 4.039062500000, -0.820312500000, 1490588690
0.107421875000, -0.852050781250, 0.450195312500, -3.101562500000, 4.632812500000, 2.648437500000, 1490588690
0.107421875000, -0.852050781250, 0.450195312500, -3.101562500000, 4.632812500000, 2.648437500000, 1490588690
0.107421875000, -0.852050781250, 0.450195312500, -3.101562500000, 4.632812500000, 2.648437500000, 1490588690
0.143554687500, -0.966796875000, 0.507568359375, -2.460937500000, 1.843750000000, 1.804687500000, 1490588690
0.143554687500, -0.966796875000, 0.507568359375, -2.460937500000, 1.843750000000, 1.804687500000, 1490588690
0.143554687500, -0.966796875000, 0.507568359375, -2.460937500000, 1.843750000000, 1.804687500000, 1490588690
0.143554687500, -0.966796875000, 0.507568359375, -2.460937500000, 1.843750000000, 1.804687500000, 1490588690
0.101562500000, -1.070800781250, 0.365234375000, -5.367187500000, 4.312500000000, 3.179687500000, 1490588690
0.101562500000, -1.070800781250, 0.365234375000, -5.367187500000, 4.312500000000, 3.179687500000, 1490588690
0.101562500000, -1.070800781250, 0.365234375000, -5.367187500000, 4.312500000000, 3.179687500000, 1490588690
0.125000000000, -0.963623046875, 0.392822265625, -3.257812500000, 3.960937500000, 3.875000000000, 1490588690
0.125000000000, -0.963623046875, 0.392822265625, -3.257812500000, 3.960937500000, 3.875000000000, 1490588690
0.125000000000, -0.963623046875, 0.392822265625, -3.257812500000, 3.960937500000, 3.875000000000, 1490588690
0.209960937500, -0.873535156250, 0.433349609375, 0.476562500000, 6.820312500000, 1.820312500000, 1490588690
0.209960937500, -0.873535156250, 0.433349609375, 0.476562500000, 6.820312500000, 1.820312500000, 1490588690
0.209960937500, -0.873535156250, 0.433349609375, 0.476562500000, 6.820312500000, 1.820312500000, 1490588690
0.178466796875, -0.921630859375, 0.446289062500, -4.023437500000, 5.281250000000, 1.843750000000, 1490588690
0.122070312500, -0.946289062500, 0.506103515625, 1.382812500000, 2.078125000000, 2.906250000000, 1490588691
0.122070312500, -0.946289062500, 0.506103515625, 1.382812500000, 2.078125000000, 2.906250000000, 1490588691
0.122070312500, -0.946289062500, 0.506103515625, 1.382812500000, 2.078125000000, 2.906250000000, 1490588691
0.122070312500, -0.946289062500, 0.506103515625, 1.382812500000, 2.078125000000, 2.906250000000, 1490588691
0.124267578125, -0.865966796875, 0.406738281250, -4.218750000000, -2.281250000000, -2.953125000000, 1490588691
0.200195312500, -1.013427734375, 0.406005859375, -4.218750000000, -2.281250000000, -2.953125000000, 1490588691
0.220947265625, -0.900634765625, 0.362548828125, -2.476562500000, -4.007812500000, -4.796875000000, 1490588691
0.109863281250, -0.938964843750, 0.374267578125, 0.484375000000, -3.976562500000, -4.140625000000, 1490588691
0.109863281250, -0.938964843750, 0.374267578125, 0.484375000000, -3.976562500000, -4.140625000000, 1490588691
0.109863281250, -0.938964843750, 0.374267578125, 0.484375000000, -3.976562500000, -4.140625000000, 1490588691
0.109863281250, -0.938964843750, 0.374267578125, 0.484375000000, -3.976562500000, -4.140625000000, 1490588691
0.109863281250, -0.938964843750, 0.374267578125, 0.484375000000, -3.976562500000, -4.140625000000, 1490588691
0.179199218750, -0.938476562500, 0.437988281250, 2.742187500000, -2.257812500000, -10.789062500000, 1490588691
0.179199218750, -0.938476562500, 0.437988281250, 2.742187500000, -2.257812500000, -10.789062500000, 1490588691
0.179199218750, -0.938476562500, 0.437988281250, 2.742187500000, -2.257812500000, -10.789062500000, 1490588691
0.179199218750, -0.938476562500, 0.437988281250, 2.742187500000, -2.257812500000, -10.789062500000, 1490588691
0.182617187500, -1.014892578125, 0.458740234375, 2.742187500000, -2.187500000000, -16.101562500000, 1490588691
0.182617187500, -1.014892578125, 0.458740234375, 2.742187500000, -2.187500000000, -16.101562500000, 1490588691
0.182617187500, -1.014892578125, 0.458740234375, 2.742187500000, -2.187500000000, -16.101562500000, 1490588691
0.044189453125, -0.995361328125, 0.454101562500, 6.476562500000, 0.734375000000, -18.039062500000, 1490588691
0.044189453125, -0.995361328125, 0.454101562500, 6.476562500000, 0.734375000000, -18.039062500000, 1490588691
0.044189453125, -0.995361328125, 0.454101562500, 6.476562500000, 0.734375000000, -18.039062500000, 1490588691
0.074707031250, -0.849365234375, 0.388427734375, 4.250000000000, -4.757812500000, -24.953125000000, 1490588691
0.074707031250, -0.849365234375, 0.388427734375, 4.250000000000, -4.757812500000, -24.953125000000, 1490588691
0.074707031250, -0.849365234375, 0.388427734375, 4.250000000000, -4.757812500000, -24.953125000000, 1490588691
-0.011230468750, -0.875488281250, 0.267089843750, 10.656250000000, -15.570312500000, -32.773437500000, 1490588691
-0.011230468750, -0.875488281250, 0.267089843750, 10.656250000000, -15.570312500000, -32.773437500000, 1490588691
-0.043945312500, -0.921875000000, 0.377685546875, 27.562500000000, -36.187500000000, -52.531250000000, 1490588691
-0.043945312500, -0.921875000000, 0.377685546875, 27.562500000000, -36.187500000000, -52.531250000000, 1490588691
-0.043945312500, -0.921875000000, 0.377685546875, 27.562500000000, -36.187500000000, -52.531250000000, 1490588691
-0.043945312500, -0.921875000000, 0.377685546875, 27.562500000000, -36.187500000000, -52.531250000000, 1490588691
-0.043945312500, -0.921875000000, 0.377685546875, 27.562500000000, -36.187500000000, -52.531250000000, 1490588691
-0.053955078125, -0.965332031250, 0.314941406250, 22.257812500000, -37.695312500000, -58.195312500000, 1490588691
-0.053955078125, -0.965332031250, 0.314941406250, 19.648437500000, -39.906250000000, -58.132812500000, 1490588691
-0.138671875000, -1.056152343750, 0.339355468750, 9.875000000000, -32.218750000000, -48.367187500000, 1490588691
-0.138671875000, -1.056152343750, 0.339355468750, 9.875000000000, -32.218750000000, -48.367187500000, 1490588691
-0.138671875000, -1.056152343750, 0.339355468750, 9.875000000000, -32.218750000000, -48.367187500000, 1490588691
-0.138671875000, -1.056152343750, 0.339355468750, 9.875000000000, -32.218750000000, -48.367187500000, 1490588691
-0.025878906250, -1.039550781250, 0.401367187500, -16.171875000000, -13.632812500000, -12.296875000000, 1490588691
-0.025878906250, -1.039550781250, 0.401367187500, -16.171875000000, -13.632812500000, -12.296875000000, 1490588691
-0.025878906250, -1.039550781250, 0.401367187500, -16.171875000000, -13.632812500000, -12.296875000000, 1490588691
-0.025878906250, -1.039550781250, 0.401367187500, -16.171875000000, -13.632812500000, -12.296875000000, 1490588691
0.030761718750, -1.006103515625, 0.286865234375, -23.578125000000, -0.109375000000, 9.554687500000, 1490588691
0.030761718750, -1.006103515625, 0.286865234375, -23.578125000000, -0.109375000000, 9.554687500000, 1490588691
0.030761718750, -1.006103515625, 0.286865234375, -23.578125000000, -0.109375000000, 9.554687500000, 1490588691
-0.081054687500, -0.856933593750, 0.365478515625, -27.656250000000, 9.554687500000, 19.859375000000, 1490588691
-0.081054687500, -0.856933593750, 0.365478515625, -27.656250000000, 9.554687500000, 19.859375000000, 1490588691
-0.081054687500, -0.856933593750, 0.365478515625, -27.656250000000, 9.554687500000, 19.859375000000, 1490588691
-0.102294921875, -0.955078125000, 0.286132812500, -27.132812500000, 8.882812500000, 17.484375000000, 1490588691
-0.102294921875, -0.955078125000, 0.286132812500, -27.132812500000, 8.882812500000, 17.484375000000, 1490588691
-0.102294921875, -0.955078125000, 0.286132812500, -27.132812500000, 8.882812500000, 17.484375000000, 1490588691
-0.105957031250, -0.915527343750, 0.249511718750, -29.093750000000, 1.617187500000, 18.851562500000, 1490588691
-0.105957031250, -0.915527343750, 0.249511718750, -29.093750000000, 1.617187500000, 18.851562500000, 1490588691
-0.105957031250, -0.915527343750, 0.249511718750, -29.093750000000, 1.617187500000, 18.851562500000, 1490588691
-0.105957031250, -0.915527343750, 0.249511718750, -29.093750000000, 1.617187500000, 18.851562500000, 1490588691
-0.053955078125, -1.020996093750, 0.328613281250, -21.453125000000, -3.398437500000, 9.742187500000, 1490588691
-0.053955078125, -1.020996093750, 0.328613281250, -21.453125000000, -3.398437500000, 9.742187500000, 1490588691
-0.053955078125, -1.020996093750, 0.328613281250, -21.453125000000, -3.398437500000, 9.742187500000, 1490588691
-0.145751953125, -0.941162109375, 0.305175781250, -19.234375000000, -5.421875000000, 10.867187500000, 1490588691
-0.206054687500, -0.935546875000, 0.297607421875, -8.664062500000, -25.312500000000, 1.492187500000, 1490588691
-0.206054687500, -0.935546875000, 0.297607421875, -8.664062500000, -25.312500000000, 1.492187500000, 1490588691
-0.206054687500, -0.935546875000, 0.297607421875, -8.664062500000, -25.312500000000, 1.492187500000, 1490588691
-0.206054687500, -0.935546875000, 0.297607421875, -8.664062500000, -25.312500000000, 1.492187500000, 1490588691
-0.206054687500, -0.935546875000, 0.297607421875, -8.664062500000, -25.312500000000, 1.492187500000, 1490588691
-0.040039062500, -0.939453125000, 0.324218750000, -6.070312500000, -33.656250000000, 2.250000000000, 1490588691
-0.144531250000, -0.835937500000, 0.280517578125, 0.695312500000, -31.828125000000, -4.593750000000, 1490588691
-0.144531250000, -0.835937500000, 0.280517578125, 0.695312500000, -31.828125000000, -4.593750000000, 1490588691
-0.144531250000, -0.835937500000, 0.280517578125, 0.695312500000, -31.828125000000, -4.593750000000, 1490588692
-0.063476562500, -0.942138671875, 0.283691406250, 9.421875000000, -41.687500000000, -1.328125000000, 1490588692
-0.063476562500, -0.942138671875, 0.283691406250, 9.421875000000, -41.687500000000, -1.328125000000, 1490588692
-0.012695312500, -0.799804687500, 0.356933593750, 29.531250000000, -33.992187500000, 3.906250000000, 1490588692
-0.012695312500, -0.799804687500, 0.356933593750, 29.531250000000, -33.992187500000, 3.906250000000, 1490588692
-0.012695312500, -0.799804687500, 0.356933593750, 29.531250000000, -33.992187500000, 3.906250000000, 1490588692
-0.012695312500, -0.799804687500, 0.356933593750, 29.531250000000, -33.992187500000, 3.906250000000, 1490588692
0.302246093750, -0.919677734375, 0.387207031250, 41.867187500000, -27.265625000000, 16.968750000000, 1490588692
0.302246093750, -0.919677734375, 0.387207031250, 41.867187500000, -27.265625000000, 16.968750000000, 1490588692
0.302246093750, -0.919677734375, 0.387207031250, 41.867187500000, -27.265625000000, 16.968750000000, 1490588692
0.306396484375, -1.178955078125, 0.592529296875, 17.859375000000, -8.781250000000, 46.960937500000, 1490588692
0.306396484375, -1.178955078125, 0.592529296875, 17.859375000000, -8.781250000000, 46.960937500000, 1490588692
0.306396484375, -1.178955078125, 0.592529296875, 17.859375000000, -8.781250000000, 46.960937500000, 1490588692
0.306396484375, -1.178955078125, 0.592529296875, 17.859375000000, -8.781250000000, 46.960937500000, 1490588692
0.508300781250, -1.118164062500, 0.569091796875, 15.945312500000, -15.507812500000, 36.750000000000, 1490588692
0.508300781250, -1.118164062500, 0.569091796875, 15.945312500000, -15.507812500000, 36.750000000000, 1490588692
0.508300781250, -1.118164062500, 0.569091796875, 15.945312500000, -15.507812500000, 36.750000000000, 1490588692
0.395019531250, -1.019531250000, 0.427001953125, 4.171875000000, -9.304687500000, 25.226562500000, 1490588692
0.395019531250, -1.019531250000, 0.427001953125, 4.171875000000, -9.304687500000, 25.226562500000, 1490588692
0.395019531250, -1.019531250000, 0.427001953125, 4.171875000000, -9.304687500000, 25.226562500000, 1490588692
0.177246093750, -0.714843750000, 0.343505859375, 3.187500000000, 7.226562500000, 9.804687500000, 1490588692
0.328125000000, -0.814453125000, 0.296142578125, -6.335937500000, 20.734375000000, 1.226562500000, 1490588692
0.328125000000, -0.814453125000, 0.296142578125, -6.335937500000, 20.734375000000, 1.226562500000, 1490588692
0.328125000000, -0.814453125000, 0.296142578125, -6.335937500000, 20.734375000000, 1.226562500000, 1490588692
0.463134765625, -0.810058593750, 0.394287109375, -16.804687500000, 4.664062500000, 1.101562500000, 1490588692
0.463134765625, -0.810058593750, 0.394287109375, -16.804687500000, 4.664062500000, 1.101562500000, 1490588692
0.463134765625, -0.810058593750, 0.394287109375, -16.804687500000, 4.664062500000, 1.101562500000, 1490588692
0.463134765625, -0.810058593750, 0.394287109375, -16.804687500000, 4.664062500000, 1.101562500000, 1490588692
0.390625000000, -0.801025390625, 0.322509765625, -3.242187500000, -6.484375000000, 4.851562500000, 1490588692
0.350585937500, -0.863769531250, 0.340820312500, -3.242187500000, -6.484375000000, 4.851562500000, 1490588692
0.350585937500, -0.863769531250, 0.340820312500, -3.242187500000, -6.484375000000, 4.851562500000, 1490588692
0.350585937500, -0.863769531250, 0.340820312500, 0.843750000000, -10.304687500000, 5.617187500000, 1490588692
0.284179687500, -0.851318359375, 0.246093750000, -3.953125000000, -13.187500000000, 5.593750000000, 1490588692
0.284179687500, -0.851318359375, 0.246093750000, -3.953125000000, -13.187500000000, 5.593750000000, 1490588692
0.284179687500, -0.851318359375, 0.246093750000, -3.953125000000, -13.187500000000, 5.593750000000, 1490588692
0.284179687500, -0.851318359375, 0.246093750000, -3.953125000000, -13.187500000000, 5.593750000000, 1490588692
0.254394531250, -0.949951171875, 0.327148437500, -16.687500000000, -32.132812500000, -5.109375000000, 1490588692
0.254394531250, -0.949951171875, 0.327148437500, -16.687500000000, -32.132812500000, -5.109375000000, 1490588692
0.254394531250, -0.949951171875, 0.327148437500, -16.687500000000, -32.132812500000, -5.109375000000, 1490588692
0.254394531250, -0.949951171875, 0.327148437500, -16.687500000000, -32.132812500000, -5.109375000000, 1490588692
0.405273437500, -1.000488281250, 0.349853515625, -22.953125000000, -23.437500000000, -14.742187500000, 1490588692
0.405273437500, -1.000488281250, 0.349853515625, -22.953125000000, -23.437500000000, -14.742187500000, 1490588692
0.405273437500, -1.000488281250, 0.349853515625, -22.953125000000, -23.437500000000, -14.742187500000, 1490588692
0.443115234375, -0.785156250000, 0.282226562500, -23.460937500000, -0.257812500000, -12.984375000000, 1490588692
0.443115234375, -0.785156250000, 0.282226562500, -23.460937500000, -0.257812500000, -12.984375000000, 1490588692
0.443115234375, -0.785156250000, 0.282226562500, -23.460937500000, -0.257812500000, -12.984375000000, 1490588692
0.447753906250, -0.906250000000, 0.214111328125, -24.015625000000, 4.687500000000, -10.609375000000, 1490588692
0.447753906250, -0.906250000000, 0.214111328125, -24.015625000000, 4.687500000000, -10.609375000000, 1490588692
0.447753906250, -0.906250000000, 0.214111328125, -24.015625000000, 4.687500000000, -10.609375000000, 1490588692
0.396240234375, -0.784179687500, 0.274658203125, 8.414062500000, 11.781250000000, -9.796875000000, 1490588692
0.396240234375, -0.784179687500, 0.274658203125, 8.414062500000, 11.781250000000, -9.796875000000, 1490588692
0.396240234375, -0.784179687500, 0.274658203125, 8.414062500000, 11.781250000000, -9.796875000000, 1490588692
0.396240234375, -0.784179687500, 0.274658203125, 8.414062500000, 11.781250000000, -9.796875000000, 1490588692
0.225585937500, -0.876464843750, 0.183105468750, -3.507812500000, 16.578125000000, -18.375000000000, 1490588692
0.225585937500, -0.876464843750, 0.183105468750, -3.507812500000, 16.578125000000, -18.375000000000, 1490588692
0.225585937500, -0.876464843750, 0.183105468750, -3.507812500000, 16.578125000000, -18.375000000000, 1490588692
0.195068359375, -0.944091796875, 0.201171875000, 7.171875000000, 15.085937500000, -28.757812500000, 1490588692
0.195068359375, -0.944091796875, 0.201171875000, 7.171875000000, 15.085937500000, -28.757812500000, 1490588692
0.195068359375, -0.944091796875, 0.201171875000, 7.171875000000, 15.085937500000, -28.757812500000, 1490588692
0.150634765625, -0.866210937500, 0.271240234375, 19.226562500000, 6.054687500000, -44.601562500000, 1490588692
0.150634765625, -0.866210937500, 0.271240234375, 19.226562500000, 6.054687500000, -44.601562500000, 1490588692
0.150634765625, -0.866210937500, 0.271240234375, 19.226562500000, 6.054687500000, -44.601562500000, 1490588692
0.051269531250, -0.958740234375, 0.302246093750, 44.460937500000, 23.382812500000, -56.625000000000, 1490588692
0.051269531250, -0.958740234375, 0.302246093750, 44.460937500000, 23.382812500000, -56.625000000000, 1490588692
0.051269531250, -0.958740234375, 0.302246093750, 44.460937500000, 23.382812500000, -56.625000000000, 1490588692
0.051269531250, -0.958740234375, 0.302246093750, 44.460937500000, 23.382812500000, -56.625000000000, 1490588692
0.133544921875, -1.127685546875, 0.505126953125, 48.640625000000, 21.468750000000, -62.765625000000, 1490588692
0.133544921875, -1.127685546875, 0.505126953125, 48.640625000000, 21.468750000000, -62.765625000000, 1490588692
0.133544921875, -1.127685546875, 0.505126953125, 48.640625000000, 21.468750000000, -62.765625000000, 1490588693
0.075195312500, -1.266845703125, 0.477294921875, 16.273437500000, 30.429687500000, -56.570312500000, 1490588693
0.075195312500, -1.266845703125, 0.477294921875, 16.273437500000, 30.429687500000, -56.570312500000, 1490588693
0.075195312500, -1.266845703125, 0.477294921875, 16.273437500000, 30.429687500000, -56.570312500000, 1490588693
0.147216796875, -0.952148437500, 0.393554687500, -20.773437500000, 18.218750000000, -7.828125000000, 1490588693
0.067871093750, -0.875244140625, 0.285888671875, -7.203125000000, 3.382812500000, -3.164062500000, 1490588693
0.067871093750, -0.875244140625, 0.285888671875, -7.203125000000, 3.382812500000, -3.164062500000, 1490588693
0.067871093750, -0.875244140625, 0.285888671875, -7.203125000000, 3.382812500000, -3.164062500000, 1490588693
0.067871093750, -0.875244140625, 0.285888671875, -7.203125000000, 3.382812500000, -3.164062500000, 1490588693
0.067871093750, -0.875244140625, 0.285888671875, -7.203125000000, 3.382812500000, -3.164062500000, 1490588693
-0.142089843750, -0.787597656250, 0.283203125000, -15.476562500000, 18.140625000000, -4.093750000000, 1490588693
-0.142089843750, -0.787597656250, 0.283203125000, -15.476562500000, 18.140625000000, -4.093750000000, 1490588693
-0.142089843750, -0.787597656250, 0.283203125000, -15.476562500000, 18.140625000000, -4.093750000000, 1490588693
-0.142089843750, -0.787597656250, 0.283203125000, -15.476562500000, 18.140625000000, -4.093750000000, 1490588693
-0.080810546875, -0.971435546875, 0.313720703125, -10.398437500000, 27.695312500000, -2.414062500000, 1490588693
-0.080810546875, -0.971435546875, 0.313720703125, -10.398437500000, 27.695312500000, -2.414062500000, 1490588693
-0.080810546875, -0.971435546875, 0.313720703125, -10.398437500000, 27.695312500000, -2.414062500000, 1490588693
-0.080810546875, -0.971435546875, 0.313720703125, -10.398437500000, 27.695312500000, -2.414062500000, 1490588693
-0.080810546875, -0.971435546875, 0.313720703125, -10.398437500000, 27.695312500000, -2.414062500000, 1490588693
-0.121337890625, -0.984130859375, 0.318603515625, -18.718750000000, 43.445312500000, 3.578125000000, 1490588693
-0.096191406250, -0.947265625000, 0.332275390625, -28.031250000000, 40.921875000000, 9.492187500000, 1490588693
-0.096191406250, -0.947265625000, 0.332275390625, -28.031250000000, 40.921875000000, 9.492187500000, 1490588693
-0.096191406250, -0.947265625000, 0.332275390625, -28.031250000000, 40.921875000000, 9.492187500000, 1490588693
-0.096191406250, -0.947265625000, 0.332275390625, -28.031250000000, 40.921875000000, 9.492187500000, 1490588693
-0.096191406250, -0.947265625000, 0.332275390625, -28.031250000000, 40.921875000000, 9.492187500000, 1490588693
-0.047607421875, -0.896972656250, 0.278320312500, -25.539062500000, 32.859375000000, 10.796875000000, 1490588693
-0.047607421875, -0.896972656250, 0.278320312500, -25.539062500000, 32.859375000000, 10.796875000000, 1490588693
-0.047607421875, -0.896972656250, 0.278320312500, -25.539062500000, 32.859375000000, 10.796875000000, 1490588693
-0.047607421875, -0.896972656250, 0.278320312500, -25.539062500000, 32.859375000000, 10.796875000000, 1490588693
-0.047607421875, -0.896972656250, 0.278320312500, -25.539062500000, 32.859375000000, 10.796875000000, 1490588693
-0.272705078125, -0.922119140625, 0.269531250000, -16.906250000000, 7.351562500000, 14.125000000000, 1490588693
-0.272705078125, -0.922119140625, 0.269531250000, -16.906250000000, 7.351562500000, 14.125000000000, 1490588693
-0.272705078125, -0.922119140625, 0.269531250000, -16.906250000000, 7.351562500000, 14.125000000000, 1490588693
-0.095703125000, -1.031250000000, 0.246582031250, -11.250000000000, -17.617187500000, 6.375000000000, 1490588693
-0.095703125000, -1.031250000000, 0.246582031250, -11.250000000000, -17.617187500000, 6.375000000000, 1490588693
-0.095703125000, -1.031250000000, 0.246582031250, -11.250000000000, -17.617187500000, 6.375000000000, 1490588693
-0.095703125000, -1.031250000000, 0.246582031250, -11.250000000000, -17.617187500000, 6.375000000000, 1490588693
-0.193115234375, -0.857421875000, 0.340332031250, -16.281250000000, -45.843750000000, 0.906250000000, 1490588693
-0.193115234375, -0.857421875000, 0.340332031250, -16.281250000000, -45.843750000000, 0.906250000000, 1490588693
-0.193115234375, -0.857421875000, 0.340332031250, -16.281250000000, -45.843750000000, 0.906250000000, 1490588693
-0.199951171875, -0.914306640625, 0.279052734375, -17.437500000000, -64.156250000000, -7.250000000000, 1490588693
-0.199951171875, -0.914306640625, 0.279052734375, -17.437500000000, -64.156250000000, -7.250000000000, 1490588693
-0.199951171875, -0.914306640625, 0.279052734375, -17.437500000000, -64.156250000000, -7.250000000000, 1490588693
-0.120605468750, -0.961181640625, 0.167968750000, -5.273437500000, -80.007812500000, -9.742187500000, 1490588693
-0.120605468750, -0.961181640625, 0.167968750000, -5.273437500000, -80.007812500000, -9.742187500000, 1490588693
-0.120605468750, -0.961181640625, 0.167968750000, -5.273437500000, -80.007812500000, -9.742187500000, 1490588693
-0.015625000000, -0.868164062500, 0.166992187500, 3.843750000000, -78.523437500000, -7.242187500000, 1490588693
-0.015625000000, -0.868164062500, 0.166992187500, 3.843750000000, -78.523437500000, -7.242187500000, 1490588693
-0.015625000000, -0.868164062500, 0.166992187500, 3.843750000000, -78.523437500000, -7.242187500000, 1490588693
-0.015625000000, -0.868164062500, 0.166992187500, 3.843750000000, -78.523437500000, -7.242187500000, 1490588693
-0.039306640625, -0.948730468750, 0.303222656250, 10.742187500000, -53.648437500000, 9.750000000000, 1490588693
-0.039306640625, -0.948730468750, 0.303222656250, 10.742187500000, -53.648437500000, 9.750000000000, 1490588693
-0.039306640625, -0.948730468750, 0.303222656250, 10.742187500000, -53.648437500000, 9.750000000000, 1490588693
0.115966796875, -0.806640625000, 0.232666015625, 0.382812500000, -20.843750000000, 20.953125000000, 1490588693
0.146972656250, -0.903808593750, 0.250732421875, 0.382812500000, -20.843750000000, 20.953125000000, 1490588693
0.146972656250, -0.903808593750, 0.250732421875, 0.382812500000, -20.843750000000, 20.953125000000, 1490588693
0.146972656250, -0.903808593750, 0.250732421875, 0.382812500000, -20.843750000000, 20.953125000000, 1490588693
0.134765625000, -0.891845703125, 0.247314453125, -1.195312500000, -18.781250000000, 23.406250000000, 1490588693
0.349853515625, -1.141357421875, 0.287597656250, 21.250000000000, 11.718750000000, 32.070312500000, 1490588693
0.349853515625, -1.141357421875, 0.287597656250, 21.250000000000, 11.718750000000, 32.070312500000, 1490588693
0.349853515625, -1.141357421875, 0.287597656250, 21.250000000000, 11.718750000000, 32.070312500000, 1490588693
0.349853515625, -1.141357421875, 0.287597656250, 21.250000000000, 11.718750000000, 32.070312500000, 1490588693
0.349853515625, -1.141357421875, 0.287597656250, 21.250000000000, 11.718750000000, 32.070312500000, 1490588693
0.328857421875, -1.120361328125, 0.510253906250, 20.578125000000, -27.289062500000, 13.593750000000, 1490588693
0.328857421875, -1.120361328125, 0.510253906250, 20.578125000000, -27.289062500000, 13.593750000000, 1490588693
0.328857421875, -1.120361328125, 0.510253906250, 20.578125000000, -27.289062500000, 13.593750000000, 1490588693
0.345703125000, -0.969482421875, 0.399414062500, 3.664062500000, -8.601562500000, 12.906250000000, 1490588694
0.345703125000, -0.969482421875, 0.399414062500, 3.664062500000, -8.601562500000, 12.906250000000, 1490588694
0.345703125000, -0.969482421875, 0.399414062500, 3.664062500000, -8.601562500000, 12.906250000000, 1490588694
0.368652343750, -1.040527343750, 0.382324218750, -13.382812500000, -15.085937500000, 0.093750000000, 1490588694
0.368652343750, -1.040527343750, 0.382324218750, -13.382812500000, -15.085937500000, 0.093750000000, 1490588694
0.368652343750, -1.040527343750, 0.382324218750, -13.382812500000, -15.085937500000, 0.093750000000, 1490588694
0.283447265625, -0.945800781250, 0.283447265625, 2.718750000000, 13.734375000000, 0.757812500000, 1490588694
0.283447265625, -0.945800781250, 0.283447265625, 2.718750000000, 13.734375000000, 0.757812500000, 1490588694
0.283447265625, -0.945800781250, 0.283447265625, 2.718750000000, 13.734375000000, 0.757812500000, 1490588694
0.283447265625, -0.945800781250, 0.283447265625, 2.718750000000, 13.734375000000, 0.757812500000, 1490588694
0.293701171875, -0.863769531250, 0.375244140625, -18.273437500000, 20.046875000000, 0.531250000000, 1490588694
0.293701171875, -0.863769531250, 0.375244140625, -18.273437500000, 20.046875000000, 0.531250000000, 1490588694
0.293701171875, -0.863769531250, 0.375244140625, -18.273437500000, 20.046875000000, 0.531250000000, 1490588694
0.275634765625, -0.878417968750, 0.340576171875, -18.578125000000, 14.382812500000, -1.632812500000, 1490588694
0.275634765625, -0.878417968750, 0.340576171875, -18.578125000000, 14.382812500000, -1.632812500000, 1490588694
0.275634765625, -0.878417968750, 0.340576171875, -18.578125000000, 14.382812500000, -1.632812500000, 1490588694
0.184082031250, -0.871582031250, 0.398193359375, -19.414062500000, -2.062500000000, -5.218750000000, 1490588694
0.184082031250, -0.871582031250, 0.398193359375, -19.414062500000, -2.062500000000, -5.218750000000, 1490588694
0.184082031250, -0.871582031250, 0.398193359375, -19.414062500000, -2.062500000000, -5.218750000000, 1490588694
0.253173828125, -0.875000000000, 0.307373046875, -16.289062500000, -18.156250000000, -10.226562500000, 1490588694
0.253173828125, -0.875000000000, 0.307373046875, -16.289062500000, -18.156250000000, -10.226562500000, 1490588694
0.253173828125, -0.875000000000, 0.307373046875, -16.289062500000, -18.156250000000, -10.226562500000, 1490588694
0.253173828125, -0.875000000000, 0.307373046875, -16.289062500000, -18.156250000000, -10.226562500000, 1490588694
0.160888671875, -0.954589843750, 0.388671875000, -25.679687500000, -23.453125000000, -7.835937500000, 1490588694
0.160888671875, -0.954589843750, 0.388671875000, -25.679687500000, -23.453125000000, -7.835937500000, 1490588694
0.160888671875, -0.954589843750, 0.388671875000, -25.679687500000, -23.453125000000, -7.835937500000, 1490588694
0.274169921875, -0.803955078125, 0.337158203125, -16.523437500000, -21.617187500000, -10.226562500000, 1490588694
0.274169921875, -0.803955078125, 0.337158203125, -16.523437500000, -21.617187500000, -10.226562500000, 1490588694
0.274169921875, -0.803955078125, 0.337158203125, -16.523437500000, -21.617187500000, -10.226562500000, 1490588694
0.306884765625, -0.849365234375, 0.292968750000, -16.804687500000, -16.820312500000, -8.062500000000, 1490588694
0.306884765625, -0.849365234375, 0.292968750000, -16.804687500000, -16.820312500000, -8.062500000000, 1490588694
0.306884765625, -0.849365234375, 0.292968750000, -16.804687500000, -16.820312500000, -8.062500000000, 1490588694
0.339111328125, -0.872314453125, 0.257080078125, 0.617187500000, -12.460937500000, -7.882812500000, 1490588694
0.339111328125, -0.872314453125, 0.257080078125, 0.617187500000, -12.460937500000, -7.882812500000, 1490588694
0.339111328125, -0.872314453125, 0.257080078125, 0.617187500000, -12.460937500000, -7.882812500000, 1490588694
0.339111328125, -0.872314453125, 0.257080078125, 0.617187500000, -12.460937500000, -7.882812500000, 1490588694
0.305664062500, -0.962890625000, 0.342529296875, 3.710937500000, -2.164062500000, -8.773437500000, 1490588694
0.305664062500, -0.962890625000, 0.342529296875, 3.710937500000, -2.164062500000, -8.773437500000, 1490588694
0.305664062500, -0.962890625000, 0.342529296875, 3.710937500000, -2.164062500000, -8.773437500000, 1490588694
0.353027343750, -0.926513671875, 0.236083984375, 6.539062500000, 5.117187500000, -3.054687500000, 1490588694
0.353027343750, -0.926513671875, 0.236083984375, 6.539062500000, 5.117187500000, -3.054687500000, 1490588694
0.353027343750, -0.926513671875, 0.236083984375, 6.539062500000, 5.117187500000, -3.054687500000, 1490588694
0.322998046875, -0.928466796875, 0.273437500000, 3.335937500000, 19.695312500000, 0.210937500000, 1490588694
0.322998046875, -0.928466796875, 0.273437500000, 3.335937500000, 19.695312500000, 0.210937500000, 1490588694
0.322998046875, -0.928466796875, 0.273437500000, 3.335937500000, 19.695312500000, 0.210937500000, 1490588694
0.166748046875, -0.989257812500, 0.191406250000, 17.843750000000, 30.031250000000, -6.046875000000, 1490588694
0.166748046875, -0.989257812500, 0.191406250000, 17.843750000000, 30.031250000000, -6.046875000000, 1490588694
0.166748046875, -0.989257812500, 0.191406250000, 17.843750000000, 30.031250000000, -6.046875000000, 1490588694
0.166748046875, -0.989257812500, 0.191406250000, 17.843750000000, 30.031250000000, -6.046875000000, 1490588694
0.210205078125, -0.919921875000, 0.182128906250, 10.195312500000, 36.195312500000, -10.640625000000, 1490588694
0.210205078125, -0.919921875000, 0.182128906250, 10.195312500000, 36.195312500000, -10.640625000000, 1490588694
0.210205078125, -0.919921875000, 0.182128906250, 10.195312500000, 36.195312500000, -10.640625000000, 1490588694
0.250732421875, -0.903076171875, 0.224365234375, 3.171875000000, 35.554687500000, -11.562500000000, 1490588694
0.145263671875, -1.029785156250, 0.294921875000, 5.617187500000, 28.156250000000, -28.921875000000, 1490588694
0.145263671875, -1.029785156250, 0.294921875000, 5.617187500000, 28.156250000000, -28.921875000000, 1490588694
0.145263671875, -1.029785156250, 0.294921875000, 5.617187500000, 28.156250000000, -28.921875000000, 1490588694
0.145263671875, -1.029785156250, 0.294921875000, 5.617187500000, 28.156250000000, -28.921875000000, 1490588694
0.087890625000, -1.026855468750, 0.290527343750, 4.320312500000, 21.750000000000, -25.937500000000, 1490588694
0.052978515625, -1.066162109375, 0.300048828125, 3.843750000000, 19.148437500000, -30.148437500000, 1490588694
0.052978515625, -1.066162109375, 0.300048828125, 3.843750000000, 19.148437500000, -30.148437500000, 1490588694
0.052978515625, -1.066162109375, 0.300048828125, 3.843750000000, 19.148437500000, -30.148437500000, 1490588694
0.052978515625, -1.066162109375, 0.300048828125, 3.843750000000, 19.148437500000, -30.148437500000, 1490588694
0.086669921875, -0.862548828125, 0.401367187500, 1.289062500000, 20.031250000000, -25.429687500000, 1490588694
0.086669921875, -0.862548828125, 0.401367187500, 1.289062500000, 20.031250000000, -25.429687500000, 1490588694
0.086669921875, -0.862548828125, 0.401367187500, 1.289062500000, 20.031250000000, -25.429687500000, 1490588694
0.035156250000, -1.063232421875, 0.292236328125, -10.609375000000, 19.554687500000, -20.781250000000, 1490588694
0.035156250000, -1.063232421875, 0.292236328125, -10.609375000000, 19.554687500000, -20.781250000000, 1490588694
0.035156250000, -1.063232421875, 0.292236328125, -10.609375000000, 19.554687500000, -20.781250000000, 1490588695
0.014648437500, -0.924560546875, 0.423339843750, -5.507812500000, 23.070312500000, -9.570312500000, 1490588695
0.014648437500, -0.924560546875, 0.423339843750, -5.507812500000, 23.070312500000, -9.570312500000, 1490588695
0.014648437500, -0.924560546875, 0.423339843750, -5.507812500000, 23.070312500000, -9.570312500000, 1490588695
0.092285156250, -1.069580078125, 0.378417968750, -17.664062500000, 23.890625000000, -9.554687500000, 1490588695
0.092285156250, -1.069580078125, 0.378417968750, -17.664062500000, 23.890625000000, -9.554687500000, 1490588695
0.092285156250, -1.069580078125, 0.378417968750, -17.664062500000, 23.890625000000, -9.554687500000, 1490588695
0.092285156250, -1.069580078125, 0.378417968750, -17.664062500000, 23.890625000000, -9.554687500000, 1490588695
-0.004882812500, -0.932617187500, 0.462158203125, -26.390625000000, 20.773437500000, -0.804687500000, 1490588695
-0.004882812500, -0.932617187500, 0.462158203125, -26.390625000000, 20.773437500000, -0.804687500000, 1490588695
-0.004882812500, -0.932617187500, 0.462158203125, -26.390625000000, 20.773437500000, -0.804687500000, 1490588695
0.090820312500, -0.923583984375, 0.413574218750, -17.164062500000, 19.804687500000, 6.625000000000, 1490588695
0.090820312500, -0.923583984375, 0.413574218750, -17.164062500000, 19.804687500000, 6.625000000000, 1490588695
0.090820312500, -0.923583984375, 0.413574218750, -17.164062500000, 19.804687500000, 6.625000000000, 1490588695
0.081298828125, -0.934082031250, 0.450195312500, -21.023437500000, 21.664062500000, 7.640625000000, 1490588695
0.081298828125, -0.934082031250, 0.450195312500, -21.023437500000, 21.664062500000, 7.640625000000, 1490588695
0.081298828125, -0.934082031250, 0.450195312500, -21.023437500000, 21.664062500000, 7.640625000000, 1490588695
0.089111328125, -0.906005859375, 0.374267578125, -25.101562500000, 38.968750000000, 20.820312500000, 1490588695
0.089111328125, -0.906005859375, 0.374267578125, -25.101562500000, 38.968750000000, 20.820312500000, 1490588695
0.089111328125, -0.906005859375, 0.374267578125, -25.101562500000, 38.968750000000, 20.820312500000, 1490588695
0.089111328125, -0.906005859375, 0.374267578125, -25.101562500000, 38.968750000000, 20.820312500000, 1490588695
-0.081298828125, -0.943359375000, 0.297851562500, -32.632812500000, 42.867187500000, 21.882812500000, 1490588695
-0.081298828125, -0.943359375000, 0.297851562500, -32.632812500000, 42.867187500000, 21.882812500000, 1490588695
-0.081298828125, -0.943359375000, 0.297851562500, -32.632812500000, 42.867187500000, 21.882812500000, 1490588695
-0.010253906250, -0.882324218750, 0.311767578125, -24.195312500000, 43.132812500000, 25.148437500000, 1490588695
-0.010253906250, -0.882324218750, 0.311767578125, -24.195312500000, 43.132812500000, 25.148437500000, 1490588695
-0.010253906250, -0.882324218750, 0.311767578125, -24.195312500000, 43.132812500000, 25.148437500000, 1490588695
0.122070312500, -1.033691406250, 0.388427734375, -7.585937500000, 37.382812500000, 23.968750000000, 1490588695
0.122070312500, -1.033691406250, 0.388427734375, -7.585937500000, 37.382812500000, 23.968750000000, 1490588695
0.122070312500, -1.033691406250, 0.388427734375, -7.585937500000, 37.382812500000, 23.968750000000, 1490588695
0.117919921875, -0.879638671875, 0.367675781250, -4.898437500000, 7.554687500000, 17.617187500000, 1490588695
0.117919921875, -0.879638671875, 0.367675781250, -4.898437500000, 7.554687500000, 17.617187500000, 1490588695
0.117919921875, -0.879638671875, 0.367675781250, -4.898437500000, 7.554687500000, 17.617187500000, 1490588695
0.117919921875, -0.879638671875, 0.367675781250, -4.898437500000, 7.554687500000, 17.617187500000, 1490588695
0.037353515625, -0.875732421875, 0.438720703125, 8.273437500000, -8.406250000000, 9.351562500000, 1490588695
0.037353515625, -0.875732421875, 0.438720703125, 8.273437500000, -8.406250000000, 9.351562500000, 1490588695
0.037353515625, -0.875732421875, 0.438720703125, 8.273437500000, -8.406250000000, 9.351562500000, 1490588695
0.120117187500, -0.962158203125, 0.441894531250, -8.593750000000, -12.390625000000, -0.851562500000, 1490588695
0.120117187500, -0.962158203125, 0.441894531250, -8.593750000000, -12.390625000000, -0.851562500000, 1490588695
0.120117187500, -0.962158203125, 0.441894531250, -8.593750000000, -12.390625000000, -0.851562500000, 1490588695
0.054199218750, -0.985107421875, 0.305908203125, -0.875000000000, -12.500000000000, -8.125000000000, 1490588695
0.054199218750, -0.985107421875, 0.305908203125, -0.875000000000, -12.500000000000, -8.125000000000, 1490588695
0.054199218750, -0.985107421875, 0.305908203125, -0.875000000000, -12.500000000000, -8.125000000000, 1490588695
0.105957031250, -0.955566406250, 0.336181640625, -8.500000000000, -6.484375000000, -0.742187500000, 1490588695
0.105957031250, -0.955566406250, 0.336181640625, -8.500000000000, -6.484375000000, -0.742187500000, 1490588695
0.105957031250, -0.955566406250, 0.336181640625, -8.500000000000, -6.484375000000, -0.742187500000, 1490588695
0.105957031250, -0.955566406250, 0.336181640625, -8.500000000000, -6.484375000000, -0.742187500000, 1490588695
0.251464843750, -1.020751953125, 0.400146484375, -6.843750000000, 0.257812500000, -0.562500000000, 1490588695
0.251464843750, -1.020751953125, 0.400146484375, -6.843750000000, 0.257812500000, -0.562500000000, 1490588695
0.251464843750, -1.020751953125, 0.400146484375, -6.843750000000, 0.257812500000, -0.562500000000, 1490588695
0.087890625000, -1.001220703125, 0.364501953125, -8.484375000000, -2.554687500000, -1.312500000000, 1490588695
0.087890625000, -1.001220703125, 0.364501953125, -8.484375000000, -2.554687500000, -1.312500000000, 1490588695
0.087890625000, -1.001220703125, 0.364501953125, -8.484375000000, -2.554687500000, -1.312500000000, 1490588695
0.212158203125, -0.906005859375, 0.329345703125, -6.851562500000, -3.859375000000, -2.640625000000, 1490588695
0.212158203125, -0.906005859375, 0.329345703125, -6.851562500000, -3.859375000000, -2.640625000000, 1490588695
0.212158203125, -0.906005859375, 0.329345703125, -6.851562500000, -3.859375000000, -2.640625000000, 1490588695
0.066894531250, -1.072265625000, 0.341796875000, -11.539062500000, -3.515625000000, -4.585937500000, 1490588695
0.066894531250, -1.072265625000, 0.341796875000, -11.539062500000, -3.515625000000, -4.585937500000, 1490588695
0.066894531250, -1.072265625000, 0.341796875000, -11.539062500000, -3.515625000000, -4.585937500000, 1490588695
0.066894531250, -1.072265625000, 0.341796875000, -11.539062500000, -3.515625000000, -4.585937500000, 1490588695
0.156250000000, -0.938232421875, 0.375976562500, -13.703125000000, 2.109375000000, -2.523437500000, 1490588695
0.156250000000, -0.938232421875, 0.375976562500, -13.703125000000, 2.109375000000, -2.523437500000, 1490588695
0.114257812500, -1.010986328125, 0.347656250000, -13.828125000000, -2.265625000000, -2.414062500000, 1490588696
0.108886718750, -0.936523437500, 0.328857421875, -16.367187500000, -3.671875000000, -2.273437500000, 1490588696
0.108886718750, -0.936523437500, 0.328857421875, -16.367187500000, -3.671875000000, -2.273437500000, 1490588696
0.108886718750, -0.936523437500, 0.328857421875, -16.367187500000, -3.671875000000, -2.273437500000, 1490588696
0.108886718750, -0.936523437500, 0.328857421875, -16.367187500000, -3.671875000000, -2.273437500000, 1490588696
0.108886718750, -0.936523437500, 0.328857421875, -16.367187500000, -3.671875000000, -2.273437500000, 1490588696
0.129882812500, -0.941650390625, 0.339111328125, -18.968750000000, -3.820312500000, -0.203125000000, 1490588696
0.129882812500, -0.941650390625, 0.339111328125, -18.968750000000, -3.820312500000, -0.203125000000, 1490588696
0.129882812500, -0.941650390625, 0.339111328125, -18.968750000000, -3.820312500000, -0.203125000000, 1490588696
0.129882812500, -0.941650390625, 0.339111328125, -18.968750000000, -3.820312500000, -0.203125000000, 1490588696
0.129882812500, -0.941650390625, 0.339111328125, -18.968750000000, -3.820312500000, -0.203125000000, 1490588696
0.056884765625, -0.972167968750, 0.382568359375, -16.109375000000, -5.281250000000, 0.390625000000, 1490588696
0.056884765625, -0.972167968750, 0.382568359375, -16.109375000000, -5.281250000000, 0.390625000000, 1490588696
0.056884765625, -0.972167968750, 0.382568359375, -16.109375000000, -5.281250000000, 0.390625000000, 1490588696
0.111572265625, -0.807128906250, 0.337158203125, -15.812500000000, -6.226562500000, 2.218750000000, 1490588696
0.111572265625, -0.807128906250, 0.337158203125, -15.812500000000, -6.226562500000, 2.218750000000, 1490588696
0.111572265625, -0.807128906250, 0.337158203125, -15.812500000000, -6.226562500000, 2.218750000000, 1490588696
0.131103515625, -0.856933593750, 0.307617187500, -13.062500000000, -6.515625000000, 2.984375000000, 1490588696
0.131103515625, -0.856933593750, 0.307617187500, -13.062500000000, -6.515625000000, 2.984375000000, 1490588696
0.131103515625, -0.856933593750, 0.307617187500, -13.062500000000, -6.515625000000, 2.984375000000, 1490588696
0.117919921875, -0.841796875000, 0.235107421875, -16.351562500000, -7.328125000000, 4.531250000000, 1490588696
0.117919921875, -0.841796875000, 0.235107421875, -16.351562500000, -7.328125000000, 4.531250000000, 1490588696
0.117919921875, -0.841796875000, 0.235107421875, -16.351562500000, -7.328125000000, 4.531250000000, 1490588696
0.117919921875, -0.841796875000, 0.235107421875, -16.351562500000, -7.328125000000, 4.531250000000, 1490588696
0.130859375000, -0.800048828125, 0.223144531250, -12.484375000000, -9.007812500000, 0.953125000000, 1490588696
0.130859375000, -0.800048828125, 0.223144531250, -12.484375000000, -9.007812500000, 0.953125000000, 1490588696
0.130859375000, -0.800048828125, 0.223144531250, -12.484375000000, -9.007812500000, 0.953125000000, 1490588696
0.112304687500, -0.728271484375, 0.249511718750, -5.359375000000, -9.562500000000, 4.671875000000, 1490588696
0.112304687500, -0.728271484375, 0.249511718750, -5.359375000000, -9.562500000000, 4.671875000000, 1490588696
0.112304687500, -0.728271484375, 0.249511718750, -5.359375000000, -9.562500000000, 4.671875000000, 1490588696
0.142578125000, -0.652587890625, 0.166259765625, -2.625000000000, -9.882812500000, 4.250000000000, 1490588696
0.142578125000, -0.652587890625, 0.166259765625, -2.625000000000, -9.882812500000, 4.250000000000, 1490588696
0.142578125000, -0.652587890625, 0.166259765625, -2.625000000000, -9.882812500000, 4.250000000000, 1490588696
0.099853515625, -0.537109375000, 0.215820312500, 3.445312500000, -6.328125000000, 8.851562500000, 1490588696
0.099853515625, -0.537109375000, 0.215820312500, 3.445312500000, -6.328125000000, 8.851562500000, 1490588696
0.099853515625, -0.537109375000, 0.215820312500, 3.445312500000, -6.328125000000, 8.851562500000, 1490588696
0.144531250000, -0.457519531250, 0.176757812500, 9.343750000000, 8.125000000000, 5.015625000000, 1490588696
0.144531250000, -0.457519531250, 0.176757812500, 9.343750000000, 8.125000000000, 5.015625000000, 1490588696
0.155273437500, -0.464599609375, 0.150390625000, 7.039062500000, -3.218750000000, 3.562500000000, 1490588696
0.092041015625, -0.372802734375, 0.199462890625, 1.601562500000, -8.828125000000, 5.289062500000, 1490588696
0.092041015625, -0.372802734375, 0.199462890625, 1.601562500000, -8.828125000000, 5.289062500000, 1490588696
0.092041015625, -0.372802734375, 0.199462890625, 1.601562500000, -8.828125000000, 5.289062500000, 1490588696
0.092041015625, -0.372802734375, 0.199462890625, 1.601562500000, -8.828125000000, 5.289062500000, 1490588696
0.092041015625, -0.372802734375, 0.199462890625, 1.601562500000, -8.828125000000, 5.289062500000, 1490588696
0.072509765625, -0.468261718750, 0.150390625000, -1.742187500000, 16.093750000000, 8.742187500000, 1490588696
0.180908203125, -0.424804687500, 0.135009765625, -2.476562500000, 32.953125000000, 13.578125000000, 1490588696
0.180908203125, -0.424804687500, 0.135009765625, -2.476562500000, 32.953125000000, 13.578125000000, 1490588696
0.180908203125, -0.424804687500, 0.135009765625, -2.476562500000, 32.953125000000, 13.578125000000, 1490588696
0.195068359375, -0.488769531250, -0.006835937500, -18.828125000000, 26.226562500000, 19.828125000000, 1490588696
0.201171875000, -0.431884765625, 0.021484375000, -26.546875000000, 20.109375000000, 28.539062500000, 1490588696
0.201171875000, -0.431884765625, 0.021484375000, -26.546875000000, 20.109375000000, 28.539062500000, 1490588696
0.201171875000, -0.431884765625, 0.021484375000, -26.546875000000, 20.109375000000, 28.539062500000, 1490588696
0.201171875000, -0.431884765625, 0.021484375000, -26.546875000000, 20.109375000000, 28.539062500000, 1490588696
0.312744140625, -0.498291015625, -0.024169921875, -70.000000000000, 34.625000000000, 56.687500000000, 1490588696
0.312744140625, -0.498291015625, -0.024169921875, -70.000000000000, 34.625000000000, 56.687500000000, 1490588696
0.312744140625, -0.498291015625, -0.024169921875, -70.000000000000, 34.625000000000, 56.687500000000, 1490588696
0.072753906250, -0.106201171875, -0.013916015625, -41.062500000000, -16.742187500000, 55.445312500000, 1490588696
0.072753906250, -0.106201171875, -0.013916015625, -41.062500000000, -16.742187500000, 55.445312500000, 1490588696
0.072753906250, -0.106201171875, -0.013916015625, -41.062500000000, -16.742187500000, 55.445312500000, 1490588696
-0.119384765625, -2.055419921875, 0.371093750000, -49.320312500000, -35.992187500000, -125.828125000000, 1490588696
-0.119384765625, -2.055419921875, 0.371093750000, -49.320312500000, -35.992187500000, -125.828125000000, 1490588696
-0.119384765625, -2.055419921875, 0.371093750000, -49.320312500000, -35.992187500000, -125.828125000000, 1490588696
-0.119384765625, -2.055419921875, 0.371093750000, -49.320312500000, -35.992187500000, -125.828125000000, 1490588696
1.053955078125, -4.772216796875, 2.651123046875, -45.718750000000, -6.835937500000, 11.203125000000, 1490588696
1.053955078125, -4.772216796875, 2.651123046875, -45.718750000000, -6.835937500000, 11.203125000000, 1490588696
1.053955078125, -4.772216796875, 2.651123046875, -45.718750000000, -6.835937500000, 11.203125000000, 1490588696
1.479492187500, -3.718261718750, 0.768798828125, -256.000000000000, 242.382812500000, -6.867187500000, 1490588696
1.479492187500, -3.718261718750, 0.768798828125, -256.000000000000, 242.382812500000, -6.867187500000, 1490588696
1.479492187500, -3.718261718750, 0.768798828125, -256.000000000000, 242.382812500000, -6.867187500000, 1490588696
0.591796875000, -0.911621093750, 0.572998046875, -256.000000000000, 47.203125000000, 137.148437500000, 1490588696
0.591796875000, -0.911621093750, 0.572998046875, -256.000000000000, 47.203125000000, 137.148437500000, 1490588696
0.591796875000, -0.911621093750, 0.572998046875, -256.000000000000, 47.203125000000, 137.148437500000, 1490588696
-0.234619140625, 0.292968750000, 0.612792968750, -47.523437500000, 57.250000000000, 155.468750000000, 1490588697
-0.234619140625, 0.292968750000, 0.612792968750, -47.523437500000, 57.250000000000, 155.468750000000, 1490588697
-0.234619140625, 0.292968750000, 0.612792968750, -47.523437500000, 57.250000000000, 155.468750000000, 1490588697
-0.234619140625, 0.292968750000, 0.612792968750, -47.523437500000, 57.250000000000, 155.468750000000, 1490588697
-0.376220703125, 0.558593750000, 0.297607421875, -256.000000000000, -47.765625000000, 247.460937500000, 1490588697
-0.376220703125, 0.558593750000, 0.297607421875, -256.000000000000, -47.765625000000, 247.460937500000, 1490588697
-0.376220703125, 0.558593750000, 0.297607421875, -256.000000000000, -47.765625000000, 247.460937500000, 1490588697
-0.344726562500, 0.562255859375, 0.244628906250, -65.398437500000, -233.195312500000, 169.656250000000, 1490588697
-0.344726562500, 0.562255859375, 0.244628906250, -65.398437500000, -233.195312500000, 169.656250000000, 1490588697
-0.344726562500, 0.562255859375, 0.244628906250, -65.398437500000, -233.195312500000, 169.656250000000, 1490588697
-0.369628906250, 0.444580078125, 0.280761718750, -141.664062500000, -143.101562500000, 167.554687500000, 1490588697
-0.369628906250, 0.444580078125, 0.280761718750, -141.664062500000, -143.101562500000, 167.554687500000, 1490588697
-0.369628906250, 0.444580078125, 0.280761718750, -141.664062500000, -143.101562500000, 167.554687500000, 1490588697
0.028808593750, 0.539550781250, 0.416259765625, 63.492187500000, 193.414062500000, -1.460937500000, 1490588697
0.028808593750, 0.539550781250, 0.416259765625, 63.492187500000, 193.414062500000, -1.460937500000, 1490588697
0.028808593750, 0.539550781250, 0.416259765625, 63.492187500000, 193.414062500000, -1.460937500000, 1490588697
0.028808593750, 0.539550781250, 0.416259765625, 63.492187500000, 193.414062500000, -1.460937500000, 1490588697
0.440185546875, 1.147949218750, 2.311523437500, 253.992187500000, 154.773437500000, -89.656250000000, 1490588697
0.440185546875, 1.147949218750, 2.311523437500, 253.992187500000, 154.773437500000, -89.656250000000, 1490588697
0.440185546875, 1.147949218750, 2.311523437500, 253.992187500000, 154.773437500000, -89.656250000000, 1490588697
-1.255615234375, 0.547851562500, 1.932861328125, -137.804687500000, -103.890625000000, 8.492187500000, 1490588697
-1.255615234375, 0.547851562500, 1.932861328125, -137.804687500000, -103.890625000000, 8.492187500000, 1490588697
-1.255615234375, 0.547851562500, 1.932861328125, -137.804687500000, -103.890625000000, 8.492187500000, 1490588697
0.119873046875, 0.383789062500, 1.112548828125, -28.687500000000, -67.976562500000, -29.289062500000, 1490588697
0.119873046875, 0.383789062500, 1.112548828125, -28.687500000000, -67.976562500000, -29.289062500000, 1490588697
0.119873046875, 0.383789062500, 1.112548828125, -28.687500000000, -67.976562500000, -29.289062500000, 1490588697
0.098144531250, 0.078613281250, 0.233642578125, -36.617187500000, -75.875000000000, -37.796875000000, 1490588697
0.098144531250, 0.078613281250, 0.233642578125, -36.617187500000, -75.875000000000, -37.796875000000, 1490588697
0.098144531250, 0.078613281250, 0.233642578125, -36.617187500000, -75.875000000000, -37.796875000000, 1490588697
0.098144531250, 0.078613281250, 0.233642578125, -36.617187500000, -75.875000000000, -37.796875000000, 1490588697
0.380859375000, -0.153320312500, 0.666015625000, -27.210937500000, 46.640625000000, -30.710937500000, 1490588697
0.380859375000, -0.153320312500, 0.666015625000, -27.210937500000, 46.640625000000, -30.710937500000, 1490588697
0.380859375000, -0.153320312500, 0.666015625000, -27.210937500000, 46.640625000000, -30.710937500000, 1490588697
0.143066406250, 0.283935546875, 1.050537109375, -39.523437500000, 33.492187500000, 10.429687500000, 1490588697
0.143066406250, 0.283935546875, 1.050537109375, -39.523437500000, 33.492187500000, 10.429687500000, 1490588697
0.143066406250, 0.283935546875, 1.050537109375, -39.523437500000, 33.492187500000, 10.429687500000, 1490588697
0.206298828125, 0.468261718750, 1.104492187500, 9.757812500000, 5.390625000000, -5.343750000000, 1490588697
0.206298828125, 0.468261718750, 1.104492187500, 9.757812500000, 5.390625000000, -5.343750000000, 1490588697
0.206298828125, 0.468261718750, 1.104492187500, 9.757812500000, 5.390625000000, -5.343750000000, 1490588697
0.098144531250, 0.341552734375, 0.983398437500, 6.789062500000, 2.476562500000, 6.367187500000, 1490588697
0.098144531250, 0.341552734375, 0.983398437500, 6.789062500000, 2.476562500000, 6.367187500000, 1490588697
0.098144531250, 0.341552734375, 0.983398437500, 6.789062500000, 2.476562500000, 6.367187500000, 1490588697
0.098144531250, 0.341552734375, 0.983398437500, 6.789062500000, 2.476562500000, 6.367187500000, 1490588697
0.128906250000, 0.338867187500, 0.910400390625, -3.078125000000, -27.421875000000, -1.765625000000, 1490588697
0.128906250000, 0.338867187500, 0.910400390625, -3.078125000000, -27.421875000000, -1.765625000000, 1490588697
0.128906250000, 0.338867187500, 0.910400390625, -3.078125000000, -27.421875000000, -1.765625000000, 1490588697
0.236572265625, 0.260498046875, 0.909179687500, -13.468750000000, -39.265625000000, -4.515625000000, 1490588697
0.236572265625, 0.260498046875, 0.909179687500, -13.468750000000, -39.265625000000, -4.515625000000, 1490588697
0.236572265625, 0.260498046875, 0.909179687500, -13.468750000000, -39.265625000000, -4.515625000000, 1490588697
0.236572265625, 0.260498046875, 0.909179687500, -13.468750000000, -39.265625000000, -4.515625000000, 1490588697
0.511718750000, 0.104003906250, 0.995361328125, -5.617187500000, -18.539062500000, -5.234375000000, 1490588697
0.511718750000, 0.104003906250, 0.995361328125, -5.617187500000, -18.539062500000, -5.234375000000, 1490588697
0.511718750000, 0.104003906250, 0.995361328125, -5.617187500000, -18.539062500000, -5.234375000000, 1490588697
0.511718750000, 0.104003906250, 0.995361328125, -5.617187500000, -18.539062500000, -5.234375000000, 1490588697
0.511718750000, 0.104003906250, 0.995361328125, -5.617187500000, -18.539062500000, -5.234375000000, 1490588697
0.324218750000, 0.221923828125, 0.863281250000, -16.859375000000, 7.117187500000, 3.195312500000, 1490588697
0.324218750000, 0.221923828125, 0.863281250000, -16.859375000000, 7.117187500000, 3.195312500000, 1490588697
0.324218750000, 0.221923828125, 0.863281250000, -16.859375000000, 7.117187500000, 3.195312500000, 1490588697
0.324218750000, 0.221923828125, 0.863281250000, -16.859375000000, 7.117187500000, 3.195312500000, 1490588697
0.250976562500, 0.276367187500, 0.856689453125, -9.054687500000, 16.906250000000, 4.109375000000, 1490588697
0.250976562500, 0.276367187500, 0.856689453125, -9.054687500000, 16.906250000000, 4.109375000000, 1490588697
0.250976562500, 0.276367187500, 0.856689453125, -9.054687500000, 16.906250000000, 4.109375000000, 1490588697
0.315673828125, 0.200195312500, 0.847167968750, -9.062500000000, -8.492187500000, 0.265625000000, 1490588697
0.315673828125, 0.200195312500, 0.847167968750, -9.062500000000, -8.492187500000, 0.265625000000, 1490588697
0.315673828125, 0.200195312500, 0.847167968750, -9.062500000000, -8.492187500000, 0.265625000000, 1490588697
0.103515625000, 0.187011718750, 0.983154296875, -4.906250000000, 18.632812500000, 2.148437500000, 1490588698
0.103515625000, 0.187011718750, 0.983154296875, -4.906250000000, 18.632812500000, 2.148437500000, 1490588698
0.103515625000, 0.187011718750, 0.983154296875, -4.906250000000, 18.632812500000, 2.148437500000, 1490588698
0.103515625000, 0.187011718750, 0.983154296875, -4.906250000000, 18.632812500000, 2.148437500000, 1490588698
0.253906250000, 0.376708984375, 1.022949218750, -10.203125000000, -4.968750000000, 2.554687500000, 1490588698
0.253906250000, 0.376708984375, 1.022949218750, -10.203125000000, -4.968750000000, 2.554687500000, 1490588698
0.253906250000, 0.376708984375, 1.022949218750, -10.203125000000, -4.968750000000, 2.554687500000, 1490588698
0.187500000000, 0.324951171875, 0.969482421875, -8.812500000000, 6.601562500000, 4.648437500000, 1490588698
0.187500000000, 0.324951171875, 0.969482421875, -8.812500000000, 6.601562500000, 4.648437500000, 1490588698
0.187500000000, 0.324951171875, 0.969482421875, -8.812500000000, 6.601562500000, 4.648437500000, 1490588698
0.262695312500, 0.387207031250, 0.920166015625, 1.242187500000, 10.851562500000, 6.843750000000, 1490588698
0.262695312500, 0.387207031250, 0.920166015625, 1.242187500000, 10.851562500000, 6.843750000000, 1490588698
0.220703125000, 0.154785156250, 1.050781250000, 6.265625000000, 20.039062500000, -3.875000000000, 1490588698
0.220703125000, 0.154785156250, 1.050781250000, 6.265625000000, 20.039062500000, -3.875000000000, 1490588698
0.220703125000, 0.154785156250, 1.050781250000, 6.265625000000, 20.039062500000, -3.875000000000, 1490588698
0.220703125000, 0.154785156250, 1.050781250000, 6.265625000000, 20.039062500000, -3.875000000000, 1490588698
0.382812500000, 0.122314453125, 0.935791015625, -15.515625000000, -27.617187500000, 2.976562500000, 1490588698
0.382812500000, 0.122314453125, 0.935791015625, -15.515625000000, -27.617187500000, 2.976562500000, 1490588698
0.382812500000, 0.122314453125, 0.935791015625, -15.515625000000, -27.617187500000, 2.976562500000, 1490588698
0.382812500000, 0.122314453125, 0.935791015625, -15.515625000000, -27.617187500000, 2.976562500000, 1490588698
0.373046875000, 0.282714843750, 0.848876953125, -6.304687500000, -0.132812500000, 1.523437500000, 1490588698
0.373046875000, 0.282714843750, 0.848876953125, -6.304687500000, -0.132812500000, 1.523437500000, 1490588698
0.373046875000, 0.282714843750, 0.848876953125, -6.304687500000, -0.132812500000, 1.523437500000, 1490588698
0.227050781250, 0.400146484375, 1.072021484375, 2.453125000000, 20.656250000000, 2.671875000000, 1490588698
0.227050781250, 0.400146484375, 1.072021484375, 2.453125000000, 20.656250000000, 2.671875000000, 1490588698
0.227050781250, 0.400146484375, 1.072021484375, 2.453125000000, 20.656250000000, 2.671875000000, 1490588698
0.159423828125, 0.502441406250, 0.863037109375, 9.437500000000, 13.773437500000, 2.070312500000, 1490588698
0.159423828125, 0.502441406250, 0.863037109375, 9.437500000000, 13.773437500000, 2.070312500000, 1490588698
0.159423828125, 0.502441406250, 0.863037109375, 9.437500000000, 13.773437500000, 2.070312500000, 1490588698
0.159423828125, 0.502441406250, 0.863037109375, 9.437500000000, 13.773437500000, 2.070312500000, 1490588698
0.144531250000, 0.361572265625, 0.969726562500, 15.859375000000, 28.804687500000, 0.664062500000, 1490588698
0.144531250000, 0.361572265625, 0.969726562500, 15.859375000000, 28.804687500000, 0.664062500000, 1490588698
0.144531250000, 0.361572265625, 0.969726562500, 15.859375000000, 28.804687500000, 0.664062500000, 1490588698
0.106445312500, 0.261962890625, 0.994384765625, 0.117187500000, 9.992187500000, -1.398437500000, 1490588698
0.106445312500, 0.261962890625, 0.994384765625, 0.117187500000, 9.992187500000, -1.398437500000, 1490588698
0.106445312500, 0.261962890625, 0.994384765625, 0.117187500000, 9.992187500000, -1.398437500000, 1490588698
0.192626953125, 0.315429687500, 1.078857421875, -4.523437500000, 5.593750000000, -5.421875000000, 1490588698
0.192626953125, 0.315429687500, 1.078857421875, -4.523437500000, 5.593750000000, -5.421875000000, 1490588698
0.192626953125, 0.315429687500, 1.078857421875, -4.523437500000, 5.593750000000, -5.421875000000, 1490588698
0.207275390625, 0.186035156250, 0.979492187500, 4.976562500000, -3.718750000000, -10.273437500000, 1490588698
0.207275390625, 0.186035156250, 0.979492187500, 4.976562500000, -3.718750000000, -10.273437500000, 1490588698
0.207275390625, 0.186035156250, 0.979492187500, 4.976562500000, -3.718750000000, -10.273437500000, 1490588698
0.207275390625, 0.186035156250, 0.979492187500, 4.976562500000, -3.718750000000, -10.273437500000, 1490588698
0.169189453125, 0.123046875000, 0.970947265625, 6.257812500000, 1.382812500000, -5.671875000000, 1490588698
0.169189453125, 0.123046875000, 0.970947265625, 6.257812500000, 1.382812500000, -5.671875000000, 1490588698
0.169189453125, 0.123046875000, 0.970947265625, 6.257812500000, 1.382812500000, -5.671875000000, 1490588698
0.113769531250, 0.242431640625, 1.078369140625, 0.515625000000, -0.453125000000, -1.367187500000, 1490588698
0.113769531250, 0.242431640625, 1.078369140625, 0.515625000000, -0.453125000000, -1.367187500000, 1490588698
0.113769531250, 0.242431640625, 1.078369140625, 0.515625000000, -0.453125000000, -1.367187500000, 1490588698
0.092529296875, 0.251464843750, 1.026855468750, -3.882812500000, -0.937500000000, -5.046875000000, 1490588698
0.092529296875, 0.251464843750, 1.026855468750, -3.882812500000, -0.937500000000, -5.046875000000, 1490588698
0.092529296875, 0.251464843750, 1.026855468750, -3.882812500000, -0.937500000000, -5.046875000000, 1490588698
0.228271484375, 0.338378906250, 1.016113281250, -8.781250000000, -4.382812500000, -1.984375000000, 1490588698
0.228271484375, 0.338378906250, 1.016113281250, -8.781250000000, -4.382812500000, -1.984375000000, 1490588698
0.228271484375, 0.338378906250, 1.016113281250, -8.781250000000, -4.382812500000, -1.984375000000, 1490588698
0.228271484375, 0.338378906250, 1.016113281250, -8.781250000000, -4.382812500000, -1.984375000000, 1490588698
0.109130859375, 0.224853515625, 0.968017578125, -1.125000000000, 2.921875000000, -4.390625000000, 1490588698
0.109130859375, 0.224853515625, 0.968017578125, -1.125000000000, 2.921875000000, -4.390625000000, 1490588698
0.109130859375, 0.224853515625, 0.968017578125, -1.125000000000, 2.921875000000, -4.390625000000, 1490588698
0.127685546875, 0.325195312500, 1.007812500000, -2.023437500000, 2.617187500000, -8.937500000000, 1490588698
0.127685546875, 0.325195312500, 1.007812500000, -2.023437500000, 2.617187500000, -8.937500000000, 1490588698
0.127685546875, 0.325195312500, 1.007812500000, -2.023437500000, 2.617187500000, -8.937500000000, 1490588698
0.114013671875, 0.271240234375, 1.068359375000, -6.468750000000, -2.640625000000, -10.484375000000, 1490588698
0.114013671875, 0.271240234375, 1.068359375000, -6.468750000000, -2.640625000000, -10.484375000000, 1490588698
0.114013671875, 0.271240234375, 1.068359375000, -6.468750000000, -2.640625000000, -10.484375000000, 1490588698
0.111572265625, 0.273193359375, 0.979248046875, -14.632812500000, -5.609375000000, -10.804687500000, 1490588698
0.111572265625, 0.273193359375, 0.979248046875, -14.632812500000, -5.609375000000, -10.804687500000, 1490588698
0.111572265625, 0.273193359375, 0.979248046875, -14.632812500000, -5.609375000000, -10.804687500000, 1490588698
0.111572265625, 0.273193359375, 0.979248046875, -14.632812500000, -5.609375000000, -10.804687500000, 1490588699
0.198974609375, 0.279785156250, 0.971435546875, -16.867187500000, -8.187500000000, -12.257812500000, 1490588699
0.198974609375, 0.279785156250, 0.971435546875, -16.867187500000, -8.187500000000, -12.257812500000, 1490588699
0.198974609375, 0.279785156250, 0.971435546875, -16.867187500000, -8.187500000000, -12.257812500000, 1490588699
0.214355468750, 0.375732421875, 1.030273437500, -13.593750000000, -1.242187500000, -12.273437500000, 1490588699
0.120361328125, 0.254882812500, 1.030029296875, -9.882812500000, 4.031250000000, -20.460937500000, 1490588699
0.120361328125, 0.254882812500, 1.030029296875, -9.882812500000, 4.031250000000, -20.460937500000, 1490588699
0.120361328125, 0.254882812500, 1.030029296875, -9.882812500000, 4.031250000000, -20.460937500000, 1490588699
0.120361328125, 0.254882812500, 1.030029296875, -9.882812500000, 4.031250000000, -20.460937500000, 1490588699
0.120361328125, 0.254882812500, 1.030029296875, -9.882812500000, 4.031250000000, -20.460937500000, 1490588699
0.185302734375, 0.177246093750, 0.933593750000, -14.445312500000, -4.929687500000, -19.343750000000, 1490588699
0.322265625000, 0.296875000000, 0.925292968750, -15.546875000000, -8.804687500000, -10.937500000000, 1490588699
0.322265625000, 0.296875000000, 0.925292968750, -15.546875000000, -8.804687500000, -10.937500000000, 1490588699
0.322265625000, 0.296875000000, 0.925292968750, -15.546875000000, -8.804687500000, -10.937500000000, 1490588699
0.186767578125, 0.284423828125, 0.998535156250, -13.992187500000, -0.773437500000, -7.078125000000, 1490588699
0.186767578125, 0.284423828125, 0.998535156250, -13.992187500000, -0.773437500000, -7.078125000000, 1490588699
0.186767578125, 0.284423828125, 0.998535156250, -13.992187500000, -0.773437500000, -7.078125000000, 1490588699
0.184570312500, 0.462158203125, 1.015380859375, -22.343750000000, -12.625000000000, -7.398437500000, 1490588699
0.184570312500, 0.462158203125, 1.015380859375, -22.343750000000, -12.625000000000, -7.398437500000, 1490588699
0.184570312500, 0.462158203125, 1.015380859375, -22.343750000000, -12.625000000000, -7.398437500000, 1490588699
0.152099609375, 0.321533203125, 0.989501953125, -25.250000000000, -11.921875000000, -16.820312500000, 1490588699
0.152099609375, 0.321533203125, 0.989501953125, -25.250000000000, -11.921875000000, -16.820312500000, 1490588699
0.152099609375, 0.321533203125, 0.989501953125, -25.250000000000, -11.921875000000, -16.820312500000, 1490588699
0.258789062500, 0.321777343750, 0.856933593750, -21.679687500000, -9.109375000000, -18.625000000000, 1490588699
0.258789062500, 0.321777343750, 0.856933593750, -21.679687500000, -9.109375000000, -18.625000000000, 1490588699
0.258789062500, 0.321777343750, 0.856933593750, -21.679687500000, -9.109375000000, -18.625000000000, 1490588699
0.258789062500, 0.321777343750, 0.856933593750, -21.679687500000, -9.109375000000, -18.625000000000, 1490588699
0.226562500000, 0.288574218750, 0.985107421875, -15.460937500000, 11.718750000000, -19.187500000000, 1490588699
0.226562500000, 0.288574218750, 0.985107421875, -15.460937500000, 11.718750000000, -19.187500000000, 1490588699
0.226562500000, 0.288574218750, 0.985107421875, -15.460937500000, 11.718750000000, -19.187500000000, 1490588699
0.118408203125, 0.321777343750, 1.030761718750, -15.695312500000, 6.718750000000, -16.492187500000, 1490588699
0.118408203125, 0.321777343750, 1.030761718750, -15.695312500000, 6.718750000000, -16.492187500000, 1490588699
0.118408203125, 0.321777343750, 1.030761718750, -15.695312500000, 6.718750000000, -16.492187500000, 1490588699
0.278320312500, 0.329833984375, 0.873291015625, -19.507812500000, -20.640625000000, 2.000000000000, 1490588699
0.278320312500, 0.329833984375, 0.873291015625, -19.507812500000, -20.640625000000, 2.000000000000, 1490588699
0.278320312500, 0.329833984375, 0.873291015625, -19.507812500000, -20.640625000000, 2.000000000000, 1490588699
0.403320312500, 0.461914062500, 0.844970703125, -4.648437500000, -10.625000000000, 4.898437500000, 1490588699
0.403320312500, 0.461914062500, 0.844970703125, -4.648437500000, -10.625000000000, 4.898437500000, 1490588699
0.403320312500, 0.461914062500, 0.844970703125, -4.648437500000, -10.625000000000, 4.898437500000, 1490588699
0.403320312500, 0.461914062500, 0.844970703125, -4.648437500000, -10.625000000000, 4.898437500000, 1490588699
0.279296875000, 0.294433593750, 0.792480468750, -2.835937500000, -20.687500000000, 5.562500000000, 1490588699
0.279296875000, 0.294433593750, 0.792480468750, -2.835937500000, -20.687500000000, 5.562500000000, 1490588699
0.279296875000, 0.294433593750, 0.792480468750, -2.835937500000, -20.687500000000, 5.562500000000, 1490588699
0.304687500000, 0.447998046875, 0.939453125000, 7.390625000000, -6.226562500000, 6.671875000000, 1490588699
0.304687500000, 0.447998046875, 0.939453125000, 7.390625000000, -6.226562500000, 6.671875000000, 1490588699
0.304687500000, 0.447998046875, 0.939453125000, 7.390625000000, -6.226562500000, 6.671875000000, 1490588699
0.381591796875, 0.380371093750, 0.860351562500, 13.328125000000, -0.328125000000, 3.007812500000, 1490588699
0.381591796875, 0.380371093750, 0.860351562500, 13.328125000000, -0.328125000000, 3.007812500000, 1490588699
0.381591796875, 0.380371093750, 0.860351562500, 13.328125000000, -0.328125000000, 3.007812500000, 1490588699
0.251464843750, 0.228271484375, 0.929687500000, 14.515625000000, 9.578125000000, 5.734375000000, 1490588699
0.251464843750, 0.228271484375, 0.929687500000, 14.515625000000, 9.578125000000, 5.734375000000, 1490588699
0.251464843750, 0.228271484375, 0.929687500000, 14.515625000000, 9.578125000000, 5.734375000000, 1490588699
0.251464843750, 0.228271484375, 0.929687500000, 14.515625000000, 9.578125000000, 5.734375000000, 1490588699
0.206298828125, 0.225341796875, 0.934326171875, 9.242187500000, 16.750000000000, 3.679687500000, 1490588699
0.206298828125, 0.225341796875, 0.934326171875, 9.242187500000, 16.750000000000, 3.679687500000, 1490588699
0.206298828125, 0.225341796875, 0.934326171875, 9.242187500000, 16.750000000000, 3.679687500000, 1490588699
0.185302734375, 0.243164062500, 1.008544921875, 1.156250000000, 10.703125000000, -0.914062500000, 1490588699
0.185302734375, 0.243164062500, 1.008544921875, 1.156250000000, 10.703125000000, -0.914062500000, 1490588699
0.185302734375, 0.243164062500, 1.008544921875, 1.156250000000, 10.703125000000, -0.914062500000, 1490588699
0.110595703125, 0.246826171875, 0.981445312500, 0.765625000000, 5.445312500000, -3.960937500000, 1490588699
0.110595703125, 0.246826171875, 0.981445312500, 0.765625000000, 5.445312500000, -3.960937500000, 1490588699
0.127685546875, 0.218017578125, 0.985351562500, 6.593750000000, 5.093750000000, -10.109375000000, 1490588699
0.127685546875, 0.218017578125, 0.985351562500, 6.593750000000, 5.093750000000, -10.109375000000, 1490588699
0.127685546875, 0.218017578125, 0.985351562500, 6.593750000000, 5.093750000000, -10.109375000000, 1490588699
0.127685546875, 0.218017578125, 0.985351562500, 6.593750000000, 5.093750000000, -10.109375000000, 1490588699
0.118652343750, 0.273925781250, 1.006103515625, -3.101562500000, -6.921875000000, -9.039062500000, 1490588700
0.290771484375, 0.326660156250, 0.915771484375, -10.093750000000, -5.906250000000, -4.296875000000, 1490588700
0.350830078125, 0.326416015625, 0.930908203125, -9.210937500000, -5.351562500000, -4.007812500000, 1490588700
0.350830078125, 0.326416015625, 0.930908203125, -9.210937500000, -5.351562500000, -4.007812500000, 1490588700
0.350830078125, 0.326416015625, 0.930908203125, -9.210937500000, -5.351562500000, -4.007812500000, 1490588700
0.350830078125, 0.326416015625, 0.930908203125, -9.210937500000, -5.351562500000, -4.007812500000, 1490588700
0.350830078125, 0.326416015625, 0.930908203125, -9.210937500000, -5.351562500000, -4.007812500000, 1490588700
0.350830078125, 0.326416015625, 0.930908203125, -9.210937500000, -5.351562500000, -4.007812500000, 1490588700
0.268554687500, 0.444091796875, 0.900146484375, -7.554687500000, -6.953125000000, -4.437500000000, 1490588700
0.205322265625, 0.385742187500, 1.012451171875, -8.640625000000, -1.359375000000, -4.351562500000, 1490588700
0.205322265625, 0.385742187500, 1.012451171875, -8.640625000000, -1.359375000000, -4.351562500000, 1490588700
0.205322265625, 0.385742187500, 1.012451171875, -8.640625000000, -1.359375000000, -4.351562500000, 1490588700
0.205322265625, 0.385742187500, 1.012451171875, -8.640625000000, -1.359375000000, -4.351562500000, 1490588700
0.205322265625, 0.385742187500, 1.012451171875, -8.640625000000, -1.359375000000, -4.351562500000, 1490588700
0.320312500000, 0.347167968750, 1.010498046875, -5.546875000000, 0.492187500000, -3.859375000000, 1490588700
0.320312500000, 0.347167968750, 1.010498046875, -5.546875000000, 0.492187500000, -3.859375000000, 1490588700
0.320312500000, 0.347167968750, 1.010498046875, -5.546875000000, 0.492187500000, -3.859375000000, 1490588700
0.166748046875, 0.254150390625, 0.872802734375, -1.664062500000, 2.523437500000, -1.601562500000, 1490588700
0.166748046875, 0.254150390625, 0.872802734375, -1.664062500000, 2.523437500000, -1.601562500000, 1490588700
0.166748046875, 0.254150390625, 0.872802734375, -1.664062500000, 2.523437500000, -1.601562500000, 1490588700
0.206542968750, 0.106445312500, 1.068115234375, -4.640625000000, 1.242187500000, -3.632812500000, 1490588700
0.250488281250, 0.178466796875, 1.030761718750, -6.375000000000, -0.093750000000, -8.390625000000, 1490588700
0.250488281250, 0.178466796875, 1.030761718750, -6.375000000000, -0.093750000000, -8.390625000000, 1490588700
0.250488281250, 0.178466796875, 1.030761718750, -6.375000000000, -0.093750000000, -8.390625000000, 1490588700
0.250488281250, 0.178466796875, 1.030761718750, -6.375000000000, -0.093750000000, -8.390625000000, 1490588700
0.267578125000, 0.460449218750, 1.031250000000, -6.507812500000, -1.414062500000, -3.835937500000, 1490588700
0.267578125000, 0.460449218750, 1.031250000000, -6.507812500000, -1.414062500000, -3.835937500000, 1490588700
0.267578125000, 0.460449218750, 1.031250000000, -6.507812500000, -1.414062500000, -3.835937500000, 1490588700
0.396728515625, 0.378173828125, 0.940429687500, -3.210937500000, -3.390625000000, -6.593750000000, 1490588700
0.396728515625, 0.378173828125, 0.940429687500, -3.210937500000, -3.390625000000, -6.593750000000, 1490588700
0.396728515625, 0.378173828125, 0.940429687500, -3.210937500000, -3.390625000000, -6.593750000000, 1490588700
0.396728515625, 0.378173828125, 0.940429687500, -3.210937500000, -3.390625000000, -6.593750000000, 1490588700
0.396728515625, 0.378173828125, 0.940429687500, -3.210937500000, -3.390625000000, -6.593750000000, 1490588700
0.223876953125, 0.309814453125, 0.948486328125, -4.828125000000, -1.757812500000, -1.695312500000, 1490588700
0.223876953125, 0.309814453125, 0.948486328125, -4.828125000000, -1.757812500000, -1.695312500000, 1490588700
0.223876953125, 0.309814453125, 0.948486328125, -4.828125000000, -1.757812500000, -1.695312500000, 1490588700
0.244873046875, 0.282226562500, 1.015869140625, 0.109375000000, -0.851562500000, -4.296875000000, 1490588700
0.244873046875, 0.282226562500, 1.015869140625, 0.109375000000, -0.851562500000, -4.296875000000, 1490588700
0.244873046875, 0.282226562500, 1.015869140625, 0.109375000000, -0.851562500000, -4.296875000000, 1490588700
0.244873046875, 0.282226562500, 1.015869140625, 0.109375000000, -0.851562500000, -4.296875000000, 1490588700
0.220214843750, 0.446777343750, 0.982421875000, 1.093750000000, -0.523437500000, -1.937500000000, 1490588700
0.220214843750, 0.446777343750, 0.982421875000, 1.093750000000, -0.523437500000, -1.937500000000, 1490588700
0.220214843750, 0.446777343750, 0.982421875000, 1.093750000000, -0.523437500000, -1.937500000000, 1490588700
0.281250000000, 0.324951171875, 0.971923828125, 0.546875000000, -0.617187500000, -4.421875000000, 1490588700
0.281250000000, 0.324951171875, 0.971923828125, 0.546875000000, -0.617187500000, -4.421875000000, 1490588700
0.281250000000, 0.324951171875, 0.971923828125, 0.546875000000, -0.617187500000, -4.421875000000, 1490588700
0.287597656250, 0.384033203125, 1.004150390625, -1.265625000000, 0.539062500000, -3.000000000000, 1490588700
0.287597656250, 0.384033203125, 1.004150390625, -1.265625000000, 0.539062500000, -3.000000000000, 1490588700
0.287597656250, 0.384033203125, 1.004150390625, -1.265625000000, 0.539062500000, -3.000000000000, 1490588700
0.175292968750, 0.235107421875, 0.960693359375, -1.187500000000, -0.445312500000, -2.000000000000, 1490588700
0.175292968750, 0.235107421875, 0.960693359375, -1.187500000000, -0.445312500000, -2.000000000000, 1490588700
0.175292968750, 0.235107421875, 0.960693359375, -1.187500000000, -0.445312500000, -2.000000000000, 1490588700
0.175292968750, 0.235107421875, 0.960693359375, -1.187500000000, -0.445312500000, -2.000000000000, 1490588700
0.243408203125, 0.239501953125, 1.027832031250, 0.500000000000, 3.882812500000, -3.734375000000, 1490588700
0.243408203125, 0.239501953125, 1.027832031250, 0.500000000000, 3.882812500000, -3.734375000000, 1490588700
0.243408203125, 0.239501953125, 1.027832031250, 0.500000000000, 3.882812500000, -3.734375000000, 1490588700
0.241455078125, 0.321289062500, 0.927490234375, -6.992187500000, -1.984375000000, -3.359375000000, 1490588700
0.241455078125, 0.321289062500, 0.927490234375, -6.992187500000, -1.984375000000, -3.359375000000, 1490588700
0.241455078125, 0.321289062500, 0.927490234375, -6.992187500000, -1.984375000000, -3.359375000000, 1490588700
0.235107421875, 0.280029296875, 0.924804687500, -6.890625000000, 0.421875000000, -1.492187500000, 1490588700
0.235107421875, 0.280029296875, 0.924804687500, -6.890625000000, 0.421875000000, -1.492187500000, 1490588700
0.235107421875, 0.280029296875, 0.924804687500, -6.890625000000, 0.421875000000, -1.492187500000, 1490588700
0.283447265625, 0.241943359375, 0.920166015625, -4.921875000000, -2.820312500000, -8.039062500000, 1490588700
0.283447265625, 0.241943359375, 0.920166015625, -4.921875000000, -2.820312500000, -8.039062500000, 1490588700
0.283447265625, 0.241943359375, 0.920166015625, -4.921875000000, -2.820312500000, -8.039062500000, 1490588701
0.283447265625, 0.241943359375, 0.920166015625, -4.921875000000, -2.820312500000, -8.039062500000, 1490588701
0.116699218750, 0.318603515625, 0.922363281250, -1.359375000000, -0.664062500000, -4.164062500000, 1490588701
0.116699218750, 0.318603515625, 0.922363281250, -1.359375000000, -0.664062500000, -4.164062500000, 1490588701
0.116699218750, 0.318603515625, 0.922363281250, -1.359375000000, -0.664062500000, -4.164062500000, 1490588701
0.116699218750, 0.318603515625, 0.922363281250, -1.359375000000, -0.664062500000, -4.164062500000, 1490588701
0.116699218750, 0.318603515625, 0.922363281250, -1.359375000000, -0.664062500000, -4.164062500000, 1490588701
0.116699218750, 0.318603515625, 0.922363281250, -1.359375000000, -0.664062500000, -4.164062500000, 1490588701
0.202636718750, 0.239746093750, 0.929931640625, -2.710937500000, 2.382812500000, -3.250000000000, 1490588701
0.202636718750, 0.239746093750, 0.929931640625, -2.710937500000, 2.382812500000, -3.250000000000, 1490588701
0.202636718750, 0.239746093750, 0.929931640625, -2.710937500000, 2.382812500000, -3.250000000000, 1490588701
0.296630859375, 0.393066406250, 1.026367187500, -1.085937500000, 0.265625000000, -1.562500000000, 1490588701
0.296630859375, 0.393066406250, 1.026367187500, -1.085937500000, 0.265625000000, -1.562500000000, 1490588701
0.296630859375, 0.393066406250, 1.026367187500, -1.085937500000, 0.265625000000, -1.562500000000, 1490588701
0.296630859375, 0.393066406250, 1.026367187500, -1.085937500000, 0.265625000000, -1.562500000000, 1490588701
0.179443359375, 0.331787109375, 0.936279296875, -6.054687500000, -1.132812500000, -2.093750000000, 1490588701
0.179443359375, 0.331787109375, 0.936279296875, -6.054687500000, -1.132812500000, -2.093750000000, 1490588701
0.179443359375, 0.331787109375, 0.936279296875, -6.054687500000, -1.132812500000, -2.093750000000, 1490588701
0.269531250000, 0.277832031250, 0.914794921875, -3.632812500000, -0.820312500000, -1.250000000000, 1490588701
0.269531250000, 0.277832031250, 0.914794921875, -3.632812500000, -0.820312500000, -1.250000000000, 1490588701
0.269531250000, 0.277832031250, 0.914794921875, -3.632812500000, -0.820312500000, -1.250000000000, 1490588701
0.231445312500, 0.249511718750, 0.958984375000, -1.617187500000, -2.757812500000, -5.304687500000, 1490588701
0.231445312500, 0.249511718750, 0.958984375000, -1.617187500000, -2.757812500000, -5.304687500000, 1490588701
0.231445312500, 0.249511718750, 0.958984375000, -1.617187500000, -2.757812500000, -5.304687500000, 1490588701
0.341308593750, 0.409912109375, 1.019531250000, -3.257812500000, -2.367187500000, -2.734375000000, 1490588701
0.341308593750, 0.409912109375, 1.019531250000, -3.257812500000, -2.367187500000, -2.734375000000, 1490588701
0.341308593750, 0.409912109375, 1.019531250000, -3.257812500000, -2.367187500000, -2.734375000000, 1490588701
0.341308593750, 0.409912109375, 1.019531250000, -3.257812500000, -2.367187500000, -2.734375000000, 1490588701
0.294189453125, 0.278076171875, 1.027832031250, -6.945312500000, -0.859375000000, -4.054687500000, 1490588701
0.294189453125, 0.278076171875, 1.027832031250, -6.945312500000, -0.859375000000, -4.054687500000, 1490588701
0.294189453125, 0.278076171875, 1.027832031250, -6.945312500000, -0.859375000000, -4.054687500000, 1490588701
0.222167968750, 0.246337890625, 0.963378906250, -6.148437500000, -4.039062500000, 0.328125000000, 1490588701
0.222167968750, 0.246337890625, 0.963378906250, -6.148437500000, -4.039062500000, 0.328125000000, 1490588701
0.222167968750, 0.246337890625, 0.963378906250, -6.148437500000, -4.039062500000, 0.328125000000, 1490588701
0.234863281250, 0.281738281250, 0.942871093750, -1.578125000000, 4.109375000000, -1.460937500000, 1490588701
0.234863281250, 0.281738281250, 0.942871093750, -1.578125000000, 4.109375000000, -1.460937500000, 1490588701
0.234863281250, 0.281738281250, 0.942871093750, -1.578125000000, 4.109375000000, -1.460937500000, 1490588701
0.239257812500, 0.254394531250, 1.000976562500, -3.507812500000, -0.500000000000, 0.429687500000, 1490588701
0.239257812500, 0.254394531250, 1.000976562500, -3.507812500000, -0.500000000000, 0.429687500000, 1490588701
0.239257812500, 0.254394531250, 1.000976562500, -3.507812500000, -0.500000000000, 0.429687500000, 1490588701
0.228759765625, 0.313476562500, 0.988769531250, -4.093750000000, 4.101562500000, -5.367187500000, 1490588701
0.228759765625, 0.313476562500, 0.988769531250, -4.093750000000, 4.101562500000, -5.367187500000, 1490588701
0.228759765625, 0.313476562500, 0.988769531250, -4.093750000000, 4.101562500000, -5.367187500000, 1490588701
0.214843750000, 0.382812500000, 1.008544921875, -3.539062500000, 2.625000000000, -3.625000000000, 1490588701
0.168212890625, 0.230468750000, 0.972900390625, -2.695312500000, 0.984375000000, -1.976562500000, 1490588701
0.168212890625, 0.230468750000, 0.972900390625, -2.695312500000, 0.984375000000, -1.976562500000, 1490588701
0.168212890625, 0.230468750000, 0.972900390625, -2.695312500000, 0.984375000000, -1.976562500000, 1490588701
0.161376953125, 0.297607421875, 1.005615234375, -0.187500000000, 1.648437500000, -4.531250000000, 1490588701
0.161376953125, 0.297607421875, 1.005615234375, -0.187500000000, 1.648437500000, -4.531250000000, 1490588701
0.161376953125, 0.297607421875, 1.005615234375, -0.187500000000, 1.648437500000, -4.531250000000, 1490588701
0.324218750000, 0.390625000000, 0.966552734375, -6.742187500000, 0.195312500000, -1.265625000000, 1490588701
0.324218750000, 0.390625000000, 0.966552734375, -6.742187500000, 0.195312500000, -1.265625000000, 1490588701
0.324218750000, 0.390625000000, 0.966552734375, -6.742187500000, 0.195312500000, -1.265625000000, 1490588701
0.324218750000, 0.390625000000, 0.966552734375, -6.742187500000, 0.195312500000, -1.265625000000, 1490588701
0.249755859375, 0.403320312500, 0.932128906250, -4.437500000000, -1.757812500000, -4.390625000000, 1490588701
0.285888671875, 0.279785156250, 0.914794921875, -6.078125000000, -1.765625000000, -3.546875000000, 1490588701
0.285888671875, 0.279785156250, 0.914794921875, -6.078125000000, -1.765625000000, -3.546875000000, 1490588701
0.285888671875, 0.279785156250, 0.914794921875, -6.078125000000, -1.765625000000, -3.546875000000, 1490588701
0.285888671875, 0.279785156250, 0.914794921875, -6.078125000000, -1.765625000000, -3.546875000000, 1490588701
0.285888671875, 0.279785156250, 0.914794921875, -6.078125000000, -1.765625000000, -3.546875000000, 1490588701
0.252197265625, 0.341796875000, 0.874755859375, -3.195312500000, -1.187500000000, -4.335937500000, 1490588701
0.252197265625, 0.341796875000, 0.874755859375, -3.195312500000, -1.187500000000, -4.335937500000, 1490588701
0.252197265625, 0.341796875000, 0.874755859375, -3.195312500000, -1.187500000000, -4.335937500000, 1490588701
0.258056640625, 0.275878906250, 0.924316406250, -5.054687500000, -2.570312500000, -3.523437500000, 1490588701
0.258056640625, 0.275878906250, 0.924316406250, -5.054687500000, -2.570312500000, -3.523437500000, 1490588701
0.258056640625, 0.275878906250, 0.924316406250, -5.054687500000, -2.570312500000, -3.523437500000, 1490588701
0.258056640625, 0.275878906250, 0.924316406250, -5.054687500000, -2.570312500000, -3.523437500000, 1490588701
0.281005859375, 0.315185546875, 0.981689453125, -4.023437500000, 1.140625000000, -4.187500000000, 1490588701
0.281005859375, 0.315185546875, 0.981689453125, -4.023437500000, 1.140625000000, -4.187500000000, 1490588701
0.281005859375, 0.315185546875, 0.981689453125, -4.023437500000, 1.140625000000, -4.187500000000, 1490588701
0.258789062500, 0.363525390625, 0.923095703125, -3.718750000000, -1.750000000000, -4.882812500000, 1490588702
0.258789062500, 0.363525390625, 0.923095703125, -3.718750000000, -1.750000000000, -4.882812500000, 1490588702
0.258789062500, 0.363525390625, 0.923095703125, -3.718750000000, -1.750000000000, -4.882812500000, 1490588702
0.253906250000, 0.352294921875, 0.921630859375, -3.015625000000, 0.109375000000, -1.203125000000, 1490588702
0.253906250000, 0.352294921875, 0.921630859375, -3.015625000000, 0.109375000000, -1.203125000000, 1490588702
0.253906250000, 0.352294921875, 0.921630859375, -3.015625000000, 0.109375000000, -1.203125000000, 1490588702
0.168457031250, 0.337402343750, 0.874755859375, -6.078125000000, -0.085937500000, -4.101562500000, 1490588702
0.168457031250, 0.337402343750, 0.874755859375, -6.078125000000, -0.085937500000, -4.101562500000, 1490588702
0.168457031250, 0.337402343750, 0.874755859375, -6.078125000000, -0.085937500000, -4.101562500000, 1490588702
0.168457031250, 0.337402343750, 0.874755859375, -6.078125000000, -0.085937500000, -4.101562500000, 1490588702
0.326171875000, 0.252441406250, 1.001220703125, -3.101562500000, -2.023437500000, -1.554687500000, 1490588702
0.160644531250, 0.242431640625, 0.963867187500, -3.789062500000, -2.328125000000, -4.351562500000, 1490588702
0.160644531250, 0.242431640625, 0.963867187500, -3.789062500000, -2.328125000000, -4.351562500000, 1490588702
0.160644531250, 0.242431640625, 0.963867187500, -3.789062500000, -2.328125000000, -4.351562500000, 1490588702
0.160644531250, 0.242431640625, 0.963867187500, -3.789062500000, -2.328125000000, -4.351562500000, 1490588702
0.187988281250, 0.285400390625, 0.947265625000, -3.445312500000, -3.718750000000, -4.085937500000, 1490588702
0.173095703125, 0.287597656250, 0.951904296875, -1.781250000000, -2.039062500000, -6.906250000000, 1490588702
0.173095703125, 0.287597656250, 0.951904296875, -1.781250000000, -2.039062500000, -6.906250000000, 1490588702
0.173095703125, 0.287597656250, 0.951904296875, -1.781250000000, -2.039062500000, -6.906250000000, 1490588702
0.173095703125, 0.287597656250, 0.951904296875, -1.781250000000, -2.039062500000, -6.906250000000, 1490588702
0.173095703125, 0.287597656250, 0.951904296875, -1.781250000000, -2.039062500000, -6.906250000000, 1490588702
0.173095703125, 0.287597656250, 0.951904296875, -1.781250000000, -2.039062500000, -6.906250000000, 1490588702
0.173095703125, 0.287597656250, 0.951904296875, -1.781250000000, -2.039062500000, -6.906250000000, 1490588702
0.296142578125, 0.270751953125, 1.018310546875, -0.242187500000, 3.375000000000, -10.898437500000, 1490588702
0.170410156250, 0.229980468750, 0.966796875000, 0.515625000000, 2.656250000000, -7.406250000000, 1490588702
0.170410156250, 0.229980468750, 0.966796875000, 0.515625000000, 2.656250000000, -7.406250000000, 1490588702
0.170410156250, 0.229980468750, 0.966796875000, 0.515625000000, 2.656250000000, -7.406250000000, 1490588702
0.170410156250, 0.229980468750, 0.966796875000, 0.515625000000, 2.656250000000, -7.406250000000, 1490588702
0.259521484375, 0.165527343750, 1.010742187500, -2.500000000000, 6.648437500000, -9.000000000000, 1490588702
0.259521484375, 0.165527343750, 1.010742187500, -2.500000000000, 6.648437500000, -9.000000000000, 1490588702
0.259521484375, 0.165527343750, 1.010742187500, -2.500000000000, 6.648437500000, -9.000000000000, 1490588702
0.259521484375, 0.165527343750, 1.010742187500, -2.500000000000, 6.648437500000, -9.000000000000, 1490588702
0.253662109375, 0.316162109375, 0.973876953125, -1.937500000000, 4.484375000000, -5.078125000000, 1490588702
0.253662109375, 0.316162109375, 0.973876953125, -1.937500000000, 4.484375000000, -5.078125000000, 1490588702
0.253662109375, 0.316162109375, 0.973876953125, -1.937500000000, 4.484375000000, -5.078125000000, 1490588702
0.161132812500, 0.317626953125, 0.913818359375, -2.179687500000, 0.953125000000, -4.726562500000, 1490588702
0.161132812500, 0.317626953125, 0.913818359375, -2.179687500000, 0.953125000000, -4.726562500000, 1490588702
0.161132812500, 0.317626953125, 0.913818359375, -2.179687500000, 0.953125000000, -4.726562500000, 1490588702
0.161132812500, 0.317626953125, 0.913818359375, -2.179687500000, 0.953125000000, -4.726562500000, 1490588702
0.286376953125, 0.250976562500, 0.991943359375, -2.375000000000, 1.398437500000, -4.000000000000, 1490588702
0.286376953125, 0.250976562500, 0.991943359375, -2.375000000000, 1.398437500000, -4.000000000000, 1490588702
0.220458984375, 0.248046875000, 1.002685546875, -5.140625000000, -6.703125000000, -3.593750000000, 1490588702
0.121093750000, 0.258300781250, 0.934082031250, -6.742187500000, -1.390625000000, -2.515625000000, 1490588702
0.121093750000, 0.258300781250, 0.934082031250, -6.742187500000, -1.390625000000, -2.515625000000, 1490588702
0.121093750000, 0.258300781250, 0.934082031250, -6.742187500000, -1.390625000000, -2.515625000000, 1490588702
0.260498046875, 0.239013671875, 0.997314453125, -6.187500000000, 0.468750000000, -4.843750000000, 1490588702
0.260498046875, 0.239013671875, 0.997314453125, -6.187500000000, 0.468750000000, -4.843750000000, 1490588702
0.246826171875, 0.244140625000, 1.027587890625, -5.000000000000, 0.734375000000, -4.796875000000, 1490588702
0.246826171875, 0.244140625000, 1.027587890625, -5.000000000000, 0.734375000000, -4.796875000000, 1490588702
0.246826171875, 0.244140625000, 1.027587890625, -5.000000000000, 0.734375000000, -4.796875000000, 1490588702
0.246826171875, 0.244140625000, 1.027587890625, -5.000000000000, 0.734375000000, -4.796875000000, 1490588702
0.246826171875, 0.244140625000, 1.027587890625, -5.000000000000, 0.734375000000, -4.796875000000, 1490588702
0.263183593750, 0.322021484375, 0.957763671875, -3.328125000000, -2.984375000000, -1.296875000000, 1490588702
0.261962890625, 0.228759765625, 1.030273437500, -4.296875000000, -2.671875000000, -1.742187500000, 1490588702
0.261962890625, 0.228759765625, 1.030273437500, -4.296875000000, -2.671875000000, -1.742187500000, 1490588702
0.261962890625, 0.228759765625, 1.030273437500, -4.296875000000, -2.671875000000, -1.742187500000, 1490588702
0.332519531250, 0.165527343750, 0.909179687500, -2.476562500000, -0.515625000000, -6.132812500000, 1490588702
0.332519531250, 0.165527343750, 0.909179687500, -2.476562500000, -0.515625000000, -6.132812500000, 1490588702
0.332519531250, 0.165527343750, 0.909179687500, -2.476562500000, -0.515625000000, -6.132812500000, 1490588702
0.332519531250, 0.165527343750, 0.909179687500, -2.476562500000, -0.515625000000, -6.132812500000, 1490588702
0.332519531250, 0.165527343750, 0.909179687500, -2.476562500000, -0.515625000000, -6.132812500000, 1490588702
0.332519531250, 0.165527343750, 0.909179687500, -2.476562500000, -0.515625000000, -6.132812500000, 1490588702
0.219482421875, 0.327636718750, 1.011962890625, -2.296875000000, 2.187500000000, -4.054687500000, 1490588702
0.219482421875, 0.327636718750, 1.011962890625, -2.296875000000, 2.187500000000, -4.054687500000, 1490588702
0.219482421875, 0.327636718750, 1.011962890625, -2.296875000000, 2.187500000000, -4.054687500000, 1490588702
0.248779296875, 0.278076171875, 1.082763671875, -1.359375000000, -0.492187500000, -2.882812500000, 1490588702
0.248779296875, 0.278076171875, 1.082763671875, -1.359375000000, -0.492187500000, -2.882812500000, 1490588702
0.248779296875, 0.278076171875, 1.082763671875, -1.359375000000, -0.492187500000, -2.882812500000, 1490588702
0.225830078125, 0.323242187500, 0.911132812500, 0.468750000000, -0.093750000000, -4.929687500000, 1490588703
0.225830078125, 0.323242187500, 0.911132812500, 0.468750000000, -0.093750000000, -4.929687500000, 1490588703
0.225830078125, 0.323242187500, 0.911132812500, 0.468750000000, -0.093750000000, -4.929687500000, 1490588703
0.163818359375, 0.302734375000, 0.976318359375, -2.046875000000, -0.570312500000, -3.406250000000, 1490588703
0.163818359375, 0.302734375000, 0.976318359375, -2.046875000000, -0.570312500000, -3.406250000000, 1490588703
0.163818359375, 0.302734375000, 0.976318359375, -2.046875000000, -0.570312500000, -3.406250000000, 1490588703
0.163818359375, 0.302734375000, 0.976318359375, -2.046875000000, -0.570312500000, -3.406250000000, 1490588703
0.296386718750, 0.224609375000, 1.018310546875, -3.312500000000, 0.906250000000, -7.000000000000, 1490588703
0.296386718750, 0.224609375000, 1.018310546875, -3.312500000000, 0.906250000000, -7.000000000000, 1490588703
0.250732421875, 0.228271484375, 0.917968750000, -1.156250000000, 1.257812500000, -1.109375000000, 1490588703
0.163818359375, 0.277587890625, 1.025634765625, -1.921875000000, 0.820312500000, -2.210937500000, 1490588703
0.163818359375, 0.277587890625, 1.025634765625, -1.921875000000, 0.820312500000, -2.210937500000, 1490588703
0.190673828125, 0.284423828125, 0.922851562500, -1.218750000000, -0.953125000000, -2.210937500000, 1490588703
0.190673828125, 0.284423828125, 0.922851562500, -1.218750000000, -0.953125000000, -2.210937500000, 1490588703
0.190673828125, 0.284423828125, 0.922851562500, -1.218750000000, -0.953125000000, -2.210937500000, 1490588703
0.190673828125, 0.284423828125, 0.922851562500, -1.218750000000, -0.953125000000, -2.210937500000, 1490588703
0.190673828125, 0.284423828125, 0.922851562500, -1.218750000000, -0.953125000000, -2.210937500000, 1490588703
0.295410156250, 0.298583984375, 0.926513671875, -4.203125000000, 0.226562500000, -6.796875000000, 1490588703
0.271240234375, 0.260498046875, 0.985351562500, -3.171875000000, 0.789062500000, -1.531250000000, 1490588703
0.271240234375, 0.260498046875, 0.985351562500, -3.171875000000, 0.789062500000, -1.531250000000, 1490588703
0.271240234375, 0.260498046875, 0.985351562500, -3.171875000000, 0.789062500000, -1.531250000000, 1490588703
0.271240234375, 0.260498046875, 0.985351562500, -3.171875000000, 0.789062500000, -1.531250000000, 1490588703
0.271240234375, 0.260498046875, 0.985351562500, -3.171875000000, 0.789062500000, -1.531250000000, 1490588703
0.330322265625, 0.279785156250, 1.012695312500, -1.976562500000, 0.335937500000, -1.453125000000, 1490588703
0.330322265625, 0.279785156250, 1.012695312500, -1.976562500000, 0.335937500000, -1.453125000000, 1490588703
0.330322265625, 0.279785156250, 1.012695312500, -1.976562500000, 0.335937500000, -1.453125000000, 1490588703
0.229492187500, 0.319824218750, 1.002441406250, -2.992187500000, -3.062500000000, -5.078125000000, 1490588703
0.229492187500, 0.319824218750, 1.002441406250, -2.992187500000, -3.062500000000, -5.078125000000, 1490588703
0.229492187500, 0.319824218750, 1.002441406250, -2.992187500000, -3.062500000000, -5.078125000000, 1490588703
0.178710937500, 0.335449218750, 0.916748046875, -1.140625000000, 0.437500000000, -5.328125000000, 1490588703
0.178710937500, 0.335449218750, 0.916748046875, -1.140625000000, 0.437500000000, -5.328125000000, 1490588703
0.178710937500, 0.335449218750, 0.916748046875, -1.140625000000, 0.437500000000, -5.328125000000, 1490588703
0.178710937500, 0.335449218750, 0.916748046875, -1.140625000000, 0.437500000000, -5.328125000000, 1490588703
0.206787109375, 0.280029296875, 0.952148437500, -1.710937500000, 0.539062500000, 0.867187500000, 1490588703
0.206787109375, 0.280029296875, 0.952148437500, -1.710937500000, 0.539062500000, 0.867187500000, 1490588703
0.206787109375, 0.280029296875, 0.952148437500, -1.710937500000, 0.539062500000, 0.867187500000, 1490588703
0.249267578125, 0.250976562500, 1.001464843750, 1.867187500000, 3.054687500000, -6.273437500000, 1490588703
0.249267578125, 0.250976562500, 1.001464843750, 1.867187500000, 3.054687500000, -6.273437500000, 1490588703
0.249267578125, 0.250976562500, 1.001464843750, 1.867187500000, 3.054687500000, -6.273437500000, 1490588703
0.222412109375, 0.161132812500, 0.963134765625, -4.226562500000, -4.968750000000, -4.773437500000, 1490588703
0.222412109375, 0.161132812500, 0.963134765625, -4.226562500000, -4.968750000000, -4.773437500000, 1490588703
0.222412109375, 0.161132812500, 0.963134765625, -4.226562500000, -4.968750000000, -4.773437500000, 1490588703
0.315917968750, 0.241455078125, 0.906494140625, -1.648437500000, 2.132812500000, -3.679687500000, 1490588703
0.315917968750, 0.241455078125, 0.906494140625, -1.648437500000, 2.132812500000, -3.679687500000, 1490588703
0.315917968750, 0.241455078125, 0.906494140625, -1.648437500000, 2.132812500000, -3.679687500000, 1490588703
0.315917968750, 0.241455078125, 0.906494140625, -1.648437500000, 2.132812500000, -3.679687500000, 1490588703
0.270751953125, 0.274902343750, 0.997314453125, -1.460937500000, -0.921875000000, -1.492187500000, 1490588703
0.270751953125, 0.274902343750, 0.997314453125, -1.460937500000, -0.921875000000, -1.492187500000, 1490588703
0.270751953125, 0.274902343750, 0.997314453125, -1.460937500000, -0.921875000000, -1.492187500000, 1490588703
0.393310546875, 0.279785156250, 1.002197265625, -3.492187500000, 0.921875000000, -3.203125000000, 1490588703
0.393310546875, 0.279785156250, 1.002197265625, -3.492187500000, 0.921875000000, -3.203125000000, 1490588703
0.393310546875, 0.279785156250, 1.002197265625, -3.492187500000, 0.921875000000, -3.203125000000, 1490588703
0.266113281250, 0.257324218750, 0.997802734375, -4.242187500000, -2.703125000000, -4.132812500000, 1490588703
0.266113281250, 0.257324218750, 0.997802734375, -4.242187500000, -2.703125000000, -4.132812500000, 1490588703
0.266113281250, 0.257324218750, 0.997802734375, -4.242187500000, -2.703125000000, -4.132812500000, 1490588703
0.261474609375, 0.225585937500, 0.994628906250, -2.484375000000, 4.492187500000, -6.476562500000, 1490588703
0.261474609375, 0.225585937500, 0.994628906250, -2.484375000000, 4.492187500000, -6.476562500000, 1490588703
0.261474609375, 0.225585937500, 0.994628906250, -2.484375000000, 4.492187500000, -6.476562500000, 1490588703
0.261474609375, 0.225585937500, 0.994628906250, -2.484375000000, 4.492187500000, -6.476562500000, 1490588703
0.264160156250, 0.292236328125, 0.971679687500, -1.937500000000, -4.515625000000, -4.101562500000, 1490588703
0.264160156250, 0.292236328125, 0.971679687500, -1.937500000000, -4.515625000000, -4.101562500000, 1490588703
0.264160156250, 0.292236328125, 0.971679687500, -1.937500000000, -4.515625000000, -4.101562500000, 1490588703
0.252197265625, 0.322998046875, 0.988281250000, -1.890625000000, 2.078125000000, -3.500000000000, 1490588703
0.252197265625, 0.322998046875, 0.988281250000, -1.890625000000, 2.078125000000, -3.500000000000, 1490588703
0.252197265625, 0.322998046875, 0.988281250000, -1.890625000000, 2.078125000000, -3.500000000000, 1490588703
0.270751953125, 0.260253906250, 0.911376953125, -1.289062500000, -0.531250000000, -3.421875000000, 1490588704
0.270751953125, 0.260253906250, 0.911376953125, -1.289062500000, -0.531250000000, -3.421875000000, 1490588704
0.270751953125, 0.260253906250, 0.911376953125, -1.289062500000, -0.531250000000, -3.421875000000, 1490588704
0.186767578125, 0.227050781250, 0.925537109375, -1.601562500000, -0.296875000000, -4.429687500000, 1490588704
0.233642578125, 0.257812500000, 0.932861328125, -4.171875000000, 1.179687500000, -3.031250000000, 1490588704
0.233642578125, 0.257812500000, 0.932861328125, -4.171875000000, 1.179687500000, -3.031250000000, 1490588704
0.233642578125, 0.257812500000, 0.932861328125, -4.171875000000, 1.179687500000, -3.031250000000, 1490588704
0.233642578125, 0.257812500000, 0.932861328125, -4.171875000000, 1.179687500000, -3.031250000000, 1490588704
0.313476562500, 0.254394531250, 0.969238281250, -3.992187500000, 0.023437500000, -2.218750000000, 1490588704
0.243408203125, 0.299316406250, 1.023193359375, -3.992187500000, 0.023437500000, -2.218750000000, 1490588704
