ACC_X,ACC_Y,ACC_Z,G_X,G_Y,G_Z,Unix Time
-0.041748046875, -0.868408203125, -0.310546875000, -4.031250000000, 4.921875000000, -5.179687500000, 1491883458
-0.041748046875, -0.868408203125, -0.310546875000, -4.031250000000, 4.921875000000, -5.179687500000, 1491883458
-0.041748046875, -0.868408203125, -0.310546875000, -4.031250000000, 4.921875000000, -5.179687500000, 1491883458
-0.014892578125, -0.990478515625, -0.245605468750, -4.914062500000, 4.171875000000, -6.109375000000, 1491883458
-0.014892578125, -0.990478515625, -0.245605468750, -4.914062500000, 4.171875000000, -6.109375000000, 1491883458
-0.014892578125, -0.990478515625, -0.245605468750, -4.914062500000, 4.171875000000, -6.109375000000, 1491883458
-0.029052734375, -0.942382812500, -0.320800781250, -4.453125000000, 4.710937500000, -6.109375000000, 1491883458
-0.029052734375, -0.942382812500, -0.320800781250, -4.453125000000, 4.710937500000, -6.109375000000, 1491883458
0.010253906250, -0.934814453125, -0.299072265625, -1.781250000000, 2.343750000000, -1.664062500000, 1491883458
0.010253906250, -0.934814453125, -0.299072265625, -1.781250000000, 2.343750000000, -1.664062500000, 1491883458
0.010253906250, -0.934814453125, -0.299072265625, -1.781250000000, 2.343750000000, -1.664062500000, 1491883458
0.010253906250, -0.934814453125, -0.299072265625, -1.781250000000, 2.343750000000, -1.664062500000, 1491883458
0.010253906250, -0.934814453125, -0.299072265625, -1.781250000000, 2.343750000000, -1.664062500000, 1491883458
0.045166015625, -0.940429687500, -0.314697265625, -3.929687500000, 2.000000000000, -4.437500000000, 1491883458
0.045166015625, -0.940429687500, -0.314697265625, -3.929687500000, 2.000000000000, -4.437500000000, 1491883458
0.045166015625, -0.940429687500, -0.314697265625, -3.929687500000, 2.000000000000, -4.437500000000, 1491883458
-0.030029296875, -0.906982421875, -0.232421875000, -4.648437500000, 2.710937500000, -6.257812500000, 1491883458
-0.030029296875, -0.906982421875, -0.232421875000, -4.648437500000, 2.710937500000, -6.257812500000, 1491883458
-0.030029296875, -0.906982421875, -0.232421875000, -4.648437500000, 2.710937500000, -6.257812500000, 1491883458
0.023437500000, -1.020019531250, -0.334228515625, -4.992187500000, -0.921875000000, -6.625000000000, 1491883458
0.023437500000, -1.020019531250, -0.334228515625, -4.992187500000, -0.921875000000, -6.625000000000, 1491883458
0.023437500000, -1.020019531250, -0.334228515625, -4.992187500000, -0.921875000000, -6.625000000000, 1491883458
0.023437500000, -1.020019531250, -0.334228515625, -4.992187500000, -0.921875000000, -6.625000000000, 1491883458
-0.077148437500, -1.007812500000, -0.335937500000, -2.851562500000, 0.062500000000, -1.273437500000, 1491883458
-0.077148437500, -1.007812500000, -0.335937500000, -2.851562500000, 0.062500000000, -1.273437500000, 1491883458
-0.077148437500, -1.007812500000, -0.335937500000, -2.851562500000, 0.062500000000, -1.273437500000, 1491883458
0.014160156250, -0.943359375000, -0.259033203125, -6.195312500000, 2.687500000000, -1.875000000000, 1491883458
0.014160156250, -0.943359375000, -0.259033203125, -6.195312500000, 2.687500000000, -1.875000000000, 1491883458
0.014160156250, -0.943359375000, -0.259033203125, -6.195312500000, 2.687500000000, -1.875000000000, 1491883458
-0.048583984375, -0.950683593750, -0.315429687500, -6.109375000000, -2.453125000000, -3.945312500000, 1491883458
-0.048583984375, -0.950683593750, -0.315429687500, -6.109375000000, -2.453125000000, -3.945312500000, 1491883458
-0.048583984375, -0.950683593750, -0.315429687500, -6.109375000000, -2.453125000000, -3.945312500000, 1491883458
0.005859375000, -0.959716796875, -0.343505859375, -6.765625000000, 0.242187500000, -6.539062500000, 1491883458
0.005859375000, -0.959716796875, -0.343505859375, -6.765625000000, 0.242187500000, -6.539062500000, 1491883458
0.005859375000, -0.959716796875, -0.343505859375, -6.765625000000, 0.242187500000, -6.539062500000, 1491883458
0.005859375000, -0.959716796875, -0.343505859375, -6.765625000000, 0.242187500000, -6.539062500000, 1491883458
0.039794921875, -0.859619140625, -0.233154296875, -2.867187500000, -2.804687500000, -3.804687500000, 1491883458
0.039794921875, -0.859619140625, -0.233154296875, -2.867187500000, -2.804687500000, -3.804687500000, 1491883458
0.039794921875, -0.859619140625, -0.233154296875, -2.867187500000, -2.804687500000, -3.804687500000, 1491883458
0.028320312500, -0.967529296875, -0.223388671875, -1.632812500000, -0.257812500000, -1.578125000000, 1491883458
0.028320312500, -0.967529296875, -0.223388671875, -1.632812500000, -0.257812500000, -1.578125000000, 1491883458
0.028320312500, -0.967529296875, -0.223388671875, -1.632812500000, -0.257812500000, -1.578125000000, 1491883458
-0.018066406250, -0.892822265625, -0.313476562500, -2.523437500000, -1.515625000000, -5.218750000000, 1491883458
-0.018066406250, -0.892822265625, -0.313476562500, -2.523437500000, -1.515625000000, -5.218750000000, 1491883458
-0.018066406250, -0.892822265625, -0.313476562500, -2.523437500000, -1.515625000000, -5.218750000000, 1491883458
-0.023681640625, -0.931396484375, -0.315673828125, 0.406250000000, -2.046875000000, -5.585937500000, 1491883458
-0.023681640625, -0.931396484375, -0.315673828125, 0.406250000000, -2.046875000000, -5.585937500000, 1491883458
-0.023681640625, -0.931396484375, -0.315673828125, 0.406250000000, -2.046875000000, -5.585937500000, 1491883458
-0.023681640625, -0.931396484375, -0.315673828125, 0.406250000000, -2.046875000000, -5.585937500000, 1491883458
0.066406250000, -0.924804687500, -0.338867187500, 2.773437500000, 0.851562500000, -3.750000000000, 1491883458
0.066406250000, -0.924804687500, -0.338867187500, 2.773437500000, 0.851562500000, -3.750000000000, 1491883458
0.066406250000, -0.924804687500, -0.338867187500, 2.773437500000, 0.851562500000, -3.750000000000, 1491883458
0.084228515625, -0.948974609375, -0.227050781250, -2.617187500000, -0.031250000000, -4.375000000000, 1491883458
0.084228515625, -0.948974609375, -0.227050781250, -2.617187500000, -0.031250000000, -4.375000000000, 1491883458
0.084228515625, -0.948974609375, -0.227050781250, -2.617187500000, -0.031250000000, -4.375000000000, 1491883458
-0.091796875000, -0.916259765625, -0.324462890625, 0.351562500000, 1.484375000000, -6.781250000000, 1491883458
-0.091796875000, -0.916259765625, -0.324462890625, 0.351562500000, 1.484375000000, -6.781250000000, 1491883458
-0.091796875000, -0.916259765625, -0.324462890625, 0.351562500000, 1.484375000000, -6.781250000000, 1491883458
-0.014404296875, -0.829101562500, -0.318115234375, -11.132812500000, 5.570312500000, -3.203125000000, 1491883459
-0.014404296875, -0.829101562500, -0.318115234375, -11.132812500000, 5.570312500000, -3.203125000000, 1491883459
-0.014404296875, -0.829101562500, -0.318115234375, -11.132812500000, 5.570312500000, -3.203125000000, 1491883459
0.019775390625, -0.821289062500, -0.427734375000, -30.539062500000, -4.945312500000, -3.921875000000, 1491883459
0.019775390625, -0.821289062500, -0.427734375000, -30.539062500000, -4.945312500000, -3.921875000000, 1491883459
0.019775390625, -0.821289062500, -0.427734375000, -30.539062500000, -4.945312500000, -3.921875000000, 1491883459
0.019775390625, -0.821289062500, -0.427734375000, -30.539062500000, -4.945312500000, -3.921875000000, 1491883459
0.006103515625, -0.160644531250, -0.111083984375, -60.109375000000, 27.679687500000, -5.000000000000, 1491883459
0.006103515625, -0.160644531250, -0.111083984375, -60.109375000000, 27.679687500000, -5.000000000000, 1491883459
0.006103515625, -0.160644531250, -0.111083984375, -60.109375000000, 27.679687500000, -5.000000000000, 1491883459
0.513916015625, -1.128662109375, -0.004882812500, 74.843750000000, 219.390625000000, 45.890625000000, 1491883459
0.513916015625, -1.128662109375, -0.004882812500, 74.843750000000, 219.390625000000, 45.890625000000, 1491883459
0.513916015625, -1.128662109375, -0.004882812500, 74.843750000000, 219.390625000000, 45.890625000000, 1491883459
0.513916015625, -1.128662109375, -0.004882812500, 74.843750000000, 219.390625000000, 45.890625000000, 1491883459
-0.109619140625, -2.712646484375, -0.529541015625, 59.453125000000, -256.000000000000, -27.078125000000, 1491883459
-0.109619140625, -2.712646484375, -0.529541015625, 59.453125000000, -256.000000000000, -27.078125000000, 1491883459
-0.109619140625, -2.712646484375, -0.529541015625, 59.453125000000, -256.000000000000, -27.078125000000, 1491883459
-0.109619140625, -2.712646484375, -0.529541015625, 59.453125000000, -256.000000000000, -27.078125000000, 1491883459
0.388671875000, -3.106933593750, 0.206054687500, 48.710937500000, 86.984375000000, -8.867187500000, 1491883459
0.636230468750, -3.770507812500, -0.974121093750, -28.468750000000, 178.867187500000, -23.062500000000, 1491883459
0.636230468750, -3.770507812500, -0.974121093750, -28.468750000000, 178.867187500000, -23.062500000000, 1491883459
0.636230468750, -3.770507812500, -0.974121093750, -28.468750000000, 178.867187500000, -23.062500000000, 1491883459
0.216064453125, -3.825683593750, -0.896972656250, -129.968750000000, -33.601562500000, 40.140625000000, 1491883459
-0.212890625000, -3.397460937500, -0.793212890625, 173.554687500000, 19.609375000000, -41.789062500000, 1491883459
-0.212890625000, -3.397460937500, -0.793212890625, 173.554687500000, 19.609375000000, -41.789062500000, 1491883459
-0.212890625000, -3.397460937500, -0.793212890625, 173.554687500000, 19.609375000000, -41.789062500000, 1491883459
0.090820312500, -0.927734375000, -0.057617187500, 81.234375000000, 102.296875000000, -66.507812500000, 1491883459
0.090820312500, -0.927734375000, -0.057617187500, 81.234375000000, 102.296875000000, -66.507812500000, 1491883459
0.090820312500, -0.927734375000, -0.057617187500, 81.234375000000, 102.296875000000, -66.507812500000, 1491883459
0.090820312500, -0.927734375000, -0.057617187500, 81.234375000000, 102.296875000000, -66.507812500000, 1491883459
-0.144042968750, 0.219726562500, 0.070312500000, 15.554687500000, 36.765625000000, 0.132812500000, 1491883459
-0.144042968750, 0.219726562500, 0.070312500000, 15.554687500000, 36.765625000000, 0.132812500000, 1491883459
-0.144042968750, 0.219726562500, 0.070312500000, 15.554687500000, 36.765625000000, 0.132812500000, 1491883459
0.065429687500, 0.097412109375, -0.010009765625, 2.343750000000, 81.664062500000, 56.039062500000, 1491883459
0.065429687500, 0.097412109375, -0.010009765625, 2.343750000000, 81.664062500000, 56.039062500000, 1491883459
0.065429687500, 0.097412109375, -0.010009765625, 2.343750000000, 81.664062500000, 56.039062500000, 1491883459
0.009521484375, 0.041259765625, 0.020507812500, 47.835937500000, 163.687500000000, 57.640625000000, 1491883459
0.009521484375, 0.041259765625, 0.020507812500, 47.835937500000, 163.687500000000, 57.640625000000, 1491883459
0.009521484375, 0.041259765625, 0.020507812500, 47.835937500000, 163.687500000000, 57.640625000000, 1491883459
-0.021240234375, 0.126220703125, -0.077636718750, 65.031250000000, 44.812500000000, 57.718750000000, 1491883459
-0.021240234375, 0.126220703125, -0.077636718750, 65.031250000000, 44.812500000000, 57.718750000000, 1491883459
-0.021240234375, 0.126220703125, -0.077636718750, 65.031250000000, 44.812500000000, 57.718750000000, 1491883459
-0.021240234375, 0.126220703125, -0.077636718750, 65.031250000000, 44.812500000000, 57.718750000000, 1491883459
0.012451171875, -0.046386718750, 0.014160156250, 105.117187500000, -73.843750000000, 9.953125000000, 1491883459
0.012451171875, -0.046386718750, 0.014160156250, 105.117187500000, -73.843750000000, 9.953125000000, 1491883459
0.012451171875, -0.046386718750, 0.014160156250, 105.117187500000, -73.843750000000, 9.953125000000, 1491883459
0.038085937500, -0.058105468750, -0.026855468750, 119.015625000000, -66.664062500000, -77.960937500000, 1491883459
0.038085937500, -0.058105468750, -0.026855468750, 119.015625000000, -66.664062500000, -77.960937500000, 1491883459
0.038085937500, -0.058105468750, -0.026855468750, 119.015625000000, -66.664062500000, -77.960937500000, 1491883459
-0.066650390625, -0.000244140625, -0.067382812500, 93.601562500000, -46.445312500000, -85.562500000000, 1491883459
-0.066650390625, -0.000244140625, -0.067382812500, 93.601562500000, -46.445312500000, -85.562500000000, 1491883459
-0.066650390625, -0.000244140625, -0.067382812500, 93.601562500000, -46.445312500000, -85.562500000000, 1491883459
0.010498046875, 0.131835937500, 0.024902343750, 80.914062500000, -53.500000000000, -65.437500000000, 1491883459
0.049072265625, -2.288085937500, -0.011718750000, 202.781250000000, -7.101562500000, 25.125000000000, 1491883459
0.049072265625, -2.288085937500, -0.011718750000, 202.781250000000, -7.101562500000, 25.125000000000, 1491883459
0.049072265625, -2.288085937500, -0.011718750000, 202.781250000000, -7.101562500000, 25.125000000000, 1491883459
0.387451171875, -2.813232421875, -0.223632812500, -256.000000000000, -89.023437500000, -0.054687500000, 1491883459
0.387451171875, -2.813232421875, -0.223632812500, -256.000000000000, -89.023437500000, -0.054687500000, 1491883459
0.387451171875, -2.813232421875, -0.223632812500, -256.000000000000, -89.023437500000, -0.054687500000, 1491883459
0.387451171875, -2.813232421875, -0.223632812500, -256.000000000000, -89.023437500000, -0.054687500000, 1491883459
0.387451171875, -2.813232421875, -0.223632812500, -256.000000000000, -89.023437500000, -0.054687500000, 1491883459
0.387451171875, -2.813232421875, -0.223632812500, -256.000000000000, -89.023437500000, -0.054687500000, 1491883459
0.016113281250, -4.112060546875, -0.214843750000, -256.000000000000, 121.023437500000, 63.757812500000, 1491883459
0.016113281250, -4.112060546875, -0.214843750000, -256.000000000000, 121.023437500000, 63.757812500000, 1491883459
0.016113281250, -4.112060546875, -0.214843750000, -256.000000000000, 121.023437500000, 63.757812500000, 1491883459
-0.051025390625, -0.884033203125, -0.115234375000, 218.140625000000, -62.734375000000, -42.562500000000, 1491883460
-0.051025390625, -0.884033203125, -0.115234375000, 218.140625000000, -62.734375000000, -42.562500000000, 1491883460
-0.051025390625, -0.884033203125, -0.115234375000, 218.140625000000, -62.734375000000, -42.562500000000, 1491883460
-0.051025390625, -0.884033203125, -0.115234375000, 218.140625000000, -62.734375000000, -42.562500000000, 1491883460
0.084228515625, -0.140380859375, -0.015625000000, 48.617187500000, 81.492187500000, -46.562500000000, 1491883460
0.084228515625, -0.140380859375, -0.015625000000, 48.617187500000, 81.492187500000, -46.562500000000, 1491883460
0.084228515625, -0.140380859375, -0.015625000000, 48.617187500000, 81.492187500000, -46.562500000000, 1491883460
0.103759765625, -0.459716796875, -0.081298828125, 41.171875000000, 118.500000000000, 36.210937500000, 1491883460
0.103759765625, -0.459716796875, -0.081298828125, 41.171875000000, 118.500000000000, 36.210937500000, 1491883460
0.103759765625, -0.459716796875, -0.081298828125, 41.171875000000, 118.500000000000, 36.210937500000, 1491883460
0.205322265625, -0.910156250000, -0.091308593750, 57.335937500000, -69.125000000000, 4.234375000000, 1491883460
0.205322265625, -0.910156250000, -0.091308593750, 57.335937500000, -69.125000000000, 4.234375000000, 1491883460
0.205322265625, -0.910156250000, -0.091308593750, 57.335937500000, -69.125000000000, 4.234375000000, 1491883460
-0.075195312500, -1.068115234375, -0.035400390625, -34.476562500000, -5.679687500000, 14.445312500000, 1491883460
-0.075195312500, -1.068115234375, -0.035400390625, -34.476562500000, -5.679687500000, 14.445312500000, 1491883460
-0.075195312500, -1.068115234375, -0.035400390625, -34.476562500000, -5.679687500000, 14.445312500000, 1491883460
-0.075195312500, -1.068115234375, -0.035400390625, -34.476562500000, -5.679687500000, 14.445312500000, 1491883460
0.021240234375, -0.952392578125, -0.138427734375, -138.562500000000, 79.875000000000, 6.218750000000, 1491883460
0.021240234375, -0.952392578125, -0.138427734375, -138.562500000000, 79.875000000000, 6.218750000000, 1491883460
0.021240234375, -0.952392578125, -0.138427734375, -138.562500000000, 79.875000000000, 6.218750000000, 1491883460
0.194335937500, -1.196533203125, -0.691406250000, -256.000000000000, -145.664062500000, -11.078125000000, 1491883460
0.194335937500, -1.196533203125, -0.691406250000, -256.000000000000, -145.664062500000, -11.078125000000, 1491883460
0.194335937500, -1.196533203125, -0.691406250000, -256.000000000000, -145.664062500000, -11.078125000000, 1491883460
-0.275146484375, -0.900878906250, -0.623535156250, 82.523437500000, 3.812500000000, -11.406250000000, 1491883460
-0.275146484375, -0.900878906250, -0.623535156250, 82.523437500000, 3.812500000000, -11.406250000000, 1491883460
-0.275146484375, -0.900878906250, -0.623535156250, 82.523437500000, 3.812500000000, -11.406250000000, 1491883460
-0.001708984375, -1.026123046875, -0.062011718750, 35.500000000000, 64.507812500000, -15.695312500000, 1491883460
-0.001708984375, -1.026123046875, -0.062011718750, 35.500000000000, 64.507812500000, -15.695312500000, 1491883460
-0.001708984375, -1.026123046875, -0.062011718750, 35.500000000000, 64.507812500000, -15.695312500000, 1491883460
-0.001708984375, -1.026123046875, -0.062011718750, 35.500000000000, 64.507812500000, -15.695312500000, 1491883460
0.119140625000, -0.973632812500, -0.126953125000, -32.140625000000, 53.179687500000, -6.515625000000, 1491883460
0.119140625000, -0.973632812500, -0.126953125000, -32.140625000000, 53.179687500000, -6.515625000000, 1491883460
0.119140625000, -0.973632812500, -0.126953125000, -32.140625000000, 53.179687500000, -6.515625000000, 1491883460
0.038818359375, -0.921386718750, -0.262695312500, -39.804687500000, -139.953125000000, 3.960937500000, 1491883460
0.038818359375, -0.921386718750, -0.262695312500, -39.804687500000, -139.953125000000, 3.960937500000, 1491883460
0.038818359375, -0.921386718750, -0.262695312500, -39.804687500000, -139.953125000000, 3.960937500000, 1491883460
-0.142089843750, -0.944824218750, -1.003906250000, -56.460937500000, 102.398437500000, -10.984375000000, 1491883460
-0.142089843750, -0.944824218750, -1.003906250000, -56.460937500000, 102.398437500000, -10.984375000000, 1491883460
-0.142089843750, -0.944824218750, -1.003906250000, -56.460937500000, 102.398437500000, -10.984375000000, 1491883460
0.021484375000, -0.868652343750, -0.251708984375, 38.132812500000, 17.765625000000, -3.734375000000, 1491883460
0.021484375000, -0.868652343750, -0.251708984375, 38.132812500000, 17.765625000000, -3.734375000000, 1491883460
0.021484375000, -0.868652343750, -0.251708984375, 38.132812500000, 17.765625000000, -3.734375000000, 1491883460
0.021484375000, -0.868652343750, -0.251708984375, 38.132812500000, 17.765625000000, -3.734375000000, 1491883460
0.025878906250, -0.854980468750, -0.207031250000, 2.398437500000, 5.664062500000, -5.218750000000, 1491883460
0.025878906250, -0.854980468750, -0.207031250000, 2.398437500000, 5.664062500000, -5.218750000000, 1491883460
0.025878906250, -0.854980468750, -0.207031250000, 2.398437500000, 5.664062500000, -5.218750000000, 1491883460
0.032958984375, -0.925048828125, -0.254882812500, -13.585937500000, 0.585937500000, -5.390625000000, 1491883460
-0.030029296875, -1.001953125000, -0.369384765625, -35.929687500000, 8.210937500000, -4.984375000000, 1491883460
-0.030029296875, -1.001953125000, -0.369384765625, -35.929687500000, 8.210937500000, -4.984375000000, 1491883460
-0.030029296875, -1.001953125000, -0.369384765625, -35.929687500000, 8.210937500000, -4.984375000000, 1491883460
-0.030029296875, -1.001953125000, -0.369384765625, -35.929687500000, 8.210937500000, -4.984375000000, 1491883460
-0.030029296875, -1.001953125000, -0.369384765625, -35.929687500000, 8.210937500000, -4.984375000000, 1491883460
0.003417968750, -0.980468750000, -0.251953125000, 15.476562500000, 2.296875000000, -9.187500000000, 1491883460
0.003417968750, -0.980468750000, -0.251953125000, 15.476562500000, 2.296875000000, -9.187500000000, 1491883460
0.003417968750, -0.980468750000, -0.251953125000, 15.476562500000, 2.296875000000, -9.187500000000, 1491883460
0.003417968750, -0.980468750000, -0.251953125000, 15.476562500000, 2.296875000000, -9.187500000000, 1491883460
0.010742187500, -0.962890625000, -0.269287109375, 1.679687500000, 0.968750000000, -8.210937500000, 1491883460
0.010742187500, -0.962890625000, -0.269287109375, 1.679687500000, 0.968750000000, -8.210937500000, 1491883460
0.010742187500, -0.962890625000, -0.269287109375, 1.679687500000, 0.968750000000, -8.210937500000, 1491883460
0.054443359375, -0.940917968750, -0.206542968750, -14.343750000000, -4.031250000000, -4.023437500000, 1491883460
0.054443359375, -0.940917968750, -0.206542968750, -14.343750000000, -4.031250000000, -4.023437500000, 1491883460
0.054443359375, -0.940917968750, -0.206542968750, -14.343750000000, -4.031250000000, -4.023437500000, 1491883460
-0.021484375000, -1.020019531250, -0.264892578125, -9.054687500000, 4.046875000000, -3.062500000000, 1491883460
-0.021484375000, -1.020019531250, -0.264892578125, -9.054687500000, 4.046875000000, -3.062500000000, 1491883460
-0.021484375000, -1.020019531250, -0.264892578125, -9.054687500000, 4.046875000000, -3.062500000000, 1491883460
0.155029296875, -0.859619140625, -0.325195312500, 4.445312500000, -6.046875000000, -2.695312500000, 1491883460
0.155029296875, -0.859619140625, -0.325195312500, 4.445312500000, -6.046875000000, -2.695312500000, 1491883460
0.155029296875, -0.859619140625, -0.325195312500, 4.445312500000, -6.046875000000, -2.695312500000, 1491883461
0.155029296875, -0.859619140625, -0.325195312500, 4.445312500000, -6.046875000000, -2.695312500000, 1491883461
0.039062500000, -0.950683593750, -0.334960937500, -1.804687500000, -0.820312500000, -8.015625000000, 1491883461
0.039062500000, -0.950683593750, -0.334960937500, -1.804687500000, -0.820312500000, -8.015625000000, 1491883461
0.039062500000, -0.950683593750, -0.334960937500, -1.804687500000, -0.820312500000, -8.015625000000, 1491883461
0.092529296875, -0.925292968750, -0.325927734375, -1.757812500000, -2.453125000000, -1.250000000000, 1491883461
0.092529296875, -0.925292968750, -0.325927734375, -1.757812500000, -2.453125000000, -1.250000000000, 1491883461
0.092529296875, -0.925292968750, -0.325927734375, -1.757812500000, -2.453125000000, -1.250000000000, 1491883461
-0.030761718750, -0.988769531250, -0.261230468750, -0.039062500000, 0.679687500000, -1.742187500000, 1491883461
-0.030761718750, -0.988769531250, -0.261230468750, -0.039062500000, 0.679687500000, -1.742187500000, 1491883461
-0.030761718750, -0.988769531250, -0.261230468750, -0.039062500000, 0.679687500000, -1.742187500000, 1491883461
0.080810546875, -0.941162109375, -0.337402343750, 0.273437500000, -1.718750000000, 0.703125000000, 1491883461
0.080810546875, -0.941162109375, -0.337402343750, 0.273437500000, -1.718750000000, 0.703125000000, 1491883461
0.080810546875, -0.941162109375, -0.337402343750, 0.273437500000, -1.718750000000, 0.703125000000, 1491883461
0.080810546875, -0.941162109375, -0.337402343750, 0.273437500000, -1.718750000000, 0.703125000000, 1491883461
0.028076171875, -1.024902343750, -0.238037109375, -0.617187500000, -1.507812500000, -4.921875000000, 1491883461
0.028076171875, -1.024902343750, -0.238037109375, -0.617187500000, -1.507812500000, -4.921875000000, 1491883461
0.028076171875, -1.024902343750, -0.238037109375, -0.617187500000, -1.507812500000, -4.921875000000, 1491883461
-0.011962890625, -1.004150390625, -0.300048828125, 0.421875000000, -4.757812500000, -1.164062500000, 1491883461
-0.011962890625, -1.004150390625, -0.300048828125, 0.421875000000, -4.757812500000, -1.164062500000, 1491883461
-0.011962890625, -1.004150390625, -0.300048828125, 0.421875000000, -4.757812500000, -1.164062500000, 1491883461
0.143066406250, -0.964355468750, -0.232666015625, -2.953125000000, 0.812500000000, -1.632812500000, 1491883461
0.143066406250, -0.964355468750, -0.232666015625, -2.953125000000, 0.812500000000, -1.632812500000, 1491883461
0.143066406250, -0.964355468750, -0.232666015625, -2.953125000000, 0.812500000000, -1.632812500000, 1491883461
0.035400390625, -0.960205078125, -0.378662109375, 0.492187500000, -4.359375000000, -1.453125000000, 1491883461
0.035400390625, -0.960205078125, -0.378662109375, 0.492187500000, -4.359375000000, -1.453125000000, 1491883461
0.035400390625, -0.960205078125, -0.378662109375, 0.492187500000, -4.359375000000, -1.453125000000, 1491883461
0.035400390625, -0.960205078125, -0.378662109375, 0.492187500000, -4.359375000000, -1.453125000000, 1491883461
0.072265625000, -0.912841796875, -0.305908203125, -1.632812500000, -1.843750000000, 0.507812500000, 1491883461
0.072265625000, -0.912841796875, -0.305908203125, -1.632812500000, -1.843750000000, 0.507812500000, 1491883461
0.072265625000, -0.912841796875, -0.305908203125, -1.632812500000, -1.843750000000, 0.507812500000, 1491883461
-0.018554687500, -0.944580078125, -0.330566406250, -2.117187500000, 2.242187500000, -5.617187500000, 1491883461
-0.018554687500, -0.944580078125, -0.330566406250, -2.117187500000, 2.242187500000, -5.617187500000, 1491883461
-0.018554687500, -0.944580078125, -0.330566406250, -2.117187500000, 2.242187500000, -5.617187500000, 1491883461
0.030517578125, -0.959228515625, -0.327636718750, 0.812500000000, 0.070312500000, -3.585937500000, 1491883461
0.030517578125, -0.959228515625, -0.327636718750, 0.812500000000, 0.070312500000, -3.585937500000, 1491883461
0.009033203125, -0.862304687500, -0.330078125000, -0.500000000000, 1.281250000000, -7.601562500000, 1491883461
0.009033203125, -0.862304687500, -0.330078125000, -0.500000000000, 1.281250000000, -7.601562500000, 1491883461
0.009033203125, -0.862304687500, -0.330078125000, -0.500000000000, 1.281250000000, -7.601562500000, 1491883461
0.009033203125, -0.862304687500, -0.330078125000, -0.500000000000, 1.281250000000, -7.601562500000, 1491883461
0.009033203125, -0.862304687500, -0.330078125000, -0.500000000000, 1.281250000000, -7.601562500000, 1491883461
0.005859375000, -0.950927734375, -0.239746093750, 2.882812500000, 2.914062500000, -5.960937500000, 1491883461
0.005859375000, -0.950927734375, -0.239746093750, 2.882812500000, 2.914062500000, -5.960937500000, 1491883461
0.005859375000, -0.950927734375, -0.239746093750, 2.882812500000, 2.914062500000, -5.960937500000, 1491883461
0.018798828125, -0.944580078125, -0.241943359375, -0.398437500000, 4.859375000000, -3.406250000000, 1491883461
0.018798828125, -0.944580078125, -0.241943359375, -0.398437500000, 4.859375000000, -3.406250000000, 1491883461
0.018798828125, -0.944580078125, -0.241943359375, -0.398437500000, 4.859375000000, -3.406250000000, 1491883461
-0.000244140625, -0.854003906250, -0.308837890625, -0.765625000000, 3.765625000000, -4.953125000000, 1491883461
-0.000244140625, -0.854003906250, -0.308837890625, -0.765625000000, 3.765625000000, -4.953125000000, 1491883461
-0.000244140625, -0.854003906250, -0.308837890625, -0.765625000000, 3.765625000000, -4.953125000000, 1491883461
-0.012451171875, -1.006835937500, -0.282470703125, -2.734375000000, 3.484375000000, -10.039062500000, 1491883461
-0.012451171875, -1.006835937500, -0.282470703125, -2.734375000000, 3.484375000000, -10.039062500000, 1491883461
-0.012451171875, -1.006835937500, -0.282470703125, -2.734375000000, 3.484375000000, -10.039062500000, 1491883461
-0.012451171875, -1.006835937500, -0.282470703125, -2.734375000000, 3.484375000000, -10.039062500000, 1491883461
0.000732421875, -0.873779296875, -0.243652343750, -2.812500000000, 4.390625000000, -7.234375000000, 1491883461
0.000732421875, -0.873779296875, -0.243652343750, -2.812500000000, 4.390625000000, -7.234375000000, 1491883461
0.000732421875, -0.873779296875, -0.243652343750, -2.812500000000, 4.390625000000, -7.234375000000, 1491883461
-0.078125000000, -0.956054687500, -0.387207031250, 0.906250000000, 1.039062500000, -6.007812500000, 1491883461
-0.078125000000, -0.956054687500, -0.387207031250, 0.906250000000, 1.039062500000, -6.007812500000, 1491883461
-0.078125000000, -0.956054687500, -0.387207031250, 0.906250000000, 1.039062500000, -6.007812500000, 1491883461
0.066650390625, -0.948486328125, -0.337402343750, -2.335937500000, 2.640625000000, -7.617187500000, 1491883461
0.066650390625, -0.948486328125, -0.337402343750, -2.335937500000, 2.640625000000, -7.617187500000, 1491883461
0.066650390625, -0.948486328125, -0.337402343750, -2.335937500000, 2.640625000000, -7.617187500000, 1491883461
0.012939453125, -0.966796875000, -0.393066406250, -2.304687500000, 1.648437500000, -7.312500000000, 1491883461
0.068603515625, -0.957519531250, -0.387207031250, 0.187500000000, 2.757812500000, -3.406250000000, 1491883462
-0.025634765625, -0.868408203125, -0.298583984375, 0.789062500000, 3.226562500000, -5.054687500000, 1491883462
-0.025634765625, -0.868408203125, -0.298583984375, 0.789062500000, 3.226562500000, -5.054687500000, 1491883462
-0.025634765625, -0.868408203125, -0.298583984375, 0.789062500000, 3.226562500000, -5.054687500000, 1491883462
-0.025634765625, -0.868408203125, -0.298583984375, 0.789062500000, 3.226562500000, -5.054687500000, 1491883462
-0.002685546875, -1.011962890625, -0.380615234375, -1.140625000000, 4.179687500000, -8.843750000000, 1491883462
0.033935546875, -0.937500000000, -0.288085937500, -2.843750000000, -0.703125000000, -10.617187500000, 1491883462
0.033935546875, -0.937500000000, -0.288085937500, -2.843750000000, -0.703125000000, -10.617187500000, 1491883462
0.033935546875, -0.937500000000, -0.288085937500, -2.843750000000, -0.703125000000, -10.617187500000, 1491883462
0.072998046875, -0.978271484375, -0.282714843750, -1.476562500000, -4.429687500000, -4.992187500000, 1491883462
0.072998046875, -0.978271484375, -0.282714843750, -1.476562500000, -4.429687500000, -4.992187500000, 1491883462
0.072998046875, -0.978271484375, -0.282714843750, -1.476562500000, -4.429687500000, -4.992187500000, 1491883462
0.029296875000, -0.951904296875, -0.383789062500, 0.609375000000, -4.289062500000, -3.734375000000, 1491883462
0.029296875000, -0.951904296875, -0.383789062500, 0.609375000000, -4.289062500000, -3.734375000000, 1491883462
0.029296875000, -0.951904296875, -0.383789062500, 0.609375000000, -4.289062500000, -3.734375000000, 1491883462
0.029296875000, -0.951904296875, -0.383789062500, 0.609375000000, -4.289062500000, -3.734375000000, 1491883462
0.075195312500, -0.871826171875, -0.311035156250, -2.656250000000, -1.234375000000, -6.226562500000, 1491883462
0.075195312500, -0.871826171875, -0.311035156250, -2.656250000000, -1.234375000000, -6.226562500000, 1491883462
0.075195312500, -0.871826171875, -0.311035156250, -2.656250000000, -1.234375000000, -6.226562500000, 1491883462
-0.019531250000, -0.871093750000, -0.218994140625, -2.812500000000, 0.054687500000, -3.062500000000, 1491883462
-0.019531250000, -0.871093750000, -0.218994140625, -2.812500000000, 0.054687500000, -3.062500000000, 1491883462
-0.019531250000, -0.871093750000, -0.218994140625, -2.812500000000, 0.054687500000, -3.062500000000, 1491883462
-0.025390625000, -0.968261718750, -0.240478515625, 0.492187500000, -2.695312500000, -5.226562500000, 1491883462
-0.025390625000, -0.968261718750, -0.240478515625, 0.492187500000, -2.695312500000, -5.226562500000, 1491883462
-0.025390625000, -0.968261718750, -0.240478515625, 0.492187500000, -2.695312500000, -5.226562500000, 1491883462
-0.031005859375, -0.925781250000, -0.315185546875, -1.851562500000, 0.226562500000, -5.039062500000, 1491883462
-0.031005859375, -0.925781250000, -0.315185546875, -1.851562500000, 0.226562500000, -5.039062500000, 1491883462
-0.031005859375, -0.925781250000, -0.315185546875, -1.851562500000, 0.226562500000, -5.039062500000, 1491883462
-0.031005859375, -0.925781250000, -0.315185546875, -1.851562500000, 0.226562500000, -5.039062500000, 1491883462
0.012451171875, -0.860595703125, -0.334716796875, -4.132812500000, -2.593750000000, -10.195312500000, 1491883462
0.012451171875, -0.860595703125, -0.334716796875, -4.132812500000, -2.593750000000, -10.195312500000, 1491883462
0.012451171875, -0.860595703125, -0.334716796875, -4.132812500000, -2.593750000000, -10.195312500000, 1491883462
-0.003417968750, -0.867919921875, -0.401611328125, -3.906250000000, 0.914062500000, -6.640625000000, 1491883462
-0.003417968750, -0.867919921875, -0.401611328125, -3.906250000000, 0.914062500000, -6.640625000000, 1491883462
-0.003417968750, -0.867919921875, -0.401611328125, -3.906250000000, 0.914062500000, -6.640625000000, 1491883462
-0.012695312500, -0.920654296875, -0.309570312500, -4.585937500000, -1.070312500000, -6.546875000000, 1491883462
-0.012695312500, -0.920654296875, -0.309570312500, -4.585937500000, -1.070312500000, -6.546875000000, 1491883462
-0.012695312500, -0.920654296875, -0.309570312500, -4.585937500000, -1.070312500000, -6.546875000000, 1491883462
-0.143554687500, -0.908203125000, -0.327880859375, -4.984375000000, -0.468750000000, -3.703125000000, 1491883462
-0.143554687500, -0.908203125000, -0.327880859375, -4.984375000000, -0.468750000000, -3.703125000000, 1491883462
-0.143554687500, -0.908203125000, -0.327880859375, -4.984375000000, -0.468750000000, -3.703125000000, 1491883462
-0.143554687500, -0.908203125000, -0.327880859375, -4.984375000000, -0.468750000000, -3.703125000000, 1491883462
-0.004150390625, -0.958984375000, -0.378662109375, -7.109375000000, 2.617187500000, -6.062500000000, 1491883462
-0.004150390625, -0.958984375000, -0.378662109375, -7.109375000000, 2.617187500000, -6.062500000000, 1491883462
-0.004150390625, -0.958984375000, -0.378662109375, -7.109375000000, 2.617187500000, -6.062500000000, 1491883462
0.015380859375, -0.942138671875, -0.312988281250, -7.250000000000, 0.679687500000, 0.609375000000, 1491883462
0.015380859375, -0.942138671875, -0.312988281250, -7.250000000000, 0.679687500000, 0.609375000000, 1491883462
0.015380859375, -0.942138671875, -0.312988281250, -7.250000000000, 0.679687500000, 0.609375000000, 1491883462
