ACC_X,ACC_Y,ACC_Z,G_X,G_Y,G_Z,Unix Time
0.081542968750, 0.171630859375, 0.986083984375, 0.375000000000, -2.601562500000, -2.390625000000, 1491882774
0.081542968750, 0.171630859375, 0.986083984375, 0.375000000000, -2.601562500000, -2.390625000000, 1491882774
0.081542968750, 0.171630859375, 0.986083984375, 0.375000000000, -2.601562500000, -2.390625000000, 1491882774
0.081542968750, 0.171630859375, 0.986083984375, 0.375000000000, -2.601562500000, -2.390625000000, 1491882774
-0.005615234375, 0.212158203125, 0.983886718750, -4.078125000000, -1.007812500000, -4.125000000000, 1491882774
0.073730468750, 0.101562500000, 1.090576171875, -4.507812500000, -1.570312500000, -4.328125000000, 1491882774
0.073730468750, 0.101562500000, 1.090576171875, -4.507812500000, -1.570312500000, -4.328125000000, 1491882774
0.073730468750, 0.101562500000, 1.090576171875, -4.507812500000, -1.570312500000, -4.328125000000, 1491882774
0.073730468750, 0.101562500000, 1.090576171875, -4.507812500000, -1.570312500000, -4.328125000000, 1491882774
0.136230468750, 0.181152343750, 0.937011718750, -1.343750000000, -1.125000000000, -1.820312500000, 1491882774
0.136230468750, 0.181152343750, 0.937011718750, -1.343750000000, -1.125000000000, -1.820312500000, 1491882774
0.078857421875, 0.245361328125, 0.975585937500, -4.179687500000, -2.695312500000, -4.273437500000, 1491882774
0.078857421875, 0.245361328125, 0.975585937500, -4.179687500000, -2.695312500000, -4.273437500000, 1491882774
0.078857421875, 0.245361328125, 0.975585937500, -4.179687500000, -2.695312500000, -4.273437500000, 1491882774
0.078857421875, 0.245361328125, 0.975585937500, -4.179687500000, -2.695312500000, -4.273437500000, 1491882774
0.148193359375, 0.120361328125, 1.001953125000, -1.234375000000, -2.453125000000, -4.718750000000, 1491882774
0.081298828125, 0.150390625000, 1.012451171875, -1.750000000000, 0.843750000000, -3.257812500000, 1491882774
0.081298828125, 0.150390625000, 1.012451171875, -1.750000000000, 0.843750000000, -3.257812500000, 1491882774
0.081298828125, 0.150390625000, 1.012451171875, -1.750000000000, 0.843750000000, -3.257812500000, 1491882774
0.081298828125, 0.150390625000, 1.012451171875, -1.750000000000, 0.843750000000, -3.257812500000, 1491882774
0.081298828125, 0.150390625000, 1.012451171875, -1.750000000000, 0.843750000000, -3.257812500000, 1491882774
0.081298828125, 0.150390625000, 1.012451171875, -1.750000000000, 0.843750000000, -3.257812500000, 1491882775
0.126220703125, 0.184082031250, 0.983642578125, 0.023437500000, -2.671875000000, -3.531250000000, 1491882775
0.126220703125, 0.184082031250, 0.983642578125, 0.023437500000, -2.671875000000, -3.531250000000, 1491882775
0.126220703125, 0.184082031250, 0.983642578125, 0.023437500000, -2.671875000000, -3.531250000000, 1491882775
0.070800781250, 0.147216796875, 1.089111328125, -1.906250000000, 0.992187500000, -1.593750000000, 1491882775
0.070800781250, 0.147216796875, 1.089111328125, -1.906250000000, 0.992187500000, -1.593750000000, 1491882775
0.070800781250, 0.147216796875, 1.089111328125, -1.906250000000, 0.992187500000, -1.593750000000, 1491882775
0.058837890625, 0.188232421875, 0.983154296875, -1.632812500000, 0.320312500000, -4.000000000000, 1491882775
0.058837890625, 0.188232421875, 0.983154296875, -1.632812500000, 0.320312500000, -4.000000000000, 1491882775
0.058837890625, 0.188232421875, 0.983154296875, -1.632812500000, 0.320312500000, -4.000000000000, 1491882775
0.058837890625, 0.188232421875, 0.983154296875, -1.632812500000, 0.320312500000, -4.000000000000, 1491882775
0.003173828125, 0.096435546875, 1.069091796875, -4.351562500000, 0.914062500000, -3.429687500000, 1491882775
0.040527343750, 0.184326171875, 1.079589843750, -1.906250000000, -0.992187500000, -1.968750000000, 1491882775
0.040527343750, 0.184326171875, 1.079589843750, -1.906250000000, -0.992187500000, -1.968750000000, 1491882775
0.040527343750, 0.184326171875, 1.079589843750, -1.906250000000, -0.992187500000, -1.968750000000, 1491882775
0.040527343750, 0.184326171875, 1.079589843750, -1.906250000000, -0.992187500000, -1.968750000000, 1491882775
0.040527343750, 0.184326171875, 1.079589843750, -1.906250000000, -0.992187500000, -1.968750000000, 1491882775
0.063720703125, 0.150878906250, 1.063476562500, -1.265625000000, -2.648437500000, -4.437500000000, 1491882775
0.063720703125, 0.150878906250, 1.063476562500, -1.265625000000, -2.648437500000, -4.437500000000, 1491882775
0.063720703125, 0.150878906250, 1.063476562500, -1.265625000000, -2.648437500000, -4.437500000000, 1491882775
0.054931640625, 0.163330078125, 0.988037109375, -4.898437500000, -0.445312500000, -4.156250000000, 1491882775
0.054931640625, 0.163330078125, 0.988037109375, -4.898437500000, -0.445312500000, -4.156250000000, 1491882775
0.078857421875, 0.193603515625, 0.983154296875, -4.007812500000, -0.523437500000, -4.179687500000, 1491882775
0.078857421875, 0.193603515625, 0.983154296875, -4.007812500000, -0.523437500000, -4.179687500000, 1491882775
0.078857421875, 0.193603515625, 0.983154296875, -4.007812500000, -0.523437500000, -4.179687500000, 1491882775
-0.005371093750, 0.210937500000, 0.928955078125, -1.468750000000, -0.664062500000, -1.453125000000, 1491882775
0.013427734375, 0.098388671875, 1.020751953125, -1.468750000000, -0.664062500000, -1.453125000000, 1491882775
0.013427734375, 0.098388671875, 1.020751953125, -1.468750000000, -0.664062500000, -1.453125000000, 1491882775
0.013427734375, 0.098388671875, 1.020751953125, -1.468750000000, -0.664062500000, -1.453125000000, 1491882775
0.013427734375, 0.098388671875, 1.020751953125, -1.468750000000, -0.664062500000, -1.453125000000, 1491882775
0.081542968750, 0.257812500000, 0.916503906250, -4.023437500000, 4.812500000000, -2.593750000000, 1491882775
0.081542968750, 0.257812500000, 0.916503906250, -4.023437500000, 4.812500000000, -2.593750000000, 1491882775
0.081542968750, 0.257812500000, 0.916503906250, -4.023437500000, 4.812500000000, -2.593750000000, 1491882775
0.081542968750, 0.257812500000, 0.916503906250, -4.023437500000, 4.812500000000, -2.593750000000, 1491882775
0.078125000000, 0.168945312500, 0.992675781250, -2.429687500000, 0.015625000000, -1.328125000000, 1491882775
0.086425781250, 0.200927734375, 0.996337890625, -3.304687500000, -2.617187500000, -4.562500000000, 1491882775
0.086425781250, 0.200927734375, 0.996337890625, -3.304687500000, -2.617187500000, -4.562500000000, 1491882775
0.086425781250, 0.200927734375, 0.996337890625, -3.304687500000, -2.617187500000, -4.562500000000, 1491882775
0.086425781250, 0.200927734375, 0.996337890625, -3.304687500000, -2.617187500000, -4.562500000000, 1491882775
0.086425781250, 0.200927734375, 0.996337890625, -3.304687500000, -2.617187500000, -4.562500000000, 1491882775
0.071533203125, 0.157470703125, 0.931640625000, -4.976562500000, -1.835937500000, -5.843750000000, 1491882775
0.071533203125, 0.157470703125, 0.931640625000, -4.976562500000, -1.835937500000, -5.843750000000, 1491882775
0.071533203125, 0.157470703125, 0.931640625000, -4.976562500000, -1.835937500000, -5.843750000000, 1491882775
0.052978515625, 0.115966796875, 0.997070312500, -4.539062500000, -2.046875000000, -3.531250000000, 1491882775
0.052978515625, 0.115966796875, 0.997070312500, -4.539062500000, -2.046875000000, -3.531250000000, 1491882775
0.052978515625, 0.115966796875, 0.997070312500, -4.539062500000, -2.046875000000, -3.531250000000, 1491882775
0.065673828125, 0.166748046875, 1.015869140625, -1.640625000000, -0.820312500000, -3.585937500000, 1491882775
0.065673828125, 0.166748046875, 1.015869140625, -1.640625000000, -0.820312500000, -3.585937500000, 1491882775
0.065673828125, 0.166748046875, 1.015869140625, -1.640625000000, -0.820312500000, -3.585937500000, 1491882775
-0.013671875000, 0.155029296875, 0.974853515625, -4.226562500000, -0.976562500000, -1.632812500000, 1491882775
-0.013671875000, 0.155029296875, 0.974853515625, -4.226562500000, -0.976562500000, -1.632812500000, 1491882775
-0.013671875000, 0.155029296875, 0.974853515625, -4.226562500000, -0.976562500000, -1.632812500000, 1491882775
-0.013671875000, 0.155029296875, 0.974853515625, -4.226562500000, -0.976562500000, -1.632812500000, 1491882775
-0.070556640625, 0.119873046875, 1.079833984375, -3.718750000000, 0.968750000000, -6.320312500000, 1491882775
-0.008300781250, 0.157226562500, 1.076171875000, -3.531250000000, 0.234375000000, -6.281250000000, 1491882775
-0.008300781250, 0.157226562500, 1.076171875000, -3.531250000000, 0.234375000000, -6.281250000000, 1491882775
-0.008300781250, 0.157226562500, 1.076171875000, -3.531250000000, 0.234375000000, -6.281250000000, 1491882775
-0.008300781250, 0.157226562500, 1.076171875000, -3.531250000000, 0.234375000000, -6.281250000000, 1491882775
-0.008300781250, 0.157226562500, 1.076171875000, -3.531250000000, 0.234375000000, -6.281250000000, 1491882775
0.141845703125, 0.177490234375, 1.073486328125, -3.320312500000, -0.750000000000, -1.710937500000, 1491882775
0.141845703125, 0.177490234375, 1.073486328125, -3.320312500000, -0.750000000000, -1.710937500000, 1491882775
0.141845703125, 0.177490234375, 1.073486328125, -3.320312500000, -0.750000000000, -1.710937500000, 1491882775
0.141845703125, 0.177490234375, 1.073486328125, -3.320312500000, -0.750000000000, -1.710937500000, 1491882775
0.024414062500, 0.198242187500, 1.074218750000, -3.117187500000, -0.562500000000, -5.554687500000, 1491882775
0.024414062500, 0.198242187500, 1.074218750000, -3.117187500000, -0.562500000000, -5.554687500000, 1491882775
0.024414062500, 0.198242187500, 1.074218750000, -3.117187500000, -0.562500000000, -5.554687500000, 1491882775
0.126220703125, 0.093750000000, 0.978759765625, -3.343750000000, -0.625000000000, -3.703125000000, 1491882776
0.126220703125, 0.093750000000, 0.978759765625, -3.343750000000, -0.625000000000, -3.703125000000, 1491882776
0.126220703125, 0.093750000000, 0.978759765625, -3.343750000000, -0.625000000000, -3.703125000000, 1491882776
0.125976562500, 0.204345703125, 0.987548828125, -6.070312500000, -0.179687500000, -1.734375000000, 1491882776
0.125976562500, 0.204345703125, 0.987548828125, -6.070312500000, -0.179687500000, -1.734375000000, 1491882776
0.125976562500, 0.204345703125, 0.987548828125, -6.070312500000, -0.179687500000, -1.734375000000, 1491882776
0.092041015625, 0.167968750000, 1.029296875000, -1.859375000000, -0.671875000000, -4.718750000000, 1491882776
0.092041015625, 0.167968750000, 1.029296875000, -1.859375000000, -0.671875000000, -4.718750000000, 1491882776
0.092041015625, 0.167968750000, 1.029296875000, -1.859375000000, -0.671875000000, -4.718750000000, 1491882776
0.092041015625, 0.167968750000, 1.029296875000, -1.859375000000, -0.671875000000, -4.718750000000, 1491882776
-0.003662109375, 0.223876953125, 1.043945312500, -1.984375000000, 0.687500000000, -4.046875000000, 1491882776
-0.003662109375, 0.223876953125, 1.043945312500, -1.984375000000, 0.687500000000, -4.046875000000, 1491882776
-0.003662109375, 0.223876953125, 1.043945312500, -1.984375000000, 0.687500000000, -4.046875000000, 1491882776
0.085205078125, 0.105957031250, 1.070312500000, -3.109375000000, 1.171875000000, -3.070312500000, 1491882776
0.085205078125, 0.105957031250, 1.070312500000, -3.109375000000, 1.171875000000, -3.070312500000, 1491882776
0.085205078125, 0.105957031250, 1.070312500000, -3.109375000000, 1.171875000000, -3.070312500000, 1491882776
0.133789062500, 0.036132812500, 1.083007812500, -1.531250000000, 2.320312500000, -3.007812500000, 1491882776
0.133789062500, 0.036132812500, 1.083007812500, -1.531250000000, 2.320312500000, -3.007812500000, 1491882776
0.133789062500, 0.036132812500, 1.083007812500, -1.531250000000, 2.320312500000, -3.007812500000, 1491882776
0.052734375000, 0.202880859375, 0.936767578125, -4.148437500000, 2.187500000000, -2.000000000000, 1491882776
0.052734375000, 0.202880859375, 0.936767578125, -4.148437500000, 2.187500000000, -2.000000000000, 1491882776
0.052734375000, 0.202880859375, 0.936767578125, -4.148437500000, 2.187500000000, -2.000000000000, 1491882776
0.052734375000, 0.202880859375, 0.936767578125, -4.148437500000, 2.187500000000, -2.000000000000, 1491882776
0.049072265625, 0.206298828125, 1.072265625000, -1.070312500000, 0.750000000000, -3.039062500000, 1491882776
0.049072265625, 0.206298828125, 1.072265625000, -1.070312500000, 0.750000000000, -3.039062500000, 1491882776
0.049072265625, 0.206298828125, 1.072265625000, -1.070312500000, 0.750000000000, -3.039062500000, 1491882776
0.014648437500, 0.127929687500, 0.977783203125, -3.625000000000, 1.789062500000, -3.320312500000, 1491882776
0.014648437500, 0.127929687500, 0.977783203125, -3.625000000000, 1.789062500000, -3.320312500000, 1491882776
0.014648437500, 0.127929687500, 0.977783203125, -3.625000000000, 1.789062500000, -3.320312500000, 1491882776
0.049316406250, 0.147705078125, 1.049804687500, -4.554687500000, -2.148437500000, -4.929687500000, 1491882776
0.049316406250, 0.147705078125, 1.049804687500, -4.554687500000, -2.148437500000, -4.929687500000, 1491882776
0.049316406250, 0.147705078125, 1.049804687500, -4.554687500000, -2.148437500000, -4.929687500000, 1491882776
0.084716796875, 0.094970703125, 0.981201171875, -3.570312500000, 0.132812500000, -1.320312500000, 1491882776
0.084716796875, 0.094970703125, 0.981201171875, -3.570312500000, 0.132812500000, -1.320312500000, 1491882776
0.084716796875, 0.094970703125, 0.981201171875, -3.570312500000, 0.132812500000, -1.320312500000, 1491882776
0.084716796875, 0.094970703125, 0.981201171875, -3.570312500000, 0.132812500000, -1.320312500000, 1491882776
0.045898437500, 0.218017578125, 1.057617187500, -4.906250000000, -2.750000000000, -5.000000000000, 1491882776
0.045898437500, 0.218017578125, 1.057617187500, -4.906250000000, -2.750000000000, -5.000000000000, 1491882776
0.045898437500, 0.218017578125, 1.057617187500, -4.906250000000, -2.750000000000, -5.000000000000, 1491882776
0.088378906250, 0.120117187500, 0.986572265625, -3.125000000000, -2.335937500000, -4.687500000000, 1491882776
0.088378906250, 0.120117187500, 0.986572265625, -3.125000000000, -2.335937500000, -4.687500000000, 1491882776
0.088378906250, 0.120117187500, 0.986572265625, -3.125000000000, -2.335937500000, -4.687500000000, 1491882776
0.025634765625, 0.196533203125, 0.917236328125, -4.734375000000, -0.835937500000, -4.820312500000, 1491882776
0.025634765625, 0.196533203125, 0.917236328125, -4.734375000000, -0.835937500000, -4.820312500000, 1491882776
0.025634765625, 0.196533203125, 0.917236328125, -4.734375000000, -0.835937500000, -4.820312500000, 1491882776
0.053222656250, 0.166748046875, 0.988281250000, -4.796875000000, -1.710937500000, -4.031250000000, 1491882776
0.053222656250, 0.166748046875, 0.988281250000, -4.796875000000, -1.710937500000, -4.031250000000, 1491882776
0.053222656250, 0.166748046875, 0.988281250000, -4.796875000000, -1.710937500000, -4.031250000000, 1491882776
0.072998046875, 0.110351562500, 0.979248046875, -3.460937500000, -2.507812500000, -2.343750000000, 1491882776
0.072998046875, 0.110351562500, 0.979248046875, -3.460937500000, -2.507812500000, -2.343750000000, 1491882776
0.072998046875, 0.110351562500, 0.979248046875, -3.460937500000, -2.507812500000, -2.343750000000, 1491882776
0.072998046875, 0.110351562500, 0.979248046875, -3.460937500000, -2.507812500000, -2.343750000000, 1491882776
0.075683593750, 0.192871093750, 0.997070312500, -4.070312500000, 0.578125000000, -2.953125000000, 1491882776
0.075683593750, 0.192871093750, 0.997070312500, -4.070312500000, 0.578125000000, -2.953125000000, 1491882776
0.075683593750, 0.192871093750, 0.997070312500, -4.070312500000, 0.578125000000, -2.953125000000, 1491882776
0.063476562500, 0.204345703125, 0.940185546875, -1.851562500000, 2.000000000000, 0.351562500000, 1491882776
0.063476562500, 0.204345703125, 0.940185546875, -1.851562500000, 2.000000000000, 0.351562500000, 1491882776
0.063476562500, 0.204345703125, 0.940185546875, -1.851562500000, 2.000000000000, 0.351562500000, 1491882776
0.036621093750, 0.188476562500, 0.982910156250, -4.031250000000, 0.343750000000, -1.851562500000, 1491882776
0.036621093750, 0.188476562500, 0.982910156250, -4.031250000000, 0.343750000000, -1.851562500000, 1491882776
0.036621093750, 0.188476562500, 0.982910156250, -4.031250000000, 0.343750000000, -1.851562500000, 1491882776
0.036621093750, 0.188476562500, 0.982910156250, -4.031250000000, 0.343750000000, -1.851562500000, 1491882776
0.076171875000, 0.052246093750, 1.067871093750, -4.257812500000, 1.117187500000, -4.351562500000, 1491882776
0.076171875000, 0.052246093750, 1.067871093750, -4.257812500000, 1.117187500000, -4.351562500000, 1491882777
0.051269531250, 0.117919921875, 1.076904296875, -3.156250000000, -0.664062500000, -4.460937500000, 1491882777
0.051269531250, 0.117919921875, 1.076904296875, -3.156250000000, -0.664062500000, -4.460937500000, 1491882777
0.051269531250, 0.117919921875, 1.076904296875, -3.156250000000, -0.664062500000, -4.460937500000, 1491882777
0.051269531250, 0.117919921875, 1.076904296875, -3.156250000000, -0.664062500000, -4.460937500000, 1491882777
0.051269531250, 0.117919921875, 1.076904296875, -3.156250000000, -0.664062500000, -4.460937500000, 1491882777
0.051269531250, 0.117919921875, 1.076904296875, -3.156250000000, -0.664062500000, -4.460937500000, 1491882777
0.034667968750, 0.197265625000, 1.029296875000, -2.960937500000, 2.039062500000, -1.578125000000, 1491882777
0.031494140625, 0.195068359375, 0.979248046875, -2.960937500000, 2.039062500000, -1.578125000000, 1491882777
0.031494140625, 0.195068359375, 0.979248046875, -2.960937500000, 2.039062500000, -1.578125000000, 1491882777
0.031494140625, 0.195068359375, 0.979248046875, -2.960937500000, 2.039062500000, -1.578125000000, 1491882777
0.031494140625, 0.195068359375, 0.979248046875, -2.960937500000, 2.039062500000, -1.578125000000, 1491882777
-0.000244140625, 0.148681640625, 1.013427734375, -4.671875000000, -2.039062500000, -4.585937500000, 1491882777
-0.000244140625, 0.148681640625, 1.013427734375, -4.671875000000, -2.039062500000, -4.585937500000, 1491882777
-0.000244140625, 0.148681640625, 1.013427734375, -4.671875000000, -2.039062500000, -4.585937500000, 1491882777
0.032470703125, 0.199218750000, 1.145019531250, -1.359375000000, 0.820312500000, -1.375000000000, 1491882777
0.032470703125, 0.199218750000, 1.145019531250, -1.359375000000, 0.820312500000, -1.375000000000, 1491882777
-0.027099609375, 0.261718750000, 0.996093750000, -1.882812500000, 0.453125000000, -3.546875000000, 1491882777
-0.027099609375, 0.261718750000, 0.996093750000, -1.882812500000, 0.453125000000, -3.546875000000, 1491882777
-0.027099609375, 0.261718750000, 0.996093750000, -1.882812500000, 0.453125000000, -3.546875000000, 1491882777
-0.027099609375, 0.261718750000, 0.996093750000, -1.882812500000, 0.453125000000, -3.546875000000, 1491882777
0.066162109375, 0.153320312500, 0.988525390625, -4.703125000000, -0.828125000000, -1.664062500000, 1491882777
0.137451171875, 0.150878906250, 1.009277343750, -4.312500000000, -2.085937500000, -4.437500000000, 1491882777
0.137451171875, 0.150878906250, 1.009277343750, -4.312500000000, -2.085937500000, -4.437500000000, 1491882777
0.137451171875, 0.150878906250, 1.009277343750, -4.312500000000, -2.085937500000, -4.437500000000, 1491882777
0.137451171875, 0.150878906250, 1.009277343750, -4.312500000000, -2.085937500000, -4.437500000000, 1491882777
0.137451171875, 0.150878906250, 1.009277343750, -4.312500000000, -2.085937500000, -4.437500000000, 1491882777
0.043701171875, 0.119384765625, 0.980957031250, 0.031250000000, 0.664062500000, -1.781250000000, 1491882777
0.043701171875, 0.119384765625, 0.980957031250, 0.031250000000, 0.664062500000, -1.781250000000, 1491882777
0.043701171875, 0.119384765625, 0.980957031250, 0.031250000000, 0.664062500000, -1.781250000000, 1491882777
0.043701171875, 0.119384765625, 0.980957031250, 0.031250000000, 0.664062500000, -1.781250000000, 1491882777
0.065185546875, 0.188232421875, 0.948974609375, -4.906250000000, 1.921875000000, -3.070312500000, 1491882777
0.065185546875, 0.188232421875, 0.948974609375, -4.906250000000, 1.921875000000, -3.070312500000, 1491882777
0.065185546875, 0.188232421875, 0.948974609375, -4.906250000000, 1.921875000000, -3.070312500000, 1491882777
0.083496093750, 0.109863281250, 0.984130859375, -1.218750000000, 0.445312500000, -4.906250000000, 1491882777
0.083496093750, 0.109863281250, 0.984130859375, -1.218750000000, 0.445312500000, -4.906250000000, 1491882777
0.083496093750, 0.109863281250, 0.984130859375, -1.218750000000, 0.445312500000, -4.906250000000, 1491882777
0.083496093750, 0.109863281250, 0.984130859375, -1.218750000000, 0.445312500000, -4.906250000000, 1491882777
-0.006835937500, 0.190917968750, 1.072998046875, -1.804687500000, 0.875000000000, -1.125000000000, 1491882777
-0.006835937500, 0.190917968750, 1.072998046875, -1.804687500000, 0.875000000000, -1.125000000000, 1491882777
-0.006835937500, 0.190917968750, 1.072998046875, -1.804687500000, 0.875000000000, -1.125000000000, 1491882777
0.136962890625, 0.095703125000, 1.084472656250, -1.257812500000, -1.750000000000, -4.992187500000, 1491882777
0.136962890625, 0.095703125000, 1.084472656250, -1.257812500000, -1.750000000000, -4.992187500000, 1491882777
0.136962890625, 0.095703125000, 1.084472656250, -1.257812500000, -1.750000000000, -4.992187500000, 1491882777
0.072265625000, 0.211181640625, 1.013427734375, -3.718750000000, -0.734375000000, -2.773437500000, 1491882777
0.072265625000, 0.211181640625, 1.013427734375, -3.718750000000, -0.734375000000, -2.773437500000, 1491882777
0.072265625000, 0.211181640625, 1.013427734375, -3.718750000000, -0.734375000000, -2.773437500000, 1491882777
0.067138671875, 0.166992187500, 0.948242187500, 2.750000000000, 2.851562500000, -3.742187500000, 1491882777
0.067138671875, 0.166992187500, 0.948242187500, 2.750000000000, 2.851562500000, -3.742187500000, 1491882777
0.067138671875, 0.166992187500, 0.948242187500, 2.750000000000, 2.851562500000, -3.742187500000, 1491882777
0.067138671875, 0.166992187500, 0.948242187500, 2.750000000000, 2.851562500000, -3.742187500000, 1491882777
0.016845703125, 0.250976562500, 0.788574218750, 29.601562500000, -1.250000000000, -6.585937500000, 1491882777
0.016845703125, 0.250976562500, 0.788574218750, 29.601562500000, -1.250000000000, -6.585937500000, 1491882777
0.016845703125, 0.250976562500, 0.788574218750, 29.601562500000, -1.250000000000, -6.585937500000, 1491882777
0.019287109375, 0.618164062500, 0.733154296875, 59.773437500000, -39.187500000000, -13.468750000000, 1491882777
0.019287109375, 0.618164062500, 0.733154296875, 59.773437500000, -39.187500000000, -13.468750000000, 1491882777
0.019287109375, 0.618164062500, 0.733154296875, 59.773437500000, -39.187500000000, -13.468750000000, 1491882777
0.063720703125, 0.136718750000, 1.313720703125, 88.062500000000, -17.851562500000, -9.109375000000, 1491882777
0.063720703125, 0.136718750000, 1.313720703125, 88.062500000000, -17.851562500000, -9.109375000000, 1491882777
0.063720703125, 0.136718750000, 1.313720703125, 88.062500000000, -17.851562500000, -9.109375000000, 1491882777
0.123779296875, -0.299804687500, 1.338378906250, 103.765625000000, -12.679687500000, -3.062500000000, 1491882777
0.123779296875, -0.299804687500, 1.338378906250, 103.765625000000, -12.679687500000, -3.062500000000, 1491882777
0.123779296875, -0.299804687500, 1.338378906250, 103.765625000000, -12.679687500000, -3.062500000000, 1491882777
0.123779296875, -0.299804687500, 1.338378906250, 103.765625000000, -12.679687500000, -3.062500000000, 1491882777
0.253173828125, 0.138916015625, 1.385498046875, 108.093750000000, -20.320312500000, -19.695312500000, 1491882777
0.253173828125, 0.138916015625, 1.385498046875, 108.093750000000, -20.320312500000, -19.695312500000, 1491882777
0.253173828125, 0.138916015625, 1.385498046875, 108.093750000000, -20.320312500000, -19.695312500000, 1491882777
0.187255859375, -0.142089843750, 1.134765625000, 125.937500000000, 2.960937500000, 8.257812500000, 1491882777
0.187255859375, -0.142089843750, 1.134765625000, 125.937500000000, 2.960937500000, 8.257812500000, 1491882777
0.187255859375, -0.142089843750, 1.134765625000, 125.937500000000, 2.960937500000, 8.257812500000, 1491882777
0.240478515625, -0.394042968750, 0.994384765625, 131.289062500000, -2.351562500000, 7.265625000000, 1491882777
0.240478515625, -0.394042968750, 0.994384765625, 131.289062500000, -2.351562500000, 7.265625000000, 1491882777
0.240478515625, -0.394042968750, 0.994384765625, 131.289062500000, -2.351562500000, 7.265625000000, 1491882778
-0.039306640625, -0.497802734375, 0.886718750000, 144.742187500000, 1.398437500000, -10.929687500000, 1491882778
-0.039306640625, -0.497802734375, 0.886718750000, 144.742187500000, 1.398437500000, -10.929687500000, 1491882778
-0.039306640625, -0.497802734375, 0.886718750000, 144.742187500000, 1.398437500000, -10.929687500000, 1491882778
-0.039306640625, -0.497802734375, 0.886718750000, 144.742187500000, 1.398437500000, -10.929687500000, 1491882778
0.038818359375, -0.491699218750, 0.894287109375, 141.359375000000, -12.742187500000, -1.570312500000, 1491882778
0.038818359375, -0.491699218750, 0.894287109375, 141.359375000000, -12.742187500000, -1.570312500000, 1491882778
0.038818359375, -0.491699218750, 0.894287109375, 141.359375000000, -12.742187500000, -1.570312500000, 1491882778
0.173339843750, -0.607910156250, 0.804687500000, 124.398437500000, -26.242187500000, 26.039062500000, 1491882778
0.173339843750, -0.607910156250, 0.804687500000, 124.398437500000, -26.242187500000, 26.039062500000, 1491882778
0.173339843750, -0.607910156250, 0.804687500000, 124.398437500000, -26.242187500000, 26.039062500000, 1491882778
0.152832031250, -0.821533203125, 0.664062500000, 112.101562500000, -8.937500000000, -6.882812500000, 1491882778
0.152832031250, -0.821533203125, 0.664062500000, 112.101562500000, -8.937500000000, -6.882812500000, 1491882778
0.152832031250, -0.821533203125, 0.664062500000, 112.101562500000, -8.937500000000, -6.882812500000, 1491882778
0.170410156250, -0.795898437500, 0.701904296875, 82.734375000000, -12.703125000000, 0.492187500000, 1491882778
0.170410156250, -0.795898437500, 0.701904296875, 82.734375000000, -12.703125000000, 0.492187500000, 1491882778
0.170410156250, -0.795898437500, 0.701904296875, 82.734375000000, -12.703125000000, 0.492187500000, 1491882778
0.170410156250, -0.795898437500, 0.701904296875, 82.734375000000, -12.703125000000, 0.492187500000, 1491882778
0.161621093750, -0.736816406250, 0.440673828125, 100.445312500000, -3.882812500000, 3.718750000000, 1491882778
0.161621093750, -0.736816406250, 0.440673828125, 100.445312500000, -3.882812500000, 3.718750000000, 1491882778
0.161621093750, -0.736816406250, 0.440673828125, 100.445312500000, -3.882812500000, 3.718750000000, 1491882778
0.194335937500, -0.863281250000, 0.592773437500, 46.820312500000, -2.851562500000, 7.757812500000, 1491882778
0.194335937500, -0.863281250000, 0.592773437500, 46.820312500000, -2.851562500000, 7.757812500000, 1491882778
0.194335937500, -0.863281250000, 0.592773437500, 46.820312500000, -2.851562500000, 7.757812500000, 1491882778
0.105224609375, -0.506835937500, 0.302978515625, -22.328125000000, -15.648437500000, -55.671875000000, 1491882778
0.516113281250, -1.854003906250, 0.345703125000, 8.789062500000, -29.273437500000, -20.312500000000, 1491882778
0.516113281250, -1.854003906250, 0.345703125000, 8.789062500000, -29.273437500000, -20.312500000000, 1491882778
0.516113281250, -1.854003906250, 0.345703125000, 8.789062500000, -29.273437500000, -20.312500000000, 1491882778
0.320556640625, -0.673828125000, 0.295166015625, 65.500000000000, -6.164062500000, -9.367187500000, 1491882778
0.257568359375, -0.795654296875, 0.393310546875, 76.039062500000, -2.875000000000, -20.046875000000, 1491882778
0.257568359375, -0.795654296875, 0.393310546875, 76.039062500000, -2.875000000000, -20.046875000000, 1491882778
0.257568359375, -0.795654296875, 0.393310546875, 76.039062500000, -2.875000000000, -20.046875000000, 1491882778
0.257568359375, -0.795654296875, 0.393310546875, 76.039062500000, -2.875000000000, -20.046875000000, 1491882778
0.257568359375, -0.795654296875, 0.393310546875, 76.039062500000, -2.875000000000, -20.046875000000, 1491882778
0.195556640625, -0.862304687500, 0.398925781250, 73.023437500000, -11.984375000000, -12.468750000000, 1491882778
0.195556640625, -0.862304687500, 0.398925781250, 73.023437500000, -11.984375000000, -12.468750000000, 1491882778
0.195556640625, -0.862304687500, 0.398925781250, 73.023437500000, -11.984375000000, -12.468750000000, 1491882778
0.178955078125, -0.909179687500, 0.223144531250, 65.484375000000, -7.289062500000, -12.375000000000, 1491882778
0.178955078125, -0.909179687500, 0.223144531250, 65.484375000000, -7.289062500000, -12.375000000000, 1491882778
0.178955078125, -0.909179687500, 0.223144531250, 65.484375000000, -7.289062500000, -12.375000000000, 1491882778
0.109130859375, -1.000732421875, 0.190917968750, 68.039062500000, 0.484375000000, -19.015625000000, 1491882778
0.109130859375, -1.000732421875, 0.190917968750, 68.039062500000, 0.484375000000, -19.015625000000, 1491882778
0.109130859375, -1.000732421875, 0.190917968750, 68.039062500000, 0.484375000000, -19.015625000000, 1491882778
0.109130859375, -1.000732421875, 0.190917968750, 68.039062500000, 0.484375000000, -19.015625000000, 1491882778
0.159179687500, -0.966552734375, 0.141845703125, 57.226562500000, 9.937500000000, -17.625000000000, 1491882778
0.159179687500, -0.966552734375, 0.141845703125, 57.226562500000, 9.937500000000, -17.625000000000, 1491882778
0.159179687500, -0.966552734375, 0.141845703125, 57.226562500000, 9.937500000000, -17.625000000000, 1491882778
0.127197265625, -1.016601562500, 0.086669921875, 55.929687500000, 7.523437500000, -19.671875000000, 1491882778
0.127197265625, -1.016601562500, 0.086669921875, 55.929687500000, 7.523437500000, -19.671875000000, 1491882778
0.079833984375, -0.980712890625, 0.154052734375, 38.687500000000, 9.671875000000, -12.031250000000, 1491882778
0.079833984375, -0.980712890625, 0.154052734375, 38.687500000000, 9.671875000000, -12.031250000000, 1491882778
0.079833984375, -0.980712890625, 0.154052734375, 38.687500000000, 9.671875000000, -12.031250000000, 1491882778
0.079833984375, -0.980712890625, 0.154052734375, 38.687500000000, 9.671875000000, -12.031250000000, 1491882778
0.082519531250, -0.953125000000, 0.066406250000, 38.968750000000, 20.781250000000, -30.664062500000, 1491882778
0.082519531250, -0.953125000000, 0.066406250000, 38.968750000000, 20.781250000000, -30.664062500000, 1491882778
0.082519531250, -0.953125000000, 0.066406250000, 38.968750000000, 20.781250000000, -30.664062500000, 1491882778
0.082519531250, -0.953125000000, 0.066406250000, 38.968750000000, 20.781250000000, -30.664062500000, 1491882778
0.052246093750, -1.001220703125, 0.011230468750, 36.265625000000, 18.468750000000, -32.578125000000, 1491882778
0.052246093750, -1.001220703125, 0.011230468750, 36.265625000000, 18.468750000000, -32.578125000000, 1491882778
0.089111328125, -1.001708984375, 0.010986328125, 31.093750000000, 22.476562500000, -24.132812500000, 1491882778
0.089111328125, -1.001708984375, 0.010986328125, 31.093750000000, 22.476562500000, -24.132812500000, 1491882778
0.089111328125, -1.001708984375, 0.010986328125, 31.093750000000, 22.476562500000, -24.132812500000, 1491882778
0.089111328125, -1.001708984375, 0.010986328125, 31.093750000000, 22.476562500000, -24.132812500000, 1491882778
-0.064697265625, -1.021484375000, -0.102539062500, 25.921875000000, 28.632812500000, -21.976562500000, 1491882778
-0.064697265625, -1.021484375000, -0.102539062500, 25.921875000000, 28.632812500000, -21.976562500000, 1491882778
-0.064697265625, -1.021484375000, -0.102539062500, 25.921875000000, 28.632812500000, -21.976562500000, 1491882778
-0.014404296875, -1.027832031250, -0.188232421875, 10.468750000000, -2.703125000000, -12.906250000000, 1491882779
-0.014404296875, -1.027832031250, -0.188232421875, 10.468750000000, -2.703125000000, -12.906250000000, 1491882779
-0.014404296875, -1.027832031250, -0.188232421875, 10.468750000000, -2.703125000000, -12.906250000000, 1491882779
-0.014404296875, -1.027832031250, -0.188232421875, 10.468750000000, -2.703125000000, -12.906250000000, 1491882779
-0.082031250000, -1.028076171875, -0.137939453125, 2.921875000000, -4.585937500000, -14.054687500000, 1491882779
-0.082031250000, -1.028076171875, -0.137939453125, 2.921875000000, -4.585937500000, -14.054687500000, 1491882779
-0.082031250000, -1.028076171875, -0.137939453125, 2.921875000000, -4.585937500000, -14.054687500000, 1491882779
0.066650390625, -1.015625000000, -0.123291015625, -14.531250000000, -11.929687500000, -14.820312500000, 1491882779
0.066650390625, -1.015625000000, -0.123291015625, -14.531250000000, -11.929687500000, -14.820312500000, 1491882779
0.066650390625, -1.015625000000, -0.123291015625, -14.531250000000, -11.929687500000, -14.820312500000, 1491882779
-0.127929687500, -0.974365234375, -0.087890625000, -13.781250000000, 7.109375000000, -33.125000000000, 1491882779
-0.127929687500, -0.974365234375, -0.087890625000, -13.781250000000, 7.109375000000, -33.125000000000, 1491882779
-0.127929687500, -0.974365234375, -0.087890625000, -13.781250000000, 7.109375000000, -33.125000000000, 1491882779
-0.027343750000, -1.064697265625, -0.100585937500, -34.304687500000, 13.289062500000, -24.171875000000, 1491882779
-0.027343750000, -1.064697265625, -0.100585937500, -34.304687500000, 13.289062500000, -24.171875000000, 1491882779
-0.027343750000, -1.064697265625, -0.100585937500, -34.304687500000, 13.289062500000, -24.171875000000, 1491882779
-0.027343750000, -1.064697265625, -0.100585937500, -34.304687500000, 13.289062500000, -24.171875000000, 1491882779
0.033447265625, -1.053222656250, -0.211181640625, -40.453125000000, -18.492187500000, -2.328125000000, 1491882779
0.033447265625, -1.053222656250, -0.211181640625, -40.453125000000, -18.492187500000, -2.328125000000, 1491882779
0.033447265625, -1.053222656250, -0.211181640625, -40.453125000000, -18.492187500000, -2.328125000000, 1491882779
0.022705078125, -1.068603515625, -0.141601562500, -24.929687500000, -32.218750000000, 4.914062500000, 1491882779
0.022705078125, -1.068603515625, -0.141601562500, -24.929687500000, -32.218750000000, 4.914062500000, 1491882779
0.022705078125, -1.068603515625, -0.141601562500, -24.929687500000, -32.218750000000, 4.914062500000, 1491882779
-0.006103515625, -0.926025390625, -0.055419921875, -19.507812500000, -15.875000000000, 2.828125000000, 1491882779
-0.006103515625, -0.926025390625, -0.055419921875, -19.507812500000, -15.875000000000, 2.828125000000, 1491882779
-0.006103515625, -0.926025390625, -0.055419921875, -19.507812500000, -15.875000000000, 2.828125000000, 1491882779
-0.028320312500, -0.844726562500, -0.145751953125, 2.960937500000, 0.453125000000, 6.812500000000, 1491882779
-0.028320312500, -0.844726562500, -0.145751953125, 2.960937500000, 0.453125000000, 6.812500000000, 1491882779
-0.028320312500, -0.844726562500, -0.145751953125, 2.960937500000, 0.453125000000, 6.812500000000, 1491882779
-0.028320312500, -0.844726562500, -0.145751953125, 2.960937500000, 0.453125000000, 6.812500000000, 1491882779
-0.020751953125, -0.867431640625, -0.101562500000, 9.265625000000, 8.648437500000, 2.828125000000, 1491882779
-0.020751953125, -0.867431640625, -0.101562500000, 9.265625000000, 8.648437500000, 2.828125000000, 1491882779
-0.020751953125, -0.867431640625, -0.101562500000, 9.265625000000, 8.648437500000, 2.828125000000, 1491882779
-0.090820312500, -0.935058593750, -0.118408203125, 25.453125000000, 21.289062500000, -1.695312500000, 1491882779
-0.090820312500, -0.935058593750, -0.118408203125, 25.453125000000, 21.289062500000, -1.695312500000, 1491882779
-0.090820312500, -0.935058593750, -0.118408203125, 25.453125000000, 21.289062500000, -1.695312500000, 1491882779
-0.087402343750, -0.980224609375, -0.144042968750, 33.585937500000, 27.484375000000, -7.390625000000, 1491882779
-0.087402343750, -0.980224609375, -0.144042968750, 33.585937500000, 27.484375000000, -7.390625000000, 1491882779
-0.087402343750, -0.980224609375, -0.144042968750, 33.585937500000, 27.484375000000, -7.390625000000, 1491882779
0.143554687500, -0.927734375000, -0.048095703125, 44.054687500000, 8.210937500000, -4.632812500000, 1491882779
0.143554687500, -0.927734375000, -0.048095703125, 44.054687500000, 8.210937500000, -4.632812500000, 1491882779
0.143554687500, -0.927734375000, -0.048095703125, 44.054687500000, 8.210937500000, -4.632812500000, 1491882779
0.143554687500, -0.927734375000, -0.048095703125, 44.054687500000, 8.210937500000, -4.632812500000, 1491882779
0.065185546875, -1.032226562500, -0.054443359375, 39.468750000000, -0.070312500000, 2.804687500000, 1491882779
0.065185546875, -1.032226562500, -0.054443359375, 39.468750000000, -0.070312500000, 2.804687500000, 1491882779
0.065185546875, -1.032226562500, -0.054443359375, 39.468750000000, -0.070312500000, 2.804687500000, 1491882779
-0.077880859375, -0.968505859375, -0.142822265625, 32.195312500000, 1.109375000000, -2.968750000000, 1491882779
-0.077880859375, -0.968505859375, -0.142822265625, 32.195312500000, 1.109375000000, -2.968750000000, 1491882779
-0.077880859375, -0.968505859375, -0.142822265625, 32.195312500000, 1.109375000000, -2.968750000000, 1491882779
0.027832031250, -1.012695312500, -0.069580078125, 9.460937500000, 9.117187500000, -6.828125000000, 1491882779
0.027832031250, -1.012695312500, -0.069580078125, 9.460937500000, 9.117187500000, -6.828125000000, 1491882779
0.027832031250, -1.012695312500, -0.069580078125, 9.460937500000, 9.117187500000, -6.828125000000, 1491882779
0.021728515625, -1.069580078125, -0.033447265625, -17.351562500000, -5.734375000000, -2.437500000000, 1491882779
0.021728515625, -1.069580078125, -0.033447265625, -17.351562500000, -5.734375000000, -2.437500000000, 1491882779
0.021728515625, -1.069580078125, -0.033447265625, -17.351562500000, -5.734375000000, -2.437500000000, 1491882779
0.021728515625, -1.069580078125, -0.033447265625, -17.351562500000, -5.734375000000, -2.437500000000, 1491882779
-0.007324218750, -1.029541015625, -0.141357421875, -29.078125000000, -0.484375000000, -1.796875000000, 1491882779
-0.007324218750, -1.029541015625, -0.141357421875, -29.078125000000, -0.484375000000, -1.796875000000, 1491882779
-0.007324218750, -1.029541015625, -0.141357421875, -29.078125000000, -0.484375000000, -1.796875000000, 1491882779
-0.086914062500, -0.923828125000, -0.056396484375, -38.273437500000, -3.554687500000, 0.898437500000, 1491882779
-0.086914062500, -0.923828125000, -0.056396484375, -38.273437500000, -3.554687500000, 0.898437500000, 1491882779
-0.086914062500, -0.923828125000, -0.056396484375, -38.273437500000, -3.554687500000, 0.898437500000, 1491882779
0.007324218750, -0.926513671875, -0.114501953125, -40.812500000000, -11.953125000000, 0.992187500000, 1491882779
0.007324218750, -0.926513671875, -0.114501953125, -40.812500000000, -11.953125000000, 0.992187500000, 1491882779
0.007324218750, -0.926513671875, -0.114501953125, -40.812500000000, -11.953125000000, 0.992187500000, 1491882779
-0.021728515625, -1.076171875000, -0.151611328125, -31.250000000000, -1.273437500000, -4.593750000000, 1491882779
-0.021728515625, -1.076171875000, -0.151611328125, -31.250000000000, -1.273437500000, -4.593750000000, 1491882779
-0.021728515625, -1.076171875000, -0.151611328125, -31.250000000000, -1.273437500000, -4.593750000000, 1491882780
-0.021728515625, -1.076171875000, -0.151611328125, -31.250000000000, -1.273437500000, -4.593750000000, 1491882780
0.001220703125, -0.931640625000, -0.115234375000, -21.531250000000, -5.531250000000, -0.445312500000, 1491882780
0.001220703125, -0.931640625000, -0.115234375000, -21.531250000000, -5.531250000000, -0.445312500000, 1491882780
0.001220703125, -0.931640625000, -0.115234375000, -21.531250000000, -5.531250000000, -0.445312500000, 1491882780
0.072509765625, -0.990722656250, -0.062255859375, -9.843750000000, -3.078125000000, -2.539062500000, 1491882780
0.072509765625, -0.990722656250, -0.062255859375, -9.843750000000, -3.078125000000, -2.539062500000, 1491882780
0.072509765625, -0.990722656250, -0.062255859375, -9.843750000000, -3.078125000000, -2.539062500000, 1491882780
0.015136718750, -1.040283203125, -0.129638671875, 4.078125000000, 4.468750000000, -1.429687500000, 1491882780
0.015136718750, -1.040283203125, -0.129638671875, 4.078125000000, 4.468750000000, -1.429687500000, 1491882780
0.015136718750, -1.040283203125, -0.129638671875, 4.078125000000, 4.468750000000, -1.429687500000, 1491882780
0.072753906250, -1.023925781250, -0.137207031250, 15.164062500000, 5.531250000000, -2.304687500000, 1491882780
0.072753906250, -1.023925781250, -0.137207031250, 15.164062500000, 5.531250000000, -2.304687500000, 1491882780
0.072753906250, -1.023925781250, -0.137207031250, 15.164062500000, 5.531250000000, -2.304687500000, 1491882780
0.072753906250, -1.023925781250, -0.137207031250, 15.164062500000, 5.531250000000, -2.304687500000, 1491882780
-0.011718750000, -1.030761718750, -0.035644531250, 21.859375000000, 5.171875000000, -6.179687500000, 1491882780
-0.011718750000, -1.030761718750, -0.035644531250, 21.859375000000, 5.171875000000, -6.179687500000, 1491882780
-0.011718750000, -1.030761718750, -0.035644531250, 21.859375000000, 5.171875000000, -6.179687500000, 1491882780
-0.079345703125, -0.914062500000, -0.061279296875, 23.421875000000, 6.617187500000, -2.148437500000, 1491882780
-0.079345703125, -0.914062500000, -0.061279296875, 23.421875000000, 6.617187500000, -2.148437500000, 1491882780
-0.079345703125, -0.914062500000, -0.061279296875, 23.421875000000, 6.617187500000, -2.148437500000, 1491882780
-0.010253906250, -0.923583984375, -0.135742187500, 20.945312500000, 3.671875000000, -3.156250000000, 1491882780
-0.010253906250, -0.923583984375, -0.135742187500, 20.945312500000, 3.671875000000, -3.156250000000, 1491882780
-0.074951171875, -0.993896484375, -0.096435546875, 9.148437500000, 3.375000000000, -4.781250000000, 1491882780
-0.074951171875, -0.993896484375, -0.096435546875, 9.148437500000, 3.375000000000, -4.781250000000, 1491882780
-0.074951171875, -0.993896484375, -0.096435546875, 9.148437500000, 3.375000000000, -4.781250000000, 1491882780
-0.074951171875, -0.993896484375, -0.096435546875, 9.148437500000, 3.375000000000, -4.781250000000, 1491882780
-0.074951171875, -0.993896484375, -0.096435546875, 9.148437500000, 3.375000000000, -4.781250000000, 1491882780
0.016601562500, -0.977783203125, -0.086669921875, -4.515625000000, -2.890625000000, -6.289062500000, 1491882780
0.016601562500, -0.977783203125, -0.086669921875, -4.515625000000, -2.890625000000, -6.289062500000, 1491882780
0.016601562500, -0.977783203125, -0.086669921875, -4.515625000000, -2.890625000000, -6.289062500000, 1491882780
0.037597656250, -1.012207031250, -0.075439453125, -10.750000000000, -2.281250000000, -1.460937500000, 1491882780
0.037597656250, -1.012207031250, -0.075439453125, -10.750000000000, -2.281250000000, -1.460937500000, 1491882780
0.037597656250, -1.012207031250, -0.075439453125, -10.750000000000, -2.281250000000, -1.460937500000, 1491882780
-0.030029296875, -1.023193359375, -0.035156250000, -17.265625000000, -3.804687500000, -1.617187500000, 1491882780
-0.030029296875, -1.023193359375, -0.035156250000, -17.265625000000, -3.804687500000, -1.617187500000, 1491882780
-0.030029296875, -1.023193359375, -0.035156250000, -17.265625000000, -3.804687500000, -1.617187500000, 1491882780
0.015380859375, -1.082519531250, -0.147705078125, -24.062500000000, -5.992187500000, -3.984375000000, 1491882780
0.015380859375, -1.082519531250, -0.147705078125, -24.062500000000, -5.992187500000, -3.984375000000, 1491882780
0.015380859375, -1.082519531250, -0.147705078125, -24.062500000000, -5.992187500000, -3.984375000000, 1491882780
0.015380859375, -1.082519531250, -0.147705078125, -24.062500000000, -5.992187500000, -3.984375000000, 1491882780
0.012939453125, -1.081787109375, -0.108154296875, -21.367187500000, -1.312500000000, -4.507812500000, 1491882780
0.012939453125, -1.081787109375, -0.108154296875, -21.367187500000, -1.312500000000, -4.507812500000, 1491882780
0.012939453125, -1.081787109375, -0.108154296875, -21.367187500000, -1.312500000000, -4.507812500000, 1491882780
-0.083007812500, -0.908447265625, -0.080322265625, -18.929687500000, -4.687500000000, -6.609375000000, 1491882780
-0.083007812500, -0.908447265625, -0.080322265625, -18.929687500000, -4.687500000000, -6.609375000000, 1491882780
-0.083007812500, -0.908447265625, -0.080322265625, -18.929687500000, -4.687500000000, -6.609375000000, 1491882780
0.000488281250, -0.945800781250, -0.134521484375, -12.421875000000, -0.906250000000, -3.117187500000, 1491882780
0.000488281250, -0.945800781250, -0.134521484375, -12.421875000000, -0.906250000000, -3.117187500000, 1491882780
0.000488281250, -0.945800781250, -0.134521484375, -12.421875000000, -0.906250000000, -3.117187500000, 1491882780
0.011718750000, -0.982666015625, -0.055419921875, -1.218750000000, 0.578125000000, -1.734375000000, 1491882780
0.011718750000, -0.982666015625, -0.055419921875, -1.218750000000, 0.578125000000, -1.734375000000, 1491882780
0.011718750000, -0.982666015625, -0.055419921875, -1.218750000000, 0.578125000000, -1.734375000000, 1491882780
0.011718750000, -0.982666015625, -0.055419921875, -1.218750000000, 0.578125000000, -1.734375000000, 1491882780
-0.068847656250, -0.933837890625, -0.143066406250, 5.273437500000, 2.312500000000, -1.843750000000, 1491882780
-0.068847656250, -0.933837890625, -0.143066406250, 5.273437500000, 2.312500000000, -1.843750000000, 1491882780
-0.068847656250, -0.933837890625, -0.143066406250, 5.273437500000, 2.312500000000, -1.843750000000, 1491882780
-0.022705078125, -0.969726562500, -0.062255859375, 11.843750000000, 6.312500000000, -3.914062500000, 1491882780
-0.022705078125, -0.969726562500, -0.062255859375, 11.843750000000, 6.312500000000, -3.914062500000, 1491882780
-0.022705078125, -0.969726562500, -0.062255859375, 11.843750000000, 6.312500000000, -3.914062500000, 1491882780
-0.011474609375, -0.991455078125, -0.050292968750, 14.867187500000, 2.953125000000, 0.187500000000, 1491882780
-0.011474609375, -0.991455078125, -0.050292968750, 14.867187500000, 2.953125000000, 0.187500000000, 1491882780
-0.011474609375, -0.991455078125, -0.050292968750, 14.867187500000, 2.953125000000, 0.187500000000, 1491882780
0.011718750000, -1.125244140625, -0.083984375000, 11.554687500000, 3.718750000000, -1.164062500000, 1491882780
0.011718750000, -1.125244140625, -0.083984375000, 11.554687500000, 3.718750000000, -1.164062500000, 1491882780
0.011718750000, -1.125244140625, -0.083984375000, 11.554687500000, 3.718750000000, -1.164062500000, 1491882780
0.011718750000, -1.125244140625, -0.083984375000, 11.554687500000, 3.718750000000, -1.164062500000, 1491882780
0.070068359375, -1.022216796875, -0.125000000000, 8.234375000000, 4.078125000000, -1.226562500000, 1491882781
0.070068359375, -1.022216796875, -0.125000000000, 8.234375000000, 4.078125000000, -1.226562500000, 1491882781
0.070068359375, -1.022216796875, -0.125000000000, 8.234375000000, 4.078125000000, -1.226562500000, 1491882781
0.019775390625, -0.979003906250, -0.140625000000, 2.671875000000, -0.656250000000, -6.492187500000, 1491882781
0.019775390625, -0.979003906250, -0.140625000000, 2.671875000000, -0.656250000000, -6.492187500000, 1491882781
0.019775390625, -0.979003906250, -0.140625000000, 2.671875000000, -0.656250000000, -6.492187500000, 1491882781
0.078125000000, -0.948486328125, -0.088378906250, -3.882812500000, 1.351562500000, -4.656250000000, 1491882781
0.078125000000, -0.948486328125, -0.088378906250, -3.882812500000, 1.351562500000, -4.656250000000, 1491882781
0.078125000000, -0.948486328125, -0.088378906250, -3.882812500000, 1.351562500000, -4.656250000000, 1491882781
-0.021728515625, -0.939697265625, -0.056152343750, -16.585937500000, -3.085937500000, -1.804687500000, 1491882781
-0.021728515625, -0.939697265625, -0.056152343750, -16.585937500000, -3.085937500000, -1.804687500000, 1491882781
-0.021728515625, -0.939697265625, -0.056152343750, -16.585937500000, -3.085937500000, -1.804687500000, 1491882781
-0.021728515625, -0.939697265625, -0.056152343750, -16.585937500000, -3.085937500000, -1.804687500000, 1491882781
-0.082275390625, -1.023437500000, -0.126464843750, -18.929687500000, -6.015625000000, -3.195312500000, 1491882781
-0.082275390625, -1.023437500000, -0.126464843750, -18.929687500000, -6.015625000000, -3.195312500000, 1491882781
-0.082275390625, -1.023437500000, -0.126464843750, -18.929687500000, -6.015625000000, -3.195312500000, 1491882781
-0.010009765625, -1.008056640625, -0.148437500000, -17.726562500000, -0.687500000000, -1.250000000000, 1491882781
-0.010009765625, -1.008056640625, -0.148437500000, -17.726562500000, -0.687500000000, -1.250000000000, 1491882781
-0.010009765625, -1.008056640625, -0.148437500000, -17.726562500000, -0.687500000000, -1.250000000000, 1491882781
0.093017578125, -1.015136718750, -0.137207031250, -15.953125000000, -3.585937500000, -1.195312500000, 1491882781
0.093017578125, -1.015136718750, -0.137207031250, -15.953125000000, -3.585937500000, -1.195312500000, 1491882781
0.093017578125, -1.015136718750, -0.137207031250, -15.953125000000, -3.585937500000, -1.195312500000, 1491882781
0.093017578125, -0.970214843750, -0.138671875000, -10.734375000000, -1.773437500000, -4.664062500000, 1491882781
0.093017578125, -0.970214843750, -0.138671875000, -10.734375000000, -1.773437500000, -4.664062500000, 1491882781
0.093017578125, -0.970214843750, -0.138671875000, -10.734375000000, -1.773437500000, -4.664062500000, 1491882781
0.093017578125, -0.970214843750, -0.138671875000, -10.734375000000, -1.773437500000, -4.664062500000, 1491882781
