ACC_X,ACC_Y,ACC_Z,G_X,G_Y,G_Z,Unix Time
0.032226562500, -1.284667968750, 0.177246093750, -34.312500000000, 7.984375000000, 19.632812500000, 1491882973
0.032226562500, -1.284667968750, 0.177246093750, -34.312500000000, 7.984375000000, 19.632812500000, 1491882973
0.032226562500, -1.284667968750, 0.177246093750, -34.312500000000, 7.984375000000, 19.632812500000, 1491882973
0.145019531250, -0.863037109375, -0.077880859375, -5.226562500000, 24.203125000000, -0.898437500000, 1491882973
0.145019531250, -0.863037109375, -0.077880859375, -5.226562500000, 24.203125000000, -0.898437500000, 1491882973
0.150634765625, -0.834716796875, -0.072509765625, -8.062500000000, 27.929687500000, 0.148437500000, 1491882973
0.162597656250, -0.804687500000, -0.069580078125, -5.804687500000, 33.726562500000, -4.914062500000, 1491882973
0.162597656250, -0.804687500000, -0.069580078125, -5.804687500000, 33.726562500000, -4.914062500000, 1491882973
0.162597656250, -0.804687500000, -0.069580078125, -5.804687500000, 33.726562500000, -4.914062500000, 1491882973
0.162597656250, -0.804687500000, -0.069580078125, -5.804687500000, 33.726562500000, -4.914062500000, 1491882973
0.162597656250, -0.804687500000, -0.069580078125, -5.804687500000, 33.726562500000, -4.914062500000, 1491882973
0.162597656250, -0.804687500000, -0.069580078125, -5.804687500000, 33.726562500000, -4.914062500000, 1491882973
0.162597656250, -0.804687500000, -0.069580078125, -5.804687500000, 33.726562500000, -4.914062500000, 1491882973
0.239501953125, -1.075195312500, 0.004638671875, 9.664062500000, 27.507812500000, 8.656250000000, 1491882973
0.239501953125, -1.075195312500, 0.004638671875, 9.664062500000, 27.507812500000, 8.656250000000, 1491882973
0.239501953125, -1.075195312500, 0.004638671875, 9.664062500000, 27.507812500000, 8.656250000000, 1491882973
0.239501953125, -1.075195312500, 0.004638671875, 9.664062500000, 27.507812500000, 8.656250000000, 1491882973
0.157958984375, -0.880615234375, 0.132812500000, -5.156250000000, 13.281250000000, -14.937500000000, 1491882973
0.157958984375, -0.880615234375, 0.132812500000, -5.156250000000, 13.281250000000, -14.937500000000, 1491882973
0.157958984375, -0.880615234375, 0.132812500000, -5.156250000000, 13.281250000000, -14.937500000000, 1491882973
0.157958984375, -0.880615234375, 0.132812500000, -5.156250000000, 13.281250000000, -14.937500000000, 1491882973
0.120849609375, -0.800292968750, 0.101806640625, -0.054687500000, 6.820312500000, -12.742187500000, 1491882973
0.120849609375, -0.800292968750, 0.101806640625, -0.054687500000, 6.820312500000, -12.742187500000, 1491882973
0.120849609375, -0.800292968750, 0.101806640625, -0.054687500000, 6.820312500000, -12.742187500000, 1491882973
0.120849609375, -0.800292968750, 0.101806640625, -0.500000000000, 3.210937500000, -10.289062500000, 1491882973
0.102050781250, -0.913085937500, 0.156005859375, -2.031250000000, 12.953125000000, -9.015625000000, 1491882973
0.102050781250, -0.913085937500, 0.156005859375, -2.031250000000, 12.953125000000, -9.015625000000, 1491882973
0.102050781250, -0.913085937500, 0.156005859375, -2.031250000000, 12.953125000000, -9.015625000000, 1491882973
0.102050781250, -0.913085937500, 0.156005859375, -2.031250000000, 12.953125000000, -9.015625000000, 1491882973
0.102050781250, -0.913085937500, 0.156005859375, -2.031250000000, 12.953125000000, -9.015625000000, 1491882973
0.102050781250, -0.913085937500, 0.156005859375, -2.031250000000, 12.953125000000, -9.015625000000, 1491882973
0.102050781250, -0.913085937500, 0.156005859375, -2.031250000000, 12.953125000000, -9.015625000000, 1491882973
0.215820312500, -0.968505859375, 0.129150390625, -4.179687500000, -6.179687500000, -12.484375000000, 1491882973
0.215820312500, -0.968505859375, 0.129150390625, -4.179687500000, -6.179687500000, -12.484375000000, 1491882973
0.215820312500, -0.968505859375, 0.129150390625, -4.179687500000, -6.179687500000, -12.484375000000, 1491882973
0.215820312500, -0.968505859375, 0.129150390625, -4.179687500000, -6.179687500000, -12.484375000000, 1491882973
0.158203125000, -0.926269531250, 0.278076171875, -5.812500000000, -4.828125000000, -15.210937500000, 1491882973
0.158203125000, -0.926269531250, 0.278076171875, -5.812500000000, -4.828125000000, -15.210937500000, 1491882973
0.158203125000, -0.926269531250, 0.278076171875, -5.812500000000, -4.828125000000, -15.210937500000, 1491882973
0.166503906250, -1.071533203125, 0.263671875000, -5.789062500000, 0.257812500000, -13.929687500000, 1491882974
0.166503906250, -1.071533203125, 0.263671875000, -5.789062500000, 0.257812500000, -13.929687500000, 1491882974
0.166503906250, -1.071533203125, 0.263671875000, -5.789062500000, 0.257812500000, -13.929687500000, 1491882974
0.057861328125, -1.297119140625, 0.248291015625, -14.781250000000, 7.921875000000, -14.765625000000, 1491882974
0.057861328125, -1.297119140625, 0.248291015625, -14.781250000000, 7.921875000000, -14.765625000000, 1491882974
0.057861328125, -1.297119140625, 0.248291015625, -14.781250000000, 7.921875000000, -14.765625000000, 1491882974
0.261474609375, -0.960449218750, 0.069335937500, -10.226562500000, 22.734375000000, -4.453125000000, 1491882974
0.261474609375, -0.960449218750, 0.069335937500, -10.226562500000, 22.734375000000, -4.453125000000, 1491882974
0.261474609375, -0.960449218750, 0.069335937500, -10.226562500000, 22.734375000000, -4.453125000000, 1491882974
0.098632812500, -0.804687500000, 0.163574218750, -14.007812500000, 10.468750000000, 3.000000000000, 1491882974
0.098632812500, -0.804687500000, 0.163574218750, -14.007812500000, 10.468750000000, 3.000000000000, 1491882974
0.098632812500, -0.804687500000, 0.163574218750, -14.007812500000, 10.468750000000, 3.000000000000, 1491882974
0.098632812500, -0.804687500000, 0.163574218750, -14.007812500000, 10.468750000000, 3.000000000000, 1491882974
0.098632812500, -0.804687500000, 0.163574218750, -14.007812500000, 10.468750000000, 3.000000000000, 1491882974
0.098632812500, -0.804687500000, 0.163574218750, -14.007812500000, 10.468750000000, 3.000000000000, 1491882974
0.098632812500, -0.804687500000, 0.163574218750, -14.007812500000, 10.468750000000, 3.000000000000, 1491882974
-0.030761718750, -1.023193359375, 0.027343750000, 4.750000000000, -16.421875000000, 16.367187500000, 1491882974
-0.030761718750, -1.023193359375, 0.027343750000, 4.750000000000, -16.421875000000, 16.367187500000, 1491882974
-0.030761718750, -1.023193359375, 0.027343750000, 4.750000000000, -16.421875000000, 16.367187500000, 1491882974
-0.030761718750, -1.023193359375, 0.027343750000, 4.750000000000, -16.421875000000, 16.367187500000, 1491882974
0.143554687500, -1.082763671875, -0.002685546875, 15.257812500000, -16.578125000000, 9.390625000000, 1491882974
0.274902343750, -0.977050781250, 0.213867187500, 22.914062500000, -10.992187500000, 10.109375000000, 1491882974
0.274902343750, -0.977050781250, 0.213867187500, 22.914062500000, -10.992187500000, 10.109375000000, 1491882974
0.274902343750, -0.977050781250, 0.213867187500, 22.914062500000, -10.992187500000, 10.109375000000, 1491882974
0.274902343750, -0.977050781250, 0.213867187500, 22.914062500000, -10.992187500000, 10.109375000000, 1491882974
0.274902343750, -0.977050781250, 0.213867187500, 22.914062500000, -10.992187500000, 10.109375000000, 1491882974
0.085449218750, -0.730468750000, 0.099853515625, -10.187500000000, 47.343750000000, 7.703125000000, 1491882974
0.085449218750, -0.730468750000, 0.099853515625, -10.187500000000, 47.343750000000, 7.703125000000, 1491882974
0.085449218750, -0.730468750000, 0.099853515625, -10.187500000000, 47.343750000000, 7.703125000000, 1491882974
0.085449218750, -0.730468750000, 0.099853515625, -10.187500000000, 47.343750000000, 7.703125000000, 1491882974
0.085449218750, -0.730468750000, 0.099853515625, -10.187500000000, 47.343750000000, 7.703125000000, 1491882974
0.085449218750, -0.730468750000, 0.099853515625, -10.187500000000, 47.343750000000, 7.703125000000, 1491882974
0.061279296875, -0.956542968750, 0.217285156250, 6.062500000000, 45.289062500000, 5.312500000000, 1491882974
0.061279296875, -0.956542968750, 0.217285156250, 6.062500000000, 45.289062500000, 5.312500000000, 1491882974
0.061279296875, -0.956542968750, 0.217285156250, 6.062500000000, 45.289062500000, 5.312500000000, 1491882974
0.061279296875, -0.956542968750, 0.217285156250, 6.062500000000, 45.289062500000, 5.312500000000, 1491882974
0.090576171875, -1.018066406250, 0.114501953125, 5.750000000000, 84.039062500000, 5.710937500000, 1491882974
0.083007812500, -1.064941406250, 0.258544921875, 5.750000000000, 84.039062500000, 5.710937500000, 1491882974
0.083007812500, -1.064941406250, 0.258544921875, 5.750000000000, 84.039062500000, 5.710937500000, 1491882974
0.083007812500, -1.064941406250, 0.258544921875, 5.750000000000, 84.039062500000, 5.710937500000, 1491882974
0.014648437500, -1.029541015625, 0.151855468750, -2.898437500000, 104.656250000000, 10.382812500000, 1491882974
0.014648437500, -1.029541015625, 0.151855468750, -2.898437500000, 104.656250000000, 10.382812500000, 1491882974
0.014648437500, -1.029541015625, 0.151855468750, -2.898437500000, 104.656250000000, 10.382812500000, 1491882974
0.014648437500, -1.029541015625, 0.151855468750, -2.898437500000, 104.656250000000, 10.382812500000, 1491882974
0.014648437500, -1.029541015625, 0.151855468750, -2.898437500000, 104.656250000000, 10.382812500000, 1491882974
0.335693359375, -1.074707031250, 0.097412109375, 0.164062500000, 167.929687500000, 20.953125000000, 1491882974
0.335693359375, -1.074707031250, 0.097412109375, 0.164062500000, 167.929687500000, 20.953125000000, 1491882974
0.335693359375, -1.074707031250, 0.097412109375, 0.164062500000, 167.929687500000, 20.953125000000, 1491882974
0.335693359375, -1.074707031250, 0.097412109375, 0.164062500000, 167.929687500000, 20.953125000000, 1491882974
0.320800781250, -0.872070312500, -0.072753906250, -1.132812500000, 188.289062500000, 15.695312500000, 1491882974
0.320800781250, -0.872070312500, -0.072753906250, -1.132812500000, 188.289062500000, 15.695312500000, 1491882974
0.320800781250, -0.872070312500, -0.072753906250, -1.132812500000, 188.289062500000, 15.695312500000, 1491882974
0.320800781250, -0.872070312500, -0.072753906250, -1.132812500000, 188.289062500000, 15.695312500000, 1491882974
0.320800781250, -0.872070312500, -0.072753906250, -1.132812500000, 188.289062500000, 15.695312500000, 1491882974
0.320800781250, -0.872070312500, -0.072753906250, -1.132812500000, 188.289062500000, 15.695312500000, 1491882974
0.254394531250, -0.912109375000, -0.195068359375, 14.210937500000, 176.054687500000, 15.882812500000, 1491882974
0.260498046875, -1.020263671875, -0.112548828125, 9.367187500000, 157.937500000000, 19.070312500000, 1491882974
0.260498046875, -1.020263671875, -0.112548828125, 9.367187500000, 157.937500000000, 19.070312500000, 1491882974
0.260498046875, -1.020263671875, -0.112548828125, 9.367187500000, 157.937500000000, 19.070312500000, 1491882974
0.260498046875, -1.020263671875, -0.112548828125, 9.367187500000, 157.937500000000, 19.070312500000, 1491882974
0.109375000000, -1.066406250000, -0.052490234375, 12.195312500000, 124.828125000000, 32.265625000000, 1491882974
0.128417968750, -0.932617187500, -0.087646484375, 20.625000000000, 115.562500000000, 28.507812500000, 1491882974
0.128417968750, -0.932617187500, -0.087646484375, 20.625000000000, 115.562500000000, 28.507812500000, 1491882974
0.128417968750, -0.932617187500, -0.087646484375, 20.625000000000, 115.562500000000, 28.507812500000, 1491882974
0.128417968750, -0.932617187500, -0.087646484375, 20.625000000000, 115.562500000000, 28.507812500000, 1491882974
0.158447265625, -0.922607421875, 0.096191406250, 37.070312500000, 143.992187500000, -0.484375000000, 1491882974
0.158447265625, -0.922607421875, 0.096191406250, 37.070312500000, 143.992187500000, -0.484375000000, 1491882974
0.158447265625, -0.922607421875, 0.096191406250, 37.070312500000, 143.992187500000, -0.484375000000, 1491882974
0.270019531250, -0.959228515625, 0.201171875000, 10.773437500000, 141.789062500000, 3.718750000000, 1491882975
0.270019531250, -0.959228515625, 0.201171875000, 10.773437500000, 141.789062500000, 3.718750000000, 1491882975
0.270019531250, -0.959228515625, 0.201171875000, 10.773437500000, 141.789062500000, 3.718750000000, 1491882975
0.208740234375, -0.985839843750, 0.015625000000, 9.796875000000, 141.382812500000, -8.281250000000, 1491882975
0.208740234375, -0.985839843750, 0.015625000000, 9.796875000000, 141.382812500000, -8.281250000000, 1491882975
0.208740234375, -0.985839843750, 0.015625000000, 9.796875000000, 141.382812500000, -8.281250000000, 1491882975
0.208740234375, -0.985839843750, 0.015625000000, 9.796875000000, 141.382812500000, -8.281250000000, 1491882975
0.230712890625, -0.926269531250, 0.075683593750, -2.867187500000, 105.078125000000, -12.203125000000, 1491882975
0.230712890625, -0.926269531250, 0.075683593750, -2.867187500000, 105.078125000000, -12.203125000000, 1491882975
0.230712890625, -0.926269531250, 0.075683593750, -2.867187500000, 105.078125000000, -12.203125000000, 1491882975
0.230712890625, -0.926269531250, 0.075683593750, -2.867187500000, 105.078125000000, -12.203125000000, 1491882975
0.230712890625, -0.926269531250, 0.075683593750, -2.867187500000, 105.078125000000, -12.203125000000, 1491882975
0.230712890625, -0.926269531250, 0.075683593750, -2.867187500000, 105.078125000000, -12.203125000000, 1491882975
0.230712890625, -0.926269531250, 0.075683593750, -2.867187500000, 105.078125000000, -12.203125000000, 1491882975
0.230712890625, -0.926269531250, 0.075683593750, -2.867187500000, 105.078125000000, -12.203125000000, 1491882975
0.230712890625, -0.926269531250, 0.075683593750, -2.867187500000, 105.078125000000, -12.203125000000, 1491882975
0.230712890625, -0.926269531250, 0.075683593750, -2.867187500000, 105.078125000000, -12.203125000000, 1491882975
-0.001708984375, -1.289550781250, -0.091308593750, -16.328125000000, 65.843750000000, -14.140625000000, 1491882975
-0.001708984375, -1.289550781250, -0.091308593750, -16.328125000000, 65.843750000000, -14.140625000000, 1491882975
-0.001708984375, -1.289550781250, -0.091308593750, -16.328125000000, 65.843750000000, -14.140625000000, 1491882975
-0.001708984375, -1.289550781250, -0.091308593750, -16.328125000000, 65.843750000000, -14.140625000000, 1491882975
-0.001708984375, -1.289550781250, -0.091308593750, -16.328125000000, 65.843750000000, -14.140625000000, 1491882975
0.208251953125, -0.807617187500, 0.115478515625, 8.382812500000, 103.625000000000, -38.593750000000, 1491882975
0.208251953125, -0.807617187500, 0.115478515625, 8.382812500000, 103.625000000000, -38.593750000000, 1491882975
0.208251953125, -0.807617187500, 0.115478515625, 8.382812500000, 103.625000000000, -38.593750000000, 1491882975
0.208251953125, -0.807617187500, 0.115478515625, 8.382812500000, 103.625000000000, -38.593750000000, 1491882975
0.113769531250, -0.994873046875, -0.085205078125, 0.359375000000, 117.062500000000, 20.312500000000, 1491882975
0.113769531250, -0.994873046875, -0.085205078125, 0.359375000000, 117.062500000000, 20.312500000000, 1491882975
0.113769531250, -0.994873046875, -0.085205078125, 0.359375000000, 117.062500000000, 20.312500000000, 1491882975
0.113769531250, -0.994873046875, -0.085205078125, 0.359375000000, 117.062500000000, 20.312500000000, 1491882975
0.113769531250, -0.994873046875, -0.085205078125, 4.468750000000, 110.476562500000, 11.562500000000, 1491882975
-0.036132812500, -1.012207031250, 0.083740234375, 4.468750000000, 110.476562500000, 11.562500000000, 1491882975
-0.036132812500, -1.012207031250, 0.083740234375, 4.468750000000, 110.476562500000, 11.562500000000, 1491882975
-0.036132812500, -1.012207031250, 0.083740234375, 4.468750000000, 110.476562500000, 11.562500000000, 1491882975
-0.036132812500, -1.012207031250, 0.083740234375, 1.289062500000, 107.773437500000, 7.578125000000, 1491882975
0.065429687500, -0.948486328125, 0.082031250000, 1.914062500000, 85.046875000000, 5.757812500000, 1491882975
0.065429687500, -0.948486328125, 0.082031250000, 1.914062500000, 85.046875000000, 5.757812500000, 1491882975
0.065429687500, -0.948486328125, 0.082031250000, 1.914062500000, 85.046875000000, 5.757812500000, 1491882975
0.065429687500, -0.948486328125, 0.082031250000, 1.914062500000, 85.046875000000, 5.757812500000, 1491882975
0.096435546875, -1.024658203125, 0.213867187500, 9.070312500000, 98.578125000000, -5.562500000000, 1491882975
0.096435546875, -1.024658203125, 0.213867187500, 9.070312500000, 98.578125000000, -5.562500000000, 1491882975
0.096435546875, -1.024658203125, 0.213867187500, 9.070312500000, 98.578125000000, -5.562500000000, 1491882975
0.125732421875, -0.981201171875, 0.105224609375, -5.757812500000, 107.359375000000, -0.257812500000, 1491882975
0.125732421875, -0.981201171875, 0.105224609375, -5.757812500000, 107.359375000000, -0.257812500000, 1491882975
0.125732421875, -0.981201171875, 0.105224609375, -5.757812500000, 107.359375000000, -0.257812500000, 1491882975
0.125732421875, -0.981201171875, 0.105224609375, -5.757812500000, 107.359375000000, -0.257812500000, 1491882975
0.128906250000, -1.016357421875, 0.046386718750, -3.664062500000, 94.023437500000, 4.789062500000, 1491882975
0.128906250000, -1.016357421875, 0.046386718750, -3.664062500000, 94.023437500000, 4.789062500000, 1491882975
0.128906250000, -1.016357421875, 0.046386718750, -3.664062500000, 94.023437500000, 4.789062500000, 1491882975
0.062011718750, -0.983642578125, 0.085449218750, 1.468750000000, 82.734375000000, 6.351562500000, 1491882975
0.062011718750, -0.983642578125, 0.085449218750, 1.468750000000, 82.734375000000, 6.351562500000, 1491882975
0.062011718750, -0.983642578125, 0.085449218750, 1.468750000000, 82.734375000000, 6.351562500000, 1491882975
-0.027832031250, -0.926513671875, 0.090576171875, 8.164062500000, 65.781250000000, 3.476562500000, 1491882975
-0.027832031250, -0.926513671875, 0.090576171875, 8.164062500000, 65.781250000000, 3.476562500000, 1491882975
-0.027832031250, -0.926513671875, 0.090576171875, 8.164062500000, 65.781250000000, 3.476562500000, 1491882975
-0.077148437500, -1.055419921875, 0.124267578125, 7.398437500000, 53.828125000000, 10.039062500000, 1491882975
-0.077148437500, -1.055419921875, 0.124267578125, 7.398437500000, 53.828125000000, 10.039062500000, 1491882975
-0.077148437500, -1.055419921875, 0.124267578125, 7.398437500000, 53.828125000000, 10.039062500000, 1491882975
-0.077148437500, -1.055419921875, 0.124267578125, 7.398437500000, 53.828125000000, 10.039062500000, 1491882975
0.064697265625, -1.122558593750, 0.230468750000, -9.984375000000, 58.515625000000, 16.117187500000, 1491882975
0.064697265625, -1.122558593750, 0.230468750000, -9.984375000000, 58.515625000000, 16.117187500000, 1491882975
0.064697265625, -1.122558593750, 0.230468750000, -9.984375000000, 58.515625000000, 16.117187500000, 1491882975
0.239746093750, -1.096435546875, 0.129150390625, -27.015625000000, 63.382812500000, 24.539062500000, 1491882975
0.239746093750, -1.096435546875, 0.129150390625, -27.015625000000, 63.382812500000, 24.539062500000, 1491882975
0.239746093750, -1.096435546875, 0.129150390625, -27.015625000000, 63.382812500000, 24.539062500000, 1491882975
0.225097656250, -0.966552734375, -0.076171875000, -12.867187500000, 90.890625000000, 22.703125000000, 1491882976
0.225097656250, -0.966552734375, -0.076171875000, -12.867187500000, 90.890625000000, 22.703125000000, 1491882976
0.225097656250, -0.966552734375, -0.076171875000, -12.867187500000, 90.890625000000, 22.703125000000, 1491882976
0.099853515625, -0.929931640625, -0.032470703125, 4.523437500000, 56.140625000000, 8.484375000000, 1491882976
0.142822265625, -1.071533203125, 0.006835937500, 12.867187500000, 42.523437500000, 18.265625000000, 1491882976
0.142822265625, -1.071533203125, 0.006835937500, 12.867187500000, 42.523437500000, 18.265625000000, 1491882976
0.142822265625, -1.071533203125, 0.006835937500, 12.867187500000, 42.523437500000, 18.265625000000, 1491882976
0.048339843750, -1.029296875000, -0.006835937500, 26.375000000000, 65.890625000000, -10.289062500000, 1491882976
0.048339843750, -1.029296875000, -0.006835937500, 26.375000000000, 65.890625000000, -10.289062500000, 1491882976
0.048339843750, -1.029296875000, -0.006835937500, 26.375000000000, 65.890625000000, -10.289062500000, 1491882976
0.048339843750, -1.029296875000, -0.006835937500, 26.375000000000, 65.890625000000, -10.289062500000, 1491882976
0.048339843750, -1.029296875000, -0.006835937500, 26.375000000000, 65.890625000000, -10.289062500000, 1491882976
0.048339843750, -1.029296875000, -0.006835937500, 26.375000000000, 65.890625000000, -10.289062500000, 1491882976
0.093994140625, -0.891113281250, 0.037841796875, -8.710937500000, 19.617187500000, -18.632812500000, 1491882976
0.093994140625, -0.891113281250, 0.037841796875, -8.710937500000, 19.617187500000, -18.632812500000, 1491882976
0.093994140625, -0.891113281250, 0.037841796875, -8.710937500000, 19.617187500000, -18.632812500000, 1491882976
0.093994140625, -0.891113281250, 0.037841796875, -8.710937500000, 19.617187500000, -18.632812500000, 1491882976
0.093994140625, -0.891113281250, 0.037841796875, -8.710937500000, 19.617187500000, -18.632812500000, 1491882976
0.218017578125, -1.009521484375, 0.132080078125, -7.750000000000, 18.460937500000, -18.906250000000, 1491882976
0.218017578125, -1.009521484375, 0.132080078125, -7.750000000000, 18.460937500000, -18.906250000000, 1491882976
0.218017578125, -1.009521484375, 0.132080078125, -7.750000000000, 18.460937500000, -18.906250000000, 1491882976
0.218017578125, -1.009521484375, 0.132080078125, -7.750000000000, 18.460937500000, -18.906250000000, 1491882976
0.218017578125, -1.009521484375, 0.132080078125, -7.750000000000, 18.460937500000, -18.906250000000, 1491882976
0.189941406250, -1.017578125000, 0.042236328125, 4.492187500000, -8.156250000000, -18.937500000000, 1491882976
0.189941406250, -1.017578125000, 0.042236328125, 4.492187500000, -8.156250000000, -18.937500000000, 1491882976
0.189941406250, -1.017578125000, 0.042236328125, 4.492187500000, -8.156250000000, -18.937500000000, 1491882976
0.098876953125, -1.026367187500, 0.192871093750, -13.656250000000, -16.539062500000, -13.859375000000, 1491882976
0.098876953125, -1.026367187500, 0.192871093750, -13.656250000000, -16.539062500000, -13.859375000000, 1491882976
0.098876953125, -1.026367187500, 0.192871093750, -13.656250000000, -16.539062500000, -13.859375000000, 1491882976
0.098876953125, -1.026367187500, 0.192871093750, -13.656250000000, -16.539062500000, -13.859375000000, 1491882976
0.098876953125, -1.026367187500, 0.192871093750, -13.656250000000, -16.539062500000, -13.859375000000, 1491882976
0.098876953125, -1.026367187500, 0.192871093750, -13.656250000000, -16.539062500000, -13.859375000000, 1491882976
0.098876953125, -1.026367187500, 0.192871093750, -13.656250000000, -16.539062500000, -13.859375000000, 1491882976
0.177978515625, -1.092773437500, 0.122558593750, -2.585937500000, -26.171875000000, -16.375000000000, 1491882976
0.177978515625, -1.092773437500, 0.122558593750, -2.585937500000, -26.171875000000, -16.375000000000, 1491882976
0.177978515625, -1.092773437500, 0.122558593750, -2.585937500000, -26.171875000000, -16.375000000000, 1491882976
0.063964843750, -1.203125000000, 0.209228515625, -15.554687500000, -13.835937500000, -32.007812500000, 1491882976
0.063964843750, -1.203125000000, 0.209228515625, -15.554687500000, -13.835937500000, -32.007812500000, 1491882976
0.063964843750, -1.203125000000, 0.209228515625, -15.554687500000, -13.835937500000, -32.007812500000, 1491882976
0.034912109375, -1.241210937500, 0.016113281250, -32.039062500000, -15.804687500000, -20.062500000000, 1491882976
0.034912109375, -1.241210937500, 0.016113281250, -32.039062500000, -15.804687500000, -20.062500000000, 1491882976
0.034912109375, -1.241210937500, 0.016113281250, -32.039062500000, -15.804687500000, -20.062500000000, 1491882976
-0.082031250000, -0.854492187500, -0.061523437500, -19.726562500000, -32.242187500000, -2.742187500000, 1491882976
-0.082031250000, -0.854492187500, -0.061523437500, -19.726562500000, -32.242187500000, -2.742187500000, 1491882976
-0.106933593750, -0.924316406250, -0.010498046875, -19.742187500000, -37.406250000000, 2.617187500000, 1491882976
-0.158935546875, -1.002441406250, -0.073242187500, -18.937500000000, -43.250000000000, 2.953125000000, 1491882976
-0.158935546875, -1.002441406250, -0.073242187500, -18.937500000000, -43.250000000000, 2.953125000000, 1491882976
-0.158935546875, -1.002441406250, -0.073242187500, -18.937500000000, -43.250000000000, 2.953125000000, 1491882976
-0.125488281250, -0.919921875000, -0.069824218750, -3.617187500000, -33.945312500000, -8.484375000000, 1491882976
-0.125488281250, -0.919921875000, -0.069824218750, -3.617187500000, -33.945312500000, -8.484375000000, 1491882976
-0.125488281250, -0.919921875000, -0.069824218750, -3.617187500000, -33.945312500000, -8.484375000000, 1491882976
-0.125488281250, -0.919921875000, -0.069824218750, -3.617187500000, -33.945312500000, -8.484375000000, 1491882976
-0.093505859375, -0.904785156250, 0.119384765625, -11.812500000000, -37.554687500000, 15.109375000000, 1491882976
-0.093505859375, -0.904785156250, 0.119384765625, -11.812500000000, -37.554687500000, 15.109375000000, 1491882976
-0.093505859375, -0.904785156250, 0.119384765625, -11.812500000000, -37.554687500000, 15.109375000000, 1491882976
-0.093505859375, -0.904785156250, 0.119384765625, -11.812500000000, -37.554687500000, 15.109375000000, 1491882976
0.079101562500, -0.839843750000, 0.108154296875, -13.382812500000, -56.109375000000, 3.531250000000, 1491882976
0.079101562500, -0.839843750000, 0.108154296875, -13.382812500000, -56.109375000000, 3.531250000000, 1491882976
0.079101562500, -0.839843750000, 0.108154296875, -13.382812500000, -56.109375000000, 3.531250000000, 1491882976
0.079101562500, -0.839843750000, 0.108154296875, -13.382812500000, -56.109375000000, 3.531250000000, 1491882976
0.079101562500, -0.839843750000, 0.108154296875, -13.382812500000, -56.109375000000, 3.531250000000, 1491882976
0.079101562500, -0.839843750000, 0.108154296875, -13.382812500000, -56.109375000000, 3.531250000000, 1491882976
0.112792968750, -0.931152343750, 0.047851562500, 6.664062500000, -19.085937500000, 14.546875000000, 1491882976
0.004394531250, -0.872558593750, 0.116455078125, 6.664062500000, -19.085937500000, 14.546875000000, 1491882976
0.004394531250, -0.872558593750, 0.116455078125, 6.664062500000, -19.085937500000, 14.546875000000, 1491882977
0.004394531250, -0.872558593750, 0.116455078125, 6.664062500000, -19.085937500000, 14.546875000000, 1491882977
-0.033203125000, -0.908691406250, 0.095214843750, 13.898437500000, -3.500000000000, 12.117187500000, 1491882977
-0.027099609375, -1.064208984375, 0.261230468750, -1.710937500000, -4.695312500000, 8.437500000000, 1491882977
-0.027099609375, -1.064208984375, 0.261230468750, -1.710937500000, -4.695312500000, 8.437500000000, 1491882977
-0.027099609375, -1.064208984375, 0.261230468750, -1.710937500000, -4.695312500000, 8.437500000000, 1491882977
-0.027099609375, -1.064208984375, 0.261230468750, -1.710937500000, -4.695312500000, 8.437500000000, 1491882977
-0.027099609375, -1.064208984375, 0.261230468750, -1.710937500000, -4.695312500000, 8.437500000000, 1491882977
0.008300781250, -1.139160156250, 0.111328125000, -5.539062500000, -8.625000000000, 5.710937500000, 1491882977
0.008300781250, -1.139160156250, 0.111328125000, -5.539062500000, -8.625000000000, 5.710937500000, 1491882977
0.008300781250, -1.139160156250, 0.111328125000, -5.539062500000, -8.625000000000, 5.710937500000, 1491882977
-0.010986328125, -1.326416015625, 0.178955078125, -10.398437500000, -9.429687500000, 1.328125000000, 1491882977
-0.010986328125, -1.326416015625, 0.178955078125, -10.398437500000, -9.429687500000, 1.328125000000, 1491882977
-0.010986328125, -1.326416015625, 0.178955078125, -10.398437500000, -9.429687500000, 1.328125000000, 1491882977
0.192871093750, -1.154541015625, 0.154541015625, -25.421875000000, -9.390625000000, 12.414062500000, 1491882977
0.192871093750, -1.154541015625, 0.154541015625, -25.421875000000, -9.390625000000, 12.414062500000, 1491882977
0.192871093750, -1.154541015625, 0.154541015625, -25.421875000000, -9.390625000000, 12.414062500000, 1491882977
0.126464843750, -0.797851562500, 0.009033203125, -8.507812500000, 13.085937500000, -7.976562500000, 1491882977
0.126464843750, -0.797851562500, 0.009033203125, -8.507812500000, 13.085937500000, -7.976562500000, 1491882977
0.126464843750, -0.797851562500, 0.009033203125, -8.507812500000, 13.085937500000, -7.976562500000, 1491882977
0.126464843750, -0.797851562500, 0.009033203125, -8.507812500000, 13.085937500000, -7.976562500000, 1491882977
-0.142822265625, -0.951416015625, -0.092041015625, -10.781250000000, -2.992187500000, -13.984375000000, 1491882977
-0.142822265625, -0.951416015625, -0.092041015625, -10.781250000000, -2.992187500000, -13.984375000000, 1491882977
-0.142822265625, -0.951416015625, -0.092041015625, -10.781250000000, -2.992187500000, -13.984375000000, 1491882977
0.262451171875, -0.971923828125, 0.034423828125, 2.523437500000, 3.343750000000, -18.867187500000, 1491882977
0.262451171875, -0.971923828125, 0.034423828125, 2.523437500000, 3.343750000000, -18.867187500000, 1491882977
0.262451171875, -0.971923828125, 0.034423828125, 2.523437500000, 3.343750000000, -18.867187500000, 1491882977
0.173583984375, -1.019531250000, -0.024658203125, -2.203125000000, 24.617187500000, -14.804687500000, 1491882977
0.173583984375, -1.019531250000, -0.024658203125, -2.203125000000, 24.617187500000, -14.804687500000, 1491882977
0.173583984375, -1.019531250000, -0.024658203125, -2.203125000000, 24.617187500000, -14.804687500000, 1491882977
0.067382812500, -0.944335937500, 0.210205078125, 11.554687500000, 6.000000000000, -18.429687500000, 1491882977
0.067382812500, -0.944335937500, 0.210205078125, 11.554687500000, 6.000000000000, -18.429687500000, 1491882977
0.067382812500, -0.944335937500, 0.210205078125, 11.554687500000, 6.000000000000, -18.429687500000, 1491882977
0.067382812500, -0.944335937500, 0.210205078125, 11.554687500000, 6.000000000000, -18.429687500000, 1491882977
0.102294921875, -0.809326171875, -0.008300781250, -13.164062500000, 0.531250000000, -15.085937500000, 1491882977
0.102294921875, -0.809326171875, -0.008300781250, -13.164062500000, 0.531250000000, -15.085937500000, 1491882977
0.102294921875, -0.809326171875, -0.008300781250, -13.164062500000, 0.531250000000, -15.085937500000, 1491882977
-0.074462890625, -0.783691406250, 0.033691406250, 4.234375000000, -16.773437500000, -11.171875000000, 1491882977
-0.074462890625, -0.783691406250, 0.033691406250, 4.234375000000, -16.773437500000, -11.171875000000, 1491882977
-0.074462890625, -0.783691406250, 0.033691406250, 4.234375000000, -16.773437500000, -11.171875000000, 1491882977
0.069580078125, -1.026855468750, 0.036376953125, 1.242187500000, -13.265625000000, -13.125000000000, 1491882977
0.069580078125, -1.026855468750, 0.036376953125, 1.242187500000, -13.265625000000, -13.125000000000, 1491882977
0.069580078125, -1.026855468750, 0.036376953125, 1.242187500000, -13.265625000000, -13.125000000000, 1491882977
0.130615234375, -1.065429687500, 0.228515625000, -4.601562500000, -23.304687500000, -7.890625000000, 1491882977
0.130615234375, -1.065429687500, 0.228515625000, -4.601562500000, -23.304687500000, -7.890625000000, 1491882977
0.130615234375, -1.065429687500, 0.228515625000, -4.601562500000, -23.304687500000, -7.890625000000, 1491882977
0.130615234375, -1.065429687500, 0.228515625000, -4.601562500000, -23.304687500000, -7.890625000000, 1491882977
0.070800781250, -0.991210937500, 0.095458984375, -9.289062500000, -18.078125000000, -9.156250000000, 1491882977
0.070800781250, -0.991210937500, 0.095458984375, -9.289062500000, -18.078125000000, -9.156250000000, 1491882977
0.070800781250, -0.991210937500, 0.095458984375, -9.289062500000, -18.078125000000, -9.156250000000, 1491882977
-0.015136718750, -1.152832031250, 0.185791015625, -2.710937500000, -27.921875000000, -14.195312500000, 1491882977
-0.015136718750, -1.152832031250, 0.185791015625, -2.710937500000, -27.921875000000, -14.195312500000, 1491882977
-0.015136718750, -1.152832031250, 0.185791015625, -2.710937500000, -27.921875000000, -14.195312500000, 1491882977
0.090576171875, -1.378417968750, 0.169921875000, -25.171875000000, -12.984375000000, -19.703125000000, 1491882977
0.090576171875, -1.378417968750, 0.169921875000, -25.171875000000, -12.984375000000, -19.703125000000, 1491882977
0.090576171875, -1.378417968750, 0.169921875000, -25.171875000000, -12.984375000000, -19.703125000000, 1491882977
-0.094726562500, -1.086425781250, 0.100585937500, -10.515625000000, -24.445312500000, -10.734375000000, 1491882977
-0.094726562500, -1.086425781250, 0.100585937500, -10.515625000000, -24.445312500000, -10.734375000000, 1491882977
-0.094726562500, -1.086425781250, 0.100585937500, -10.515625000000, -24.445312500000, -10.734375000000, 1491882977
-0.094726562500, -1.086425781250, 0.100585937500, -10.515625000000, -24.445312500000, -10.734375000000, 1491882977
-0.030761718750, -0.853515625000, 0.156005859375, -7.046875000000, -30.554687500000, -3.437500000000, 1491882977
-0.030761718750, -0.853515625000, 0.156005859375, -7.046875000000, -30.554687500000, -3.437500000000, 1491882977
-0.030761718750, -0.853515625000, 0.156005859375, -7.046875000000, -30.554687500000, -3.437500000000, 1491882977
-0.101562500000, -0.939453125000, -0.040527343750, -13.937500000000, -31.921875000000, -0.031250000000, 1491882977
-0.101562500000, -0.939453125000, -0.040527343750, -13.937500000000, -31.921875000000, -0.031250000000, 1491882977
-0.101562500000, -0.939453125000, -0.040527343750, -13.937500000000, -31.921875000000, -0.031250000000, 1491882977
-0.043212890625, -0.985839843750, 0.027587890625, 9.718750000000, -20.523437500000, -3.734375000000, 1491882977
-0.043212890625, -0.985839843750, 0.027587890625, 9.718750000000, -20.523437500000, -3.734375000000, 1491882977
-0.043212890625, -0.985839843750, 0.027587890625, 9.718750000000, -20.523437500000, -3.734375000000, 1491882977
0.022949218750, -0.948242187500, 0.053955078125, -0.117187500000, -16.328125000000, 7.328125000000, 1491882978
-0.041015625000, -0.919921875000, 0.044921875000, -0.117187500000, -16.328125000000, 7.328125000000, 1491882978
-0.041015625000, -0.919921875000, 0.044921875000, -0.117187500000, -16.328125000000, 7.328125000000, 1491882978
-0.041015625000, -0.919921875000, 0.044921875000, -0.117187500000, -16.328125000000, 7.328125000000, 1491882978
-0.041015625000, -0.919921875000, 0.044921875000, -0.117187500000, -16.328125000000, 7.328125000000, 1491882978
-0.146240234375, -0.809082031250, 0.113281250000, 6.484375000000, -6.390625000000, -2.828125000000, 1491882978
-0.146240234375, -0.809082031250, 0.113281250000, 6.484375000000, -6.390625000000, -2.828125000000, 1491882978
-0.146240234375, -0.809082031250, 0.113281250000, 6.484375000000, -6.390625000000, -2.828125000000, 1491882978
-0.146240234375, -0.809082031250, 0.113281250000, 6.484375000000, -6.390625000000, -2.828125000000, 1491882978
-0.146240234375, -0.809082031250, 0.113281250000, 6.484375000000, -6.390625000000, -2.828125000000, 1491882978
-0.003906250000, -0.895507812500, 0.194580078125, -2.046875000000, -6.187500000000, 0.820312500000, 1491882978
-0.003906250000, -0.895507812500, 0.194580078125, -2.046875000000, -6.187500000000, 0.820312500000, 1491882978
-0.003906250000, -0.895507812500, 0.194580078125, -2.046875000000, -6.187500000000, 0.820312500000, 1491882978
0.046142578125, -0.941650390625, 0.129150390625, -1.046875000000, -1.875000000000, 7.609375000000, 1491882978
0.046142578125, -0.941650390625, 0.129150390625, -1.046875000000, -1.875000000000, 7.609375000000, 1491882978
0.046142578125, -0.941650390625, 0.129150390625, -1.046875000000, -1.875000000000, 7.609375000000, 1491882978
0.046142578125, -0.941650390625, 0.129150390625, -1.046875000000, -1.875000000000, 7.609375000000, 1491882978
-0.072509765625, -1.014160156250, 0.123291015625, 2.523437500000, 13.226562500000, 12.882812500000, 1491882978
-0.072509765625, -1.014160156250, 0.123291015625, 2.523437500000, 13.226562500000, 12.882812500000, 1491882978
-0.072509765625, -1.014160156250, 0.123291015625, 2.523437500000, 13.226562500000, 12.882812500000, 1491882978
-0.088378906250, -1.043945312500, 0.100830078125, 3.007812500000, 12.929687500000, 9.492187500000, 1491882978
-0.088378906250, -1.043945312500, 0.100830078125, 3.007812500000, 12.929687500000, 9.492187500000, 1491882978
-0.088378906250, -1.043945312500, 0.100830078125, 3.007812500000, 12.929687500000, 9.492187500000, 1491882978
0.138916015625, -1.191650390625, 0.292480468750, 3.710937500000, 5.117187500000, 10.195312500000, 1491882978
0.138916015625, -1.191650390625, 0.292480468750, 3.710937500000, 5.117187500000, 10.195312500000, 1491882978
0.138916015625, -1.191650390625, 0.292480468750, 3.710937500000, 5.117187500000, 10.195312500000, 1491882978
0.111328125000, -1.226318359375, 0.132080078125, -21.007812500000, 17.320312500000, 9.468750000000, 1491882978
0.111328125000, -1.226318359375, 0.132080078125, -21.007812500000, 17.320312500000, 9.468750000000, 1491882978
0.111328125000, -1.226318359375, 0.132080078125, -21.007812500000, 17.320312500000, 9.468750000000, 1491882978
0.032958984375, -1.158447265625, 0.091064453125, -5.539062500000, 33.484375000000, 5.578125000000, 1491882978
0.052490234375, -1.068359375000, 0.039550781250, 4.679687500000, 42.617187500000, 2.882812500000, 1491882978
0.052490234375, -1.068359375000, 0.039550781250, 4.679687500000, 42.617187500000, 2.882812500000, 1491882978
0.052490234375, -1.068359375000, 0.039550781250, 4.679687500000, 42.617187500000, 2.882812500000, 1491882978
0.088867187500, -0.766845703125, -0.027587890625, -5.132812500000, 40.453125000000, -5.773437500000, 1491882978
0.088867187500, -0.766845703125, -0.027587890625, -5.132812500000, 40.453125000000, -5.773437500000, 1491882978
0.088867187500, -0.766845703125, -0.027587890625, -5.132812500000, 40.453125000000, -5.773437500000, 1491882978
0.280273437500, -1.137451171875, -0.033691406250, -9.523437500000, 26.210937500000, -10.195312500000, 1491882978
0.280273437500, -1.137451171875, -0.033691406250, -9.523437500000, 26.210937500000, -10.195312500000, 1491882978
0.280273437500, -1.137451171875, -0.033691406250, -9.523437500000, 26.210937500000, -10.195312500000, 1491882978
-0.081787109375, -1.021728515625, 0.090820312500, 7.843750000000, 8.781250000000, -10.085937500000, 1491882978
-0.081787109375, -1.021728515625, 0.090820312500, 7.843750000000, 8.781250000000, -10.085937500000, 1491882978
-0.081787109375, -1.021728515625, 0.090820312500, 7.843750000000, 8.781250000000, -10.085937500000, 1491882978
-0.081787109375, -1.021728515625, 0.090820312500, 7.843750000000, 8.781250000000, -10.085937500000, 1491882978
-0.081787109375, -1.021728515625, 0.090820312500, 7.843750000000, 8.781250000000, -10.085937500000, 1491882978
0.083496093750, -0.878662109375, 0.192138671875, -8.000000000000, 3.804687500000, -19.046875000000, 1491882978
0.083496093750, -0.878662109375, 0.192138671875, -8.000000000000, 3.804687500000, -19.046875000000, 1491882978
0.083496093750, -0.878662109375, 0.192138671875, -8.000000000000, 3.804687500000, -19.046875000000, 1491882978
0.083496093750, -0.878662109375, 0.192138671875, -8.000000000000, 3.804687500000, -19.046875000000, 1491882978
0.083496093750, -0.878662109375, 0.192138671875, -8.000000000000, 3.804687500000, -19.046875000000, 1491882978
0.207031250000, -0.942138671875, 0.156005859375, -5.335937500000, 5.914062500000, -14.867187500000, 1491882978
0.207031250000, -0.942138671875, 0.156005859375, -5.335937500000, 5.914062500000, -14.867187500000, 1491882978
0.207031250000, -0.942138671875, 0.156005859375, -5.335937500000, 5.914062500000, -14.867187500000, 1491882978
0.155273437500, -1.063964843750, 0.217773437500, -3.820312500000, 2.101562500000, -8.000000000000, 1491882978
0.155273437500, -1.063964843750, 0.217773437500, -3.820312500000, 2.101562500000, -8.000000000000, 1491882978
0.155273437500, -1.063964843750, 0.217773437500, -3.820312500000, 2.101562500000, -8.000000000000, 1491882978
0.155273437500, -1.063964843750, 0.217773437500, -3.820312500000, 2.101562500000, -8.000000000000, 1491882978
0.075195312500, -0.864501953125, 0.189697265625, -8.304687500000, -2.687500000000, -10.179687500000, 1491882978
0.075195312500, -0.864501953125, 0.189697265625, -8.304687500000, -2.687500000000, -10.179687500000, 1491882978
0.075195312500, -0.864501953125, 0.189697265625, -8.304687500000, -2.687500000000, -10.179687500000, 1491882978
0.086669921875, -0.792480468750, 0.054687500000, -12.640625000000, -3.804687500000, -12.867187500000, 1491882978
0.086669921875, -0.792480468750, 0.054687500000, -12.640625000000, -3.804687500000, -12.867187500000, 1491882978
0.086669921875, -0.792480468750, 0.054687500000, -12.640625000000, -3.804687500000, -12.867187500000, 1491882978
0.156250000000, -0.998291015625, 0.041015625000, 1.125000000000, -20.414062500000, -14.218750000000, 1491882978
0.156250000000, -0.998291015625, 0.041015625000, 1.125000000000, -20.414062500000, -14.218750000000, 1491882978
0.156250000000, -0.998291015625, 0.041015625000, 1.125000000000, -20.414062500000, -14.218750000000, 1491882978
0.030273437500, -1.031005859375, 0.056396484375, -10.093750000000, -8.281250000000, -17.382812500000, 1491882979
0.030273437500, -1.031005859375, 0.056396484375, -10.093750000000, -8.281250000000, -17.382812500000, 1491882979
0.030273437500, -1.031005859375, 0.056396484375, -10.093750000000, -8.281250000000, -17.382812500000, 1491882979
0.030273437500, -1.031005859375, 0.056396484375, -10.093750000000, -8.281250000000, -17.382812500000, 1491882979
0.030273437500, -1.031005859375, 0.056396484375, -10.093750000000, -8.281250000000, -17.382812500000, 1491882979
-0.010498046875, -0.908447265625, -0.090087890625, -17.562500000000, -36.609375000000, -2.679687500000, 1491882979
-0.010498046875, -0.908447265625, -0.090087890625, -17.562500000000, -36.609375000000, -2.679687500000, 1491882979
-0.010498046875, -0.908447265625, -0.090087890625, -17.562500000000, -36.609375000000, -2.679687500000, 1491882979
-0.010498046875, -0.908447265625, -0.090087890625, -17.562500000000, -36.609375000000, -2.679687500000, 1491882979
-0.010498046875, -0.908447265625, -0.090087890625, -17.562500000000, -36.609375000000, -2.679687500000, 1491882979
-0.215576171875, -0.956298828125, 0.001953125000, -10.382812500000, -40.617187500000, 0.101562500000, 1491882979
-0.215576171875, -0.956298828125, 0.001953125000, -10.382812500000, -40.617187500000, 0.101562500000, 1491882979
-0.215576171875, -0.956298828125, 0.001953125000, -10.382812500000, -40.617187500000, 0.101562500000, 1491882979
-0.071044921875, -1.042236328125, 0.086425781250, 2.710937500000, -32.609375000000, -6.906250000000, 1491882979
-0.071044921875, -1.042236328125, 0.086425781250, 2.710937500000, -32.609375000000, -6.906250000000, 1491882979
-0.071044921875, -1.042236328125, 0.086425781250, 2.710937500000, -32.609375000000, -6.906250000000, 1491882979
-0.071044921875, -1.042236328125, 0.086425781250, 2.710937500000, -32.609375000000, -6.906250000000, 1491882979
0.073730468750, -1.014892578125, 0.016601562500, -1.476562500000, -26.343750000000, 4.984375000000, 1491882979
0.073730468750, -1.014892578125, 0.016601562500, -1.476562500000, -26.343750000000, 4.984375000000, 1491882979
0.073730468750, -1.014892578125, 0.016601562500, -1.476562500000, -26.343750000000, 4.984375000000, 1491882979
0.073242187500, -0.962158203125, -0.024902343750, -12.164062500000, -19.000000000000, 11.453125000000, 1491882979
0.073242187500, -0.962158203125, -0.024902343750, -12.164062500000, -19.000000000000, 11.453125000000, 1491882979
0.073242187500, -0.962158203125, -0.024902343750, -12.164062500000, -19.000000000000, 11.453125000000, 1491882979
-0.020751953125, -0.876953125000, 0.093750000000, -7.812500000000, -7.796875000000, 0.593750000000, 1491882979
-0.020751953125, -0.876953125000, 0.093750000000, -7.812500000000, -7.796875000000, 0.593750000000, 1491882979
-0.020751953125, -0.876953125000, 0.093750000000, -7.812500000000, -7.796875000000, 0.593750000000, 1491882979
-0.043701171875, -0.934814453125, -0.064941406250, -14.398437500000, -6.828125000000, -4.726562500000, 1491882979
-0.043701171875, -0.934814453125, -0.064941406250, -14.398437500000, -6.828125000000, -4.726562500000, 1491882979
-0.043701171875, -0.934814453125, -0.064941406250, -14.398437500000, -6.828125000000, -4.726562500000, 1491882979
-0.064697265625, -1.070312500000, -0.015625000000, -14.750000000000, -5.179687500000, 0.937500000000, 1491882979
-0.075439453125, -1.024169921875, 0.024169921875, -11.046875000000, -1.781250000000, -3.609375000000, 1491882979
-0.075439453125, -1.024169921875, 0.024169921875, -11.046875000000, -1.781250000000, -3.609375000000, 1491882979
-0.075439453125, -1.024169921875, 0.024169921875, -11.046875000000, -1.781250000000, -3.609375000000, 1491882979
0.125244140625, -0.933837890625, 0.068847656250, -6.273437500000, 8.664062500000, -2.515625000000, 1491882979
0.125244140625, -0.933837890625, 0.068847656250, -6.273437500000, 8.664062500000, -2.515625000000, 1491882979
0.125244140625, -0.933837890625, 0.068847656250, -6.273437500000, 8.664062500000, -2.515625000000, 1491882979
-0.021972656250, -1.193359375000, 0.112548828125, -8.023437500000, 1.437500000000, 3.539062500000, 1491882979
-0.021972656250, -1.193359375000, 0.112548828125, -8.023437500000, 1.437500000000, 3.539062500000, 1491882979
-0.021972656250, -1.193359375000, 0.112548828125, -8.023437500000, 1.437500000000, 3.539062500000, 1491882979
-0.026855468750, -0.932861328125, 0.103515625000, -11.054687500000, 12.531250000000, 3.015625000000, 1491882979
-0.026855468750, -0.932861328125, 0.103515625000, -11.054687500000, 12.531250000000, 3.015625000000, 1491882979
-0.026855468750, -0.932861328125, 0.103515625000, -11.054687500000, 12.531250000000, 3.015625000000, 1491882979
-0.026855468750, -0.932861328125, 0.103515625000, -11.054687500000, 12.531250000000, 3.015625000000, 1491882979
0.083007812500, -0.989501953125, 0.100341796875, 0.250000000000, 3.664062500000, -0.679687500000, 1491882979
0.083007812500, -0.989501953125, 0.100341796875, 0.250000000000, 3.664062500000, -0.679687500000, 1491882979
0.083007812500, -0.989501953125, 0.100341796875, 0.250000000000, 3.664062500000, -0.679687500000, 1491882979
-0.007568359375, -1.023681640625, 0.193115234375, 0.382812500000, 2.992187500000, -1.140625000000, 1491882979
0.068115234375, -0.979003906250, 0.187988281250, -1.507812500000, -0.835937500000, 1.609375000000, 1491882979
0.068115234375, -0.979003906250, 0.187988281250, -1.507812500000, -0.835937500000, 1.609375000000, 1491882979
0.068115234375, -0.979003906250, 0.187988281250, -1.507812500000, -0.835937500000, 1.609375000000, 1491882979
-0.005371093750, -1.063720703125, 0.149169921875, 1.195312500000, 3.492187500000, 0.617187500000, 1491882979
-0.073974609375, -0.931640625000, 0.130371093750, -0.078125000000, 8.171875000000, -1.109375000000, 1491882979
-0.073974609375, -0.931640625000, 0.130371093750, -0.078125000000, 8.171875000000, -1.109375000000, 1491882979
-0.073974609375, -0.931640625000, 0.130371093750, -0.078125000000, 8.171875000000, -1.109375000000, 1491882979
-0.073974609375, -0.931640625000, 0.130371093750, -0.078125000000, 8.171875000000, -1.109375000000, 1491882979
-0.073974609375, -0.931640625000, 0.130371093750, -0.078125000000, 8.171875000000, -1.109375000000, 1491882979
0.061523437500, -1.009033203125, 0.123291015625, 0.796875000000, 3.921875000000, -0.367187500000, 1491882979
0.061523437500, -1.009033203125, 0.123291015625, 0.796875000000, 3.921875000000, -0.367187500000, 1491882979
0.061523437500, -1.009033203125, 0.123291015625, 0.796875000000, 3.921875000000, -0.367187500000, 1491882979
0.061523437500, -1.009033203125, 0.123291015625, 0.796875000000, 3.921875000000, -0.367187500000, 1491882979
0.061523437500, -1.009033203125, 0.123291015625, 0.796875000000, 3.921875000000, -0.367187500000, 1491882979
0.086425781250, -1.017089843750, 0.098876953125, 1.054687500000, 8.468750000000, -1.757812500000, 1491882979
0.086425781250, -1.017089843750, 0.098876953125, 1.054687500000, 8.468750000000, -1.757812500000, 1491882979
0.086425781250, -1.017089843750, 0.098876953125, 1.054687500000, 8.468750000000, -1.757812500000, 1491882979
0.086425781250, -1.017089843750, 0.098876953125, 1.054687500000, 8.468750000000, -1.757812500000, 1491882979
-0.008789062500, -1.001220703125, 0.107910156250, 0.734375000000, 3.109375000000, 2.062500000000, 1491882980
0.075195312500, -1.013427734375, 0.195800781250, -1.585937500000, 1.046875000000, -2.351562500000, 1491882980
0.075195312500, -1.013427734375, 0.195800781250, -1.585937500000, 1.046875000000, -2.351562500000, 1491882980
0.075195312500, -1.013427734375, 0.195800781250, -1.585937500000, 1.046875000000, -2.351562500000, 1491882980
0.075195312500, -1.013427734375, 0.195800781250, -1.585937500000, 1.046875000000, -2.351562500000, 1491882980
0.035644531250, -1.005371093750, 0.137695312500, 0.218750000000, 4.585937500000, -0.296875000000, 1491882980
0.035644531250, -1.005371093750, 0.137695312500, 0.218750000000, 4.585937500000, -0.296875000000, 1491882980
0.035644531250, -1.005371093750, 0.137695312500, 0.218750000000, 4.585937500000, -0.296875000000, 1491882980
0.035644531250, -1.005371093750, 0.137695312500, 0.218750000000, 4.585937500000, -0.296875000000, 1491882980
0.035644531250, -1.005371093750, 0.137695312500, 0.218750000000, 4.585937500000, -0.296875000000, 1491882980
-0.005126953125, -1.024902343750, 0.099609375000, 0.562500000000, 1.921875000000, 0.375000000000, 1491882980
0.081298828125, -1.015380859375, 0.208007812500, -0.757812500000, 1.632812500000, 2.132812500000, 1491882980
0.081298828125, -1.015380859375, 0.208007812500, -0.757812500000, 1.632812500000, 2.132812500000, 1491882980
0.081298828125, -1.015380859375, 0.208007812500, -0.757812500000, 1.632812500000, 2.132812500000, 1491882980
0.081298828125, -1.015380859375, 0.208007812500, -0.757812500000, 1.632812500000, 2.132812500000, 1491882980
0.081298828125, -1.015380859375, 0.208007812500, -0.757812500000, 1.632812500000, 2.132812500000, 1491882980
0.081298828125, -1.015380859375, 0.208007812500, -0.757812500000, 1.632812500000, 2.132812500000, 1491882980
0.189208984375, -1.063964843750, 0.040039062500, 2.414062500000, -0.671875000000, 1.578125000000, 1491882980
0.189208984375, -1.063964843750, 0.040039062500, 2.414062500000, -0.671875000000, 1.578125000000, 1491882980
0.189208984375, -1.063964843750, 0.040039062500, 2.414062500000, -0.671875000000, 1.578125000000, 1491882980
0.044433593750, -1.031250000000, 0.113037109375, -0.914062500000, 0.523437500000, -1.250000000000, 1491882980
0.128417968750, -1.009033203125, 0.114257812500, -1.304687500000, 0.648437500000, -1.718750000000, 1491882980
0.128417968750, -1.009033203125, 0.114257812500, -1.304687500000, 0.648437500000, -1.718750000000, 1491882980
0.128417968750, -1.009033203125, 0.114257812500, -1.304687500000, 0.648437500000, -1.718750000000, 1491882980
0.155029296875, -1.023193359375, 0.175537109375, -1.257812500000, -2.929687500000, 0.179687500000, 1491882980
0.155029296875, -1.023193359375, 0.175537109375, -1.257812500000, -2.929687500000, 0.179687500000, 1491882980
0.155029296875, -1.023193359375, 0.175537109375, -1.257812500000, -2.929687500000, 0.179687500000, 1491882980
0.155029296875, -1.023193359375, 0.175537109375, -1.257812500000, -2.929687500000, 0.179687500000, 1491882980
0.155029296875, -1.023193359375, 0.175537109375, -1.257812500000, -2.929687500000, 0.179687500000, 1491882980
0.155029296875, -1.023193359375, 0.175537109375, -1.257812500000, -2.929687500000, 0.179687500000, 1491882980
0.083984375000, -1.005615234375, 0.098144531250, -1.421875000000, -2.687500000000, -2.945312500000, 1491882980
0.083984375000, -1.005615234375, 0.098144531250, -1.421875000000, -2.687500000000, -2.945312500000, 1491882980
0.083984375000, -1.005615234375, 0.098144531250, -1.421875000000, -2.687500000000, -2.945312500000, 1491882980
0.097656250000, -0.979980468750, 0.036132812500, -2.039062500000, -4.546875000000, 0.023437500000, 1491882980
0.097656250000, -0.979980468750, 0.036132812500, -2.039062500000, -4.546875000000, 0.023437500000, 1491882980
0.097656250000, -0.979980468750, 0.036132812500, -2.039062500000, -4.546875000000, 0.023437500000, 1491882980
-0.004882812500, -1.012939453125, 0.161376953125, -1.984375000000, 0.476562500000, -4.710937500000, 1491882980
-0.004882812500, -1.012939453125, 0.161376953125, -1.984375000000, 0.476562500000, -4.710937500000, 1491882980
-0.004882812500, -1.012939453125, 0.161376953125, -1.984375000000, 0.476562500000, -4.710937500000, 1491882980
0.038574218750, -1.007080078125, 0.097900390625, -1.578125000000, 2.937500000000, -4.179687500000, 1491882980
0.038574218750, -1.007080078125, 0.097900390625, -1.578125000000, 2.937500000000, -4.179687500000, 1491882980
0.038574218750, -1.007080078125, 0.097900390625, -1.578125000000, 2.937500000000, -4.179687500000, 1491882980
0.038574218750, -1.007080078125, 0.097900390625, -1.578125000000, 2.937500000000, -4.179687500000, 1491882980
0.038574218750, -1.007080078125, 0.097900390625, -1.578125000000, 2.937500000000, -4.179687500000, 1491882980
0.038574218750, -1.007080078125, 0.097900390625, -1.578125000000, 2.937500000000, -4.179687500000, 1491882980
0.091308593750, -0.983642578125, 0.091796875000, -2.875000000000, 3.039062500000, -2.781250000000, 1491882980
0.091308593750, -0.983642578125, 0.091796875000, -2.875000000000, 3.039062500000, -2.781250000000, 1491882980
0.091308593750, -0.983642578125, 0.091796875000, -2.875000000000, 3.039062500000, -2.781250000000, 1491882980
0.091308593750, -0.983642578125, 0.091796875000, -2.875000000000, 3.039062500000, -2.781250000000, 1491882980
0.037841796875, -1.064941406250, 0.107177734375, -4.851562500000, 4.710937500000, -1.445312500000, 1491882980
0.037841796875, -1.064941406250, 0.107177734375, -4.851562500000, 4.710937500000, -1.445312500000, 1491882980
0.037841796875, -1.064941406250, 0.107177734375, -4.851562500000, 4.710937500000, -1.445312500000, 1491882980
0.084472656250, -1.064941406250, 0.137695312500, -3.015625000000, -0.460937500000, -1.625000000000, 1491882980
0.084472656250, -1.064941406250, 0.137695312500, -3.015625000000, -0.460937500000, -1.625000000000, 1491882980
0.084472656250, -1.064941406250, 0.137695312500, -3.015625000000, -0.460937500000, -1.625000000000, 1491882980
0.084472656250, -1.064941406250, 0.137695312500, -3.015625000000, -0.460937500000, -1.625000000000, 1491882980
0.032470703125, -0.918212890625, 0.202148437500, -3.632812500000, -2.695312500000, -1.632812500000, 1491882980
0.032470703125, -0.918212890625, 0.202148437500, -3.632812500000, -2.695312500000, -1.632812500000, 1491882980
0.032470703125, -0.918212890625, 0.202148437500, -3.632812500000, -2.695312500000, -1.632812500000, 1491882980
0.116699218750, -1.011230468750, 0.188720703125, -1.953125000000, 2.179687500000, -4.601562500000, 1491882980
0.116699218750, -1.011230468750, 0.188720703125, -1.953125000000, 2.179687500000, -4.601562500000, 1491882980
0.116699218750, -1.011230468750, 0.188720703125, -1.953125000000, 2.179687500000, -4.601562500000, 1491882980
0.089599609375, -0.929931640625, -0.006347656250, -3.906250000000, -2.453125000000, -3.632812500000, 1491882980
0.089599609375, -0.929931640625, -0.006347656250, -3.906250000000, -2.453125000000, -3.632812500000, 1491882980
0.089599609375, -0.929931640625, -0.006347656250, -3.906250000000, -2.453125000000, -3.632812500000, 1491882980
0.137939453125, -0.997070312500, 0.054443359375, -3.203125000000, -0.984375000000, -4.390625000000, 1491882980
0.137939453125, -0.997070312500, 0.054443359375, -3.203125000000, -0.984375000000, -4.390625000000, 1491882980
0.137939453125, -0.997070312500, 0.054443359375, -3.203125000000, -0.984375000000, -4.390625000000, 1491882980
0.137939453125, -0.997070312500, 0.054443359375, -3.203125000000, -0.984375000000, -4.390625000000, 1491882980
-0.004638671875, -0.996093750000, 0.055664062500, -3.742187500000, 0.984375000000, -4.203125000000, 1491882980
-0.004638671875, -0.996093750000, 0.055664062500, -3.742187500000, 0.984375000000, -4.203125000000, 1491882980
-0.004638671875, -0.996093750000, 0.055664062500, -3.742187500000, 0.984375000000, -4.203125000000, 1491882980
-0.064453125000, -1.012695312500, 0.143554687500, -3.617187500000, 0.085937500000, -2.250000000000, 1491882981
-0.064453125000, -1.012695312500, 0.143554687500, -3.617187500000, 0.085937500000, -2.250000000000, 1491882981
-0.064453125000, -1.012695312500, 0.143554687500, -3.617187500000, 0.085937500000, -2.250000000000, 1491882981
0.043212890625, -0.951904296875, 0.128906250000, -4.914062500000, -2.476562500000, -1.507812500000, 1491882981
0.043212890625, -0.951904296875, 0.128906250000, -4.914062500000, -2.476562500000, -1.507812500000, 1491882981
0.125976562500, -0.921630859375, 0.134033203125, -4.820312500000, -2.117187500000, -3.304687500000, 1491882981
0.125976562500, -0.921630859375, 0.134033203125, -4.820312500000, -2.117187500000, -3.304687500000, 1491882981
0.125976562500, -0.921630859375, 0.134033203125, -4.820312500000, -2.117187500000, -3.304687500000, 1491882981
0.125976562500, -0.921630859375, 0.134033203125, -4.820312500000, -2.117187500000, -3.304687500000, 1491882981
0.036376953125, -0.972167968750, 0.079101562500, -3.070312500000, 0.164062500000, -0.882812500000, 1491882981
0.036376953125, -0.972167968750, 0.079101562500, -3.070312500000, 0.164062500000, -0.882812500000, 1491882981
0.036376953125, -0.972167968750, 0.079101562500, -3.070312500000, 0.164062500000, -0.882812500000, 1491882981
0.036376953125, -0.972167968750, 0.079101562500, -3.070312500000, 0.164062500000, -0.882812500000, 1491882981
-0.011230468750, -1.021972656250, 0.092041015625, -2.445312500000, 0.148437500000, -2.906250000000, 1491882981
-0.011230468750, -1.021972656250, 0.092041015625, -2.445312500000, 0.148437500000, -2.906250000000, 1491882981
-0.011230468750, -1.021972656250, 0.092041015625, -2.445312500000, 0.148437500000, -2.906250000000, 1491882981
0.150146484375, -0.982910156250, 0.137695312500, -3.007812500000, 4.046875000000, 0.046875000000, 1491882981
0.150146484375, -0.982910156250, 0.137695312500, -3.007812500000, 4.046875000000, 0.046875000000, 1491882981
0.150146484375, -0.982910156250, 0.137695312500, -3.007812500000, 4.046875000000, 0.046875000000, 1491882981
-0.016845703125, -0.996337890625, 0.159423828125, -4.804687500000, 2.031250000000, -2.640625000000, 1491882981
-0.016845703125, -0.996337890625, 0.159423828125, -4.804687500000, 2.031250000000, -2.640625000000, 1491882981
-0.016845703125, -0.996337890625, 0.159423828125, -4.804687500000, 2.031250000000, -2.640625000000, 1491882981
-0.016845703125, -0.996337890625, 0.159423828125, -4.804687500000, 2.031250000000, -2.640625000000, 1491882981
0.097167968750, -1.013671875000, 0.149414062500, -4.515625000000, 2.437500000000, -3.335937500000, 1491882981
0.097167968750, -1.013671875000, 0.149414062500, -4.515625000000, 2.437500000000, -3.335937500000, 1491882981
0.097167968750, -1.013671875000, 0.149414062500, -4.515625000000, 2.437500000000, -3.335937500000, 1491882981
-0.013427734375, -0.974609375000, 0.061523437500, -2.992187500000, 1.742187500000, -1.914062500000, 1491882981
-0.013427734375, -0.974609375000, 0.061523437500, -2.992187500000, 1.742187500000, -1.914062500000, 1491882981
-0.013427734375, -0.974609375000, 0.061523437500, -2.992187500000, 1.742187500000, -1.914062500000, 1491882981
0.043945312500, -1.042236328125, 0.124755859375, -1.828125000000, 1.273437500000, -2.835937500000, 1491882981
0.043945312500, -1.042236328125, 0.124755859375, -1.828125000000, 1.273437500000, -2.835937500000, 1491882981
0.089111328125, -1.075927734375, 0.194824218750, -6.343750000000, -1.781250000000, -2.882812500000, 1491882981
-0.022216796875, -0.999267578125, 0.151367187500, -6.343750000000, -1.781250000000, -2.882812500000, 1491882981
-0.022216796875, -0.999267578125, 0.151367187500, -6.343750000000, -1.781250000000, -2.882812500000, 1491882981
-0.022216796875, -0.999267578125, 0.151367187500, -6.343750000000, -1.781250000000, -2.882812500000, 1491882981
-0.022216796875, -0.999267578125, 0.151367187500, -6.343750000000, -1.781250000000, -2.882812500000, 1491882981
-0.022216796875, -0.999267578125, 0.151367187500, -6.343750000000, -1.781250000000, -2.882812500000, 1491882981
-0.022216796875, -0.999267578125, 0.151367187500, -6.343750000000, -1.781250000000, -2.882812500000, 1491882981
-0.022216796875, -0.999267578125, 0.151367187500, -6.343750000000, -1.781250000000, -2.882812500000, 1491882981
-0.019775390625, -1.064941406250, 0.058837890625, -6.500000000000, -4.953125000000, -4.375000000000, 1491882981
-0.019775390625, -1.064941406250, 0.058837890625, -6.500000000000, -4.953125000000, -4.375000000000, 1491882981
-0.019775390625, -1.064941406250, 0.058837890625, -6.500000000000, -4.953125000000, -4.375000000000, 1491882981
-0.019775390625, -1.064941406250, 0.058837890625, -6.500000000000, -4.953125000000, -4.375000000000, 1491882981
-0.019775390625, -1.064941406250, 0.058837890625, -6.500000000000, -4.953125000000, -4.375000000000, 1491882981
-0.019775390625, -1.064941406250, 0.058837890625, -6.500000000000, -4.953125000000, -4.375000000000, 1491882981
0.090576171875, -0.972167968750, 0.203125000000, -3.796875000000, -1.187500000000, -4.890625000000, 1491882981
0.090576171875, -0.972167968750, 0.203125000000, -3.796875000000, -1.187500000000, -4.890625000000, 1491882981
0.090576171875, -0.972167968750, 0.203125000000, -3.796875000000, -1.187500000000, -4.890625000000, 1491882981
0.090576171875, -0.972167968750, 0.203125000000, -3.796875000000, -1.187500000000, -4.890625000000, 1491882981
0.049072265625, -0.845214843750, 0.155029296875, -5.390625000000, 2.320312500000, -4.335937500000, 1491882981
0.049072265625, -0.845214843750, 0.155029296875, -5.390625000000, 2.320312500000, -4.335937500000, 1491882981
0.049072265625, -0.845214843750, 0.155029296875, -5.390625000000, 2.320312500000, -4.335937500000, 1491882981
0.049072265625, -0.845214843750, 0.155029296875, -5.390625000000, 2.320312500000, -4.335937500000, 1491882981
0.144042968750, -1.006835937500, 0.079101562500, -3.281250000000, 2.125000000000, -1.304687500000, 1491882981
0.144042968750, -1.006835937500, 0.079101562500, -3.281250000000, 2.125000000000, -1.304687500000, 1491882981
0.144042968750, -1.006835937500, 0.079101562500, -3.281250000000, 2.125000000000, -1.304687500000, 1491882981
0.057373046875, -0.932861328125, 0.197753906250, -5.140625000000, 2.281250000000, -1.429687500000, 1491882981
0.092285156250, -0.916748046875, 0.193847656250, -6.773437500000, 2.078125000000, -4.117187500000, 1491882981
0.092285156250, -0.916748046875, 0.193847656250, -6.773437500000, 2.078125000000, -4.117187500000, 1491882981
0.126708984375, -1.020996093750, 0.101074218750, -6.664062500000, 2.796875000000, -1.445312500000, 1491882982
0.126708984375, -1.020996093750, 0.101074218750, -6.664062500000, 2.796875000000, -1.445312500000, 1491882982
0.126708984375, -1.020996093750, 0.101074218750, -6.664062500000, 2.796875000000, -1.445312500000, 1491882982
0.126708984375, -1.020996093750, 0.101074218750, -6.664062500000, 2.796875000000, -1.445312500000, 1491882982
0.126708984375, -1.020996093750, 0.101074218750, -6.664062500000, 2.796875000000, -1.445312500000, 1491882982
0.126708984375, -1.020996093750, 0.101074218750, -6.664062500000, 2.796875000000, -1.445312500000, 1491882982
