ACC_X,ACC_Y,ACC_Z,G_X,G_Y,G_Z,Unix Time
0.037841796875, -0.914062500000, -0.153808593750, -52.031250000000, -28.375000000000, 1.875000000000, 1491882818
0.037841796875, -0.914062500000, -0.153808593750, -52.031250000000, -28.375000000000, 1.875000000000, 1491882818
0.037841796875, -0.914062500000, -0.153808593750, -52.031250000000, -28.375000000000, 1.875000000000, 1491882818
0.037841796875, -0.914062500000, -0.153808593750, -52.031250000000, -28.375000000000, 1.875000000000, 1491882818
0.201171875000, -1.025878906250, -0.113037109375, -46.445312500000, -6.156250000000, -0.750000000000, 1491882818
0.201171875000, -1.025878906250, -0.113037109375, -46.445312500000, -6.156250000000, -0.750000000000, 1491882818
0.201171875000, -1.025878906250, -0.113037109375, -46.445312500000, -6.156250000000, -0.750000000000, 1491882818
0.038574218750, -0.951660156250, -0.113769531250, -35.609375000000, 10.765625000000, -12.195312500000, 1491882818
0.038574218750, -0.951660156250, -0.113769531250, -35.609375000000, 10.765625000000, -12.195312500000, 1491882818
0.038574218750, -0.951660156250, -0.113769531250, -35.609375000000, 10.765625000000, -12.195312500000, 1491882818
0.157226562500, -0.868652343750, -0.126708984375, -23.867187500000, 3.664062500000, -4.968750000000, 1491882818
0.157226562500, -0.868652343750, -0.126708984375, -23.867187500000, 3.664062500000, -4.968750000000, 1491882818
0.157226562500, -0.868652343750, -0.126708984375, -23.867187500000, 3.664062500000, -4.968750000000, 1491882818
0.155273437500, -0.914062500000, -0.128906250000, -10.898437500000, -6.382812500000, -1.695312500000, 1491882818
0.155273437500, -0.914062500000, -0.128906250000, -10.898437500000, -6.382812500000, -1.695312500000, 1491882818
0.155273437500, -0.914062500000, -0.128906250000, -10.898437500000, -6.382812500000, -1.695312500000, 1491882818
0.155273437500, -0.914062500000, -0.128906250000, -10.898437500000, -6.382812500000, -1.695312500000, 1491882818
0.135742187500, -0.963134765625, -0.148925781250, 6.398437500000, -1.289062500000, -1.992187500000, 1491882818
0.135742187500, -0.963134765625, -0.148925781250, 6.398437500000, -1.289062500000, -1.992187500000, 1491882818
0.102783203125, -0.937011718750, -0.152832031250, 18.164062500000, -3.609375000000, -1.960937500000, 1491882818
0.102783203125, -0.937011718750, -0.152832031250, 18.164062500000, -3.609375000000, -1.960937500000, 1491882818
0.102783203125, -0.937011718750, -0.152832031250, 18.164062500000, -3.609375000000, -1.960937500000, 1491882818
0.102783203125, -0.937011718750, -0.152832031250, 18.164062500000, -3.609375000000, -1.960937500000, 1491882818
0.103515625000, -0.852539062500, -0.144287109375, 28.085937500000, -2.125000000000, -3.148437500000, 1491882818
0.103515625000, -0.852539062500, -0.144287109375, 28.085937500000, -2.125000000000, -3.148437500000, 1491882818
0.103515625000, -0.852539062500, -0.144287109375, 28.085937500000, -2.125000000000, -3.148437500000, 1491882818
0.043945312500, -1.029296875000, -0.110351562500, 29.570312500000, -2.937500000000, -3.875000000000, 1491882818
0.043945312500, -1.029296875000, -0.110351562500, 29.570312500000, -2.937500000000, -3.875000000000, 1491882818
0.043945312500, -1.029296875000, -0.110351562500, 29.570312500000, -2.937500000000, -3.875000000000, 1491882818
0.043945312500, -1.029296875000, -0.110351562500, 29.570312500000, -2.937500000000, -3.875000000000, 1491882818
0.058593750000, -0.981445312500, -0.117431640625, 27.476562500000, 3.593750000000, -3.054687500000, 1491882818
0.058593750000, -0.981445312500, -0.117431640625, 27.476562500000, 3.593750000000, -3.054687500000, 1491882818
0.058593750000, -0.981445312500, -0.117431640625, 27.476562500000, 3.593750000000, -3.054687500000, 1491882818
0.116210937500, -0.960937500000, -0.049804687500, 17.406250000000, 10.585937500000, -1.710937500000, 1491882818
0.116210937500, -0.960937500000, -0.049804687500, 17.406250000000, 10.585937500000, -1.710937500000, 1491882818
0.116210937500, -0.960937500000, -0.049804687500, 17.406250000000, 10.585937500000, -1.710937500000, 1491882818
0.162597656250, -1.036376953125, -0.143798828125, 6.546875000000, 16.609375000000, 2.875000000000, 1491882818
0.162597656250, -1.036376953125, -0.143798828125, 6.546875000000, 16.609375000000, 2.875000000000, 1491882818
0.162597656250, -1.036376953125, -0.143798828125, 6.546875000000, 16.609375000000, 2.875000000000, 1491882818
-0.027587890625, -0.975585937500, -0.142578125000, -24.906250000000, -25.570312500000, 3.539062500000, 1491882819
-0.027587890625, -0.975585937500, -0.142578125000, -24.906250000000, -25.570312500000, 3.539062500000, 1491882819
-0.027587890625, -0.975585937500, -0.142578125000, -24.906250000000, -25.570312500000, 3.539062500000, 1491882819
-0.027587890625, -0.975585937500, -0.142578125000, -24.906250000000, -25.570312500000, 3.539062500000, 1491882819
0.048583984375, -0.995117187500, -0.135986328125, -24.195312500000, -1.523437500000, -1.664062500000, 1491882819
0.048583984375, -0.995117187500, -0.135986328125, -24.195312500000, -1.523437500000, -1.664062500000, 1491882819
0.048583984375, -0.995117187500, -0.135986328125, -24.195312500000, -1.523437500000, -1.664062500000, 1491882819
0.150878906250, -0.959960937500, -0.142578125000, -22.375000000000, 20.148437500000, -8.937500000000, 1491882819
0.150878906250, -0.959960937500, -0.142578125000, -22.375000000000, 20.148437500000, -8.937500000000, 1491882819
0.150878906250, -0.959960937500, -0.142578125000, -22.375000000000, 20.148437500000, -8.937500000000, 1491882819
0.125000000000, -0.980712890625, -0.094726562500, -28.953125000000, -13.812500000000, 2.992187500000, 1491882819
0.151855468750, -0.985351562500, -0.154052734375, -19.546875000000, -8.906250000000, -0.687500000000, 1491882819
0.151855468750, -0.985351562500, -0.154052734375, -19.546875000000, -8.906250000000, -0.687500000000, 1491882819
0.151855468750, -0.985351562500, -0.154052734375, -19.546875000000, -8.906250000000, -0.687500000000, 1491882819
0.136962890625, -1.007812500000, -0.100341796875, -7.289062500000, 6.960937500000, -8.062500000000, 1491882819
0.136962890625, -1.007812500000, -0.100341796875, -7.289062500000, 6.960937500000, -8.062500000000, 1491882819
0.136962890625, -1.007812500000, -0.100341796875, -7.289062500000, 6.960937500000, -8.062500000000, 1491882819
0.082763671875, -0.989013671875, -0.218261718750, -2.304687500000, 6.140625000000, -5.593750000000, 1491882819
0.082763671875, -0.989013671875, -0.218261718750, -2.304687500000, 6.140625000000, -5.593750000000, 1491882819
0.082763671875, -0.989013671875, -0.218261718750, -2.304687500000, 6.140625000000, -5.593750000000, 1491882819
0.082763671875, -0.989013671875, -0.218261718750, -2.304687500000, 6.140625000000, -5.593750000000, 1491882819
0.082763671875, -0.989013671875, -0.218261718750, -2.304687500000, 6.140625000000, -5.593750000000, 1491882819
0.082763671875, -0.989013671875, -0.218261718750, -2.304687500000, 6.140625000000, -5.593750000000, 1491882819
0.208740234375, -0.985351562500, -0.192138671875, 4.296875000000, -0.695312500000, -4.484375000000, 1491882819
0.208740234375, -0.985351562500, -0.192138671875, 4.296875000000, -0.695312500000, -4.484375000000, 1491882819
0.208740234375, -0.985351562500, -0.192138671875, 4.296875000000, -0.695312500000, -4.484375000000, 1491882819
0.054443359375, -0.946777343750, -0.094238281250, 10.640625000000, -9.578125000000, -2.906250000000, 1491882819
0.054443359375, -0.946777343750, -0.094238281250, 10.640625000000, -9.578125000000, -2.906250000000, 1491882819
0.054443359375, -0.946777343750, -0.094238281250, 10.640625000000, -9.578125000000, -2.906250000000, 1491882819
0.054443359375, -0.946777343750, -0.094238281250, 10.640625000000, -9.578125000000, -2.906250000000, 1491882819
0.101806640625, -0.928955078125, -0.117919921875, 18.875000000000, -2.242187500000, -4.375000000000, 1491882819
0.101806640625, -0.928955078125, -0.117919921875, 18.875000000000, -2.242187500000, -4.375000000000, 1491882819
0.101806640625, -0.928955078125, -0.117919921875, 18.875000000000, -2.242187500000, -4.375000000000, 1491882819
0.200683593750, -1.082031250000, -0.189697265625, 20.179687500000, 8.328125000000, -7.914062500000, 1491882819
0.200683593750, -1.082031250000, -0.189697265625, 20.179687500000, 8.328125000000, -7.914062500000, 1491882819
0.200683593750, -1.082031250000, -0.189697265625, 20.179687500000, 8.328125000000, -7.914062500000, 1491882819
0.132324218750, -1.001220703125, -0.112548828125, 9.273437500000, -4.890625000000, -3.062500000000, 1491882819
0.132324218750, -1.001220703125, -0.112548828125, 9.273437500000, -4.890625000000, -3.062500000000, 1491882819
0.132324218750, -1.001220703125, -0.112548828125, 9.273437500000, -4.890625000000, -3.062500000000, 1491882819
0.095458984375, -0.981445312500, -0.042480468750, 3.421875000000, 3.445312500000, -8.289062500000, 1491882819
0.095458984375, -0.981445312500, -0.042480468750, 3.421875000000, 3.445312500000, -8.289062500000, 1491882819
0.095458984375, -0.981445312500, -0.042480468750, 3.421875000000, 3.445312500000, -8.289062500000, 1491882819
0.095458984375, -0.981445312500, -0.042480468750, 3.421875000000, 3.445312500000, -8.289062500000, 1491882819
0.201904296875, -0.967041015625, -0.047851562500, -5.484375000000, -2.867187500000, -4.359375000000, 1491882819
0.201904296875, -0.967041015625, -0.047851562500, -5.484375000000, -2.867187500000, -4.359375000000, 1491882819
0.201904296875, -0.967041015625, -0.047851562500, -5.484375000000, -2.867187500000, -4.359375000000, 1491882819
0.070556640625, -0.926513671875, -0.056152343750, -15.882812500000, -7.484375000000, -2.843750000000, 1491882819
0.070556640625, -0.926513671875, -0.056152343750, -15.882812500000, -7.484375000000, -2.843750000000, 1491882819
0.070556640625, -0.926513671875, -0.056152343750, -15.882812500000, -7.484375000000, -2.843750000000, 1491882819
0.031738281250, -1.026855468750, -0.147705078125, -20.578125000000, 2.226562500000, -1.421875000000, 1491882819
0.031738281250, -1.026855468750, -0.147705078125, -20.578125000000, 2.226562500000, -1.421875000000, 1491882819
0.031738281250, -1.026855468750, -0.147705078125, -20.578125000000, 2.226562500000, -1.421875000000, 1491882819
0.094482421875, -0.985351562500, -0.139648437500, -20.710937500000, -2.117187500000, -2.914062500000, 1491882819
0.094482421875, -0.985351562500, -0.139648437500, -20.710937500000, -2.117187500000, -2.914062500000, 1491882819
0.094482421875, -0.985351562500, -0.139648437500, -20.710937500000, -2.117187500000, -2.914062500000, 1491882819
0.094482421875, -0.985351562500, -0.139648437500, -20.710937500000, -2.117187500000, -2.914062500000, 1491882819
0.144531250000, -0.933349609375, -0.095214843750, -18.140625000000, 1.179687500000, -3.304687500000, 1491882819
0.144531250000, -0.933349609375, -0.095214843750, -18.140625000000, 1.179687500000, -3.304687500000, 1491882819
0.144531250000, -0.933349609375, -0.095214843750, -18.140625000000, 1.179687500000, -3.304687500000, 1491882819
0.126953125000, -0.987060546875, -0.116210937500, -12.789062500000, 4.476562500000, -4.804687500000, 1491882819
0.126953125000, -0.987060546875, -0.116210937500, -12.789062500000, 4.476562500000, -4.804687500000, 1491882819
0.126953125000, -0.987060546875, -0.116210937500, -12.789062500000, 4.476562500000, -4.804687500000, 1491882819
0.156250000000, -0.935058593750, -0.194335937500, -8.007812500000, 4.187500000000, -4.203125000000, 1491882819
0.156250000000, -0.935058593750, -0.194335937500, -8.007812500000, 4.187500000000, -4.203125000000, 1491882819
0.156250000000, -0.935058593750, -0.194335937500, -8.007812500000, 4.187500000000, -4.203125000000, 1491882819
0.088134765625, -0.968017578125, -0.110595703125, 1.867187500000, -6.585937500000, 2.820312500000, 1491882820
0.208496093750, -1.017089843750, -0.126464843750, 3.226562500000, -8.171875000000, -0.242187500000, 1491882820
0.208496093750, -1.017089843750, -0.126464843750, 3.226562500000, -8.171875000000, -0.242187500000, 1491882820
0.208496093750, -1.017089843750, -0.126464843750, 3.226562500000, -8.171875000000, -0.242187500000, 1491882820
0.146972656250, -1.026611328125, -0.093994140625, 12.226562500000, 2.539062500000, -2.023437500000, 1491882820
0.146972656250, -1.026611328125, -0.093994140625, 12.226562500000, 2.539062500000, -2.023437500000, 1491882820
0.146972656250, -1.026611328125, -0.093994140625, 12.226562500000, 2.539062500000, -2.023437500000, 1491882820
0.146972656250, -1.026611328125, -0.093994140625, 12.226562500000, 2.539062500000, -2.023437500000, 1491882820
0.132568359375, -0.924072265625, -0.121826171875, 12.265625000000, -2.984375000000, -4.382812500000, 1491882820
0.132568359375, -0.924072265625, -0.121826171875, 12.265625000000, -2.984375000000, -4.382812500000, 1491882820
0.112304687500, -0.920166015625, -0.076904296875, 9.375000000000, -2.703125000000, -3.195312500000, 1491882820
0.112304687500, -0.920166015625, -0.076904296875, 9.375000000000, -2.703125000000, -3.195312500000, 1491882820
0.112304687500, -0.920166015625, -0.076904296875, 9.375000000000, -2.703125000000, -3.195312500000, 1491882820
0.112304687500, -0.920166015625, -0.076904296875, 9.375000000000, -2.703125000000, -3.195312500000, 1491882820
0.112304687500, -0.920166015625, -0.076904296875, 9.375000000000, -2.703125000000, -3.195312500000, 1491882820
0.040283203125, -1.074462890625, -0.198242187500, 8.351562500000, 12.531250000000, -4.875000000000, 1491882820
0.040283203125, -1.074462890625, -0.198242187500, 8.351562500000, 12.531250000000, -4.875000000000, 1491882820
0.040283203125, -1.074462890625, -0.198242187500, 8.351562500000, 12.531250000000, -4.875000000000, 1491882820
0.040283203125, -1.074462890625, -0.198242187500, 8.351562500000, 12.531250000000, -4.875000000000, 1491882820
0.040283203125, -1.074462890625, -0.198242187500, 8.351562500000, 12.531250000000, -4.875000000000, 1491882820
0.046630859375, -1.023925781250, -0.104980468750, -4.523437500000, 0.960937500000, -1.015625000000, 1491882820
0.046630859375, -1.023925781250, -0.104980468750, -4.523437500000, 0.960937500000, -1.015625000000, 1491882820
0.046630859375, -1.023925781250, -0.104980468750, -4.523437500000, 0.960937500000, -1.015625000000, 1491882820
0.060302734375, -1.006103515625, -0.153808593750, -11.507812500000, -7.632812500000, -4.984375000000, 1491882820
0.060302734375, -1.006103515625, -0.153808593750, -11.507812500000, -7.632812500000, -4.984375000000, 1491882820
0.060302734375, -1.006103515625, -0.153808593750, -11.507812500000, -7.632812500000, -4.984375000000, 1491882820
0.139648437500, -0.995361328125, -0.128173828125, -16.625000000000, -1.812500000000, -4.812500000000, 1491882820
0.139648437500, -0.995361328125, -0.128173828125, -16.625000000000, -1.812500000000, -4.812500000000, 1491882820
0.139648437500, -0.995361328125, -0.128173828125, -16.625000000000, -1.812500000000, -4.812500000000, 1491882820
0.139648437500, -0.995361328125, -0.128173828125, -16.625000000000, -1.812500000000, -4.812500000000, 1491882820
0.114746093750, -1.004638671875, -0.112304687500, -15.578125000000, 1.015625000000, -5.335937500000, 1491882820
0.114746093750, -1.004638671875, -0.112304687500, -15.578125000000, 1.015625000000, -5.335937500000, 1491882820
0.114746093750, -1.004638671875, -0.112304687500, -15.578125000000, 1.015625000000, -5.335937500000, 1491882820
0.156005859375, -0.936279296875, -0.114013671875, -11.632812500000, 5.796875000000, -5.421875000000, 1491882820
0.156005859375, -0.936279296875, -0.114013671875, -11.632812500000, 5.796875000000, -5.421875000000, 1491882820
0.156005859375, -0.936279296875, -0.114013671875, -11.632812500000, 5.796875000000, -5.421875000000, 1491882820
0.101318359375, -0.965087890625, -0.152099609375, -9.773437500000, 1.437500000000, -6.507812500000, 1491882820
0.101318359375, -0.965087890625, -0.152099609375, -9.773437500000, 1.437500000000, -6.507812500000, 1491882820
0.101318359375, -0.965087890625, -0.152099609375, -9.773437500000, 1.437500000000, -6.507812500000, 1491882820
0.145751953125, -0.917724609375, -0.099853515625, -7.945312500000, -10.726562500000, -4.710937500000, 1491882820
0.145751953125, -0.917724609375, -0.099853515625, -7.945312500000, -10.726562500000, -4.710937500000, 1491882820
0.145751953125, -0.917724609375, -0.099853515625, -7.945312500000, -10.726562500000, -4.710937500000, 1491882820
0.145751953125, -0.917724609375, -0.099853515625, -7.945312500000, -10.726562500000, -4.710937500000, 1491882820
0.128417968750, -0.920166015625, -0.094970703125, -0.476562500000, -0.320312500000, -1.843750000000, 1491882820
0.128417968750, -0.920166015625, -0.094970703125, -0.476562500000, -0.320312500000, -1.843750000000, 1491882820
0.128417968750, -0.920166015625, -0.094970703125, -0.476562500000, -0.320312500000, -1.843750000000, 1491882820
0.143310546875, -0.879638671875, -0.096679687500, 5.843750000000, 2.796875000000, -5.796875000000, 1491882820
0.143310546875, -0.879638671875, -0.096679687500, 5.843750000000, 2.796875000000, -5.796875000000, 1491882820
0.143310546875, -0.879638671875, -0.096679687500, 5.843750000000, 2.796875000000, -5.796875000000, 1491882820
0.142089843750, -0.985107421875, -0.138427734375, 7.492187500000, 0.742187500000, -2.039062500000, 1491882820
0.142089843750, -0.985107421875, -0.138427734375, 7.492187500000, 0.742187500000, -2.039062500000, 1491882820
0.142089843750, -0.985107421875, -0.138427734375, 7.492187500000, 0.742187500000, -2.039062500000, 1491882820
0.144042968750, -1.010253906250, -0.055908203125, 10.265625000000, 12.796875000000, -3.156250000000, 1491882820
0.144042968750, -1.010253906250, -0.055908203125, 10.265625000000, 12.796875000000, -3.156250000000, 1491882820
0.144042968750, -1.010253906250, -0.055908203125, 10.265625000000, 12.796875000000, -3.156250000000, 1491882820
0.144042968750, -1.010253906250, -0.055908203125, 10.265625000000, 12.796875000000, -3.156250000000, 1491882820
0.118652343750, -0.873535156250, -0.142089843750, -0.132812500000, 0.375000000000, -4.281250000000, 1491882820
0.118652343750, -0.873535156250, -0.142089843750, -0.132812500000, 0.375000000000, -4.281250000000, 1491882820
0.118652343750, -0.873535156250, -0.142089843750, -0.132812500000, 0.375000000000, -4.281250000000, 1491882820
0.143310546875, -0.924560546875, -0.105957031250, -8.140625000000, -3.328125000000, 0.140625000000, 1491882820
0.143310546875, -0.924560546875, -0.105957031250, -8.140625000000, -3.328125000000, 0.140625000000, 1491882820
0.143310546875, -0.924560546875, -0.105957031250, -8.140625000000, -3.328125000000, 0.140625000000, 1491882820
-0.015625000000, -0.989257812500, -0.153564453125, -14.421875000000, -8.546875000000, 0.710937500000, 1491882820
-0.015625000000, -0.989257812500, -0.153564453125, -14.421875000000, -8.546875000000, 0.710937500000, 1491882820
-0.015625000000, -0.989257812500, -0.153564453125, -14.421875000000, -8.546875000000, 0.710937500000, 1491882820
0.091796875000, -1.025146484375, -0.129882812500, -11.429687500000, -1.523437500000, -3.007812500000, 1491882820
0.091796875000, -1.025146484375, -0.129882812500, -11.429687500000, -1.523437500000, -3.007812500000, 1491882820
0.091796875000, -1.025146484375, -0.129882812500, -11.429687500000, -1.523437500000, -3.007812500000, 1491882820
0.154541015625, -1.026611328125, -0.151611328125, -5.890625000000, 6.437500000000, -3.007812500000, 1491882820
0.154541015625, -1.026611328125, -0.151611328125, -5.890625000000, 6.437500000000, -3.007812500000, 1491882821
0.064453125000, -0.986572265625, -0.146972656250, -7.101562500000, -0.773437500000, -3.539062500000, 1491882821
0.041503906250, -1.003662109375, -0.100585937500, -6.960937500000, -1.921875000000, -1.843750000000, 1491882821
0.041503906250, -1.003662109375, -0.100585937500, -6.960937500000, -1.921875000000, -1.843750000000, 1491882821
0.154296875000, -1.085205078125, -0.095458984375, -3.664062500000, -4.437500000000, -1.265625000000, 1491882821
0.154296875000, -1.085205078125, -0.095458984375, -3.664062500000, -4.437500000000, -1.265625000000, 1491882821
0.154296875000, -1.085205078125, -0.095458984375, -3.664062500000, -4.437500000000, -1.265625000000, 1491882821
0.154296875000, -1.085205078125, -0.095458984375, -3.664062500000, -4.437500000000, -1.265625000000, 1491882821
0.154296875000, -1.085205078125, -0.095458984375, -3.664062500000, -4.437500000000, -1.265625000000, 1491882821
0.078369140625, -1.084228515625, -0.124755859375, 2.968750000000, 1.093750000000, -4.296875000000, 1491882821
0.078369140625, -1.084228515625, -0.124755859375, 2.968750000000, 1.093750000000, -4.296875000000, 1491882821
0.078369140625, -1.084228515625, -0.124755859375, 2.968750000000, 1.093750000000, -4.296875000000, 1491882821
0.078369140625, -1.084228515625, -0.124755859375, 2.968750000000, 1.093750000000, -4.296875000000, 1491882821
0.156250000000, -0.937011718750, -0.098388671875, 1.164062500000, -0.257812500000, -3.289062500000, 1491882821
0.156250000000, -0.937011718750, -0.098388671875, 1.164062500000, -0.257812500000, -3.289062500000, 1491882821
0.156250000000, -0.937011718750, -0.098388671875, 1.164062500000, -0.257812500000, -3.289062500000, 1491882821
0.083740234375, -0.922119140625, -0.140380859375, 2.687500000000, 2.585937500000, -1.859375000000, 1491882821
0.083740234375, -0.922119140625, -0.140380859375, 2.687500000000, 2.585937500000, -1.859375000000, 1491882821
0.083740234375, -0.922119140625, -0.140380859375, 2.687500000000, 2.585937500000, -1.859375000000, 1491882821
0.128173828125, -1.009277343750, -0.091308593750, -0.757812500000, 5.179687500000, -6.281250000000, 1491882821
0.128173828125, -1.009277343750, -0.091308593750, -0.757812500000, 5.179687500000, -6.281250000000, 1491882821
0.128173828125, -1.009277343750, -0.091308593750, -0.757812500000, 5.179687500000, -6.281250000000, 1491882821
0.086914062500, -0.970458984375, -0.147460937500, -6.632812500000, -2.265625000000, -3.046875000000, 1491882821
0.086914062500, -0.970458984375, -0.147460937500, -6.632812500000, -2.265625000000, -3.046875000000, 1491882821
0.086914062500, -0.970458984375, -0.147460937500, -6.632812500000, -2.265625000000, -3.046875000000, 1491882821
0.086914062500, -0.970458984375, -0.147460937500, -6.632812500000, -2.265625000000, -3.046875000000, 1491882821
0.101074218750, -0.870361328125, -0.105712890625, -8.718750000000, -4.921875000000, -4.664062500000, 1491882821
0.101074218750, -0.870361328125, -0.105712890625, -8.718750000000, -4.921875000000, -4.664062500000, 1491882821
0.101074218750, -0.870361328125, -0.105712890625, -8.718750000000, -4.921875000000, -4.664062500000, 1491882821
0.082763671875, -0.944091796875, -0.120849609375, -10.304687500000, -5.054687500000, 0.843750000000, 1491882821
0.082763671875, -0.944091796875, -0.120849609375, -10.304687500000, -5.054687500000, 0.843750000000, 1491882821
0.082763671875, -0.944091796875, -0.120849609375, -10.304687500000, -5.054687500000, 0.843750000000, 1491882821
0.044433593750, -0.924804687500, -0.108154296875, -8.945312500000, -0.726562500000, -3.156250000000, 1491882821
0.044433593750, -0.924804687500, -0.108154296875, -8.945312500000, -0.726562500000, -3.156250000000, 1491882821
0.044433593750, -0.924804687500, -0.108154296875, -8.945312500000, -0.726562500000, -3.156250000000, 1491882821
0.061767578125, -0.873046875000, -0.100830078125, -3.960937500000, 3.757812500000, -2.718750000000, 1491882821
0.061767578125, -0.873046875000, -0.100830078125, -3.960937500000, 3.757812500000, -2.718750000000, 1491882821
0.061767578125, -0.873046875000, -0.100830078125, -3.960937500000, 3.757812500000, -2.718750000000, 1491882821
0.061767578125, -0.873046875000, -0.100830078125, -3.960937500000, 3.757812500000, -2.718750000000, 1491882821
0.104980468750, -0.989013671875, -0.142333984375, -7.578125000000, 0.921875000000, 0.546875000000, 1491882821
0.104980468750, -0.989013671875, -0.142333984375, -7.578125000000, 0.921875000000, 0.546875000000, 1491882821
0.104980468750, -0.989013671875, -0.142333984375, -7.578125000000, 0.921875000000, 0.546875000000, 1491882821
0.064453125000, -1.015136718750, -0.208007812500, -22.250000000000, 2.195312500000, -1.562500000000, 1491882821
0.064453125000, -1.015136718750, -0.208007812500, -22.250000000000, 2.195312500000, -1.562500000000, 1491882821
0.064453125000, -1.015136718750, -0.208007812500, -22.250000000000, 2.195312500000, -1.562500000000, 1491882821
0.110107421875, -0.974853515625, -0.208251953125, -43.437500000000, -20.218750000000, 1.382812500000, 1491882821
0.110107421875, -0.974853515625, -0.208251953125, -43.437500000000, -20.218750000000, 1.382812500000, 1491882821
0.110107421875, -0.974853515625, -0.208251953125, -43.437500000000, -20.218750000000, 1.382812500000, 1491882821
0.206787109375, -1.078857421875, -0.141601562500, -49.023437500000, 15.828125000000, -8.515625000000, 1491882821
0.206787109375, -1.078857421875, -0.141601562500, -49.023437500000, 15.828125000000, -8.515625000000, 1491882821
0.206787109375, -1.078857421875, -0.141601562500, -49.023437500000, 15.828125000000, -8.515625000000, 1491882821
0.206787109375, -1.078857421875, -0.141601562500, -49.023437500000, 15.828125000000, -8.515625000000, 1491882821
0.203369140625, -1.029296875000, -0.117431640625, -44.007812500000, 40.195312500000, -11.718750000000, 1491882821
0.203369140625, -1.029296875000, -0.117431640625, -44.007812500000, 40.195312500000, -11.718750000000, 1491882821
0.203369140625, -1.029296875000, -0.117431640625, -44.007812500000, 40.195312500000, -11.718750000000, 1491882821
0.120117187500, -1.070556640625, -0.216552734375, -53.117187500000, 13.210937500000, 3.992187500000, 1491882821
0.120117187500, -1.070556640625, -0.216552734375, -53.117187500000, 13.210937500000, 3.992187500000, 1491882821
0.120117187500, -1.070556640625, -0.216552734375, -53.117187500000, 13.210937500000, 3.992187500000, 1491882821
0.190185546875, -0.932373046875, -0.156738281250, -64.054687500000, -21.476562500000, 14.492187500000, 1491882821
0.190185546875, -0.932373046875, -0.156738281250, -64.054687500000, -21.476562500000, 14.492187500000, 1491882821
0.149902343750, -0.906494140625, -0.086669921875, -33.914062500000, -0.937500000000, 14.718750000000, 1491882821
0.149902343750, -0.906494140625, -0.086669921875, -33.914062500000, -0.937500000000, 14.718750000000, 1491882821
0.149902343750, -0.906494140625, -0.086669921875, -33.914062500000, -0.937500000000, 14.718750000000, 1491882821
0.149902343750, -0.906494140625, -0.086669921875, -33.914062500000, -0.937500000000, 14.718750000000, 1491882821
0.149902343750, -0.906494140625, -0.086669921875, -33.914062500000, -0.937500000000, 14.718750000000, 1491882821
0.115478515625, -0.858398437500, -0.053466796875, -11.476562500000, 38.250000000000, 9.929687500000, 1491882821
0.115478515625, -0.858398437500, -0.053466796875, -11.476562500000, 38.250000000000, 9.929687500000, 1491882821
0.115478515625, -0.858398437500, -0.053466796875, -11.476562500000, 38.250000000000, 9.929687500000, 1491882821
0.039794921875, -0.928710937500, 0.281982421875, -43.492187500000, -26.984375000000, 9.320312500000, 1491882822
0.039794921875, -0.928710937500, 0.281982421875, -43.492187500000, -26.984375000000, 9.320312500000, 1491882822
0.039794921875, -0.928710937500, 0.281982421875, -43.492187500000, -26.984375000000, 9.320312500000, 1491882822
0.039794921875, -0.928710937500, 0.281982421875, -43.492187500000, -26.984375000000, 9.320312500000, 1491882822
0.342773437500, -0.854003906250, 0.414794921875, -146.835937500000, -49.054687500000, 16.484375000000, 1491882822
0.295166015625, -0.858154296875, 0.139892578125, -86.367187500000, 138.390625000000, -11.937500000000, 1491882822
0.295166015625, -0.858154296875, 0.139892578125, -86.367187500000, 138.390625000000, -11.937500000000, 1491882822
0.295166015625, -0.858154296875, 0.139892578125, -86.367187500000, 138.390625000000, -11.937500000000, 1491882822
0.295166015625, -0.858154296875, 0.139892578125, -86.367187500000, 138.390625000000, -11.937500000000, 1491882822
0.295166015625, -0.858154296875, 0.139892578125, -86.367187500000, 138.390625000000, -11.937500000000, 1491882822
0.008300781250, -0.862792968750, 0.106445312500, -120.921875000000, -9.390625000000, -2.453125000000, 1491882822
0.008300781250, -0.862792968750, 0.106445312500, -120.921875000000, -9.390625000000, -2.453125000000, 1491882822
0.008300781250, -0.862792968750, 0.106445312500, -120.921875000000, -9.390625000000, -2.453125000000, 1491882822
0.175537109375, -0.780517578125, 0.467773437500, -141.843750000000, -75.062500000000, 17.968750000000, 1491882822
0.175537109375, -0.780517578125, 0.467773437500, -141.843750000000, -75.062500000000, 17.968750000000, 1491882822
0.175537109375, -0.780517578125, 0.467773437500, -141.843750000000, -75.062500000000, 17.968750000000, 1491882822
0.247802734375, -0.786376953125, 0.612304687500, -138.625000000000, -6.562500000000, 20.921875000000, 1491882822
0.247802734375, -0.786376953125, 0.612304687500, -138.625000000000, -6.562500000000, 20.921875000000, 1491882822
0.247802734375, -0.786376953125, 0.612304687500, -138.625000000000, -6.562500000000, 20.921875000000, 1491882822
0.332275390625, -0.685302734375, 0.560546875000, -136.531250000000, 36.976562500000, 20.632812500000, 1491882822
0.332275390625, -0.685302734375, 0.560546875000, -136.531250000000, 36.976562500000, 20.632812500000, 1491882822
0.332275390625, -0.685302734375, 0.560546875000, -136.531250000000, 36.976562500000, 20.632812500000, 1491882822
0.332275390625, -0.685302734375, 0.560546875000, -136.531250000000, 36.976562500000, 20.632812500000, 1491882822
0.197021484375, -0.483886718750, 0.610595703125, -127.476562500000, 38.992187500000, 16.000000000000, 1491882822
0.197021484375, -0.483886718750, 0.610595703125, -127.476562500000, 38.992187500000, 16.000000000000, 1491882822
0.197021484375, -0.483886718750, 0.610595703125, -127.476562500000, 38.992187500000, 16.000000000000, 1491882822
0.122558593750, -0.434814453125, 0.871582031250, -138.875000000000, 2.156250000000, 16.093750000000, 1491882822
0.122558593750, -0.434814453125, 0.871582031250, -138.875000000000, 2.156250000000, 16.093750000000, 1491882822
0.122558593750, -0.434814453125, 0.871582031250, -138.875000000000, 2.156250000000, 16.093750000000, 1491882822
0.053222656250, -0.428955078125, 0.876464843750, -120.609375000000, 15.929687500000, 5.218750000000, 1491882822
0.053222656250, -0.428955078125, 0.876464843750, -120.609375000000, 15.929687500000, 5.218750000000, 1491882822
0.053222656250, -0.428955078125, 0.876464843750, -120.609375000000, 15.929687500000, 5.218750000000, 1491882822
0.307128906250, -0.273681640625, 0.976562500000, -143.921875000000, -51.281250000000, 31.906250000000, 1491882822
0.307128906250, -0.273681640625, 0.976562500000, -143.921875000000, -51.281250000000, 31.906250000000, 1491882822
0.307128906250, -0.273681640625, 0.976562500000, -143.921875000000, -51.281250000000, 31.906250000000, 1491882822
0.307128906250, -0.273681640625, 0.976562500000, -143.921875000000, -51.281250000000, 31.906250000000, 1491882822
0.330322265625, -0.119873046875, 1.231933593750, -112.648437500000, -23.867187500000, 17.164062500000, 1491882822
0.330322265625, -0.119873046875, 1.231933593750, -112.648437500000, -23.867187500000, 17.164062500000, 1491882822
0.330322265625, -0.119873046875, 1.231933593750, -112.648437500000, -23.867187500000, 17.164062500000, 1491882822
0.272705078125, -0.030029296875, 1.375488281250, -102.250000000000, -4.710937500000, 23.648437500000, 1491882822
0.272705078125, -0.030029296875, 1.375488281250, -102.250000000000, -4.710937500000, 23.648437500000, 1491882822
0.272705078125, -0.030029296875, 1.375488281250, -102.250000000000, -4.710937500000, 23.648437500000, 1491882822
0.267578125000, 0.121093750000, 1.245117187500, -54.609375000000, -1.828125000000, 14.328125000000, 1491882822
0.267578125000, 0.121093750000, 1.245117187500, -54.609375000000, -1.828125000000, 14.328125000000, 1491882822
0.267578125000, 0.121093750000, 1.245117187500, -54.609375000000, -1.828125000000, 14.328125000000, 1491882822
0.251953125000, 0.215332031250, 0.883056640625, -69.859375000000, 21.062500000000, 1.062500000000, 1491882822
0.251953125000, 0.215332031250, 0.883056640625, -69.859375000000, 21.062500000000, 1.062500000000, 1491882822
0.251953125000, 0.215332031250, 0.883056640625, -69.859375000000, 21.062500000000, 1.062500000000, 1491882822
0.251953125000, 0.215332031250, 0.883056640625, -69.859375000000, 21.062500000000, 1.062500000000, 1491882822
0.234375000000, 0.343750000000, 0.977050781250, -46.500000000000, -31.250000000000, 11.445312500000, 1491882822
0.234375000000, 0.343750000000, 0.977050781250, -46.500000000000, -31.250000000000, 11.445312500000, 1491882822
0.234375000000, 0.343750000000, 0.977050781250, -46.500000000000, -31.250000000000, 11.445312500000, 1491882822
0.160400390625, 0.339111328125, 0.777587890625, -49.445312500000, 47.101562500000, 6.312500000000, 1491882822
0.160400390625, 0.339111328125, 0.777587890625, -49.445312500000, 47.101562500000, 6.312500000000, 1491882822
0.160400390625, 0.339111328125, 0.777587890625, -49.445312500000, 47.101562500000, 6.312500000000, 1491882822
0.226074218750, 0.178710937500, 1.076171875000, -7.859375000000, 14.812500000000, -1.304687500000, 1491882822
0.226074218750, 0.178710937500, 1.076171875000, -7.859375000000, 14.812500000000, -1.304687500000, 1491882822
0.226074218750, 0.178710937500, 1.076171875000, -7.859375000000, 14.812500000000, -1.304687500000, 1491882822
0.220458984375, -0.114990234375, 0.990234375000, -17.609375000000, 8.679687500000, -0.320312500000, 1491882822
0.220458984375, -0.114990234375, 0.990234375000, -17.609375000000, 8.679687500000, -0.320312500000, 1491882822
0.220458984375, -0.114990234375, 0.990234375000, -17.609375000000, 8.679687500000, -0.320312500000, 1491882822
0.220458984375, -0.114990234375, 0.990234375000, -17.609375000000, 8.679687500000, -0.320312500000, 1491882822
0.262207031250, -0.026611328125, 1.047363281250, -22.632812500000, 0.484375000000, -4.984375000000, 1491882822
0.262207031250, -0.026611328125, 1.047363281250, -22.632812500000, 0.484375000000, -4.984375000000, 1491882822
0.262207031250, -0.026611328125, 1.047363281250, -22.632812500000, 0.484375000000, -4.984375000000, 1491882822
0.322753906250, 0.131103515625, 1.030761718750, -34.453125000000, 2.039062500000, -4.632812500000, 1491882822
0.322753906250, 0.131103515625, 1.030761718750, -34.453125000000, 2.039062500000, -4.632812500000, 1491882822
0.322753906250, 0.131103515625, 1.030761718750, -34.453125000000, 2.039062500000, -4.632812500000, 1491882822
0.158203125000, 0.191406250000, 0.872070312500, -20.500000000000, 12.367187500000, -7.937500000000, 1491882823
0.158203125000, 0.191406250000, 0.872070312500, -20.500000000000, 12.367187500000, -7.937500000000, 1491882823
0.158203125000, 0.191406250000, 0.872070312500, -20.500000000000, 12.367187500000, -7.937500000000, 1491882823
0.124511718750, 0.244140625000, 0.906494140625, -2.523437500000, 16.875000000000, -5.054687500000, 1491882823
0.124511718750, 0.244140625000, 0.906494140625, -2.523437500000, 16.875000000000, -5.054687500000, 1491882823
0.124511718750, 0.244140625000, 0.906494140625, -2.523437500000, 16.875000000000, -5.054687500000, 1491882823
0.124511718750, 0.244140625000, 0.906494140625, -2.523437500000, 16.875000000000, -5.054687500000, 1491882823
0.131103515625, 0.270263671875, 0.988037109375, 3.656250000000, 6.421875000000, -6.265625000000, 1491882823
0.131103515625, 0.270263671875, 0.988037109375, 3.656250000000, 6.421875000000, -6.265625000000, 1491882823
0.131103515625, 0.270263671875, 0.988037109375, 3.656250000000, 6.421875000000, -6.265625000000, 1491882823
0.215820312500, 0.098388671875, 1.049560546875, 2.710937500000, 2.046875000000, -0.859375000000, 1491882823
0.215820312500, 0.098388671875, 1.049560546875, 2.710937500000, 2.046875000000, -0.859375000000, 1491882823
0.215820312500, 0.098388671875, 1.049560546875, 2.710937500000, 2.046875000000, -0.859375000000, 1491882823
0.279785156250, 0.104003906250, 0.974853515625, -4.093750000000, -2.500000000000, -2.492187500000, 1491882823
0.279785156250, 0.104003906250, 0.974853515625, -4.093750000000, -2.500000000000, -2.492187500000, 1491882823
0.279785156250, 0.104003906250, 0.974853515625, -4.093750000000, -2.500000000000, -2.492187500000, 1491882823
0.231933593750, 0.145263671875, 1.031250000000, -6.484375000000, -0.757812500000, -3.312500000000, 1491882823
0.231933593750, 0.145263671875, 1.031250000000, -6.484375000000, -0.757812500000, -3.312500000000, 1491882823
0.231933593750, 0.145263671875, 1.031250000000, -6.484375000000, -0.757812500000, -3.312500000000, 1491882823
0.231933593750, 0.145263671875, 1.031250000000, -6.484375000000, -0.757812500000, -3.312500000000, 1491882823
0.249511718750, 0.268310546875, 0.951904296875, -1.695312500000, 0.929687500000, -5.250000000000, 1491882823
0.249511718750, 0.268310546875, 0.951904296875, -1.695312500000, 0.929687500000, -5.250000000000, 1491882823
0.249511718750, 0.268310546875, 0.951904296875, -1.695312500000, 0.929687500000, -5.250000000000, 1491882823
0.099853515625, 0.095458984375, 1.019775390625, -2.031250000000, -2.101562500000, -1.632812500000, 1491882823
0.099853515625, 0.095458984375, 1.019775390625, -2.031250000000, -2.101562500000, -1.632812500000, 1491882823
0.099853515625, 0.095458984375, 1.019775390625, -2.031250000000, -2.101562500000, -1.632812500000, 1491882823
0.124023437500, 0.123779296875, 1.073242187500, -0.937500000000, -6.226562500000, -4.335937500000, 1491882823
0.124023437500, 0.123779296875, 1.073242187500, -0.937500000000, -6.226562500000, -4.335937500000, 1491882823
0.124023437500, 0.123779296875, 1.073242187500, -0.937500000000, -6.226562500000, -4.335937500000, 1491882823
0.268066406250, 0.205322265625, 0.920654296875, -4.039062500000, -6.554687500000, -1.148437500000, 1491882823
0.268066406250, 0.205322265625, 0.920654296875, -4.039062500000, -6.554687500000, -1.148437500000, 1491882823
0.268066406250, 0.205322265625, 0.920654296875, -4.039062500000, -6.554687500000, -1.148437500000, 1491882823
0.268066406250, 0.205322265625, 0.920654296875, -4.039062500000, -6.554687500000, -1.148437500000, 1491882823
0.278320312500, 0.095214843750, 1.024414062500, 0.421875000000, -0.476562500000, -3.734375000000, 1491882823
0.278320312500, 0.095214843750, 1.024414062500, 0.421875000000, -0.476562500000, -3.734375000000, 1491882823
0.278320312500, 0.095214843750, 1.024414062500, 0.421875000000, -0.476562500000, -3.734375000000, 1491882823
0.202880859375, 0.098876953125, 0.991943359375, -2.140625000000, -2.203125000000, -1.328125000000, 1491882823
0.202880859375, 0.098876953125, 0.991943359375, -2.140625000000, -2.203125000000, -1.328125000000, 1491882823
0.202880859375, 0.098876953125, 0.991943359375, -2.140625000000, -2.203125000000, -1.328125000000, 1491882823
0.259277343750, 0.200195312500, 1.028564453125, 0.593750000000, -2.718750000000, -4.570312500000, 1491882823
0.259277343750, 0.200195312500, 1.028564453125, 0.593750000000, -2.718750000000, -4.570312500000, 1491882823
0.259277343750, 0.200195312500, 1.028564453125, 0.593750000000, -2.718750000000, -4.570312500000, 1491882823
0.184082031250, 0.145507812500, 0.959472656250, -4.906250000000, -2.039062500000, -4.609375000000, 1491882823
0.184082031250, 0.145507812500, 0.959472656250, -4.906250000000, -2.039062500000, -4.609375000000, 1491882823
0.184082031250, 0.145507812500, 0.959472656250, -4.906250000000, -2.039062500000, -4.609375000000, 1491882823
0.184082031250, 0.145507812500, 0.959472656250, -4.906250000000, -2.039062500000, -4.609375000000, 1491882823
0.184082031250, 0.145507812500, 0.959472656250, -4.906250000000, -2.039062500000, -4.609375000000, 1491882823
0.184082031250, 0.145507812500, 0.959472656250, -4.906250000000, -2.039062500000, -4.609375000000, 1491882823
0.108398437500, 0.095458984375, 0.920410156250, -3.265625000000, 0.265625000000, 0.031250000000, 1491882823
0.180419921875, 0.151123046875, 1.031738281250, -6.101562500000, 0.062500000000, -1.484375000000, 1491882823
0.180419921875, 0.151123046875, 1.031738281250, -6.101562500000, 0.062500000000, -1.484375000000, 1491882823
0.180419921875, 0.151123046875, 1.031738281250, -6.101562500000, 0.062500000000, -1.484375000000, 1491882823
0.110351562500, 0.137939453125, 1.023925781250, -5.062500000000, -2.476562500000, -3.843750000000, 1491882823
0.110351562500, 0.137939453125, 1.023925781250, -5.062500000000, -2.476562500000, -3.843750000000, 1491882823
0.110351562500, 0.137939453125, 1.023925781250, -5.062500000000, -2.476562500000, -3.843750000000, 1491882823
0.210205078125, 0.097900390625, 0.971679687500, -6.460937500000, 0.757812500000, -3.140625000000, 1491882823
0.210205078125, 0.097900390625, 0.971679687500, -6.460937500000, 0.757812500000, -3.140625000000, 1491882823
0.210205078125, 0.097900390625, 0.971679687500, -6.460937500000, 0.757812500000, -3.140625000000, 1491882823
0.210205078125, 0.097900390625, 0.971679687500, -6.460937500000, 0.757812500000, -3.140625000000, 1491882823
0.180419921875, 0.174316406250, 0.931640625000, -4.601562500000, 0.101562500000, -2.609375000000, 1491882823
0.180419921875, 0.174316406250, 0.931640625000, -4.601562500000, 0.101562500000, -2.609375000000, 1491882823
0.180419921875, 0.174316406250, 0.931640625000, -4.601562500000, 0.101562500000, -2.609375000000, 1491882823
0.104003906250, 0.162841796875, 0.981201171875, -3.992187500000, -0.125000000000, -2.375000000000, 1491882823
0.104003906250, 0.162841796875, 0.981201171875, -3.992187500000, -0.125000000000, -2.375000000000, 1491882823
0.104003906250, 0.162841796875, 0.981201171875, -3.992187500000, -0.125000000000, -2.375000000000, 1491882823
0.160156250000, 0.178955078125, 0.926025390625, -4.062500000000, 2.046875000000, -1.929687500000, 1491882824
0.193603515625, 0.117919921875, 0.973388671875, -3.406250000000, 2.570312500000, -3.242187500000, 1491882824
0.193603515625, 0.117919921875, 0.973388671875, -3.406250000000, 2.570312500000, -3.242187500000, 1491882824
0.193603515625, 0.117919921875, 0.973388671875, -3.406250000000, 2.570312500000, -3.242187500000, 1491882824
0.193603515625, 0.117919921875, 0.973388671875, -3.406250000000, 2.570312500000, -3.242187500000, 1491882824
0.171630859375, 0.248046875000, 1.023681640625, -4.570312500000, 0.609375000000, -6.195312500000, 1491882824
0.171630859375, 0.248046875000, 1.023681640625, -4.570312500000, 0.609375000000, -6.195312500000, 1491882824
0.171630859375, 0.248046875000, 1.023681640625, -4.570312500000, 0.609375000000, -6.195312500000, 1491882824
0.171630859375, 0.248046875000, 1.023681640625, -4.570312500000, 0.609375000000, -6.195312500000, 1491882824
0.171630859375, 0.248046875000, 1.023681640625, -4.570312500000, 0.609375000000, -6.195312500000, 1491882824
0.185058593750, 0.152587890625, 1.075927734375, -4.484375000000, -0.906250000000, -4.140625000000, 1491882824
0.185058593750, 0.152587890625, 1.075927734375, -4.484375000000, -0.906250000000, -4.140625000000, 1491882824
0.185058593750, 0.152587890625, 1.075927734375, -4.484375000000, -0.906250000000, -4.140625000000, 1491882824
0.186279296875, 0.108642578125, 1.032470703125, -4.273437500000, 0.296875000000, -1.843750000000, 1491882824
0.186279296875, 0.108642578125, 1.032470703125, -4.273437500000, 0.296875000000, -1.843750000000, 1491882824
0.186279296875, 0.108642578125, 1.032470703125, -4.273437500000, 0.296875000000, -1.843750000000, 1491882824
0.197509765625, 0.210937500000, 1.073730468750, -4.210937500000, 2.242187500000, -2.515625000000, 1491882824
0.197509765625, 0.210937500000, 1.073730468750, -4.210937500000, 2.242187500000, -2.515625000000, 1491882824
0.197509765625, 0.210937500000, 1.073730468750, -4.210937500000, 2.242187500000, -2.515625000000, 1491882824
0.178466796875, 0.099853515625, 0.923583984375, -4.304687500000, -0.125000000000, -4.437500000000, 1491882824
0.250976562500, 0.154541015625, 0.860107421875, -2.914062500000, -2.031250000000, -2.703125000000, 1491882824
0.250976562500, 0.154541015625, 0.860107421875, -2.914062500000, -2.031250000000, -2.703125000000, 1491882824
0.250976562500, 0.154541015625, 0.860107421875, -2.914062500000, -2.031250000000, -2.703125000000, 1491882824
0.271240234375, 0.111572265625, 1.030029296875, -1.843750000000, -0.507812500000, -1.937500000000, 1491882824
0.271240234375, 0.111572265625, 1.030029296875, -1.843750000000, -0.507812500000, -1.937500000000, 1491882824
0.271240234375, 0.111572265625, 1.030029296875, -1.843750000000, -0.507812500000, -1.937500000000, 1491882824
0.186035156250, 0.250732421875, 1.069580078125, 0.148437500000, -2.390625000000, -3.218750000000, 1491882824
0.186035156250, 0.250732421875, 1.069580078125, 0.148437500000, -2.390625000000, -3.218750000000, 1491882824
0.186035156250, 0.250732421875, 1.069580078125, 0.148437500000, -2.390625000000, -3.218750000000, 1491882824
0.213623046875, 0.106445312500, 1.001953125000, -1.015625000000, 0.539062500000, -4.390625000000, 1491882824
0.213623046875, 0.106445312500, 1.001953125000, -1.015625000000, 0.539062500000, -4.390625000000, 1491882824
0.213623046875, 0.106445312500, 1.001953125000, -1.015625000000, 0.539062500000, -4.390625000000, 1491882824
0.188964843750, 0.154296875000, 1.021484375000, -2.218750000000, -1.093750000000, -4.781250000000, 1491882824
0.165771484375, 0.048828125000, 0.968994140625, -2.859375000000, -1.171875000000, -1.679687500000, 1491882824
0.165771484375, 0.048828125000, 0.968994140625, -2.859375000000, -1.171875000000, -1.679687500000, 1491882824
0.165771484375, 0.048828125000, 0.968994140625, -2.859375000000, -1.171875000000, -1.679687500000, 1491882824
0.227539062500, 0.118652343750, 1.004638671875, -4.570312500000, -2.320312500000, -6.656250000000, 1491882824
0.227539062500, 0.118652343750, 1.004638671875, -4.570312500000, -2.320312500000, -6.656250000000, 1491882824
0.227539062500, 0.118652343750, 1.004638671875, -4.570312500000, -2.320312500000, -6.656250000000, 1491882824
0.165039062500, 0.107910156250, 0.924316406250, -4.328125000000, -2.281250000000, -4.382812500000, 1491882824
0.165039062500, 0.107910156250, 0.924316406250, -4.328125000000, -2.281250000000, -4.382812500000, 1491882824
0.165039062500, 0.107910156250, 0.924316406250, -4.328125000000, -2.281250000000, -4.382812500000, 1491882824
0.203857421875, 0.204345703125, 1.006103515625, -4.343750000000, 0.351562500000, -1.687500000000, 1491882824
0.203857421875, 0.204345703125, 1.006103515625, -4.343750000000, 0.351562500000, -1.687500000000, 1491882824
0.203857421875, 0.204345703125, 1.006103515625, -4.343750000000, 0.351562500000, -1.687500000000, 1491882824
0.203857421875, 0.204345703125, 1.006103515625, -4.343750000000, 0.351562500000, -1.687500000000, 1491882824
0.187011718750, 0.218505859375, 0.971191406250, -3.328125000000, 0.203125000000, -1.257812500000, 1491882824
0.187011718750, 0.218505859375, 0.971191406250, -3.328125000000, 0.203125000000, -1.257812500000, 1491882824
0.187011718750, 0.218505859375, 0.971191406250, -3.328125000000, 0.203125000000, -1.257812500000, 1491882824
0.166259765625, 0.118408203125, 1.034667968750, -4.906250000000, -2.132812500000, -1.750000000000, 1491882824
0.166259765625, 0.118408203125, 1.034667968750, -4.906250000000, -2.132812500000, -1.750000000000, 1491882824
0.166259765625, 0.118408203125, 1.034667968750, -4.906250000000, -2.132812500000, -1.750000000000, 1491882824
0.235595703125, 0.175048828125, 0.980224609375, -4.757812500000, 0.093750000000, -4.390625000000, 1491882824
0.235595703125, 0.175048828125, 0.980224609375, -4.757812500000, 0.093750000000, -4.390625000000, 1491882824
0.235595703125, 0.175048828125, 0.980224609375, -4.757812500000, 0.093750000000, -4.390625000000, 1491882824
0.175537109375, 0.057861328125, 0.970458984375, -4.335937500000, 1.046875000000, -2.632812500000, 1491882824
0.175537109375, 0.057861328125, 0.970458984375, -4.335937500000, 1.046875000000, -2.632812500000, 1491882824
0.175537109375, 0.057861328125, 0.970458984375, -4.335937500000, 1.046875000000, -2.632812500000, 1491882824
0.175537109375, 0.057861328125, 0.970458984375, -4.335937500000, 1.046875000000, -2.632812500000, 1491882824
0.161865234375, 0.212646484375, 0.917480468750, -4.750000000000, 0.585937500000, -1.273437500000, 1491882824
0.161865234375, 0.212646484375, 0.917480468750, -4.750000000000, 0.585937500000, -1.273437500000, 1491882824
0.161865234375, 0.212646484375, 0.917480468750, -4.750000000000, 0.585937500000, -1.273437500000, 1491882824
0.124023437500, 0.188964843750, 0.909912109375, -3.273437500000, -0.992187500000, -1.132812500000, 1491882824
0.124023437500, 0.188964843750, 0.909912109375, -3.273437500000, -0.992187500000, -1.132812500000, 1491882824
0.124023437500, 0.188964843750, 0.909912109375, -3.273437500000, -0.992187500000, -1.132812500000, 1491882824
0.186523437500, 0.096923828125, 0.913330078125, -1.101562500000, 0.859375000000, -4.601562500000, 1491882824
0.186523437500, 0.096923828125, 0.913330078125, -1.101562500000, 0.859375000000, -4.601562500000, 1491882825
0.186523437500, 0.096923828125, 0.913330078125, -1.101562500000, 0.859375000000, -4.601562500000, 1491882825
0.165527343750, 0.122070312500, 1.020019531250, -3.101562500000, 0.289062500000, -1.445312500000, 1491882825
0.165527343750, 0.122070312500, 1.020019531250, -3.101562500000, 0.289062500000, -1.445312500000, 1491882825
0.165527343750, 0.122070312500, 1.020019531250, -3.101562500000, 0.289062500000, -1.445312500000, 1491882825
0.165527343750, 0.122070312500, 1.020019531250, -3.101562500000, 0.289062500000, -1.445312500000, 1491882825
0.269042968750, 0.041015625000, 1.019775390625, -3.398437500000, -2.625000000000, -4.593750000000, 1491882825
0.269042968750, 0.041015625000, 1.019775390625, -3.398437500000, -2.625000000000, -4.593750000000, 1491882825
0.269042968750, 0.041015625000, 1.019775390625, -3.398437500000, -2.625000000000, -4.593750000000, 1491882825
0.272460937500, 0.123291015625, 1.025634765625, -1.546875000000, 0.234375000000, -3.203125000000, 1491882825
0.272460937500, 0.123291015625, 1.025634765625, -1.546875000000, 0.234375000000, -3.203125000000, 1491882825
0.272460937500, 0.123291015625, 1.025634765625, -1.546875000000, 0.234375000000, -3.203125000000, 1491882825
