ACC_X,ACC_Y,ACC_Z,G_X,G_Y,G_Z,Unix Time
-0.021240234375, -1.171875000000, 0.277587890625, -0.242187500000, 27.601562500000, 27.640625000000, 1491882495
-0.021240234375, -1.171875000000, 0.277587890625, -0.242187500000, 27.601562500000, 27.640625000000, 1491882495
-0.021240234375, -1.171875000000, 0.277587890625, -0.242187500000, 27.601562500000, 27.640625000000, 1491882495
-0.021240234375, -1.171875000000, 0.277587890625, -0.242187500000, 27.601562500000, 27.640625000000, 1491882495
0.012207031250, -1.385498046875, 0.161621093750, -19.406250000000, -13.757812500000, 35.437500000000, 1491882495
0.012207031250, -1.385498046875, 0.161621093750, -19.406250000000, -13.757812500000, 35.437500000000, 1491882495
0.012207031250, -1.385498046875, 0.161621093750, -19.406250000000, -13.757812500000, 35.437500000000, 1491882495
-0.175048828125, -1.411376953125, 0.131347656250, -36.726562500000, -19.187500000000, 28.390625000000, 1491882495
-0.175048828125, -1.411376953125, 0.131347656250, -36.726562500000, -19.187500000000, 28.390625000000, 1491882495
-0.175048828125, -1.411376953125, 0.131347656250, -36.726562500000, -19.187500000000, 28.390625000000, 1491882495
-0.105957031250, -1.343994140625, 0.007812500000, -32.757812500000, -43.976562500000, 28.062500000000, 1491882495
-0.105957031250, -1.343994140625, 0.007812500000, -32.757812500000, -43.976562500000, 28.062500000000, 1491882495
0.169677734375, -0.986572265625, -0.079833984375, -77.515625000000, -81.664062500000, 44.218750000000, 1491882495
0.169677734375, -0.986572265625, -0.079833984375, -77.515625000000, -81.664062500000, 44.218750000000, 1491882495
0.193603515625, -1.033935546875, 0.014892578125, -88.929687500000, -61.976562500000, 30.664062500000, 1491882495
0.124267578125, -0.934814453125, -0.068115234375, -87.039062500000, -54.000000000000, 18.539062500000, 1491882495
0.124267578125, -0.934814453125, -0.068115234375, -87.039062500000, -54.000000000000, 18.539062500000, 1491882495
0.124267578125, -0.934814453125, -0.068115234375, -87.039062500000, -54.000000000000, 18.539062500000, 1491882495
0.124267578125, -0.934814453125, -0.068115234375, -87.039062500000, -54.000000000000, 18.539062500000, 1491882495
-0.011474609375, -1.037109375000, -0.010009765625, -83.093750000000, -36.937500000000, -11.382812500000, 1491882495
-0.011474609375, -1.037109375000, -0.010009765625, -83.093750000000, -36.937500000000, -11.382812500000, 1491882495
-0.011474609375, -1.037109375000, -0.010009765625, -83.093750000000, -36.937500000000, -11.382812500000, 1491882495
-0.011474609375, -1.037109375000, -0.010009765625, -83.093750000000, -36.937500000000, -11.382812500000, 1491882495
-0.017333984375, -1.010742187500, 0.066650390625, -55.484375000000, -13.031250000000, 1.273437500000, 1491882495
-0.017333984375, -1.010742187500, 0.066650390625, -55.484375000000, -13.031250000000, 1.273437500000, 1491882495
-0.017333984375, -1.010742187500, 0.066650390625, -55.484375000000, -13.031250000000, 1.273437500000, 1491882495
0.113281250000, -0.865234375000, 0.022705078125, 1.445312500000, 10.164062500000, -24.148437500000, 1491882496
0.113281250000, -0.865234375000, 0.022705078125, 1.445312500000, 10.164062500000, -24.148437500000, 1491882496
0.113281250000, -0.865234375000, 0.022705078125, 1.445312500000, 10.164062500000, -24.148437500000, 1491882496
0.113281250000, -0.865234375000, 0.022705078125, 1.445312500000, 10.164062500000, -24.148437500000, 1491882496
0.104003906250, -0.803955078125, -0.078369140625, 46.828125000000, -10.460937500000, -23.453125000000, 1491882496
0.104003906250, -0.803955078125, -0.078369140625, 46.828125000000, -10.460937500000, -23.453125000000, 1491882496
0.104003906250, -0.803955078125, -0.078369140625, 46.828125000000, -10.460937500000, -23.453125000000, 1491882496
0.149658203125, -0.747070312500, 0.014892578125, 70.265625000000, -46.078125000000, -22.609375000000, 1491882496
0.149658203125, -0.747070312500, 0.014892578125, 70.265625000000, -46.078125000000, -22.609375000000, 1491882496
0.149658203125, -0.747070312500, 0.014892578125, 70.265625000000, -46.078125000000, -22.609375000000, 1491882496
0.204101562500, -0.878906250000, -0.013916015625, 85.046875000000, -68.304687500000, -30.328125000000, 1491882496
0.204101562500, -0.878906250000, -0.013916015625, 85.046875000000, -68.304687500000, -30.328125000000, 1491882496
0.204101562500, -0.878906250000, -0.013916015625, 85.046875000000, -68.304687500000, -30.328125000000, 1491882496
0.004150390625, -0.869628906250, 0.294433593750, 251.437500000000, 211.242187500000, -48.476562500000, 1491882496
0.004150390625, -0.869628906250, 0.294433593750, 251.437500000000, 211.242187500000, -48.476562500000, 1491882496
0.004150390625, -0.869628906250, 0.294433593750, 251.437500000000, 211.242187500000, -48.476562500000, 1491882496
0.004150390625, -0.869628906250, 0.294433593750, 251.437500000000, 211.242187500000, -48.476562500000, 1491882496
-0.026611328125, -0.801269531250, 0.383300781250, -62.984375000000, -85.546875000000, -14.867187500000, 1491882496
-0.026611328125, -0.801269531250, 0.383300781250, -62.984375000000, -85.546875000000, -14.867187500000, 1491882496
-0.026611328125, -0.801269531250, 0.383300781250, -62.984375000000, -85.546875000000, -14.867187500000, 1491882496
0.091552734375, -1.005615234375, -0.010742187500, -66.671875000000, -153.906250000000, 0.523437500000, 1491882496
0.091552734375, -1.005615234375, -0.010742187500, -66.671875000000, -153.906250000000, 0.523437500000, 1491882496
0.091552734375, -1.005615234375, -0.010742187500, -66.671875000000, -153.906250000000, 0.523437500000, 1491882496
0.091552734375, -1.005615234375, -0.010742187500, -55.843750000000, -136.789062500000, -16.421875000000, 1491882496
0.087158203125, -1.048095703125, 0.145507812500, 2.898437500000, -41.351562500000, -28.015625000000, 1491882496
0.087158203125, -1.048095703125, 0.145507812500, 2.898437500000, -41.351562500000, -28.015625000000, 1491882496
0.087158203125, -1.048095703125, 0.145507812500, 2.898437500000, -41.351562500000, -28.015625000000, 1491882496
0.158447265625, -1.131103515625, 0.118164062500, 37.632812500000, 18.976562500000, -22.781250000000, 1491882496
0.138427734375, -1.204833984375, 0.099121093750, 91.046875000000, 113.250000000000, -38.117187500000, 1491882496
0.138427734375, -1.204833984375, 0.099121093750, 91.046875000000, 113.250000000000, -38.117187500000, 1491882496
-0.020751953125, -1.316162109375, 0.233642578125, 112.789062500000, 27.617187500000, 0.835937500000, 1491882496
-0.020751953125, -1.316162109375, 0.233642578125, 112.789062500000, 27.617187500000, 0.835937500000, 1491882496
-0.020751953125, -1.316162109375, 0.233642578125, 112.789062500000, 27.617187500000, 0.835937500000, 1491882496
-0.020751953125, -1.316162109375, 0.233642578125, 112.789062500000, 27.617187500000, 0.835937500000, 1491882496
-0.020751953125, -1.316162109375, 0.233642578125, 112.789062500000, 27.617187500000, 0.835937500000, 1491882496
-0.020751953125, -1.316162109375, 0.233642578125, 112.789062500000, 27.617187500000, 0.835937500000, 1491882496
0.011474609375, -1.423339843750, 0.271728515625, -37.750000000000, -43.226562500000, -20.992187500000, 1491882496
0.011474609375, -1.423339843750, 0.271728515625, -37.750000000000, -43.226562500000, -20.992187500000, 1491882496
0.011474609375, -1.423339843750, 0.271728515625, -37.750000000000, -43.226562500000, -20.992187500000, 1491882496
-0.318115234375, -1.178222656250, -0.075195312500, -133.218750000000, -245.210937500000, -52.906250000000, 1491882496
-0.318115234375, -1.178222656250, -0.075195312500, -133.218750000000, -245.210937500000, -52.906250000000, 1491882496
-0.318115234375, -1.178222656250, -0.075195312500, -133.218750000000, -245.210937500000, -52.906250000000, 1491882496
-0.318115234375, -1.178222656250, -0.075195312500, -133.218750000000, -245.210937500000, -52.906250000000, 1491882496
-0.242919921875, -1.169189453125, 0.088867187500, -170.085937500000, -256.000000000000, 2.140625000000, 1491882496
-0.242919921875, -1.169189453125, 0.088867187500, -170.085937500000, -256.000000000000, 2.140625000000, 1491882496
-0.242919921875, -1.169189453125, 0.088867187500, -170.085937500000, -256.000000000000, 2.140625000000, 1491882496
-0.156250000000, -1.280273437500, 0.157714843750, -89.273437500000, 3.617187500000, -17.953125000000, 1491882496
-0.156250000000, -1.280273437500, 0.157714843750, -89.273437500000, 3.617187500000, -17.953125000000, 1491882496
-0.156250000000, -1.280273437500, 0.157714843750, -89.273437500000, 3.617187500000, -17.953125000000, 1491882496
-0.245605468750, -1.061279296875, -0.081298828125, -41.289062500000, 146.648437500000, -57.914062500000, 1491882496
-0.245605468750, -1.061279296875, -0.081298828125, -41.289062500000, 146.648437500000, -57.914062500000, 1491882496
-0.245605468750, -1.061279296875, -0.081298828125, -41.289062500000, 146.648437500000, -57.914062500000, 1491882496
-0.306396484375, -1.086669921875, -0.033935546875, -42.937500000000, 108.710937500000, -77.015625000000, 1491882496
-0.240478515625, -0.611816406250, 0.015136718750, -15.000000000000, -199.343750000000, 36.398437500000, 1491882496
-0.057617187500, -0.699218750000, 0.034423828125, 25.906250000000, 45.156250000000, -12.507812500000, 1491882496
-0.057617187500, -0.699218750000, 0.034423828125, 25.906250000000, 45.156250000000, -12.507812500000, 1491882496
-0.018066406250, -0.742187500000, 0.063720703125, 78.343750000000, 187.812500000000, 9.406250000000, 1491882496
-0.018066406250, -0.742187500000, 0.063720703125, 78.343750000000, 187.812500000000, 9.406250000000, 1491882497
-0.018066406250, -0.742187500000, 0.063720703125, 78.343750000000, 187.812500000000, 9.406250000000, 1491882497
-0.018066406250, -0.742187500000, 0.063720703125, 78.343750000000, 187.812500000000, 9.406250000000, 1491882497
-0.018066406250, -0.742187500000, 0.063720703125, 78.343750000000, 187.812500000000, 9.406250000000, 1491882497
-0.018066406250, -0.742187500000, 0.063720703125, 78.343750000000, 187.812500000000, 9.406250000000, 1491882497
0.152832031250, -0.805175781250, 0.000488281250, 225.242187500000, 136.265625000000, 82.109375000000, 1491882497
0.322021484375, -0.870361328125, -0.193603515625, 225.242187500000, 136.265625000000, 82.109375000000, 1491882497
0.322021484375, -0.870361328125, -0.193603515625, 225.242187500000, 136.265625000000, 82.109375000000, 1491882497
0.322021484375, -0.870361328125, -0.193603515625, 225.242187500000, 136.265625000000, 82.109375000000, 1491882497
0.322021484375, -0.870361328125, -0.193603515625, 225.242187500000, 136.265625000000, 82.109375000000, 1491882497
0.322021484375, -0.870361328125, -0.193603515625, 225.242187500000, 136.265625000000, 82.109375000000, 1491882497
0.322021484375, -0.870361328125, -0.193603515625, 225.242187500000, 136.265625000000, 82.109375000000, 1491882497
0.322021484375, -0.870361328125, -0.193603515625, 225.242187500000, 136.265625000000, 82.109375000000, 1491882497
0.223632812500, -1.137207031250, -0.036132812500, 144.578125000000, -20.070312500000, -20.507812500000, 1491882497
0.223632812500, -1.137207031250, -0.036132812500, 144.578125000000, -20.070312500000, -20.507812500000, 1491882497
0.223632812500, -1.137207031250, -0.036132812500, 144.578125000000, -20.070312500000, -20.507812500000, 1491882497
0.154541015625, -1.184326171875, 0.048828125000, -246.476562500000, -75.281250000000, -10.078125000000, 1491882497
0.154541015625, -1.184326171875, 0.048828125000, -246.476562500000, -75.281250000000, -10.078125000000, 1491882497
0.154541015625, -1.184326171875, 0.048828125000, -246.476562500000, -75.281250000000, -10.078125000000, 1491882497
0.154541015625, -1.184326171875, 0.048828125000, -246.476562500000, -75.281250000000, -10.078125000000, 1491882497
0.192138671875, -1.378662109375, -0.098876953125, -247.460937500000, -174.492187500000, 5.515625000000, 1491882497
0.097167968750, -1.472167968750, -0.088134765625, -211.289062500000, -231.929687500000, 24.234375000000, 1491882497
0.097167968750, -1.472167968750, -0.088134765625, -211.289062500000, -231.929687500000, 24.234375000000, 1491882497
0.097167968750, -1.472167968750, -0.088134765625, -211.289062500000, -231.929687500000, 24.234375000000, 1491882497
0.097167968750, -1.472167968750, -0.088134765625, -211.289062500000, -231.929687500000, 24.234375000000, 1491882497
0.097167968750, -1.472167968750, -0.088134765625, -211.289062500000, -231.929687500000, 24.234375000000, 1491882497
0.097412109375, -1.555908203125, -0.079101562500, -164.132812500000, -256.000000000000, 25.117187500000, 1491882497
0.125732421875, -1.234375000000, 0.189453125000, -110.554687500000, -128.273437500000, 72.765625000000, 1491882497
0.125732421875, -1.234375000000, 0.189453125000, -110.554687500000, -128.273437500000, 72.765625000000, 1491882497
0.125732421875, -1.234375000000, 0.189453125000, -110.554687500000, -128.273437500000, 72.765625000000, 1491882497
0.251464843750, -1.133544921875, -0.046142578125, 9.492187500000, 236.273437500000, 41.937500000000, 1491882497
0.233154296875, -1.133300781250, 0.025146484375, 25.062500000000, 245.953125000000, 42.132812500000, 1491882497
0.233154296875, -1.133300781250, 0.025146484375, 25.062500000000, 245.953125000000, 42.132812500000, 1491882497
0.233154296875, -1.133300781250, 0.025146484375, 25.062500000000, 245.953125000000, 42.132812500000, 1491882497
0.233154296875, -1.133300781250, 0.025146484375, 25.062500000000, 245.953125000000, 42.132812500000, 1491882497
0.401855468750, -1.093017578125, -0.043457031250, 17.656250000000, 228.781250000000, 11.343750000000, 1491882497
0.235107421875, -1.027587890625, -0.102050781250, 13.812500000000, 129.460937500000, -29.656250000000, 1491882497
0.235107421875, -1.027587890625, -0.102050781250, 13.812500000000, 129.460937500000, -29.656250000000, 1491882497
0.235107421875, -1.027587890625, -0.102050781250, 13.812500000000, 129.460937500000, -29.656250000000, 1491882497
0.263427734375, -0.955566406250, -0.044189453125, -6.632812500000, 5.242187500000, 6.640625000000, 1491882497
0.263427734375, -0.955566406250, -0.044189453125, -6.632812500000, 5.242187500000, 6.640625000000, 1491882497
0.263427734375, -0.955566406250, -0.044189453125, -6.632812500000, 5.242187500000, 6.640625000000, 1491882497
0.105957031250, -0.733642578125, -0.091796875000, 23.023437500000, -66.976562500000, 12.656250000000, 1491882497
0.105957031250, -0.733642578125, -0.091796875000, 23.023437500000, -66.976562500000, 12.656250000000, 1491882497
0.105957031250, -0.733642578125, -0.091796875000, 23.023437500000, -66.976562500000, 12.656250000000, 1491882497
0.021484375000, -0.741455078125, 0.007324218750, 48.343750000000, -90.835937500000, -39.000000000000, 1491882497
0.021484375000, -0.741455078125, 0.007324218750, 48.343750000000, -90.835937500000, -39.000000000000, 1491882497
0.021484375000, -0.741455078125, 0.007324218750, 48.343750000000, -90.835937500000, -39.000000000000, 1491882497
0.021484375000, -0.741455078125, 0.007324218750, 48.343750000000, -90.835937500000, -39.000000000000, 1491882497
-0.072021484375, -0.683105468750, 0.061523437500, 94.882812500000, -9.492187500000, -60.500000000000, 1491882497
-0.072021484375, -0.683105468750, 0.061523437500, 94.882812500000, -9.492187500000, -60.500000000000, 1491882497
-0.072021484375, -0.683105468750, 0.061523437500, 94.882812500000, -9.492187500000, -60.500000000000, 1491882497
0.172851562500, -0.793701171875, 0.574951171875, 167.703125000000, 112.046875000000, -42.351562500000, 1491882497
0.172851562500, -0.793701171875, 0.574951171875, 167.703125000000, 112.046875000000, -42.351562500000, 1491882497
0.172851562500, -0.793701171875, 0.574951171875, 167.703125000000, 112.046875000000, -42.351562500000, 1491882497
-0.000488281250, -0.869140625000, 0.398193359375, 201.023437500000, 195.984375000000, -7.476562500000, 1491882497
-0.000488281250, -0.869140625000, 0.398193359375, 201.023437500000, 195.984375000000, -7.476562500000, 1491882497
-0.000488281250, -0.869140625000, 0.398193359375, 201.023437500000, 195.984375000000, -7.476562500000, 1491882497
0.157470703125, -1.197021484375, -0.000976562500, -135.023437500000, -121.312500000000, -19.789062500000, 1491882497
0.157470703125, -1.197021484375, -0.000976562500, -135.023437500000, -121.312500000000, -19.789062500000, 1491882497
0.157470703125, -1.197021484375, -0.000976562500, -135.023437500000, -121.312500000000, -19.789062500000, 1491882497
0.157470703125, -1.197021484375, -0.000976562500, -135.023437500000, -121.312500000000, -19.789062500000, 1491882497
0.034179687500, -1.149169921875, -0.012695312500, -84.734375000000, -107.507812500000, -15.742187500000, 1491882497
0.034179687500, -1.149169921875, -0.012695312500, -84.734375000000, -107.507812500000, -15.742187500000, 1491882497
0.034179687500, -1.149169921875, -0.012695312500, -84.734375000000, -107.507812500000, -15.742187500000, 1491882497
0.060302734375, -1.523437500000, -0.075927734375, -48.625000000000, -63.507812500000, -56.820312500000, 1491882497
0.060302734375, -1.523437500000, -0.075927734375, -48.625000000000, -63.507812500000, -56.820312500000, 1491882497
0.060302734375, -1.523437500000, -0.075927734375, -48.625000000000, -63.507812500000, -56.820312500000, 1491882497
-0.082763671875, -1.496093750000, 0.026367187500, -9.000000000000, -1.117187500000, -30.062500000000, 1491882497
-0.082763671875, -1.496093750000, 0.026367187500, -9.000000000000, -1.117187500000, -30.062500000000, 1491882497
-0.082763671875, -1.496093750000, 0.026367187500, -9.000000000000, -1.117187500000, -30.062500000000, 1491882497
-0.114990234375, -1.063476562500, -0.066162109375, -21.531250000000, -7.062500000000, -23.937500000000, 1491882497
-0.114990234375, -1.063476562500, -0.066162109375, -21.531250000000, -7.062500000000, -23.937500000000, 1491882497
-0.114990234375, -1.063476562500, -0.066162109375, -21.531250000000, -7.062500000000, -23.937500000000, 1491882498
-0.114990234375, -1.063476562500, -0.066162109375, -21.531250000000, -7.062500000000, -23.937500000000, 1491882498
-0.230957031250, -1.035644531250, -0.076904296875, -57.250000000000, -114.250000000000, -68.632812500000, 1491882498
-0.230957031250, -1.035644531250, -0.076904296875, -57.250000000000, -114.250000000000, -68.632812500000, 1491882498
-0.230957031250, -1.035644531250, -0.076904296875, -57.250000000000, -114.250000000000, -68.632812500000, 1491882498
-0.176757812500, -0.901367187500, 0.069824218750, -47.320312500000, -119.328125000000, -10.000000000000, 1491882498
-0.176757812500, -0.901367187500, 0.069824218750, -47.320312500000, -119.328125000000, -10.000000000000, 1491882498
-0.176757812500, -0.901367187500, 0.069824218750, -47.320312500000, -119.328125000000, -10.000000000000, 1491882498
-0.212158203125, -0.831542968750, 0.075439453125, 2.687500000000, 12.765625000000, -3.539062500000, 1491882498
-0.212158203125, -0.831542968750, 0.075439453125, 2.687500000000, 12.765625000000, -3.539062500000, 1491882498
-0.212158203125, -0.831542968750, 0.075439453125, 2.687500000000, 12.765625000000, -3.539062500000, 1491882498
-0.186279296875, -0.737792968750, 0.027099609375, 11.726562500000, -45.773437500000, 4.351562500000, 1491882498
-0.186279296875, -0.737792968750, 0.027099609375, 11.726562500000, -45.773437500000, 4.351562500000, 1491882498
-0.186279296875, -0.737792968750, 0.027099609375, 11.726562500000, -45.773437500000, 4.351562500000, 1491882498
-0.186279296875, -0.737792968750, 0.027099609375, 11.726562500000, -45.773437500000, 4.351562500000, 1491882498
-0.186279296875, -0.737792968750, 0.027099609375, 7.445312500000, -74.226562500000, 0.640625000000, 1491882498
-0.274658203125, -0.737792968750, -0.014404296875, 14.664062500000, -103.281250000000, -7.109375000000, 1491882498
-0.274658203125, -0.737792968750, -0.014404296875, 14.664062500000, -103.281250000000, -7.109375000000, 1491882498
-0.274658203125, -0.737792968750, -0.014404296875, 14.664062500000, -103.281250000000, -7.109375000000, 1491882498
0.016601562500, -0.788818359375, 0.026123046875, 35.601562500000, -64.351562500000, 4.148437500000, 1491882498
0.016601562500, -0.788818359375, 0.026123046875, 35.601562500000, -64.351562500000, 4.148437500000, 1491882498
0.016601562500, -0.788818359375, 0.026123046875, 35.601562500000, -64.351562500000, 4.148437500000, 1491882498
0.016601562500, -0.788818359375, 0.026123046875, 35.601562500000, -64.351562500000, 4.148437500000, 1491882498
0.016601562500, -0.788818359375, 0.026123046875, 35.601562500000, -64.351562500000, 4.148437500000, 1491882498
-0.018798828125, -0.851318359375, -0.021484375000, 81.640625000000, 7.203125000000, 0.906250000000, 1491882498
-0.018798828125, -0.851318359375, -0.021484375000, 81.640625000000, 7.203125000000, 0.906250000000, 1491882498
-0.018798828125, -0.851318359375, -0.021484375000, 81.640625000000, 7.203125000000, 0.906250000000, 1491882498
-0.018798828125, -0.851318359375, -0.021484375000, 81.640625000000, 7.203125000000, 0.906250000000, 1491882498
-0.067871093750, -1.028076171875, 0.001464843750, 94.765625000000, 6.078125000000, 14.929687500000, 1491882498
-0.067871093750, -1.028076171875, 0.001464843750, 94.765625000000, 6.078125000000, 14.929687500000, 1491882498
-0.067871093750, -1.028076171875, 0.001464843750, 94.765625000000, 6.078125000000, 14.929687500000, 1491882498
-0.124511718750, -1.278320312500, 0.305419921875, 161.929687500000, -103.632812500000, 49.632812500000, 1491882498
-0.124511718750, -1.278320312500, 0.305419921875, 161.929687500000, -103.632812500000, 49.632812500000, 1491882498
-0.124511718750, -1.278320312500, 0.305419921875, 161.929687500000, -103.632812500000, 49.632812500000, 1491882498
-0.044433593750, -1.184082031250, 0.459228515625, 3.085937500000, 16.203125000000, 42.789062500000, 1491882498
-0.044433593750, -1.184082031250, 0.459228515625, 3.085937500000, 16.203125000000, 42.789062500000, 1491882498
-0.044433593750, -1.184082031250, 0.459228515625, 3.085937500000, 16.203125000000, 42.789062500000, 1491882498
0.212158203125, -1.537109375000, 0.069335937500, -207.039062500000, -154.960937500000, 68.257812500000, 1491882498
0.212158203125, -1.537109375000, 0.069335937500, -207.039062500000, -154.960937500000, 68.257812500000, 1491882498
0.212158203125, -1.537109375000, 0.069335937500, -207.039062500000, -154.960937500000, 68.257812500000, 1491882498
0.212158203125, -1.537109375000, 0.069335937500, -207.039062500000, -154.960937500000, 68.257812500000, 1491882498
0.131347656250, -1.205322265625, 0.082031250000, -50.406250000000, -48.476562500000, 40.851562500000, 1491882498
0.131347656250, -1.205322265625, 0.082031250000, -50.406250000000, -48.476562500000, 40.851562500000, 1491882498
0.085937500000, -1.064208984375, -0.193847656250, -81.421875000000, -18.601562500000, 60.453125000000, 1491882498
0.085937500000, -1.064208984375, -0.193847656250, -81.421875000000, -18.601562500000, 60.453125000000, 1491882498
0.085937500000, -1.064208984375, -0.193847656250, -81.421875000000, -18.601562500000, 60.453125000000, 1491882498
0.137207031250, -1.115722656250, -0.114990234375, -139.312500000000, -154.789062500000, 17.882812500000, 1491882498
0.137207031250, -1.115722656250, -0.114990234375, -139.312500000000, -154.789062500000, 17.882812500000, 1491882498
0.137207031250, -1.115722656250, -0.114990234375, -139.312500000000, -154.789062500000, 17.882812500000, 1491882498
0.131591796875, -1.057617187500, -0.049560546875, -85.828125000000, -138.804687500000, 15.015625000000, 1491882498
-0.012451171875, -1.035888671875, 0.015380859375, -70.687500000000, -98.812500000000, 22.187500000000, 1491882498
-0.012451171875, -1.035888671875, 0.015380859375, -70.687500000000, -98.812500000000, 22.187500000000, 1491882498
-0.012451171875, -1.035888671875, 0.015380859375, -70.687500000000, -98.812500000000, 22.187500000000, 1491882498
0.257324218750, -0.727539062500, -0.128906250000, 93.734375000000, 131.960937500000, -31.531250000000, 1491882498
0.257324218750, -0.727539062500, -0.128906250000, 93.734375000000, 131.960937500000, -31.531250000000, 1491882498
0.257324218750, -0.727539062500, -0.128906250000, 93.734375000000, 131.960937500000, -31.531250000000, 1491882498
0.257324218750, -0.727539062500, -0.128906250000, 93.734375000000, 131.960937500000, -31.531250000000, 1491882498
0.257324218750, -0.727539062500, -0.128906250000, 93.734375000000, 131.960937500000, -31.531250000000, 1491882498
0.328857421875, -0.691894531250, -0.041259765625, 122.640625000000, 143.296875000000, -15.234375000000, 1491882498
0.328857421875, -0.691894531250, -0.041259765625, 122.640625000000, 143.296875000000, -15.234375000000, 1491882498
0.328857421875, -0.691894531250, -0.041259765625, 122.640625000000, 143.296875000000, -15.234375000000, 1491882498
0.328857421875, -0.691894531250, -0.041259765625, 122.640625000000, 143.296875000000, -15.234375000000, 1491882498
0.031982421875, -0.766357421875, 0.060302734375, 108.460937500000, 19.960937500000, -31.304687500000, 1491882498
0.031982421875, -0.766357421875, 0.060302734375, 108.460937500000, 19.960937500000, -31.304687500000, 1491882498
0.031982421875, -0.766357421875, 0.060302734375, 108.460937500000, 19.960937500000, -31.304687500000, 1491882498
0.031982421875, -0.766357421875, 0.060302734375, 108.460937500000, 19.960937500000, -31.304687500000, 1491882498
0.031982421875, -0.766357421875, 0.060302734375, 108.460937500000, 19.960937500000, -31.304687500000, 1491882498
0.258544921875, -0.682128906250, 0.640380859375, 66.523437500000, -118.570312500000, -2.421875000000, 1491882498
0.258544921875, -0.682128906250, 0.640380859375, 66.523437500000, -118.570312500000, -2.421875000000, 1491882499
0.258544921875, -0.682128906250, 0.640380859375, 66.523437500000, -118.570312500000, -2.421875000000, 1491882499
-0.003417968750, -1.016357421875, 0.242919921875, 114.726562500000, 145.960937500000, -21.976562500000, 1491882499
-0.003417968750, -1.016357421875, 0.242919921875, 114.726562500000, 145.960937500000, -21.976562500000, 1491882499
-0.003417968750, -1.016357421875, 0.242919921875, 114.726562500000, 145.960937500000, -21.976562500000, 1491882499
0.077392578125, -0.930175781250, 0.112792968750, -98.640625000000, -115.289062500000, 0.968750000000, 1491882499
0.077392578125, -0.930175781250, 0.112792968750, -98.640625000000, -115.289062500000, 0.968750000000, 1491882499
0.243408203125, -1.157958984375, -0.043701171875, -93.789062500000, -117.523437500000, -6.804687500000, 1491882499
0.243408203125, -1.157958984375, -0.043701171875, -93.789062500000, -117.523437500000, -6.804687500000, 1491882499
0.243408203125, -1.157958984375, -0.043701171875, -93.789062500000, -117.523437500000, -6.804687500000, 1491882499
0.243408203125, -1.157958984375, -0.043701171875, -93.789062500000, -117.523437500000, -6.804687500000, 1491882499
0.243408203125, -1.157958984375, -0.043701171875, -93.789062500000, -117.523437500000, -6.804687500000, 1491882499
0.262451171875, -1.146484375000, -0.004882812500, -38.609375000000, -98.281250000000, -11.929687500000, 1491882499
0.262451171875, -1.146484375000, -0.004882812500, -38.609375000000, -98.281250000000, -11.929687500000, 1491882499
0.262451171875, -1.146484375000, -0.004882812500, -38.609375000000, -98.281250000000, -11.929687500000, 1491882499
-0.013671875000, -1.162109375000, 0.031738281250, 27.468750000000, 38.648437500000, -34.890625000000, 1491882499
-0.013671875000, -1.162109375000, 0.031738281250, 27.468750000000, 38.648437500000, -34.890625000000, 1491882499
-0.013671875000, -1.162109375000, 0.031738281250, 27.468750000000, 38.648437500000, -34.890625000000, 1491882499
0.136474609375, -1.351318359375, -0.085205078125, 18.867187500000, -2.023437500000, -29.828125000000, 1491882499
0.136474609375, -1.351318359375, -0.085205078125, 18.867187500000, -2.023437500000, -29.828125000000, 1491882499
0.136474609375, -1.351318359375, -0.085205078125, 18.867187500000, -2.023437500000, -29.828125000000, 1491882499
-0.024414062500, -1.117187500000, 0.046142578125, -11.625000000000, -44.687500000000, -2.265625000000, 1491882499
-0.024414062500, -1.117187500000, 0.046142578125, -11.625000000000, -44.687500000000, -2.265625000000, 1491882499
-0.184326171875, -0.960937500000, 0.049804687500, -65.500000000000, -103.164062500000, -44.632812500000, 1491882499
-0.184326171875, -0.960937500000, 0.049804687500, -65.500000000000, -103.164062500000, -44.632812500000, 1491882499
-0.184326171875, -0.960937500000, 0.049804687500, -65.500000000000, -103.164062500000, -44.632812500000, 1491882499
-0.184326171875, -0.960937500000, 0.049804687500, -65.500000000000, -103.164062500000, -44.632812500000, 1491882499
-0.184326171875, -0.960937500000, 0.049804687500, -65.500000000000, -103.164062500000, -44.632812500000, 1491882499
-0.178466796875, -0.977050781250, -0.015869140625, -87.015625000000, -106.468750000000, 14.992187500000, 1491882499
-0.178466796875, -0.977050781250, -0.015869140625, -87.015625000000, -106.468750000000, 14.992187500000, 1491882499
-0.178466796875, -0.977050781250, -0.015869140625, -87.015625000000, -106.468750000000, 14.992187500000, 1491882499
-0.178466796875, -0.977050781250, -0.015869140625, -87.015625000000, -106.468750000000, 14.992187500000, 1491882499
-0.178466796875, -0.977050781250, -0.015869140625, -87.015625000000, -106.468750000000, 14.992187500000, 1491882499
-0.178466796875, -0.977050781250, -0.015869140625, -87.015625000000, -106.468750000000, 14.992187500000, 1491882499
-0.180664062500, -1.125488281250, 0.008789062500, -78.585937500000, -90.578125000000, -19.781250000000, 1491882499
-0.164062500000, -0.850830078125, 0.023925781250, -49.625000000000, -73.679687500000, -24.335937500000, 1491882499
-0.164062500000, -0.850830078125, 0.023925781250, -49.625000000000, -73.679687500000, -24.335937500000, 1491882499
-0.164062500000, -0.850830078125, 0.023925781250, -49.625000000000, -73.679687500000, -24.335937500000, 1491882499
-0.041992187500, -0.848632812500, -0.062744140625, 4.976562500000, -6.156250000000, -2.968750000000, 1491882499
-0.041992187500, -0.848632812500, -0.062744140625, 4.976562500000, -6.156250000000, -2.968750000000, 1491882499
-0.041992187500, -0.848632812500, -0.062744140625, 4.976562500000, -6.156250000000, -2.968750000000, 1491882499
-0.083251953125, -0.905517578125, -0.076416015625, 55.046875000000, 33.406250000000, -11.914062500000, 1491882499
-0.083251953125, -0.905517578125, -0.076416015625, 55.046875000000, 33.406250000000, -11.914062500000, 1491882499
-0.083251953125, -0.905517578125, -0.076416015625, 55.046875000000, 33.406250000000, -11.914062500000, 1491882499
0.022460937500, -0.791015625000, -0.045654296875, 80.578125000000, 46.132812500000, -7.585937500000, 1491882499
0.022460937500, -0.791015625000, -0.045654296875, 80.578125000000, 46.132812500000, -7.585937500000, 1491882499
0.022460937500, -0.791015625000, -0.045654296875, 80.578125000000, 46.132812500000, -7.585937500000, 1491882499
-0.071777343750, -0.846679687500, 0.066894531250, 89.015625000000, 10.335937500000, -1.031250000000, 1491882499
-0.071777343750, -0.846679687500, 0.066894531250, 89.015625000000, 10.335937500000, -1.031250000000, 1491882499
-0.071777343750, -0.846679687500, 0.066894531250, 89.015625000000, 10.335937500000, -1.031250000000, 1491882499
-0.071777343750, -0.846679687500, 0.066894531250, 89.015625000000, 10.335937500000, -1.031250000000, 1491882499
0.151123046875, -0.983154296875, 0.361816406250, 182.625000000000, 29.664062500000, -9.460937500000, 1491882499
0.151123046875, -0.983154296875, 0.361816406250, 182.625000000000, 29.664062500000, -9.460937500000, 1491882499
0.151123046875, -0.983154296875, 0.361816406250, 182.625000000000, 29.664062500000, -9.460937500000, 1491882499
-0.077392578125, -0.860595703125, 0.579345703125, 20.687500000000, 50.406250000000, 26.398437500000, 1491882499
-0.077392578125, -0.860595703125, 0.579345703125, 20.687500000000, 50.406250000000, 26.398437500000, 1491882499
-0.077392578125, -0.860595703125, 0.579345703125, 20.687500000000, 50.406250000000, 26.398437500000, 1491882499
-0.027099609375, -1.047607421875, 0.113037109375, -164.328125000000, -87.578125000000, 27.906250000000, 1491882499
-0.027099609375, -1.047607421875, 0.113037109375, -164.328125000000, -87.578125000000, 27.906250000000, 1491882499
-0.027099609375, -1.047607421875, 0.113037109375, -164.328125000000, -87.578125000000, 27.906250000000, 1491882499
0.207763671875, -1.218505859375, 0.088623046875, -94.773437500000, -70.343750000000, 48.531250000000, 1491882499
0.207763671875, -1.218505859375, 0.088623046875, -94.773437500000, -70.343750000000, 48.531250000000, 1491882499
0.207763671875, -1.218505859375, 0.088623046875, -94.773437500000, -70.343750000000, 48.531250000000, 1491882499
0.207763671875, -1.218505859375, 0.088623046875, -94.773437500000, -70.343750000000, 48.531250000000, 1491882499
0.079101562500, -0.996826171875, -0.005615234375, -28.882812500000, 24.351562500000, 35.718750000000, 1491882500
0.057617187500, -0.955078125000, 0.023193359375, -32.718750000000, 30.507812500000, 11.750000000000, 1491882500
0.057617187500, -0.955078125000, 0.023193359375, -32.718750000000, 30.507812500000, 11.750000000000, 1491882500
