ACC_X,ACC_Y,ACC_Z,G_X,G_Y,G_Z,Unix Time
0.133300781250, -0.827880859375, -0.161376953125, -10.070312500000, 13.000000000000, 2.804687500000, 1491883692
0.133300781250, -0.827880859375, -0.161376953125, -10.070312500000, 13.000000000000, 2.804687500000, 1491883692
0.133300781250, -0.827880859375, -0.161376953125, -10.070312500000, 13.000000000000, 2.804687500000, 1491883692
0.093261718750, -0.960693359375, -0.223632812500, -10.867187500000, 12.835937500000, 4.906250000000, 1491883692
0.154296875000, -1.010498046875, -0.230224609375, -11.453125000000, 10.234375000000, 7.554687500000, 1491883692
0.154296875000, -1.010498046875, -0.230224609375, -11.453125000000, 10.234375000000, 7.554687500000, 1491883692
0.154296875000, -1.010498046875, -0.230224609375, -11.453125000000, 10.234375000000, 7.554687500000, 1491883692
0.315673828125, -1.122314453125, -0.428710937500, 2.664062500000, 6.054687500000, 12.882812500000, 1491883692
0.330810546875, -1.036865234375, -0.464355468750, 4.929687500000, 7.109375000000, 22.890625000000, 1491883692
0.357666015625, -0.937500000000, -0.378417968750, 30.648437500000, -13.492187500000, 16.023437500000, 1491883692
0.357666015625, -0.937500000000, -0.378417968750, 30.648437500000, -13.492187500000, 16.023437500000, 1491883692
0.357666015625, -0.937500000000, -0.378417968750, 30.648437500000, -13.492187500000, 16.023437500000, 1491883692
0.357666015625, -0.937500000000, -0.378417968750, 30.648437500000, -13.492187500000, 16.023437500000, 1491883692
0.240966796875, -0.920410156250, -0.110107421875, 3.562500000000, -60.640625000000, 17.710937500000, 1491883692
0.240966796875, -0.920410156250, -0.110107421875, 3.562500000000, -60.640625000000, 17.710937500000, 1491883692
0.240966796875, -0.920410156250, -0.110107421875, -1.367187500000, -33.554687500000, 12.828125000000, 1491883692
0.341064453125, -0.853515625000, -0.195556640625, -10.398437500000, -10.796875000000, 8.179687500000, 1491883692
0.341064453125, -0.853515625000, -0.195556640625, -10.398437500000, -10.796875000000, 8.179687500000, 1491883692
0.261962890625, -0.931640625000, -0.319335937500, -36.390625000000, 30.460937500000, -0.507812500000, 1491883692
0.261962890625, -0.931640625000, -0.319335937500, -36.390625000000, 30.460937500000, -0.507812500000, 1491883692
0.261962890625, -0.931640625000, -0.319335937500, -36.390625000000, 30.460937500000, -0.507812500000, 1491883692
0.261962890625, -0.931640625000, -0.319335937500, -36.390625000000, 30.460937500000, -0.507812500000, 1491883692
0.261962890625, -0.931640625000, -0.319335937500, -36.390625000000, 30.460937500000, -0.507812500000, 1491883692
0.272705078125, -0.847900390625, -0.474121093750, -36.179687500000, -10.000000000000, -12.179687500000, 1491883692
0.272705078125, -0.847900390625, -0.474121093750, -36.179687500000, -10.000000000000, -12.179687500000, 1491883692
0.272705078125, -0.847900390625, -0.474121093750, -36.179687500000, -10.000000000000, -12.179687500000, 1491883692
0.373291015625, -0.959960937500, -0.326904296875, 6.460937500000, -43.218750000000, -1.195312500000, 1491883692
0.373291015625, -0.959960937500, -0.326904296875, 6.460937500000, -43.218750000000, -1.195312500000, 1491883692
0.373291015625, -0.959960937500, -0.326904296875, 6.460937500000, -43.218750000000, -1.195312500000, 1491883692
0.373291015625, -0.959960937500, -0.326904296875, 6.460937500000, -43.218750000000, -1.195312500000, 1491883692
0.255126953125, -0.891601562500, -0.262207031250, -11.656250000000, -24.140625000000, -7.054687500000, 1491883692
0.255126953125, -0.891601562500, -0.262207031250, -11.656250000000, -24.140625000000, -7.054687500000, 1491883692
0.255126953125, -0.891601562500, -0.262207031250, -11.656250000000, -24.140625000000, -7.054687500000, 1491883692
0.378417968750, -0.742675781250, -0.296386718750, -20.179687500000, -15.007812500000, -4.945312500000, 1491883693
0.378417968750, -0.742675781250, -0.296386718750, -20.179687500000, -15.007812500000, -4.945312500000, 1491883693
0.378417968750, -0.742675781250, -0.296386718750, -20.179687500000, -15.007812500000, -4.945312500000, 1491883693
0.251220703125, -0.883789062500, -0.349853515625, -2.312500000000, -33.664062500000, -0.421875000000, 1491883693
0.251220703125, -0.883789062500, -0.349853515625, -2.312500000000, -33.664062500000, -0.421875000000, 1491883693
0.251220703125, -0.883789062500, -0.349853515625, -2.312500000000, -33.664062500000, -0.421875000000, 1491883693
0.157958984375, -0.865478515625, -0.232421875000, -5.585937500000, -9.937500000000, -6.617187500000, 1491883693
0.157958984375, -0.865478515625, -0.232421875000, -5.585937500000, -9.937500000000, -6.617187500000, 1491883693
0.157958984375, -0.865478515625, -0.232421875000, -5.585937500000, -9.937500000000, -6.617187500000, 1491883693
0.157958984375, -0.865478515625, -0.232421875000, -5.585937500000, -9.937500000000, -6.617187500000, 1491883693
0.267333984375, -0.872314453125, -0.330566406250, -0.656250000000, -9.242187500000, -3.203125000000, 1491883693
0.267333984375, -0.872314453125, -0.330566406250, -0.656250000000, -9.242187500000, -3.203125000000, 1491883693
0.267333984375, -0.872314453125, -0.330566406250, -0.656250000000, -9.242187500000, -3.203125000000, 1491883693
0.264404296875, -0.909423828125, -0.310791015625, 1.203125000000, 5.976562500000, -12.703125000000, 1491883693
0.264404296875, -0.909423828125, -0.310791015625, 1.203125000000, 5.976562500000, -12.703125000000, 1491883693
0.264404296875, -0.909423828125, -0.310791015625, 1.203125000000, 5.976562500000, -12.703125000000, 1491883693
0.207275390625, -1.206787109375, -0.503662109375, 14.046875000000, -17.492187500000, -16.953125000000, 1491883693
0.207275390625, -1.206787109375, -0.503662109375, 14.046875000000, -17.492187500000, -16.953125000000, 1491883693
0.207275390625, -1.206787109375, -0.503662109375, 14.046875000000, -17.492187500000, -16.953125000000, 1491883693
0.104492187500, -1.161865234375, -0.303222656250, 14.164062500000, -11.070312500000, -15.234375000000, 1491883693
0.063964843750, -0.799072265625, -0.223632812500, 2.273437500000, 28.867187500000, -17.804687500000, 1491883693
0.063964843750, -0.799072265625, -0.223632812500, 2.273437500000, 28.867187500000, -17.804687500000, 1491883693
0.063964843750, -0.799072265625, -0.223632812500, 2.273437500000, 28.867187500000, -17.804687500000, 1491883693
0.063964843750, -0.799072265625, -0.223632812500, 2.273437500000, 28.867187500000, -17.804687500000, 1491883693
0.063964843750, -0.799072265625, -0.223632812500, 2.273437500000, 28.867187500000, -17.804687500000, 1491883693
0.024902343750, -0.809570312500, -0.111083984375, 5.726562500000, 19.296875000000, -23.367187500000, 1491883693
0.024902343750, -0.809570312500, -0.111083984375, 5.726562500000, 19.296875000000, -23.367187500000, 1491883693
0.024902343750, -0.809570312500, -0.111083984375, 5.726562500000, 19.296875000000, -23.367187500000, 1491883693
0.024902343750, -0.809570312500, -0.111083984375, 5.726562500000, 19.296875000000, -23.367187500000, 1491883693
0.196533203125, -0.984863281250, -0.181640625000, -13.921875000000, 32.093750000000, -27.359375000000, 1491883693
0.196533203125, -0.984863281250, -0.181640625000, -13.921875000000, 32.093750000000, -27.359375000000, 1491883693
0.196533203125, -0.984863281250, -0.181640625000, -13.921875000000, 32.093750000000, -27.359375000000, 1491883693
0.250732421875, -1.010742187500, -0.306396484375, -22.500000000000, 34.437500000000, -13.812500000000, 1491883693
0.250732421875, -1.010742187500, -0.306396484375, -22.500000000000, 34.437500000000, -13.812500000000, 1491883693
0.250732421875, -1.010742187500, -0.306396484375, -22.500000000000, 34.437500000000, -13.812500000000, 1491883693
0.250732421875, -1.010742187500, -0.306396484375, -22.500000000000, 34.437500000000, -13.812500000000, 1491883693
0.085449218750, -0.867919921875, -0.345214843750, -22.578125000000, 35.429687500000, -4.218750000000, 1491883693
0.085449218750, -0.867919921875, -0.345214843750, -22.578125000000, 35.429687500000, -4.218750000000, 1491883693
0.085449218750, -0.867919921875, -0.345214843750, -22.578125000000, 35.429687500000, -4.218750000000, 1491883693
0.079345703125, -0.808349609375, -0.461914062500, 4.171875000000, 15.507812500000, -2.570312500000, 1491883693
0.079345703125, -0.808349609375, -0.461914062500, 4.171875000000, 15.507812500000, -2.570312500000, 1491883693
0.079345703125, -0.808349609375, -0.461914062500, 4.171875000000, 15.507812500000, -2.570312500000, 1491883693
0.140136718750, -0.884765625000, -0.248291015625, 10.320312500000, 12.046875000000, -4.640625000000, 1491883693
0.140136718750, -0.884765625000, -0.248291015625, 10.320312500000, 12.046875000000, -4.640625000000, 1491883693
0.140136718750, -0.884765625000, -0.248291015625, 10.320312500000, 12.046875000000, -4.640625000000, 1491883693
0.036865234375, -0.911376953125, -0.177734375000, -4.851562500000, 11.031250000000, -0.554687500000, 1491883693
0.036865234375, -0.911376953125, -0.177734375000, -4.851562500000, 11.031250000000, -0.554687500000, 1491883693
0.036865234375, -0.911376953125, -0.177734375000, -4.851562500000, 11.031250000000, -0.554687500000, 1491883693
0.036865234375, -0.911376953125, -0.177734375000, -4.851562500000, 11.031250000000, -0.554687500000, 1491883693
0.061035156250, -0.917724609375, -0.223388671875, -0.804687500000, 4.679687500000, 3.375000000000, 1491883693
0.061035156250, -0.917724609375, -0.223388671875, -0.804687500000, 4.679687500000, 3.375000000000, 1491883693
0.061035156250, -0.917724609375, -0.223388671875, -0.804687500000, 4.679687500000, 3.375000000000, 1491883693
0.061279296875, -1.015625000000, -0.303955078125, -1.148437500000, 2.453125000000, 7.507812500000, 1491883693
0.061279296875, -1.015625000000, -0.303955078125, -1.148437500000, 2.453125000000, 7.507812500000, 1491883693
0.061279296875, -1.015625000000, -0.303955078125, -1.148437500000, 2.453125000000, 7.507812500000, 1491883693
0.176757812500, -1.164794921875, -0.425048828125, 12.046875000000, -12.953125000000, 7.320312500000, 1491883693
0.176757812500, -1.164794921875, -0.425048828125, 12.046875000000, -12.953125000000, 7.320312500000, 1491883693
0.176757812500, -1.164794921875, -0.425048828125, 12.046875000000, -12.953125000000, 7.320312500000, 1491883693
0.245117187500, -0.983886718750, -0.320068359375, 27.718750000000, -31.429687500000, 21.203125000000, 1491883693
0.245117187500, -0.983886718750, -0.320068359375, 27.718750000000, -31.429687500000, 21.203125000000, 1491883693
0.245117187500, -0.983886718750, -0.320068359375, 27.718750000000, -31.429687500000, 21.203125000000, 1491883693
0.245117187500, -0.983886718750, -0.320068359375, 27.718750000000, -31.429687500000, 21.203125000000, 1491883693
0.307861328125, -0.891113281250, -0.196289062500, 5.289062500000, -45.242187500000, 27.320312500000, 1491883693
0.307861328125, -0.891113281250, -0.196289062500, 5.289062500000, -45.242187500000, 27.320312500000, 1491883693
0.307861328125, -0.891113281250, -0.196289062500, 5.289062500000, -45.242187500000, 27.320312500000, 1491883693
0.249755859375, -0.808349609375, -0.201171875000, -9.929687500000, 1.359375000000, 12.250000000000, 1491883694
0.249755859375, -0.808349609375, -0.201171875000, -9.929687500000, 1.359375000000, 12.250000000000, 1491883694
0.201904296875, -0.952148437500, -0.313476562500, -23.351562500000, 2.640625000000, 5.242187500000, 1491883694
0.151367187500, -0.926513671875, -0.295410156250, -32.476562500000, -23.773437500000, -0.132812500000, 1491883694
0.151367187500, -0.926513671875, -0.295410156250, -32.476562500000, -23.773437500000, -0.132812500000, 1491883694
0.151367187500, -0.926513671875, -0.295410156250, -32.476562500000, -23.773437500000, -0.132812500000, 1491883694
0.279052734375, -0.848144531250, -0.296630859375, -0.078125000000, -32.406250000000, -7.546875000000, 1491883694
0.279052734375, -0.848144531250, -0.296630859375, -0.078125000000, -32.406250000000, -7.546875000000, 1491883694
0.279052734375, -0.848144531250, -0.296630859375, -0.078125000000, -32.406250000000, -7.546875000000, 1491883694
0.279052734375, -0.848144531250, -0.296630859375, -0.078125000000, -32.406250000000, -7.546875000000, 1491883694
0.218750000000, -0.848876953125, -0.384521484375, -20.726562500000, -17.804687500000, -1.828125000000, 1491883694
0.218750000000, -0.848876953125, -0.384521484375, -20.726562500000, -17.804687500000, -1.828125000000, 1491883694
0.218750000000, -0.848876953125, -0.384521484375, -20.726562500000, -17.804687500000, -1.828125000000, 1491883694
0.218750000000, -0.848876953125, -0.384521484375, -20.726562500000, -17.804687500000, -1.828125000000, 1491883694
0.218750000000, -0.848876953125, -0.384521484375, -20.726562500000, -17.804687500000, -1.828125000000, 1491883694
0.272216796875, -1.008300781250, -0.445556640625, -5.195312500000, -32.601562500000, -1.343750000000, 1491883694
0.272216796875, -1.008300781250, -0.445556640625, -5.195312500000, -32.601562500000, -1.343750000000, 1491883694
0.272216796875, -1.008300781250, -0.445556640625, -5.195312500000, -32.601562500000, -1.343750000000, 1491883694
0.272216796875, -1.008300781250, -0.445556640625, -5.195312500000, -32.601562500000, -1.343750000000, 1491883694
0.267822265625, -0.902343750000, -0.339355468750, -9.960937500000, -9.531250000000, -5.828125000000, 1491883694
0.267822265625, -0.902343750000, -0.339355468750, -9.960937500000, -9.531250000000, -5.828125000000, 1491883694
0.267822265625, -0.902343750000, -0.339355468750, -9.960937500000, -9.531250000000, -5.828125000000, 1491883694
0.267822265625, -0.902343750000, -0.339355468750, -9.960937500000, -9.531250000000, -5.828125000000, 1491883694
0.277587890625, -0.909912109375, -0.338134765625, -13.023437500000, -1.679687500000, -8.484375000000, 1491883694
0.277587890625, -0.909912109375, -0.338134765625, -13.023437500000, -1.679687500000, -8.484375000000, 1491883694
0.277587890625, -0.909912109375, -0.338134765625, -13.023437500000, -1.679687500000, -8.484375000000, 1491883694
0.178222656250, -0.896728515625, -0.332763671875, -13.085937500000, 5.906250000000, -10.226562500000, 1491883694
0.178222656250, -0.896728515625, -0.332763671875, -13.085937500000, 5.906250000000, -10.226562500000, 1491883694
0.178222656250, -0.896728515625, -0.332763671875, -13.085937500000, 5.906250000000, -10.226562500000, 1491883694
0.060058593750, -1.139404296875, -0.445312500000, 7.750000000000, -3.875000000000, -8.382812500000, 1491883694
0.060058593750, -1.139404296875, -0.445312500000, 7.750000000000, -3.875000000000, -8.382812500000, 1491883694
0.060058593750, -1.139404296875, -0.445312500000, 7.750000000000, -3.875000000000, -8.382812500000, 1491883694
0.274414062500, -1.006835937500, -0.315917968750, 17.921875000000, 11.132812500000, -15.062500000000, 1491883694
0.274414062500, -1.006835937500, -0.315917968750, 17.921875000000, 11.132812500000, -15.062500000000, 1491883694
0.274414062500, -1.006835937500, -0.315917968750, 17.921875000000, 11.132812500000, -15.062500000000, 1491883694
0.274414062500, -1.006835937500, -0.315917968750, 17.921875000000, 11.132812500000, -15.062500000000, 1491883694
0.071044921875, -0.950439453125, -0.250488281250, 8.640625000000, 26.031250000000, -19.835937500000, 1491883694
0.071044921875, -0.950439453125, -0.250488281250, 8.640625000000, 26.031250000000, -19.835937500000, 1491883694
0.071044921875, -0.950439453125, -0.250488281250, 8.640625000000, 26.031250000000, -19.835937500000, 1491883694
-0.050537109375, -1.019775390625, -0.173339843750, -8.140625000000, 25.945312500000, -20.843750000000, 1491883694
-0.050537109375, -1.019775390625, -0.173339843750, -8.140625000000, 25.945312500000, -20.843750000000, 1491883694
-0.050537109375, -1.019775390625, -0.173339843750, -8.140625000000, 25.945312500000, -20.843750000000, 1491883694
0.094726562500, -1.008300781250, -0.380615234375, -11.929687500000, 43.812500000000, -18.710937500000, 1491883694
0.094726562500, -1.008300781250, -0.380615234375, -11.929687500000, 43.812500000000, -18.710937500000, 1491883694
0.094726562500, -1.008300781250, -0.380615234375, -11.929687500000, 43.812500000000, -18.710937500000, 1491883694
0.122314453125, -0.862060546875, -0.221923828125, -4.031250000000, 27.031250000000, -3.062500000000, 1491883694
0.122314453125, -0.862060546875, -0.221923828125, -4.031250000000, 27.031250000000, -3.062500000000, 1491883694
0.122314453125, -0.862060546875, -0.221923828125, -4.031250000000, 27.031250000000, -3.062500000000, 1491883694
0.122314453125, -0.862060546875, -0.221923828125, -4.031250000000, 27.031250000000, -3.062500000000, 1491883694
0.041015625000, -0.985839843750, -0.228759765625, -18.695312500000, 36.609375000000, -1.679687500000, 1491883694
0.041015625000, -0.985839843750, -0.228759765625, -18.695312500000, 36.609375000000, -1.679687500000, 1491883694
0.041015625000, -0.985839843750, -0.228759765625, -18.695312500000, 36.609375000000, -1.679687500000, 1491883694
0.140136718750, -0.813476562500, -0.357910156250, -4.007812500000, 30.242187500000, -2.960937500000, 1491883694
0.140136718750, -0.813476562500, -0.357910156250, -4.007812500000, 30.242187500000, -2.960937500000, 1491883694
0.140136718750, -0.813476562500, -0.357910156250, -4.007812500000, 30.242187500000, -2.960937500000, 1491883694
0.192138671875, -1.008789062500, -0.293212890625, 6.468750000000, 11.554687500000, 0.445312500000, 1491883694
0.192138671875, -1.008789062500, -0.293212890625, 6.468750000000, 11.554687500000, 0.445312500000, 1491883694
0.192138671875, -1.008789062500, -0.293212890625, 6.468750000000, 11.554687500000, 0.445312500000, 1491883694
0.061523437500, -0.956787109375, -0.243408203125, -16.031250000000, 13.187500000000, 6.828125000000, 1491883694
0.061523437500, -0.956787109375, -0.243408203125, -16.031250000000, 13.187500000000, 6.828125000000, 1491883694
0.061523437500, -0.956787109375, -0.243408203125, -16.031250000000, 13.187500000000, 6.828125000000, 1491883694
0.061523437500, -0.956787109375, -0.243408203125, -16.031250000000, 13.187500000000, 6.828125000000, 1491883694
0.052734375000, -0.858398437500, -0.406005859375, -10.914062500000, 6.359375000000, 5.937500000000, 1491883694
0.052734375000, -0.858398437500, -0.406005859375, -10.914062500000, 6.359375000000, 5.937500000000, 1491883694
0.052734375000, -0.858398437500, -0.406005859375, -10.914062500000, 6.359375000000, 5.937500000000, 1491883694
0.108154296875, -0.930175781250, -0.321044921875, 7.210937500000, -14.406250000000, 9.023437500000, 1491883694
0.108154296875, -0.930175781250, -0.321044921875, 7.210937500000, -14.406250000000, 9.023437500000, 1491883694
0.108154296875, -0.930175781250, -0.321044921875, 7.210937500000, -14.406250000000, 9.023437500000, 1491883694
0.173095703125, -1.018554687500, -0.307128906250, 6.312500000000, -9.476562500000, 6.906250000000, 1491883695
0.173095703125, -1.018554687500, -0.307128906250, 6.312500000000, -9.476562500000, 6.906250000000, 1491883695
0.173095703125, -1.018554687500, -0.307128906250, 6.312500000000, -9.476562500000, 6.906250000000, 1491883695
0.442871093750, -0.927978515625, -0.202880859375, 5.914062500000, -43.476562500000, 22.710937500000, 1491883695
0.442871093750, -0.927978515625, -0.202880859375, 5.914062500000, -43.476562500000, 22.710937500000, 1491883695
0.442871093750, -0.927978515625, -0.202880859375, 5.914062500000, -43.476562500000, 22.710937500000, 1491883695
0.442871093750, -0.927978515625, -0.202880859375, 5.914062500000, -43.476562500000, 22.710937500000, 1491883695
0.313720703125, -0.936767578125, -0.152099609375, -13.648437500000, -19.765625000000, 15.523437500000, 1491883695
0.313720703125, -0.936767578125, -0.152099609375, -13.648437500000, -19.765625000000, 15.523437500000, 1491883695
0.313720703125, -0.936767578125, -0.152099609375, -13.648437500000, -19.765625000000, 15.523437500000, 1491883695
0.163818359375, -1.010498046875, -0.329101562500, -24.007812500000, -26.531250000000, 10.320312500000, 1491883695
0.163818359375, -1.010498046875, -0.329101562500, -24.007812500000, -26.531250000000, 10.320312500000, 1491883695
0.163818359375, -1.010498046875, -0.329101562500, -24.007812500000, -26.531250000000, 10.320312500000, 1491883695
0.245117187500, -0.953369140625, -0.319335937500, -2.726562500000, -34.203125000000, -1.539062500000, 1491883695
0.245117187500, -0.953369140625, -0.319335937500, -2.726562500000, -34.203125000000, -1.539062500000, 1491883695
0.245117187500, -0.953369140625, -0.319335937500, -2.726562500000, -34.203125000000, -1.539062500000, 1491883695
0.343017578125, -0.791259765625, -0.251708984375, -8.226562500000, -25.187500000000, -4.804687500000, 1491883695
0.343017578125, -0.791259765625, -0.251708984375, -8.226562500000, -25.187500000000, -4.804687500000, 1491883695
0.343017578125, -0.791259765625, -0.251708984375, -8.226562500000, -25.187500000000, -4.804687500000, 1491883695
0.343017578125, -0.791259765625, -0.251708984375, -8.226562500000, -25.187500000000, -4.804687500000, 1491883695
0.292236328125, -0.894287109375, -0.333251953125, -17.281250000000, -23.929687500000, -0.039062500000, 1491883695
0.292236328125, -0.894287109375, -0.333251953125, -17.281250000000, -23.929687500000, -0.039062500000, 1491883695
0.292236328125, -0.894287109375, -0.333251953125, -17.281250000000, -23.929687500000, -0.039062500000, 1491883695
0.184814453125, -0.887939453125, -0.356201171875, -8.867187500000, -38.023437500000, 4.648437500000, 1491883695
0.184814453125, -0.887939453125, -0.356201171875, -8.867187500000, -38.023437500000, 4.648437500000, 1491883695
0.184814453125, -0.887939453125, -0.356201171875, -8.867187500000, -38.023437500000, 4.648437500000, 1491883695
0.216308593750, -0.860595703125, -0.322998046875, -4.296875000000, -32.710937500000, 0.171875000000, 1491883695
0.216308593750, -0.860595703125, -0.322998046875, -4.296875000000, -32.710937500000, 0.171875000000, 1491883695
0.216308593750, -0.860595703125, -0.322998046875, -4.296875000000, -32.710937500000, 0.171875000000, 1491883695
0.342041015625, -0.872802734375, -0.296142578125, -16.523437500000, -5.117187500000, -7.585937500000, 1491883695
0.342041015625, -0.872802734375, -0.296142578125, -16.523437500000, -5.117187500000, -7.585937500000, 1491883695
0.342041015625, -0.872802734375, -0.296142578125, -16.523437500000, -5.117187500000, -7.585937500000, 1491883695
0.227050781250, -0.935791015625, -0.383056640625, -10.429687500000, -0.132812500000, -10.718750000000, 1491883695
0.227050781250, -0.935791015625, -0.383056640625, -10.429687500000, -0.132812500000, -10.718750000000, 1491883695
0.227050781250, -0.935791015625, -0.383056640625, -10.429687500000, -0.132812500000, -10.718750000000, 1491883695
0.227050781250, -0.935791015625, -0.383056640625, -10.429687500000, -0.132812500000, -10.718750000000, 1491883695
0.186279296875, -1.040771484375, -0.414550781250, 7.656250000000, 3.898437500000, -14.046875000000, 1491883695
0.186279296875, -1.040771484375, -0.414550781250, 7.656250000000, 3.898437500000, -14.046875000000, 1491883695
0.186279296875, -1.040771484375, -0.414550781250, 7.656250000000, 3.898437500000, -14.046875000000, 1491883695
0.155029296875, -0.923095703125, -0.439941406250, 19.296875000000, 8.890625000000, -19.562500000000, 1491883695
0.155029296875, -0.923095703125, -0.439941406250, 19.296875000000, 8.890625000000, -19.562500000000, 1491883695
0.155029296875, -0.923095703125, -0.439941406250, 19.296875000000, 8.890625000000, -19.562500000000, 1491883695
0.099121093750, -0.865722656250, -0.170410156250, 3.984375000000, 34.882812500000, -18.640625000000, 1491883695
0.099121093750, -0.865722656250, -0.170410156250, 3.984375000000, 34.882812500000, -18.640625000000, 1491883695
0.099121093750, -0.865722656250, -0.170410156250, 3.984375000000, 34.882812500000, -18.640625000000, 1491883695
0.099121093750, -0.865722656250, -0.170410156250, 3.984375000000, 34.882812500000, -18.640625000000, 1491883695
-0.034423828125, -0.824462890625, -0.182128906250, 0.601562500000, 35.203125000000, -17.304687500000, 1491883695
-0.034423828125, -0.824462890625, -0.182128906250, 0.601562500000, 35.203125000000, -17.304687500000, 1491883695
-0.034423828125, -0.824462890625, -0.182128906250, 0.601562500000, 35.203125000000, -17.304687500000, 1491883695
0.081787109375, -0.997314453125, -0.183593750000, 0.070312500000, 20.250000000000, -17.507812500000, 1491883695
0.081787109375, -0.997314453125, -0.183593750000, 0.070312500000, 20.250000000000, -17.507812500000, 1491883695
0.081787109375, -0.997314453125, -0.183593750000, 0.070312500000, 20.250000000000, -17.507812500000, 1491883695
0.151123046875, -0.999267578125, -0.325683593750, -14.289062500000, 46.007812500000, -11.289062500000, 1491883695
0.151123046875, -0.999267578125, -0.325683593750, -14.289062500000, 46.007812500000, -11.289062500000, 1491883695
0.151123046875, -0.999267578125, -0.325683593750, -14.289062500000, 46.007812500000, -11.289062500000, 1491883695
0.071044921875, -0.954589843750, -0.307128906250, -18.804687500000, 37.171875000000, -4.445312500000, 1491883695
0.071044921875, -0.954589843750, -0.307128906250, -18.804687500000, 37.171875000000, -4.445312500000, 1491883695
0.071044921875, -0.954589843750, -0.307128906250, -18.804687500000, 37.171875000000, -4.445312500000, 1491883695
0.071044921875, -0.954589843750, -0.307128906250, -18.804687500000, 37.171875000000, -4.445312500000, 1491883695
0.152587890625, -0.846923828125, -0.384033203125, -7.289062500000, 29.421875000000, 0.796875000000, 1491883695
0.152587890625, -0.846923828125, -0.384033203125, -7.289062500000, 29.421875000000, 0.796875000000, 1491883695
0.152587890625, -0.846923828125, -0.384033203125, -7.289062500000, 29.421875000000, 0.796875000000, 1491883695
0.060546875000, -0.923095703125, -0.292236328125, 9.640625000000, 18.804687500000, 0.835937500000, 1491883695
0.060546875000, -0.923095703125, -0.292236328125, 9.640625000000, 18.804687500000, 0.835937500000, 1491883695
0.060546875000, -0.923095703125, -0.292236328125, 9.640625000000, 18.804687500000, 0.835937500000, 1491883695
0.101562500000, -0.903320312500, -0.314453125000, -1.195312500000, 9.203125000000, 2.898437500000, 1491883696
0.101562500000, -0.903320312500, -0.314453125000, -1.195312500000, 9.203125000000, 2.898437500000, 1491883696
0.101562500000, -0.903320312500, -0.314453125000, -1.195312500000, 9.203125000000, 2.898437500000, 1491883696
-0.017578125000, -0.880371093750, -0.331054687500, -9.992187500000, 3.820312500000, 10.593750000000, 1491883696
-0.017578125000, -0.880371093750, -0.331054687500, -9.992187500000, 3.820312500000, 10.593750000000, 1491883696
-0.017578125000, -0.880371093750, -0.331054687500, -9.992187500000, 3.820312500000, 10.593750000000, 1491883696
-0.017578125000, -0.880371093750, -0.331054687500, -9.992187500000, 3.820312500000, 10.593750000000, 1491883696
0.107666015625, -0.880615234375, -0.248291015625, -1.046875000000, -3.210937500000, 12.820312500000, 1491883696
0.107666015625, -0.880615234375, -0.248291015625, -1.046875000000, -3.210937500000, 12.820312500000, 1491883696
0.107666015625, -0.880615234375, -0.248291015625, -1.046875000000, -3.210937500000, 12.820312500000, 1491883696
0.264892578125, -0.986816406250, -0.445556640625, 14.117187500000, -14.992187500000, 7.703125000000, 1491883696
0.264892578125, -0.986816406250, -0.445556640625, 14.117187500000, -14.992187500000, 7.703125000000, 1491883696
0.264892578125, -0.986816406250, -0.445556640625, 14.117187500000, -14.992187500000, 7.703125000000, 1491883696
0.250976562500, -1.034179687500, -0.331787109375, 26.828125000000, -27.453125000000, 10.367187500000, 1491883696
0.250976562500, -1.034179687500, -0.331787109375, 26.828125000000, -27.453125000000, 10.367187500000, 1491883696
0.250976562500, -1.034179687500, -0.331787109375, 26.828125000000, -27.453125000000, 10.367187500000, 1491883696
0.334716796875, -0.847900390625, -0.204101562500, -9.734375000000, -9.359375000000, 0.054687500000, 1491883696
0.334716796875, -0.847900390625, -0.204101562500, -9.734375000000, -9.359375000000, 0.054687500000, 1491883696
0.334716796875, -0.847900390625, -0.204101562500, -9.734375000000, -9.359375000000, 0.054687500000, 1491883696
0.334716796875, -0.847900390625, -0.204101562500, -9.734375000000, -9.359375000000, 0.054687500000, 1491883696
0.309326171875, -0.790527343750, -0.222900390625, -11.023437500000, -22.609375000000, 7.734375000000, 1491883696
0.309326171875, -0.790527343750, -0.222900390625, -11.023437500000, -22.609375000000, 7.734375000000, 1491883696
0.309326171875, -0.790527343750, -0.222900390625, -11.023437500000, -22.609375000000, 7.734375000000, 1491883696
0.256347656250, -0.856689453125, -0.330810546875, 1.898437500000, -41.640625000000, 10.078125000000, 1491883696
0.256347656250, -0.856689453125, -0.330810546875, 1.898437500000, -41.640625000000, 10.078125000000, 1491883696
0.256347656250, -0.856689453125, -0.330810546875, 1.898437500000, -41.640625000000, 10.078125000000, 1491883696
0.316650390625, -0.905517578125, -0.159912109375, -7.078125000000, -31.312500000000, -1.828125000000, 1491883696
0.316650390625, -0.905517578125, -0.159912109375, -7.078125000000, -31.312500000000, -1.828125000000, 1491883696
0.316650390625, -0.905517578125, -0.159912109375, -7.078125000000, -31.312500000000, -1.828125000000, 1491883696
0.221191406250, -0.906982421875, -0.332763671875, -17.031250000000, -17.015625000000, -5.937500000000, 1491883696
0.221191406250, -0.906982421875, -0.332763671875, -17.031250000000, -17.015625000000, -5.937500000000, 1491883696
0.221191406250, -0.906982421875, -0.332763671875, -17.031250000000, -17.015625000000, -5.937500000000, 1491883696
0.221191406250, -0.906982421875, -0.332763671875, -17.031250000000, -17.015625000000, -5.937500000000, 1491883696
0.294433593750, -0.861572265625, -0.382324218750, -16.406250000000, -20.156250000000, -4.867187500000, 1491883696
0.294433593750, -0.861572265625, -0.382324218750, -16.406250000000, -20.156250000000, -4.867187500000, 1491883696
0.294433593750, -0.861572265625, -0.382324218750, -16.406250000000, -20.156250000000, -4.867187500000, 1491883696
0.177734375000, -0.883789062500, -0.440673828125, 6.765625000000, -33.250000000000, -0.421875000000, 1491883696
0.177734375000, -0.883789062500, -0.440673828125, 6.765625000000, -33.250000000000, -0.421875000000, 1491883696
0.177734375000, -0.883789062500, -0.440673828125, 6.765625000000, -33.250000000000, -0.421875000000, 1491883696
0.262451171875, -0.943603515625, -0.354980468750, 1.789062500000, -27.125000000000, 0.679687500000, 1491883696
0.254150390625, -0.950927734375, -0.303222656250, 0.562500000000, -16.023437500000, -4.000000000000, 1491883696
0.214843750000, -0.856445312500, -0.426757812500, -8.132812500000, -4.875000000000, -10.945312500000, 1491883696
0.110351562500, -0.897216796875, -0.441894531250, -4.789062500000, 2.726562500000, -10.851562500000, 1491883696
0.170410156250, -0.950683593750, -0.510009765625, 5.687500000000, -2.117187500000, -9.039062500000, 1491883696
0.163818359375, -1.070800781250, -0.469726562500, 13.304687500000, -7.421875000000, -9.218750000000, 1491883696
0.163818359375, -1.070800781250, -0.469726562500, 13.304687500000, -7.421875000000, -9.218750000000, 1491883696
0.163818359375, -1.070800781250, -0.469726562500, 13.304687500000, -7.421875000000, -9.218750000000, 1491883696
0.163818359375, -1.070800781250, -0.469726562500, 13.304687500000, -7.421875000000, -9.218750000000, 1491883696
0.163818359375, -1.070800781250, -0.469726562500, 13.304687500000, -7.421875000000, -9.218750000000, 1491883696
0.163818359375, -1.070800781250, -0.469726562500, 13.304687500000, -7.421875000000, -9.218750000000, 1491883696
0.149414062500, -0.929443359375, -0.357421875000, 9.687500000000, 12.429687500000, -7.460937500000, 1491883696
0.149414062500, -0.929443359375, -0.357421875000, 9.687500000000, 12.429687500000, -7.460937500000, 1491883696
0.149414062500, -0.929443359375, -0.357421875000, 9.687500000000, 12.429687500000, -7.460937500000, 1491883696
0.149414062500, -0.929443359375, -0.357421875000, 9.687500000000, 12.429687500000, -7.460937500000, 1491883696
0.149414062500, -0.929443359375, -0.357421875000, 9.687500000000, 12.429687500000, -7.460937500000, 1491883696
-0.027832031250, -0.914062500000, -0.254638671875, 11.812500000000, 11.960937500000, -14.867187500000, 1491883696
-0.027832031250, -0.914062500000, -0.254638671875, 11.812500000000, 11.960937500000, -14.867187500000, 1491883696
-0.027832031250, -0.914062500000, -0.254638671875, 11.812500000000, 11.960937500000, -14.867187500000, 1491883696
-0.027832031250, -0.914062500000, -0.254638671875, 11.812500000000, 11.960937500000, -14.867187500000, 1491883696
0.052490234375, -1.017578125000, -0.213378906250, -11.812500000000, 29.625000000000, -21.953125000000, 1491883696
0.052490234375, -1.017578125000, -0.213378906250, -11.812500000000, 29.625000000000, -21.953125000000, 1491883696
0.052490234375, -1.017578125000, -0.213378906250, -11.812500000000, 29.625000000000, -21.953125000000, 1491883696
0.220214843750, -1.075439453125, -0.323730468750, -35.906250000000, 54.078125000000, -15.054687500000, 1491883696
0.220214843750, -1.075439453125, -0.323730468750, -35.906250000000, 54.078125000000, -15.054687500000, 1491883696
0.220214843750, -1.075439453125, -0.323730468750, -35.906250000000, 54.078125000000, -15.054687500000, 1491883696
0.216552734375, -1.030761718750, -0.294433593750, -19.679687500000, 39.781250000000, -1.984375000000, 1491883696
0.216552734375, -1.030761718750, -0.294433593750, -19.679687500000, 39.781250000000, -1.984375000000, 1491883696
0.216552734375, -1.030761718750, -0.294433593750, -19.679687500000, 39.781250000000, -1.984375000000, 1491883696
0.079101562500, -0.928955078125, -0.391845703125, -16.242187500000, 29.296875000000, 1.320312500000, 1491883697
0.079101562500, -0.928955078125, -0.391845703125, -16.242187500000, 29.296875000000, 1.320312500000, 1491883697
0.060302734375, -0.902343750000, -0.338623046875, -6.335937500000, 25.671875000000, -1.781250000000, 1491883697
0.060302734375, -0.902343750000, -0.338623046875, -6.335937500000, 25.671875000000, -1.781250000000, 1491883697
0.060302734375, -0.902343750000, -0.338623046875, -6.335937500000, 25.671875000000, -1.781250000000, 1491883697
0.060302734375, -0.902343750000, -0.338623046875, -6.335937500000, 25.671875000000, -1.781250000000, 1491883697
0.060302734375, -0.902343750000, -0.338623046875, -6.335937500000, 25.671875000000, -1.781250000000, 1491883697
0.158447265625, -0.891357421875, -0.303222656250, -5.070312500000, 22.343750000000, -6.085937500000, 1491883697
0.158447265625, -0.891357421875, -0.303222656250, -5.070312500000, 22.343750000000, -6.085937500000, 1491883697
0.158447265625, -0.891357421875, -0.303222656250, -5.070312500000, 22.343750000000, -6.085937500000, 1491883697
0.123291015625, -0.896728515625, -0.246093750000, -10.656250000000, 12.835937500000, 0.406250000000, 1491883697
0.123291015625, -0.896728515625, -0.246093750000, -10.656250000000, 12.835937500000, 0.406250000000, 1491883697
0.123291015625, -0.896728515625, -0.246093750000, -10.656250000000, 12.835937500000, 0.406250000000, 1491883697
0.198730468750, -0.959228515625, -0.247314453125, -7.390625000000, 11.734375000000, 2.468750000000, 1491883697
0.198730468750, -0.959228515625, -0.247314453125, -7.390625000000, 11.734375000000, 2.468750000000, 1491883697
0.198730468750, -0.959228515625, -0.247314453125, -7.390625000000, 11.734375000000, 2.468750000000, 1491883697
0.198730468750, -0.959228515625, -0.247314453125, -7.390625000000, 11.734375000000, 2.468750000000, 1491883697
0.184570312500, -1.031005859375, -0.400634765625, 0.539062500000, -4.703125000000, 3.250000000000, 1491883697
0.184570312500, -1.031005859375, -0.400634765625, 0.539062500000, -4.703125000000, 3.250000000000, 1491883697
0.184570312500, -1.031005859375, -0.400634765625, 0.539062500000, -4.703125000000, 3.250000000000, 1491883697
0.174804687500, -1.054199218750, -0.372070312500, -0.914062500000, -2.835937500000, 5.265625000000, 1491883697
0.174804687500, -1.054199218750, -0.372070312500, -0.914062500000, -2.835937500000, 5.265625000000, 1491883697
0.174804687500, -1.054199218750, -0.372070312500, -0.914062500000, -2.835937500000, 5.265625000000, 1491883697
0.248779296875, -0.946044921875, -0.230712890625, 17.851562500000, -27.375000000000, 5.468750000000, 1491883697
0.248779296875, -0.946044921875, -0.230712890625, 17.851562500000, -27.375000000000, 5.468750000000, 1491883697
0.248779296875, -0.946044921875, -0.230712890625, 17.851562500000, -27.375000000000, 5.468750000000, 1491883697
0.312500000000, -0.860107421875, -0.156982421875, 3.265625000000, -44.804687500000, 17.781250000000, 1491883697
0.312500000000, -0.860107421875, -0.156982421875, 3.265625000000, -44.804687500000, 17.781250000000, 1491883697
0.312500000000, -0.860107421875, -0.156982421875, 3.265625000000, -44.804687500000, 17.781250000000, 1491883697
0.202392578125, -0.916992187500, -0.203857421875, -29.093750000000, -21.328125000000, 0.875000000000, 1491883697
0.202392578125, -0.916992187500, -0.203857421875, -29.093750000000, -21.328125000000, 0.875000000000, 1491883697
0.202392578125, -0.916992187500, -0.203857421875, -29.093750000000, -21.328125000000, 0.875000000000, 1491883697
0.202392578125, -0.916992187500, -0.203857421875, -29.093750000000, -21.328125000000, 0.875000000000, 1491883697
0.214599609375, -0.981201171875, -0.298095703125, -27.242187500000, -24.085937500000, -4.421875000000, 1491883697
0.214599609375, -0.981201171875, -0.298095703125, -27.242187500000, -24.085937500000, -4.421875000000, 1491883697
0.214599609375, -0.981201171875, -0.298095703125, -27.242187500000, -24.085937500000, -4.421875000000, 1491883697
0.318115234375, -0.875000000000, -0.308837890625, -12.921875000000, -24.960937500000, -5.242187500000, 1491883697
0.318115234375, -0.875000000000, -0.308837890625, -12.921875000000, -24.960937500000, -5.242187500000, 1491883697
0.318115234375, -0.875000000000, -0.308837890625, -12.921875000000, -24.960937500000, -5.242187500000, 1491883697
0.328613281250, -0.878906250000, -0.292724609375, -9.640625000000, -21.031250000000, -2.414062500000, 1491883697
0.328613281250, -0.878906250000, -0.292724609375, -9.640625000000, -21.031250000000, -2.414062500000, 1491883697
0.328613281250, -0.878906250000, -0.292724609375, -9.640625000000, -21.031250000000, -2.414062500000, 1491883697
0.328613281250, -0.878906250000, -0.292724609375, -9.640625000000, -21.031250000000, -2.414062500000, 1491883697
0.181152343750, -0.850830078125, -0.311035156250, -5.906250000000, -29.570312500000, 0.312500000000, 1491883697
0.181152343750, -0.850830078125, -0.311035156250, -5.906250000000, -29.570312500000, 0.312500000000, 1491883697
0.181152343750, -0.850830078125, -0.311035156250, -5.906250000000, -29.570312500000, 0.312500000000, 1491883697
0.266601562500, -0.951171875000, -0.239501953125, -10.140625000000, -26.906250000000, -2.382812500000, 1491883697
0.256347656250, -0.859375000000, -0.380126953125, -8.523437500000, -12.406250000000, -8.992187500000, 1491883697
0.256347656250, -0.859375000000, -0.380126953125, -8.523437500000, -12.406250000000, -8.992187500000, 1491883697
0.256347656250, -0.859375000000, -0.380126953125, -8.523437500000, -12.406250000000, -8.992187500000, 1491883697
0.241455078125, -0.891601562500, -0.335205078125, -1.156250000000, 0.234375000000, -7.656250000000, 1491883697
0.241455078125, -0.891601562500, -0.335205078125, -1.156250000000, 0.234375000000, -7.656250000000, 1491883697
0.241455078125, -0.891601562500, -0.335205078125, -1.156250000000, 0.234375000000, -7.656250000000, 1491883697
0.241455078125, -0.891601562500, -0.335205078125, -1.156250000000, 0.234375000000, -7.656250000000, 1491883697
0.241455078125, -0.891601562500, -0.335205078125, -1.156250000000, 0.234375000000, -7.656250000000, 1491883697
0.222167968750, -0.847900390625, -0.398437500000, 4.398437500000, 8.960937500000, -8.859375000000, 1491883697
0.222167968750, -0.847900390625, -0.398437500000, 4.398437500000, 8.960937500000, -8.859375000000, 1491883697
0.222167968750, -0.847900390625, -0.398437500000, 4.398437500000, 8.960937500000, -8.859375000000, 1491883697
0.222167968750, -0.847900390625, -0.398437500000, 4.398437500000, 8.960937500000, -8.859375000000, 1491883697
0.191162109375, -1.099609375000, -0.443603515625, 17.242187500000, -0.531250000000, -5.046875000000, 1491883697
0.191162109375, -1.099609375000, -0.443603515625, 17.242187500000, -0.531250000000, -5.046875000000, 1491883697
0.191162109375, -1.099609375000, -0.443603515625, 17.242187500000, -0.531250000000, -5.046875000000, 1491883697
0.182373046875, -1.032470703125, -0.283447265625, 28.460937500000, 6.617187500000, -3.992187500000, 1491883697
0.182373046875, -1.032470703125, -0.283447265625, 28.460937500000, 6.617187500000, -3.992187500000, 1491883697
-0.037109375000, -0.805419921875, -0.259033203125, 6.437500000000, 33.882812500000, -15.046875000000, 1491883698
-0.037109375000, -0.805419921875, -0.259033203125, 6.437500000000, 33.882812500000, -15.046875000000, 1491883698
-0.037109375000, -0.805419921875, -0.259033203125, 6.437500000000, 33.882812500000, -15.046875000000, 1491883698
-0.037109375000, -0.805419921875, -0.259033203125, 6.437500000000, 33.882812500000, -15.046875000000, 1491883698
-0.037109375000, -0.805419921875, -0.259033203125, 6.437500000000, 33.882812500000, -15.046875000000, 1491883698
-0.025634765625, -1.031738281250, -0.201904296875, 0.796875000000, 27.515625000000, -24.195312500000, 1491883698
-0.025634765625, -1.031738281250, -0.201904296875, 0.796875000000, 27.515625000000, -24.195312500000, 1491883698
-0.025634765625, -1.031738281250, -0.201904296875, 0.796875000000, 27.515625000000, -24.195312500000, 1491883698
0.171630859375, -1.004882812500, -0.298095703125, -16.179687500000, 39.078125000000, -6.515625000000, 1491883698
0.171630859375, -1.004882812500, -0.298095703125, -16.179687500000, 39.078125000000, -6.515625000000, 1491883698
0.171630859375, -1.004882812500, -0.298095703125, -16.179687500000, 39.078125000000, -6.515625000000, 1491883698
0.171630859375, -1.004882812500, -0.298095703125, -16.179687500000, 39.078125000000, -6.515625000000, 1491883698
0.063964843750, -0.898437500000, -0.457519531250, -18.921875000000, 38.812500000000, -2.687500000000, 1491883698
0.063964843750, -0.898437500000, -0.457519531250, -18.921875000000, 38.812500000000, -2.687500000000, 1491883698
0.063964843750, -0.898437500000, -0.457519531250, -18.921875000000, 38.812500000000, -2.687500000000, 1491883698
0.063964843750, -0.898437500000, -0.457519531250, -18.921875000000, 38.812500000000, -2.687500000000, 1491883698
0.063964843750, -0.898437500000, -0.457519531250, -18.921875000000, 38.812500000000, -2.687500000000, 1491883698
0.141113281250, -0.807861328125, -0.401123046875, 2.570312500000, 26.640625000000, -3.539062500000, 1491883698
0.107666015625, -0.830078125000, -0.291992187500, 2.570312500000, 26.640625000000, -3.539062500000, 1491883698
0.107666015625, -0.830078125000, -0.291992187500, 2.570312500000, 26.640625000000, -3.539062500000, 1491883698
0.107666015625, -0.830078125000, -0.291992187500, 2.570312500000, 26.640625000000, -3.539062500000, 1491883698
0.051269531250, -0.840820312500, -0.231445312500, 6.375000000000, 7.031250000000, -4.054687500000, 1491883698
0.051269531250, -0.840820312500, -0.231445312500, 6.375000000000, 7.031250000000, -4.054687500000, 1491883698
0.051269531250, -0.840820312500, -0.231445312500, 6.375000000000, 7.031250000000, -4.054687500000, 1491883698
0.100585937500, -0.862060546875, -0.257080078125, -8.335937500000, 12.882812500000, 0.585937500000, 1491883698
0.100585937500, -0.862060546875, -0.257080078125, -8.335937500000, 12.882812500000, 0.585937500000, 1491883698
0.100585937500, -0.862060546875, -0.257080078125, -8.335937500000, 12.882812500000, 0.585937500000, 1491883698
0.135253906250, -0.913330078125, -0.305419921875, -16.328125000000, 0.234375000000, 4.476562500000, 1491883698
0.135253906250, -0.913330078125, -0.305419921875, -16.328125000000, 0.234375000000, 4.476562500000, 1491883698
0.135253906250, -0.913330078125, -0.305419921875, -16.328125000000, 0.234375000000, 4.476562500000, 1491883698
0.135253906250, -0.913330078125, -0.305419921875, -16.328125000000, 0.234375000000, 4.476562500000, 1491883698
0.149169921875, -1.046142578125, -0.391113281250, 4.218750000000, -11.890625000000, 5.914062500000, 1491883698
0.149169921875, -1.046142578125, -0.391113281250, 4.218750000000, -11.890625000000, 5.914062500000, 1491883698
0.149169921875, -1.046142578125, -0.391113281250, 4.218750000000, -11.890625000000, 5.914062500000, 1491883698
0.185546875000, -1.049072265625, -0.351806640625, 4.453125000000, -5.296875000000, 10.960937500000, 1491883698
0.185546875000, -1.049072265625, -0.351806640625, 4.453125000000, -5.296875000000, 10.960937500000, 1491883698
0.185546875000, -1.049072265625, -0.351806640625, 4.453125000000, -5.296875000000, 10.960937500000, 1491883698
0.230224609375, -1.035400390625, -0.334472656250, 9.507812500000, -14.046875000000, 5.132812500000, 1491883698
0.230224609375, -1.035400390625, -0.334472656250, 9.507812500000, -14.046875000000, 5.132812500000, 1491883698
0.313720703125, -0.810546875000, -0.165283203125, -1.359375000000, -26.023437500000, 9.773437500000, 1491883698
0.313720703125, -0.810546875000, -0.165283203125, -1.359375000000, -26.023437500000, 9.773437500000, 1491883698
0.313720703125, -0.810546875000, -0.165283203125, -1.359375000000, -26.023437500000, 9.773437500000, 1491883698
0.313720703125, -0.810546875000, -0.165283203125, -1.359375000000, -26.023437500000, 9.773437500000, 1491883698
0.313720703125, -0.810546875000, -0.165283203125, -1.359375000000, -26.023437500000, 9.773437500000, 1491883698
0.171386718750, -0.809814453125, -0.165771484375, -14.671875000000, -26.421875000000, 8.359375000000, 1491883698
0.171386718750, -0.809814453125, -0.165771484375, -14.671875000000, -26.421875000000, 8.359375000000, 1491883698
0.171386718750, -0.809814453125, -0.165771484375, -14.671875000000, -26.421875000000, 8.359375000000, 1491883698
0.183349609375, -0.868408203125, -0.256591796875, -8.953125000000, -31.929687500000, 1.148437500000, 1491883698
0.183349609375, -0.868408203125, -0.256591796875, -8.953125000000, -31.929687500000, 1.148437500000, 1491883698
0.183349609375, -0.868408203125, -0.256591796875, -8.953125000000, -31.929687500000, 1.148437500000, 1491883698
0.274169921875, -0.952148437500, -0.311523437500, -7.500000000000, -33.414062500000, -0.703125000000, 1491883698
0.189697265625, -0.932617187500, -0.256835937500, -14.304687500000, -27.843750000000, -2.875000000000, 1491883698
0.189697265625, -0.932617187500, -0.256835937500, -14.304687500000, -27.843750000000, -2.875000000000, 1491883698
0.189697265625, -0.932617187500, -0.256835937500, -14.304687500000, -27.843750000000, -2.875000000000, 1491883698
0.166015625000, -0.887207031250, -0.329833984375, -20.171875000000, -21.554687500000, -2.265625000000, 1491883698
0.166015625000, -0.887207031250, -0.329833984375, -20.171875000000, -21.554687500000, -2.265625000000, 1491883698
0.166015625000, -0.887207031250, -0.329833984375, -20.171875000000, -21.554687500000, -2.265625000000, 1491883698
0.166015625000, -0.887207031250, -0.329833984375, -20.171875000000, -21.554687500000, -2.265625000000, 1491883698
0.218750000000, -0.885742187500, -0.357177734375, -2.687500000000, -35.718750000000, -1.101562500000, 1491883698
0.218750000000, -0.885742187500, -0.357177734375, -2.687500000000, -35.718750000000, -1.101562500000, 1491883698
0.218750000000, -0.885742187500, -0.357177734375, -2.687500000000, -35.718750000000, -1.101562500000, 1491883698
0.218750000000, -0.885742187500, -0.357177734375, -2.687500000000, -35.718750000000, -1.101562500000, 1491883698
0.218750000000, -0.885742187500, -0.357177734375, -2.687500000000, -35.718750000000, -1.101562500000, 1491883698
0.116943359375, -0.854736328125, -0.323242187500, -3.906250000000, -20.250000000000, -5.726562500000, 1491883698
0.116943359375, -0.854736328125, -0.323242187500, -3.906250000000, -20.250000000000, -5.726562500000, 1491883698
0.116943359375, -0.854736328125, -0.323242187500, -3.906250000000, -20.250000000000, -5.726562500000, 1491883698
0.323730468750, -0.865478515625, -0.277343750000, -3.960937500000, -5.195312500000, -3.820312500000, 1491883698
0.323730468750, -0.865478515625, -0.277343750000, -3.960937500000, -5.195312500000, -3.820312500000, 1491883698
0.323730468750, -0.865478515625, -0.277343750000, -3.960937500000, -5.195312500000, -3.820312500000, 1491883698
0.323730468750, -0.865478515625, -0.277343750000, -3.960937500000, -5.195312500000, -3.820312500000, 1491883699
0.279296875000, -0.995605468750, -0.427246093750, -10.460937500000, 7.906250000000, -3.921875000000, 1491883699
0.279296875000, -0.995605468750, -0.427246093750, -10.460937500000, 7.906250000000, -3.921875000000, 1491883699
0.279296875000, -0.995605468750, -0.427246093750, -10.460937500000, 7.906250000000, -3.921875000000, 1491883699
0.055908203125, -1.131835937500, -0.523437500000, 15.093750000000, -6.500000000000, -9.281250000000, 1491883699
0.055908203125, -1.131835937500, -0.523437500000, 15.093750000000, -6.500000000000, -9.281250000000, 1491883699
0.055908203125, -1.131835937500, -0.523437500000, 15.093750000000, -6.500000000000, -9.281250000000, 1491883699
0.075439453125, -0.877929687500, -0.161865234375, 10.867187500000, 36.382812500000, -27.125000000000, 1491883699
0.075439453125, -0.877929687500, -0.161865234375, 10.867187500000, 36.382812500000, -27.125000000000, 1491883699
0.075439453125, -0.877929687500, -0.161865234375, 10.867187500000, 36.382812500000, -27.125000000000, 1491883699
-0.016357421875, -0.985839843750, -0.094482421875, 5.312500000000, 31.015625000000, -23.609375000000, 1491883699
-0.001708984375, -0.997558593750, -0.170654296875, -7.156250000000, 21.109375000000, -20.960937500000, 1491883699
-0.001708984375, -0.997558593750, -0.170654296875, -7.156250000000, 21.109375000000, -20.960937500000, 1491883699
-0.001708984375, -0.997558593750, -0.170654296875, -7.156250000000, 21.109375000000, -20.960937500000, 1491883699
-0.001708984375, -0.997558593750, -0.170654296875, -7.156250000000, 21.109375000000, -20.960937500000, 1491883699
0.153808593750, -0.943847656250, -0.187011718750, -22.781250000000, 31.617187500000, -17.593750000000, 1491883699
0.276367187500, -1.074218750000, -0.395263671875, -42.570312500000, 52.531250000000, -19.664062500000, 1491883699
0.276367187500, -1.074218750000, -0.395263671875, -42.570312500000, 52.531250000000, -19.664062500000, 1491883699
0.276367187500, -1.074218750000, -0.395263671875, -42.570312500000, 52.531250000000, -19.664062500000, 1491883699
0.276367187500, -1.074218750000, -0.395263671875, -42.570312500000, 52.531250000000, -19.664062500000, 1491883699
0.162353515625, -0.967285156250, -0.347900390625, -15.804687500000, 40.375000000000, -3.851562500000, 1491883699
0.162353515625, -0.967285156250, -0.347900390625, -15.804687500000, 40.375000000000, -3.851562500000, 1491883699
0.162353515625, -0.967285156250, -0.347900390625, -15.804687500000, 40.375000000000, -3.851562500000, 1491883699
0.064697265625, -0.853271484375, -0.375488281250, -2.914062500000, 25.164062500000, -6.054687500000, 1491883699
0.064697265625, -0.853271484375, -0.375488281250, -2.914062500000, 25.164062500000, -6.054687500000, 1491883699
0.064697265625, -0.853271484375, -0.375488281250, -2.914062500000, 25.164062500000, -6.054687500000, 1491883699
0.064697265625, -0.853271484375, -0.375488281250, -2.914062500000, 25.164062500000, -6.054687500000, 1491883699
0.153808593750, -0.868408203125, -0.294433593750, -2.820312500000, 21.656250000000, -5.007812500000, 1491883699
0.153808593750, -0.868408203125, -0.294433593750, -2.820312500000, 21.656250000000, -5.007812500000, 1491883699
0.153808593750, -0.868408203125, -0.294433593750, -2.820312500000, 21.656250000000, -5.007812500000, 1491883699
0.251953125000, -0.956298828125, -0.242919921875, -8.390625000000, 20.281250000000, -3.710937500000, 1491883699
0.251953125000, -0.956298828125, -0.242919921875, -8.390625000000, 20.281250000000, -3.710937500000, 1491883699
0.251953125000, -0.956298828125, -0.242919921875, -8.390625000000, 20.281250000000, -3.710937500000, 1491883699
0.061767578125, -0.869384765625, -0.276367187500, -7.226562500000, 12.414062500000, 1.562500000000, 1491883699
0.061767578125, -0.869384765625, -0.276367187500, -7.226562500000, 12.414062500000, 1.562500000000, 1491883699
0.061767578125, -0.869384765625, -0.276367187500, -7.226562500000, 12.414062500000, 1.562500000000, 1491883699
0.135498046875, -1.071777343750, -0.352050781250, -5.804687500000, 1.125000000000, 6.914062500000, 1491883699
0.135498046875, -1.071777343750, -0.352050781250, -5.804687500000, 1.125000000000, 6.914062500000, 1491883699
0.135498046875, -1.071777343750, -0.352050781250, -5.804687500000, 1.125000000000, 6.914062500000, 1491883699
0.135498046875, -1.071777343750, -0.352050781250, -5.804687500000, 1.125000000000, 6.914062500000, 1491883699
0.109863281250, -1.098388671875, -0.374267578125, -0.218750000000, -2.156250000000, 8.820312500000, 1491883699
0.109863281250, -1.098388671875, -0.374267578125, -0.218750000000, -2.156250000000, 8.820312500000, 1491883699
0.109863281250, -1.098388671875, -0.374267578125, -0.218750000000, -2.156250000000, 8.820312500000, 1491883699
0.313964843750, -1.069335937500, -0.356445312500, 13.718750000000, -13.281250000000, 9.156250000000, 1491883699
0.313964843750, -1.069335937500, -0.356445312500, 13.718750000000, -13.281250000000, 9.156250000000, 1491883699
0.313964843750, -1.069335937500, -0.356445312500, 13.718750000000, -13.281250000000, 9.156250000000, 1491883699
0.249267578125, -1.073730468750, -0.221679687500, 11.828125000000, -35.203125000000, 11.882812500000, 1491883699
0.249267578125, -1.073730468750, -0.221679687500, 11.828125000000, -35.203125000000, 11.882812500000, 1491883699
0.249267578125, -1.073730468750, -0.221679687500, 11.828125000000, -35.203125000000, 11.882812500000, 1491883699
0.255615234375, -0.902832031250, -0.186279296875, -9.382812500000, -22.085937500000, 8.765625000000, 1491883699
0.255615234375, -0.902832031250, -0.186279296875, -9.382812500000, -22.085937500000, 8.765625000000, 1491883699
0.255615234375, -0.902832031250, -0.186279296875, -9.382812500000, -22.085937500000, 8.765625000000, 1491883699
0.255615234375, -0.902832031250, -0.186279296875, -9.382812500000, -22.085937500000, 8.765625000000, 1491883699
0.097167968750, -0.898193359375, -0.235839843750, -13.640625000000, -32.835937500000, 4.164062500000, 1491883699
0.097167968750, -0.898193359375, -0.235839843750, -13.640625000000, -32.835937500000, 4.164062500000, 1491883699
0.097167968750, -0.898193359375, -0.235839843750, -13.640625000000, -32.835937500000, 4.164062500000, 1491883699
0.187500000000, -0.975830078125, -0.317626953125, -7.335937500000, -30.781250000000, -0.359375000000, 1491883699
0.187500000000, -0.975830078125, -0.317626953125, -7.335937500000, -30.781250000000, -0.359375000000, 1491883699
0.187500000000, -0.975830078125, -0.317626953125, -7.335937500000, -30.781250000000, -0.359375000000, 1491883699
0.373779296875, -0.873779296875, -0.274658203125, -4.210937500000, -32.695312500000, 1.632812500000, 1491883699
0.373779296875, -0.873779296875, -0.274658203125, -4.210937500000, -32.695312500000, 1.632812500000, 1491883699
0.373779296875, -0.873779296875, -0.274658203125, -4.210937500000, -32.695312500000, 1.632812500000, 1491883699
0.239501953125, -0.842529296875, -0.237304687500, -16.453125000000, -24.390625000000, 1.117187500000, 1491883699
0.239501953125, -0.842529296875, -0.237304687500, -16.453125000000, -24.390625000000, 1.117187500000, 1491883699
0.239501953125, -0.842529296875, -0.237304687500, -16.453125000000, -24.390625000000, 1.117187500000, 1491883699
0.239501953125, -0.842529296875, -0.237304687500, -16.453125000000, -24.390625000000, 1.117187500000, 1491883699
0.156494140625, -0.961425781250, -0.376464843750, -13.945312500000, -30.804687500000, 6.132812500000, 1491883700
0.156494140625, -0.961425781250, -0.376464843750, -13.945312500000, -30.804687500000, 6.132812500000, 1491883700
0.156494140625, -0.961425781250, -0.376464843750, -13.945312500000, -30.804687500000, 6.132812500000, 1491883700
0.107910156250, -0.851562500000, -0.341308593750, -14.218750000000, -24.898437500000, -0.320312500000, 1491883700
0.107910156250, -0.851562500000, -0.341308593750, -14.218750000000, -24.898437500000, -0.320312500000, 1491883700
0.105712890625, -0.901123046875, -0.287109375000, -6.804687500000, -18.195312500000, -4.789062500000, 1491883700
0.105712890625, -0.901123046875, -0.287109375000, -6.804687500000, -18.195312500000, -4.789062500000, 1491883700
0.105712890625, -0.901123046875, -0.287109375000, -6.804687500000, -18.195312500000, -4.789062500000, 1491883700
0.105712890625, -0.901123046875, -0.287109375000, -6.804687500000, -18.195312500000, -4.789062500000, 1491883700
0.181884765625, -0.922363281250, -0.399658203125, -10.953125000000, -4.882812500000, -3.945312500000, 1491883700
0.181884765625, -0.922363281250, -0.399658203125, -10.953125000000, -4.882812500000, -3.945312500000, 1491883700
0.181884765625, -0.922363281250, -0.399658203125, -10.953125000000, -4.882812500000, -3.945312500000, 1491883700
0.124023437500, -0.785400390625, -0.380615234375, -3.796875000000, 9.343750000000, -1.265625000000, 1491883700
0.124023437500, -0.785400390625, -0.380615234375, -3.796875000000, 9.343750000000, -1.265625000000, 1491883700
0.124023437500, -0.785400390625, -0.380615234375, -3.796875000000, 9.343750000000, -1.265625000000, 1491883700
0.124023437500, -0.785400390625, -0.380615234375, -3.796875000000, 9.343750000000, -1.265625000000, 1491883700
0.155517578125, -1.138916015625, -0.528564453125, 9.882812500000, -2.125000000000, -5.117187500000, 1491883700
0.155517578125, -1.138916015625, -0.528564453125, 9.882812500000, -2.125000000000, -5.117187500000, 1491883700
0.155517578125, -1.138916015625, -0.528564453125, 9.882812500000, -2.125000000000, -5.117187500000, 1491883700
0.041992187500, -1.028320312500, -0.334716796875, 18.828125000000, 19.117187500000, -11.640625000000, 1491883700
0.041992187500, -1.028320312500, -0.334716796875, 18.828125000000, 19.117187500000, -11.640625000000, 1491883700
0.041992187500, -1.028320312500, -0.334716796875, 18.828125000000, 19.117187500000, -11.640625000000, 1491883700
-0.003173828125, -0.806396484375, -0.167480468750, 9.562500000000, 43.765625000000, -18.445312500000, 1491883700
-0.003173828125, -0.806396484375, -0.167480468750, 9.562500000000, 43.765625000000, -18.445312500000, 1491883700
-0.003173828125, -0.806396484375, -0.167480468750, 9.562500000000, 43.765625000000, -18.445312500000, 1491883700
-0.003173828125, -0.806396484375, -0.167480468750, 9.562500000000, 43.765625000000, -18.445312500000, 1491883700
-0.005859375000, -0.961425781250, -0.196044921875, 4.687500000000, 37.476562500000, -18.000000000000, 1491883700
-0.005859375000, -0.961425781250, -0.196044921875, 4.687500000000, 37.476562500000, -18.000000000000, 1491883700
-0.005859375000, -0.961425781250, -0.196044921875, 4.687500000000, 37.476562500000, -18.000000000000, 1491883700
0.167724609375, -0.948974609375, -0.184082031250, -15.578125000000, 60.750000000000, -15.460937500000, 1491883700
0.167724609375, -0.948974609375, -0.184082031250, -15.578125000000, 60.750000000000, -15.460937500000, 1491883700
0.167724609375, -0.948974609375, -0.184082031250, -15.578125000000, 60.750000000000, -15.460937500000, 1491883700
0.164550781250, -1.017822265625, -0.259277343750, -15.226562500000, 48.125000000000, -7.343750000000, 1491883700
0.164550781250, -1.017822265625, -0.259277343750, -15.226562500000, 48.125000000000, -7.343750000000, 1491883700
0.164550781250, -1.017822265625, -0.259277343750, -15.226562500000, 48.125000000000, -7.343750000000, 1491883700
0.045166015625, -0.949951171875, -0.348632812500, -11.203125000000, 34.937500000000, -6.507812500000, 1491883700
0.045166015625, -0.949951171875, -0.348632812500, -11.203125000000, 34.937500000000, -6.507812500000, 1491883700
0.045166015625, -0.949951171875, -0.348632812500, -11.203125000000, 34.937500000000, -6.507812500000, 1491883700
0.045166015625, -0.949951171875, -0.348632812500, -11.203125000000, 34.937500000000, -6.507812500000, 1491883700
0.093994140625, -0.905517578125, -0.307861328125, 1.242187500000, 24.867187500000, -3.007812500000, 1491883700
0.093994140625, -0.905517578125, -0.307861328125, 1.242187500000, 24.867187500000, -3.007812500000, 1491883700
0.093994140625, -0.905517578125, -0.307861328125, 1.242187500000, 24.867187500000, -3.007812500000, 1491883700
0.125000000000, -0.872558593750, -0.271972656250, -3.304687500000, 9.500000000000, 2.609375000000, 1491883700
0.125000000000, -0.872558593750, -0.271972656250, -3.304687500000, 9.500000000000, 2.609375000000, 1491883700
0.125000000000, -0.872558593750, -0.271972656250, -3.304687500000, 9.500000000000, 2.609375000000, 1491883700
0.060791015625, -0.833251953125, -0.239257812500, -10.765625000000, 10.812500000000, 5.054687500000, 1491883700
0.060791015625, -0.833251953125, -0.239257812500, -10.765625000000, 10.812500000000, 5.054687500000, 1491883700
0.060791015625, -0.833251953125, -0.239257812500, -10.765625000000, 10.812500000000, 5.054687500000, 1491883700
0.104248046875, -1.011962890625, -0.394287109375, 5.429687500000, -4.796875000000, 7.304687500000, 1491883700
0.104248046875, -1.011962890625, -0.394287109375, 5.429687500000, -4.796875000000, 7.304687500000, 1491883700
0.104248046875, -1.011962890625, -0.394287109375, 5.429687500000, -4.796875000000, 7.304687500000, 1491883700
0.104248046875, -1.011962890625, -0.394287109375, 5.429687500000, -4.796875000000, 7.304687500000, 1491883700
0.229003906250, -1.058105468750, -0.284179687500, 15.703125000000, -12.625000000000, 9.757812500000, 1491883700
0.229003906250, -1.058105468750, -0.284179687500, 15.703125000000, -12.625000000000, 9.757812500000, 1491883700
0.229003906250, -1.058105468750, -0.284179687500, 15.703125000000, -12.625000000000, 9.757812500000, 1491883700
0.307128906250, -0.999023437500, -0.376953125000, 15.335937500000, -26.312500000000, 3.625000000000, 1491883700
0.307128906250, -0.999023437500, -0.376953125000, 15.335937500000, -26.312500000000, 3.625000000000, 1491883700
0.307128906250, -0.999023437500, -0.376953125000, 15.335937500000, -26.312500000000, 3.625000000000, 1491883700
0.400878906250, -0.936523437500, -0.278320312500, -12.179687500000, -16.148437500000, 7.507812500000, 1491883700
0.400878906250, -0.936523437500, -0.278320312500, -12.179687500000, -16.148437500000, 7.507812500000, 1491883700
0.400878906250, -0.936523437500, -0.278320312500, -12.179687500000, -16.148437500000, 7.507812500000, 1491883700
0.280517578125, -0.900390625000, -0.249511718750, 3.343750000000, -38.007812500000, 7.335937500000, 1491883700
0.280517578125, -0.900390625000, -0.249511718750, 3.343750000000, -38.007812500000, 7.335937500000, 1491883700
0.280517578125, -0.900390625000, -0.249511718750, 3.343750000000, -38.007812500000, 7.335937500000, 1491883700
0.280517578125, -0.900390625000, -0.249511718750, 3.343750000000, -38.007812500000, 7.335937500000, 1491883700
0.194824218750, -0.936767578125, -0.268066406250, -4.125000000000, -41.031250000000, 2.195312500000, 1491883700
0.194824218750, -0.936767578125, -0.268066406250, -4.125000000000, -41.031250000000, 2.195312500000, 1491883700
0.194824218750, -0.936767578125, -0.268066406250, -4.125000000000, -41.031250000000, 2.195312500000, 1491883701
0.230957031250, -1.002929687500, -0.285400390625, -18.734375000000, -30.195312500000, -1.546875000000, 1491883701
0.230957031250, -1.002929687500, -0.285400390625, -18.734375000000, -30.195312500000, -1.546875000000, 1491883701
0.230957031250, -1.002929687500, -0.285400390625, -18.734375000000, -30.195312500000, -1.546875000000, 1491883701
0.339599609375, -0.898925781250, -0.280517578125, -10.929687500000, -27.375000000000, -1.562500000000, 1491883701
0.339599609375, -0.898925781250, -0.280517578125, -10.929687500000, -27.375000000000, -1.562500000000, 1491883701
0.339599609375, -0.898925781250, -0.280517578125, -10.929687500000, -27.375000000000, -1.562500000000, 1491883701
0.294677734375, -0.724121093750, -0.275634765625, -14.617187500000, -42.750000000000, 0.617187500000, 1491883701
0.294677734375, -0.724121093750, -0.275634765625, -14.617187500000, -42.750000000000, 0.617187500000, 1491883701
0.294677734375, -0.724121093750, -0.275634765625, -14.617187500000, -42.750000000000, 0.617187500000, 1491883701
0.294677734375, -0.724121093750, -0.275634765625, -14.617187500000, -42.750000000000, 0.617187500000, 1491883701
0.168457031250, -0.808593750000, -0.369873046875, -18.937500000000, -36.812500000000, 0.000000000000, 1491883701
0.168457031250, -0.808593750000, -0.369873046875, -18.937500000000, -36.812500000000, 0.000000000000, 1491883701
0.168457031250, -0.808593750000, -0.369873046875, -18.937500000000, -36.812500000000, 0.000000000000, 1491883701
0.267333984375, -0.877685546875, -0.302001953125, -4.226562500000, -27.109375000000, -2.156250000000, 1491883701
0.267333984375, -0.877685546875, -0.302001953125, -4.226562500000, -27.109375000000, -2.156250000000, 1491883701
0.267333984375, -0.877685546875, -0.302001953125, -4.226562500000, -27.109375000000, -2.156250000000, 1491883701
0.262207031250, -0.897460937500, -0.357177734375, -0.867187500000, -16.460937500000, -8.867187500000, 1491883701
0.262207031250, -0.897460937500, -0.357177734375, -0.867187500000, -16.460937500000, -8.867187500000, 1491883701
0.262207031250, -0.897460937500, -0.357177734375, -0.867187500000, -16.460937500000, -8.867187500000, 1491883701
0.253173828125, -0.863769531250, -0.312255859375, -2.976562500000, 0.750000000000, -7.007812500000, 1491883701
0.253173828125, -0.863769531250, -0.312255859375, -2.976562500000, 0.750000000000, -7.007812500000, 1491883701
0.253173828125, -0.863769531250, -0.312255859375, -2.976562500000, 0.750000000000, -7.007812500000, 1491883701
0.253173828125, -0.863769531250, -0.312255859375, -2.976562500000, 0.750000000000, -7.007812500000, 1491883701
0.185791015625, -1.141357421875, -0.435058593750, -5.625000000000, 14.781250000000, -13.304687500000, 1491883701
0.185791015625, -1.141357421875, -0.435058593750, -5.625000000000, 14.781250000000, -13.304687500000, 1491883701
0.185791015625, -1.141357421875, -0.435058593750, -5.625000000000, 14.781250000000, -13.304687500000, 1491883701
0.125000000000, -1.045166015625, -0.432128906250, 15.351562500000, 14.500000000000, -11.554687500000, 1491883701
0.125000000000, -1.045166015625, -0.432128906250, 15.351562500000, 14.500000000000, -11.554687500000, 1491883701
0.125000000000, -1.045166015625, -0.432128906250, 15.351562500000, 14.500000000000, -11.554687500000, 1491883701
0.033691406250, -1.015136718750, -0.226806640625, 16.140625000000, 30.812500000000, -17.171875000000, 1491883701
0.033691406250, -1.015136718750, -0.226806640625, 16.140625000000, 30.812500000000, -17.171875000000, 1491883701
0.033691406250, -1.015136718750, -0.226806640625, 16.140625000000, 30.812500000000, -17.171875000000, 1491883701
0.036621093750, -0.889404296875, -0.204101562500, 4.804687500000, 37.679687500000, -17.335937500000, 1491883701
0.036621093750, -0.889404296875, -0.204101562500, 4.804687500000, 37.679687500000, -17.335937500000, 1491883701
0.036621093750, -0.889404296875, -0.204101562500, 4.804687500000, 37.679687500000, -17.335937500000, 1491883701
0.036621093750, -0.889404296875, -0.204101562500, 4.804687500000, 37.679687500000, -17.335937500000, 1491883701
0.006103515625, -0.919921875000, -0.192871093750, 4.554687500000, 27.539062500000, -15.218750000000, 1491883701
0.006103515625, -0.919921875000, -0.192871093750, 4.554687500000, 27.539062500000, -15.218750000000, 1491883701
0.006103515625, -0.919921875000, -0.192871093750, 4.554687500000, 27.539062500000, -15.218750000000, 1491883701
0.048339843750, -1.015625000000, -0.233642578125, -16.273437500000, 50.585937500000, -18.335937500000, 1491883701
0.048339843750, -1.015625000000, -0.233642578125, -16.273437500000, 50.585937500000, -18.335937500000, 1491883701
0.048339843750, -1.015625000000, -0.233642578125, -16.273437500000, 50.585937500000, -18.335937500000, 1491883701
0.100830078125, -0.850341796875, -0.328125000000, -17.453125000000, 53.687500000000, -19.898437500000, 1491883701
0.100830078125, -0.850341796875, -0.328125000000, -17.453125000000, 53.687500000000, -19.898437500000, 1491883701
0.100830078125, -0.850341796875, -0.328125000000, -17.453125000000, 53.687500000000, -19.898437500000, 1491883701
0.074462890625, -0.893554687500, -0.454345703125, -5.960937500000, 39.015625000000, -6.296875000000, 1491883701
0.074462890625, -0.893554687500, -0.454345703125, -5.960937500000, 39.015625000000, -6.296875000000, 1491883701
0.074462890625, -0.893554687500, -0.454345703125, -5.960937500000, 39.015625000000, -6.296875000000, 1491883701
0.074462890625, -0.893554687500, -0.454345703125, -5.960937500000, 39.015625000000, -6.296875000000, 1491883701
0.194091796875, -0.956054687500, -0.301513671875, 1.851562500000, 15.789062500000, -2.875000000000, 1491883701
0.194091796875, -0.956054687500, -0.301513671875, 1.851562500000, 15.789062500000, -2.875000000000, 1491883701
0.194091796875, -0.956054687500, -0.301513671875, 1.851562500000, 15.789062500000, -2.875000000000, 1491883701
0.095458984375, -0.945556640625, -0.318603515625, -8.296875000000, 16.289062500000, 2.296875000000, 1491883701
0.095458984375, -0.945556640625, -0.318603515625, -8.296875000000, 16.289062500000, 2.296875000000, 1491883701
0.095458984375, -0.945556640625, -0.318603515625, -8.296875000000, 16.289062500000, 2.296875000000, 1491883701
0.097900390625, -0.847167968750, -0.331542968750, -7.570312500000, 8.695312500000, 2.695312500000, 1491883701
0.097900390625, -0.847167968750, -0.331542968750, -7.570312500000, 8.695312500000, 2.695312500000, 1491883701
0.097900390625, -0.847167968750, -0.331542968750, -7.570312500000, 8.695312500000, 2.695312500000, 1491883701
0.126708984375, -0.924804687500, -0.270751953125, -2.781250000000, -15.031250000000, 14.117187500000, 1491883701
0.126708984375, -0.924804687500, -0.270751953125, -2.781250000000, -15.031250000000, 14.117187500000, 1491883701
0.126708984375, -0.924804687500, -0.270751953125, -2.781250000000, -15.031250000000, 14.117187500000, 1491883701
0.126708984375, -0.924804687500, -0.270751953125, -2.781250000000, -15.031250000000, 14.117187500000, 1491883701
0.217041015625, -1.207275390625, -0.465087890625, -14.718750000000, 0.609375000000, 7.773437500000, 1491883701
0.217041015625, -1.207275390625, -0.465087890625, -14.718750000000, 0.609375000000, 7.773437500000, 1491883701
0.217041015625, -1.207275390625, -0.465087890625, -14.718750000000, 0.609375000000, 7.773437500000, 1491883701
0.312744140625, -1.087158203125, -0.367431640625, 22.382812500000, -21.640625000000, 14.515625000000, 1491883701
0.312744140625, -1.087158203125, -0.367431640625, 22.382812500000, -21.640625000000, 14.515625000000, 1491883702
0.312744140625, -1.087158203125, -0.367431640625, 22.382812500000, -21.640625000000, 14.515625000000, 1491883702
0.184570312500, -1.016845703125, -0.243164062500, 12.492187500000, -28.960937500000, 18.218750000000, 1491883702
0.184570312500, -1.016845703125, -0.243164062500, 12.492187500000, -28.960937500000, 18.218750000000, 1491883702
0.184570312500, -1.016845703125, -0.243164062500, 12.492187500000, -28.960937500000, 18.218750000000, 1491883702
0.124755859375, -0.787841796875, -0.180419921875, -1.476562500000, -14.187500000000, 7.429687500000, 1491883702
0.124755859375, -0.787841796875, -0.180419921875, -1.476562500000, -14.187500000000, 7.429687500000, 1491883702
0.124755859375, -0.787841796875, -0.180419921875, -1.476562500000, -14.187500000000, 7.429687500000, 1491883702
0.124755859375, -0.787841796875, -0.180419921875, -1.476562500000, -14.187500000000, 7.429687500000, 1491883702
0.234375000000, -0.861572265625, -0.161376953125, 4.515625000000, -42.039062500000, 1.468750000000, 1491883702
0.234375000000, -0.861572265625, -0.161376953125, 4.515625000000, -42.039062500000, 1.468750000000, 1491883702
0.234375000000, -0.861572265625, -0.161376953125, 4.515625000000, -42.039062500000, 1.468750000000, 1491883702
0.289550781250, -1.000488281250, -0.278564453125, -17.867187500000, -26.265625000000, 4.593750000000, 1491883702
0.289550781250, -1.000488281250, -0.278564453125, -17.867187500000, -26.265625000000, 4.593750000000, 1491883702
0.289550781250, -1.000488281250, -0.278564453125, -17.867187500000, -26.265625000000, 4.593750000000, 1491883702
0.317871093750, -1.012939453125, -0.295166015625, -24.492187500000, -30.265625000000, 1.359375000000, 1491883702
0.317871093750, -1.012939453125, -0.295166015625, -24.492187500000, -30.265625000000, 1.359375000000, 1491883702
0.317871093750, -1.012939453125, -0.295166015625, -24.492187500000, -30.265625000000, 1.359375000000, 1491883702
0.182617187500, -0.798828125000, -0.390869140625, -16.039062500000, -30.992187500000, -5.023437500000, 1491883702
0.182617187500, -0.798828125000, -0.390869140625, -16.039062500000, -30.992187500000, -5.023437500000, 1491883702
0.182617187500, -0.798828125000, -0.390869140625, -16.039062500000, -30.992187500000, -5.023437500000, 1491883702
0.182617187500, -0.798828125000, -0.390869140625, -16.039062500000, -30.992187500000, -5.023437500000, 1491883702
0.053222656250, -0.805175781250, -0.305419921875, -3.546875000000, -47.484375000000, -8.703125000000, 1491883702
0.053222656250, -0.805175781250, -0.305419921875, -3.546875000000, -47.484375000000, -8.703125000000, 1491883702
0.053222656250, -0.805175781250, -0.305419921875, -3.546875000000, -47.484375000000, -8.703125000000, 1491883702
0.208984375000, -0.855468750000, -0.355957031250, -12.007812500000, -24.304687500000, -11.343750000000, 1491883702
0.208984375000, -0.855468750000, -0.355957031250, -12.007812500000, -24.304687500000, -11.343750000000, 1491883702
0.208984375000, -0.855468750000, -0.355957031250, -12.007812500000, -24.304687500000, -11.343750000000, 1491883702
0.278808593750, -0.856445312500, -0.345214843750, -3.984375000000, -18.945312500000, -7.992187500000, 1491883702
0.278808593750, -0.856445312500, -0.345214843750, -3.984375000000, -18.945312500000, -7.992187500000, 1491883702
0.278808593750, -0.856445312500, -0.345214843750, -3.984375000000, -18.945312500000, -7.992187500000, 1491883702
0.253417968750, -0.914550781250, -0.245605468750, -2.007812500000, -7.109375000000, -7.890625000000, 1491883702
0.253417968750, -0.914550781250, -0.245605468750, -2.007812500000, -7.109375000000, -7.890625000000, 1491883702
0.253417968750, -0.914550781250, -0.245605468750, -2.007812500000, -7.109375000000, -7.890625000000, 1491883702
0.216552734375, -1.085693359375, -0.461669921875, -17.195312500000, 21.898437500000, -13.601562500000, 1491883702
0.216552734375, -1.085693359375, -0.461669921875, -17.195312500000, 21.898437500000, -13.601562500000, 1491883702
0.216552734375, -1.085693359375, -0.461669921875, -17.195312500000, 21.898437500000, -13.601562500000, 1491883702
0.216552734375, -1.085693359375, -0.461669921875, -17.195312500000, 21.898437500000, -13.601562500000, 1491883702
0.171630859375, -0.996826171875, -0.406738281250, 10.992187500000, 12.554687500000, -10.656250000000, 1491883702
0.171630859375, -0.996826171875, -0.406738281250, 10.992187500000, 12.554687500000, -10.656250000000, 1491883702
0.171630859375, -0.996826171875, -0.406738281250, 10.992187500000, 12.554687500000, -10.656250000000, 1491883702
0.059814453125, -1.028564453125, -0.184326171875, 26.867187500000, 11.671875000000, -11.992187500000, 1491883702
0.059814453125, -1.028564453125, -0.184326171875, 26.867187500000, 11.671875000000, -11.992187500000, 1491883702
0.059814453125, -1.028564453125, -0.184326171875, 26.867187500000, 11.671875000000, -11.992187500000, 1491883702
0.021728515625, -0.744873046875, -0.174560546875, 0.625000000000, 33.046875000000, -3.109375000000, 1491883702
0.021728515625, -0.744873046875, -0.174560546875, 0.625000000000, 33.046875000000, -3.109375000000, 1491883702
0.021728515625, -0.744873046875, -0.174560546875, 0.625000000000, 33.046875000000, -3.109375000000, 1491883702
0.021728515625, -0.744873046875, -0.174560546875, 0.625000000000, 33.046875000000, -3.109375000000, 1491883702
-0.074462890625, -1.029296875000, -0.174072265625, 2.531250000000, 31.804687500000, -16.703125000000, 1491883702
-0.074462890625, -1.029296875000, -0.174072265625, 2.531250000000, 31.804687500000, -16.703125000000, 1491883702
-0.074462890625, -1.029296875000, -0.174072265625, 2.531250000000, 31.804687500000, -16.703125000000, 1491883702
0.093017578125, -0.931396484375, -0.322753906250, -5.843750000000, 44.429687500000, -19.929687500000, 1491883702
0.093017578125, -0.931396484375, -0.322753906250, -5.843750000000, 44.429687500000, -19.929687500000, 1491883702
0.093017578125, -0.931396484375, -0.322753906250, -5.843750000000, 44.429687500000, -19.929687500000, 1491883702
0.160888671875, -0.913085937500, -0.403564453125, -8.679687500000, 43.273437500000, -13.757812500000, 1491883702
0.160888671875, -0.913085937500, -0.403564453125, -8.679687500000, 43.273437500000, -13.757812500000, 1491883702
0.160888671875, -0.913085937500, -0.403564453125, -8.679687500000, 43.273437500000, -13.757812500000, 1491883702
0.046386718750, -0.943115234375, -0.454345703125, -13.625000000000, 42.882812500000, -6.414062500000, 1491883702
0.046386718750, -0.943115234375, -0.454345703125, -13.625000000000, 42.882812500000, -6.414062500000, 1491883702
0.046386718750, -0.943115234375, -0.454345703125, -13.625000000000, 42.882812500000, -6.414062500000, 1491883702
0.046386718750, -0.943115234375, -0.454345703125, -13.625000000000, 42.882812500000, -6.414062500000, 1491883702
0.088378906250, -0.943115234375, -0.442138671875, 8.921875000000, 22.960937500000, -5.710937500000, 1491883702
0.088378906250, -0.943115234375, -0.442138671875, 8.921875000000, 22.960937500000, -5.710937500000, 1491883702
0.088378906250, -0.943115234375, -0.442138671875, 8.921875000000, 22.960937500000, -5.710937500000, 1491883702
0.203369140625, -0.967285156250, -0.345214843750, 4.796875000000, 21.710937500000, -6.437500000000, 1491883702
0.203369140625, -0.967285156250, -0.345214843750, 4.796875000000, 21.710937500000, -6.437500000000, 1491883702
0.203369140625, -0.967285156250, -0.345214843750, 4.796875000000, 21.710937500000, -6.437500000000, 1491883703
0.085693359375, -0.747558593750, -0.392333984375, 1.406250000000, 6.164062500000, 5.187500000000, 1491883703
0.085693359375, -0.747558593750, -0.392333984375, 1.406250000000, 6.164062500000, 5.187500000000, 1491883703
0.085693359375, -0.747558593750, -0.392333984375, 1.406250000000, 6.164062500000, 5.187500000000, 1491883703
0.134033203125, -0.966552734375, -0.230957031250, -10.632812500000, -4.960937500000, 3.492187500000, 1491883703
0.134033203125, -0.966552734375, -0.230957031250, -10.632812500000, -4.960937500000, 3.492187500000, 1491883703
0.134033203125, -0.966552734375, -0.230957031250, -10.632812500000, -4.960937500000, 3.492187500000, 1491883703
0.134033203125, -0.966552734375, -0.230957031250, -10.632812500000, -4.960937500000, 3.492187500000, 1491883703
0.273437500000, -1.072021484375, -0.352294921875, -9.937500000000, -1.179687500000, -0.835937500000, 1491883703
0.273437500000, -1.072021484375, -0.352294921875, -9.937500000000, -1.179687500000, -0.835937500000, 1491883703
0.273437500000, -1.072021484375, -0.352294921875, -9.937500000000, -1.179687500000, -0.835937500000, 1491883703
0.338378906250, -1.021728515625, -0.424560546875, 15.695312500000, -14.828125000000, 13.820312500000, 1491883703
0.338378906250, -1.021728515625, -0.424560546875, 15.695312500000, -14.828125000000, 13.820312500000, 1491883703
0.338378906250, -1.021728515625, -0.424560546875, 15.695312500000, -14.828125000000, 13.820312500000, 1491883703
0.169189453125, -0.924316406250, -0.229003906250, 15.109375000000, -41.179687500000, 13.406250000000, 1491883703
0.169189453125, -0.924316406250, -0.229003906250, 15.109375000000, -41.179687500000, 13.406250000000, 1491883703
0.169189453125, -0.924316406250, -0.229003906250, 15.109375000000, -41.179687500000, 13.406250000000, 1491883703
0.229492187500, -0.811279296875, -0.171386718750, -11.039062500000, -22.695312500000, 9.250000000000, 1491883703
0.229492187500, -0.811279296875, -0.171386718750, -11.039062500000, -22.695312500000, 9.250000000000, 1491883703
0.229492187500, -0.811279296875, -0.171386718750, -11.039062500000, -22.695312500000, 9.250000000000, 1491883703
0.204101562500, -0.782470703125, -0.236572265625, -2.304687500000, -38.359375000000, 7.734375000000, 1491883703
0.204101562500, -0.782470703125, -0.236572265625, -2.304687500000, -38.359375000000, 7.734375000000, 1491883703
0.204101562500, -0.782470703125, -0.236572265625, -2.304687500000, -38.359375000000, 7.734375000000, 1491883703
0.204101562500, -0.782470703125, -0.236572265625, -2.304687500000, -38.359375000000, 7.734375000000, 1491883703
0.176025390625, -0.918212890625, -0.323242187500, -12.148437500000, -38.195312500000, 7.617187500000, 1491883703
0.176025390625, -0.918212890625, -0.323242187500, -12.148437500000, -38.195312500000, 7.617187500000, 1491883703
0.176025390625, -0.918212890625, -0.323242187500, -12.148437500000, -38.195312500000, 7.617187500000, 1491883703
0.232910156250, -0.952148437500, -0.244384765625, -13.531250000000, -21.328125000000, -1.250000000000, 1491883703
0.232910156250, -0.952148437500, -0.244384765625, -13.531250000000, -21.328125000000, -1.250000000000, 1491883703
0.232910156250, -0.952148437500, -0.244384765625, -13.531250000000, -21.328125000000, -1.250000000000, 1491883703
0.321533203125, -0.800537109375, -0.348388671875, -19.445312500000, -20.039062500000, -1.671875000000, 1491883703
0.321533203125, -0.800537109375, -0.348388671875, -19.445312500000, -20.039062500000, -1.671875000000, 1491883703
0.321533203125, -0.800537109375, -0.348388671875, -19.445312500000, -20.039062500000, -1.671875000000, 1491883703
0.321533203125, -0.800537109375, -0.348388671875, -19.445312500000, -20.039062500000, -1.671875000000, 1491883703
0.250976562500, -0.866210937500, -0.407714843750, -15.398437500000, -27.187500000000, 3.476562500000, 1491883703
0.250976562500, -0.866210937500, -0.407714843750, -15.398437500000, -27.187500000000, 3.476562500000, 1491883703
0.250976562500, -0.866210937500, -0.407714843750, -15.398437500000, -27.187500000000, 3.476562500000, 1491883703
0.119140625000, -0.948486328125, -0.393066406250, -4.070312500000, -31.453125000000, -1.570312500000, 1491883703
0.119140625000, -0.948486328125, -0.393066406250, -4.070312500000, -31.453125000000, -1.570312500000, 1491883703
0.119140625000, -0.948486328125, -0.393066406250, -4.070312500000, -31.453125000000, -1.570312500000, 1491883703
0.268066406250, -0.926025390625, -0.238769531250, -5.265625000000, -10.453125000000, -7.492187500000, 1491883703
0.268066406250, -0.926025390625, -0.238769531250, -5.265625000000, -10.453125000000, -7.492187500000, 1491883703
0.268066406250, -0.926025390625, -0.238769531250, -5.265625000000, -10.453125000000, -7.492187500000, 1491883703
0.251708984375, -1.132080078125, -0.434570312500, -4.398437500000, 7.820312500000, -9.570312500000, 1491883703
0.183593750000, -1.058349609375, -0.505126953125, 1.750000000000, 4.921875000000, -10.296875000000, 1491883703
0.183593750000, -1.058349609375, -0.505126953125, 1.750000000000, 4.921875000000, -10.296875000000, 1491883703
0.189208984375, -0.973632812500, -0.334472656250, 20.968750000000, 15.132812500000, -13.226562500000, 1491883703
0.189208984375, -0.973632812500, -0.334472656250, 20.968750000000, 15.132812500000, -13.226562500000, 1491883703
0.189208984375, -0.973632812500, -0.334472656250, 20.968750000000, 15.132812500000, -13.226562500000, 1491883703
0.189208984375, -0.973632812500, -0.334472656250, 20.968750000000, 15.132812500000, -13.226562500000, 1491883703
0.189208984375, -0.973632812500, -0.334472656250, 20.968750000000, 15.132812500000, -13.226562500000, 1491883703
0.189208984375, -0.973632812500, -0.334472656250, 20.968750000000, 15.132812500000, -13.226562500000, 1491883703
-0.023681640625, -0.850830078125, -0.254882812500, 12.726562500000, 34.031250000000, -22.671875000000, 1491883703
-0.023681640625, -0.850830078125, -0.254882812500, 12.726562500000, 34.031250000000, -22.671875000000, 1491883703
-0.023681640625, -0.850830078125, -0.254882812500, 12.726562500000, 34.031250000000, -22.671875000000, 1491883703
-0.023681640625, -0.850830078125, -0.254882812500, 12.726562500000, 34.031250000000, -22.671875000000, 1491883703
0.052490234375, -0.908935546875, -0.268310546875, -18.375000000000, 29.789062500000, -18.398437500000, 1491883703
0.052490234375, -0.908935546875, -0.268310546875, -18.375000000000, 29.789062500000, -18.398437500000, 1491883703
0.052490234375, -0.908935546875, -0.268310546875, -18.375000000000, 29.789062500000, -18.398437500000, 1491883703
0.052490234375, -0.908935546875, -0.268310546875, -18.375000000000, 29.789062500000, -18.398437500000, 1491883703
0.209472656250, -0.952148437500, -0.384277343750, -22.710937500000, 31.898437500000, -12.656250000000, 1491883703
0.209472656250, -0.952148437500, -0.384277343750, -22.710937500000, 31.898437500000, -12.656250000000, 1491883703
0.209472656250, -0.952148437500, -0.384277343750, -22.710937500000, 31.898437500000, -12.656250000000, 1491883703
0.214599609375, -0.975097656250, -0.282958984375, -3.367187500000, 36.070312500000, -3.367187500000, 1491883703
0.214599609375, -0.975097656250, -0.282958984375, -3.367187500000, 36.070312500000, -3.367187500000, 1491883703
0.214599609375, -0.975097656250, -0.282958984375, -3.367187500000, 36.070312500000, -3.367187500000, 1491883703
0.148925781250, -0.950195312500, -0.383789062500, -14.335937500000, 30.664062500000, -0.453125000000, 1491883703
0.148925781250, -0.950195312500, -0.383789062500, -14.335937500000, 30.664062500000, -0.453125000000, 1491883704
0.148925781250, -0.950195312500, -0.383789062500, -14.335937500000, 30.664062500000, -0.453125000000, 1491883704
0.135498046875, -0.799804687500, -0.405517578125, -1.125000000000, 24.164062500000, -6.546875000000, 1491883704
0.135498046875, -0.799804687500, -0.405517578125, -1.125000000000, 24.164062500000, -6.546875000000, 1491883704
0.135498046875, -0.799804687500, -0.405517578125, -1.125000000000, 24.164062500000, -6.546875000000, 1491883704
0.135498046875, -0.799804687500, -0.405517578125, -1.125000000000, 24.164062500000, -6.546875000000, 1491883704
0.155761718750, -0.834228515625, -0.376708984375, 8.132812500000, 7.398437500000, -4.742187500000, 1491883704
0.155761718750, -0.834228515625, -0.376708984375, 8.132812500000, 7.398437500000, -4.742187500000, 1491883704
0.155761718750, -0.834228515625, -0.376708984375, 8.132812500000, 7.398437500000, -4.742187500000, 1491883704
0.145507812500, -0.957763671875, -0.232421875000, -9.882812500000, 11.750000000000, 0.140625000000, 1491883704
0.145507812500, -0.957763671875, -0.232421875000, -9.882812500000, 11.750000000000, 0.140625000000, 1491883704
0.145507812500, -0.957763671875, -0.232421875000, -9.882812500000, 11.750000000000, 0.140625000000, 1491883704
0.134765625000, -0.967773437500, -0.353759765625, -9.546875000000, 4.328125000000, 4.492187500000, 1491883704
0.134765625000, -0.967773437500, -0.353759765625, -9.546875000000, 4.328125000000, 4.492187500000, 1491883704
0.134765625000, -0.967773437500, -0.353759765625, -9.546875000000, 4.328125000000, 4.492187500000, 1491883704
0.149658203125, -1.086181640625, -0.403320312500, 5.570312500000, -3.945312500000, -0.015625000000, 1491883704
0.149658203125, -1.086181640625, -0.403320312500, 5.570312500000, -3.945312500000, -0.015625000000, 1491883704
0.149658203125, -1.086181640625, -0.403320312500, 5.570312500000, -3.945312500000, -0.015625000000, 1491883704
0.149658203125, -1.086181640625, -0.403320312500, 5.570312500000, -3.945312500000, -0.015625000000, 1491883704
0.211914062500, -1.048583984375, -0.371093750000, 12.734375000000, -3.757812500000, 2.039062500000, 1491883704
0.211914062500, -1.048583984375, -0.371093750000, 12.734375000000, -3.757812500000, 2.039062500000, 1491883704
0.211914062500, -1.048583984375, -0.371093750000, 12.734375000000, -3.757812500000, 2.039062500000, 1491883704
0.252441406250, -1.024414062500, -0.347167968750, 11.250000000000, -13.953125000000, 6.070312500000, 1491883704
0.252441406250, -1.024414062500, -0.347167968750, 11.250000000000, -13.953125000000, 6.070312500000, 1491883704
0.252441406250, -1.024414062500, -0.347167968750, 11.250000000000, -13.953125000000, 6.070312500000, 1491883704
0.328613281250, -0.834228515625, -0.269042968750, 9.031250000000, -15.890625000000, 12.781250000000, 1491883704
0.328613281250, -0.834228515625, -0.269042968750, 9.031250000000, -15.890625000000, 12.781250000000, 1491883704
0.328613281250, -0.834228515625, -0.269042968750, 9.031250000000, -15.890625000000, 12.781250000000, 1491883704
0.219970703125, -0.885742187500, -0.189208984375, 0.632812500000, -31.625000000000, 18.312500000000, 1491883704
0.219970703125, -0.885742187500, -0.189208984375, 0.632812500000, -31.625000000000, 18.312500000000, 1491883704
0.219970703125, -0.885742187500, -0.189208984375, 0.632812500000, -31.625000000000, 18.312500000000, 1491883704
0.219970703125, -0.885742187500, -0.189208984375, 0.632812500000, -31.625000000000, 18.312500000000, 1491883704
0.280273437500, -0.989501953125, -0.328125000000, -37.734375000000, -7.328125000000, 1.601562500000, 1491883704
0.280273437500, -0.989501953125, -0.328125000000, -37.734375000000, -7.328125000000, 1.601562500000, 1491883704
0.280273437500, -0.989501953125, -0.328125000000, -37.734375000000, -7.328125000000, 1.601562500000, 1491883704
0.249267578125, -0.797363281250, -0.359375000000, -21.171875000000, -27.875000000000, -1.351562500000, 1491883704
0.249267578125, -0.797363281250, -0.359375000000, -21.171875000000, -27.875000000000, -1.351562500000, 1491883704
0.249267578125, -0.797363281250, -0.359375000000, -21.171875000000, -27.875000000000, -1.351562500000, 1491883704
0.230957031250, -0.884521484375, -0.329833984375, -7.789062500000, -37.359375000000, 2.140625000000, 1491883704
0.230957031250, -0.884521484375, -0.329833984375, -7.789062500000, -37.359375000000, 2.140625000000, 1491883704
0.230957031250, -0.884521484375, -0.329833984375, -7.789062500000, -37.359375000000, 2.140625000000, 1491883704
0.216552734375, -0.888671875000, -0.291992187500, -18.671875000000, -25.437500000000, 3.414062500000, 1491883704
0.216552734375, -0.888671875000, -0.291992187500, -18.671875000000, -25.437500000000, 3.414062500000, 1491883704
0.216552734375, -0.888671875000, -0.291992187500, -18.671875000000, -25.437500000000, 3.414062500000, 1491883704
0.216552734375, -0.888671875000, -0.291992187500, -18.671875000000, -25.437500000000, 3.414062500000, 1491883704
0.174072265625, -0.936035156250, -0.362060546875, -9.976562500000, -21.468750000000, 1.625000000000, 1491883704
0.174072265625, -0.936035156250, -0.362060546875, -9.976562500000, -21.468750000000, 1.625000000000, 1491883704
0.174072265625, -0.936035156250, -0.362060546875, -9.976562500000, -21.468750000000, 1.625000000000, 1491883704
0.191650390625, -0.932861328125, -0.282226562500, -4.914062500000, 7.875000000000, -7.382812500000, 1491883704
0.191650390625, -0.932861328125, -0.282226562500, -4.914062500000, 7.875000000000, -7.382812500000, 1491883704
0.191650390625, -0.932861328125, -0.282226562500, -4.914062500000, 7.875000000000, -7.382812500000, 1491883704
0.191650390625, -0.932861328125, -0.282226562500, -4.914062500000, 7.875000000000, -7.382812500000, 1491883704
0.118652343750, -1.148681640625, -0.490234375000, 11.218750000000, -0.757812500000, -11.906250000000, 1491883704
0.118652343750, -1.148681640625, -0.490234375000, 11.218750000000, -0.757812500000, -11.906250000000, 1491883704
0.118652343750, -1.148681640625, -0.490234375000, 11.218750000000, -0.757812500000, -11.906250000000, 1491883704
0.118652343750, -1.148681640625, -0.490234375000, 11.218750000000, -0.757812500000, -11.906250000000, 1491883704
0.118652343750, -1.148681640625, -0.490234375000, 11.218750000000, -0.757812500000, -11.906250000000, 1491883704
0.118652343750, -1.148681640625, -0.490234375000, 11.218750000000, -0.757812500000, -11.906250000000, 1491883704
0.195068359375, -1.021972656250, -0.331542968750, 25.718750000000, 2.414062500000, -12.148437500000, 1491883704
0.195068359375, -1.021972656250, -0.331542968750, 25.718750000000, 2.414062500000, -12.148437500000, 1491883704
0.195068359375, -1.021972656250, -0.331542968750, 25.718750000000, 2.414062500000, -12.148437500000, 1491883704
0.031250000000, -0.904785156250, -0.104980468750, 6.351562500000, 35.312500000000, -16.757812500000, 1491883704
0.031250000000, -0.904785156250, -0.104980468750, 6.351562500000, 35.312500000000, -16.757812500000, 1491883704
0.031250000000, -0.904785156250, -0.104980468750, 6.351562500000, 35.312500000000, -16.757812500000, 1491883704
0.066894531250, -0.865478515625, -0.183837890625, -16.484375000000, 38.054687500000, -15.664062500000, 1491883704
0.066894531250, -0.865478515625, -0.183837890625, -16.484375000000, 38.054687500000, -15.664062500000, 1491883704
0.066894531250, -0.865478515625, -0.183837890625, -16.484375000000, 38.054687500000, -15.664062500000, 1491883704
0.175781250000, -1.021240234375, -0.380615234375, -17.023437500000, 44.570312500000, -12.468750000000, 1491883705
0.175781250000, -1.021240234375, -0.380615234375, -17.023437500000, 44.570312500000, -12.468750000000, 1491883705
0.175781250000, -1.021240234375, -0.380615234375, -17.023437500000, 44.570312500000, -12.468750000000, 1491883705
0.175781250000, -1.021240234375, -0.380615234375, -17.023437500000, 44.570312500000, -12.468750000000, 1491883705
0.092041015625, -0.968750000000, -0.320800781250, -11.960937500000, 32.406250000000, -5.250000000000, 1491883705
0.092041015625, -0.968750000000, -0.320800781250, -11.960937500000, 32.406250000000, -5.250000000000, 1491883705
0.092041015625, -0.968750000000, -0.320800781250, -11.960937500000, 32.406250000000, -5.250000000000, 1491883705
0.092041015625, -0.968750000000, -0.320800781250, -11.960937500000, 32.406250000000, -5.250000000000, 1491883705
0.055175781250, -0.837158203125, -0.417480468750, -10.453125000000, 27.375000000000, -7.562500000000, 1491883705
0.055175781250, -0.837158203125, -0.417480468750, -10.453125000000, 27.375000000000, -7.562500000000, 1491883705
0.055175781250, -0.837158203125, -0.417480468750, -10.453125000000, 27.375000000000, -7.562500000000, 1491883705
0.055175781250, -0.837158203125, -0.417480468750, -10.453125000000, 27.375000000000, -7.562500000000, 1491883705
0.055175781250, -0.837158203125, -0.417480468750, -10.453125000000, 27.375000000000, -7.562500000000, 1491883705
0.163085937500, -0.802734375000, -0.376464843750, -1.375000000000, 5.039062500000, -8.453125000000, 1491883705
0.163085937500, -0.802734375000, -0.376464843750, -1.375000000000, 5.039062500000, -8.453125000000, 1491883705
0.163085937500, -0.802734375000, -0.376464843750, -1.375000000000, 5.039062500000, -8.453125000000, 1491883705
0.163085937500, -0.802734375000, -0.376464843750, -1.375000000000, 5.039062500000, -8.453125000000, 1491883705
0.191894531250, -0.867675781250, -0.302001953125, -7.710937500000, 8.195312500000, 4.390625000000, 1491883705
0.191894531250, -0.867675781250, -0.302001953125, -7.710937500000, 8.195312500000, 4.390625000000, 1491883705
0.191894531250, -0.867675781250, -0.302001953125, -7.710937500000, 8.195312500000, 4.390625000000, 1491883705
-0.005371093750, -0.960205078125, -0.332763671875, -11.484375000000, -2.531250000000, 3.687500000000, 1491883705
-0.005371093750, -0.960205078125, -0.332763671875, -11.484375000000, -2.531250000000, 3.687500000000, 1491883705
-0.005371093750, -0.960205078125, -0.332763671875, -11.484375000000, -2.531250000000, 3.687500000000, 1491883705
0.190673828125, -0.982177734375, -0.363525390625, -3.171875000000, -8.359375000000, 3.796875000000, 1491883705
0.190673828125, -0.982177734375, -0.363525390625, -3.171875000000, -8.359375000000, 3.796875000000, 1491883705
0.190673828125, -0.982177734375, -0.363525390625, -3.171875000000, -8.359375000000, 3.796875000000, 1491883705
0.340087890625, -0.872558593750, -0.390869140625, 18.195312500000, -7.773437500000, 11.296875000000, 1491883705
0.340087890625, -0.872558593750, -0.390869140625, 18.195312500000, -7.773437500000, 11.296875000000, 1491883705
0.340087890625, -0.872558593750, -0.390869140625, 18.195312500000, -7.773437500000, 11.296875000000, 1491883705
0.340087890625, -0.872558593750, -0.390869140625, 18.195312500000, -7.773437500000, 11.296875000000, 1491883705
0.229980468750, -0.951904296875, -0.262451171875, 18.710937500000, -38.328125000000, 29.109375000000, 1491883705
0.229980468750, -0.951904296875, -0.262451171875, 18.710937500000, -38.328125000000, 29.109375000000, 1491883705
0.229980468750, -0.951904296875, -0.262451171875, 18.710937500000, -38.328125000000, 29.109375000000, 1491883705
0.175292968750, -0.954833984375, -0.225341796875, -6.320312500000, -16.390625000000, 15.664062500000, 1491883705
0.175292968750, -0.954833984375, -0.225341796875, -6.320312500000, -16.390625000000, 15.664062500000, 1491883705
0.175292968750, -0.954833984375, -0.225341796875, -6.320312500000, -16.390625000000, 15.664062500000, 1491883705
0.186279296875, -0.857666015625, -0.390625000000, -16.507812500000, -26.578125000000, 8.695312500000, 1491883705
0.186279296875, -0.857666015625, -0.390625000000, -16.507812500000, -26.578125000000, 8.695312500000, 1491883705
0.186279296875, -0.857666015625, -0.390625000000, -16.507812500000, -26.578125000000, 8.695312500000, 1491883705
0.244628906250, -0.960205078125, -0.243896484375, -10.828125000000, -25.171875000000, 4.148437500000, 1491883705
0.244628906250, -0.960205078125, -0.243896484375, -10.828125000000, -25.171875000000, 4.148437500000, 1491883705
0.244628906250, -0.960205078125, -0.243896484375, -10.828125000000, -25.171875000000, 4.148437500000, 1491883705
0.244628906250, -0.960205078125, -0.243896484375, -10.828125000000, -25.171875000000, 4.148437500000, 1491883705
0.255615234375, -0.959228515625, -0.269287109375, -12.953125000000, -28.710937500000, 1.562500000000, 1491883705
0.255615234375, -0.959228515625, -0.269287109375, -12.953125000000, -28.710937500000, 1.562500000000, 1491883705
0.255615234375, -0.959228515625, -0.269287109375, -12.953125000000, -28.710937500000, 1.562500000000, 1491883705
0.327148437500, -0.805419921875, -0.338378906250, -17.070312500000, -26.242187500000, 2.820312500000, 1491883705
0.327148437500, -0.805419921875, -0.338378906250, -17.070312500000, -26.242187500000, 2.820312500000, 1491883705
0.327148437500, -0.805419921875, -0.338378906250, -17.070312500000, -26.242187500000, 2.820312500000, 1491883705
0.223876953125, -0.893554687500, -0.317626953125, -18.703125000000, -26.507812500000, 4.578125000000, 1491883705
0.223876953125, -0.893554687500, -0.317626953125, -18.703125000000, -26.507812500000, 4.578125000000, 1491883705
0.185791015625, -0.788818359375, -0.345947265625, -14.789062500000, -19.031250000000, 3.234375000000, 1491883705
0.185791015625, -0.788818359375, -0.345947265625, -14.789062500000, -19.031250000000, 3.234375000000, 1491883705
0.185791015625, -0.788818359375, -0.345947265625, -14.789062500000, -19.031250000000, 3.234375000000, 1491883705
0.185791015625, -0.788818359375, -0.345947265625, -14.789062500000, -19.031250000000, 3.234375000000, 1491883705
0.264404296875, -0.865234375000, -0.241943359375, -2.945312500000, -9.398437500000, 1.679687500000, 1491883705
0.264404296875, -0.865234375000, -0.241943359375, -2.945312500000, -9.398437500000, 1.679687500000, 1491883705
0.264404296875, -0.865234375000, -0.241943359375, -2.945312500000, -9.398437500000, 1.679687500000, 1491883705
0.264404296875, -0.865234375000, -0.241943359375, -2.945312500000, -9.398437500000, 1.679687500000, 1491883705
0.269531250000, -0.803222656250, -0.329345703125, -7.929687500000, 2.281250000000, -6.773437500000, 1491883705
0.269531250000, -0.803222656250, -0.329345703125, -7.929687500000, 2.281250000000, -6.773437500000, 1491883705
0.269531250000, -0.803222656250, -0.329345703125, -7.929687500000, 2.281250000000, -6.773437500000, 1491883705
0.176269531250, -0.944824218750, -0.368652343750, -4.882812500000, 17.726562500000, -11.148437500000, 1491883705
0.176269531250, -0.944824218750, -0.368652343750, -4.882812500000, 17.726562500000, -11.148437500000, 1491883705
0.176269531250, -0.944824218750, -0.368652343750, -4.882812500000, 17.726562500000, -11.148437500000, 1491883705
0.203369140625, -0.986816406250, -0.451660156250, 36.632812500000, -2.054687500000, -23.796875000000, 1491883706
0.203369140625, -0.986816406250, -0.451660156250, 36.632812500000, -2.054687500000, -23.796875000000, 1491883706
0.203369140625, -0.986816406250, -0.451660156250, 36.632812500000, -2.054687500000, -23.796875000000, 1491883706
0.203369140625, -0.986816406250, -0.451660156250, 36.632812500000, -2.054687500000, -23.796875000000, 1491883706
0.113525390625, -0.954833984375, -0.270507812500, 21.835937500000, 33.765625000000, -26.593750000000, 1491883706
0.113525390625, -0.954833984375, -0.270507812500, 21.835937500000, 33.765625000000, -26.593750000000, 1491883706
0.113525390625, -0.954833984375, -0.270507812500, 21.835937500000, 33.765625000000, -26.593750000000, 1491883706
0.036621093750, -0.858398437500, -0.207031250000, 0.664062500000, 45.414062500000, -21.468750000000, 1491883706
0.036621093750, -0.858398437500, -0.207031250000, 0.664062500000, 45.414062500000, -21.468750000000, 1491883706
0.036621093750, -0.858398437500, -0.207031250000, 0.664062500000, 45.414062500000, -21.468750000000, 1491883706
0.145019531250, -0.921386718750, -0.269287109375, -5.320312500000, 38.070312500000, -24.867187500000, 1491883706
0.145019531250, -0.921386718750, -0.269287109375, -5.320312500000, 38.070312500000, -24.867187500000, 1491883706
0.145019531250, -0.921386718750, -0.269287109375, -5.320312500000, 38.070312500000, -24.867187500000, 1491883706
0.173583984375, -0.980712890625, -0.330322265625, -8.187500000000, 46.984375000000, -9.906250000000, 1491883706
0.173583984375, -0.980712890625, -0.330322265625, -8.187500000000, 46.984375000000, -9.906250000000, 1491883706
0.173583984375, -0.980712890625, -0.330322265625, -8.187500000000, 46.984375000000, -9.906250000000, 1491883706
0.173583984375, -0.980712890625, -0.330322265625, -8.187500000000, 46.984375000000, -9.906250000000, 1491883706
0.190673828125, -0.909423828125, -0.218750000000, -13.757812500000, 43.093750000000, -8.343750000000, 1491883706
0.190673828125, -0.909423828125, -0.218750000000, -13.757812500000, 43.093750000000, -8.343750000000, 1491883706
0.190673828125, -0.909423828125, -0.218750000000, -13.757812500000, 43.093750000000, -8.343750000000, 1491883706
0.200927734375, -0.921386718750, -0.459960937500, -17.359375000000, 40.093750000000, -1.460937500000, 1491883706
0.200927734375, -0.921386718750, -0.459960937500, -17.359375000000, 40.093750000000, -1.460937500000, 1491883706
0.200927734375, -0.921386718750, -0.459960937500, -17.359375000000, 40.093750000000, -1.460937500000, 1491883706
0.130859375000, -0.878662109375, -0.390625000000, 2.187500000000, 15.140625000000, -8.078125000000, 1491883706
0.130859375000, -0.878662109375, -0.390625000000, 2.187500000000, 15.140625000000, -8.078125000000, 1491883706
0.130859375000, -0.878662109375, -0.390625000000, 2.187500000000, 15.140625000000, -8.078125000000, 1491883706
0.098876953125, -0.863281250000, -0.237792968750, -7.390625000000, 9.523437500000, -7.484375000000, 1491883706
0.098876953125, -0.863281250000, -0.237792968750, -7.390625000000, 9.523437500000, -7.484375000000, 1491883706
0.098876953125, -0.863281250000, -0.237792968750, -7.390625000000, 9.523437500000, -7.484375000000, 1491883706
0.098876953125, -0.863281250000, -0.237792968750, -7.390625000000, 9.523437500000, -7.484375000000, 1491883706
0.188720703125, -0.881347656250, -0.382568359375, -13.914062500000, 3.710937500000, -1.218750000000, 1491883706
0.188720703125, -0.881347656250, -0.382568359375, -13.914062500000, 3.710937500000, -1.218750000000, 1491883706
0.188720703125, -0.881347656250, -0.382568359375, -13.914062500000, 3.710937500000, -1.218750000000, 1491883706
0.120361328125, -0.853027343750, -0.395507812500, -3.687500000000, -9.929687500000, 5.804687500000, 1491883706
0.120361328125, -0.853027343750, -0.395507812500, -3.687500000000, -9.929687500000, 5.804687500000, 1491883706
0.120361328125, -0.853027343750, -0.395507812500, -3.687500000000, -9.929687500000, 5.804687500000, 1491883706
0.052246093750, -1.064453125000, -0.294921875000, -13.648437500000, -10.390625000000, 8.000000000000, 1491883706
0.052246093750, -1.064453125000, -0.294921875000, -13.648437500000, -10.390625000000, 8.000000000000, 1491883706
0.052246093750, -1.064453125000, -0.294921875000, -13.648437500000, -10.390625000000, 8.000000000000, 1491883706
0.173583984375, -1.126953125000, -0.404541015625, 3.515625000000, -20.070312500000, 18.625000000000, 1491883706
0.173583984375, -1.126953125000, -0.404541015625, 3.515625000000, -20.070312500000, 18.625000000000, 1491883706
0.173583984375, -1.126953125000, -0.404541015625, 3.515625000000, -20.070312500000, 18.625000000000, 1491883706
0.173583984375, -1.126953125000, -0.404541015625, 3.515625000000, -20.070312500000, 18.625000000000, 1491883706
0.310302734375, -1.046386718750, -0.299316406250, 12.703125000000, -53.414062500000, 17.976562500000, 1491883706
0.310302734375, -1.046386718750, -0.299316406250, 12.703125000000, -53.414062500000, 17.976562500000, 1491883706
0.310302734375, -1.046386718750, -0.299316406250, 12.703125000000, -53.414062500000, 17.976562500000, 1491883706
0.246337890625, -0.853271484375, -0.176513671875, -1.914062500000, -31.875000000000, 17.265625000000, 1491883706
0.246337890625, -0.853271484375, -0.176513671875, -1.914062500000, -31.875000000000, 17.265625000000, 1491883706
0.246337890625, -0.853271484375, -0.176513671875, -1.914062500000, -31.875000000000, 17.265625000000, 1491883706
0.260253906250, -0.842529296875, -0.254150390625, -8.546875000000, -46.101562500000, 24.500000000000, 1491883706
0.260253906250, -0.842529296875, -0.254150390625, -8.546875000000, -46.101562500000, 24.500000000000, 1491883706
0.260253906250, -0.842529296875, -0.254150390625, -8.546875000000, -46.101562500000, 24.500000000000, 1491883706
0.166992187500, -0.925781250000, -0.312500000000, -9.289062500000, -52.265625000000, 5.304687500000, 1491883706
0.166992187500, -0.925781250000, -0.312500000000, -9.289062500000, -52.265625000000, 5.304687500000, 1491883706
0.166992187500, -0.925781250000, -0.312500000000, -9.289062500000, -52.265625000000, 5.304687500000, 1491883706
0.166992187500, -0.925781250000, -0.312500000000, -9.289062500000, -52.265625000000, 5.304687500000, 1491883706
0.295410156250, -0.933837890625, -0.314453125000, -11.179687500000, -45.164062500000, -4.734375000000, 1491883706
0.295410156250, -0.933837890625, -0.314453125000, -11.179687500000, -45.164062500000, -4.734375000000, 1491883706
0.295410156250, -0.933837890625, -0.314453125000, -11.179687500000, -45.164062500000, -4.734375000000, 1491883706
0.116943359375, -0.937255859375, -0.290771484375, -31.367187500000, -28.046875000000, -1.546875000000, 1491883706
0.116943359375, -0.937255859375, -0.290771484375, -31.367187500000, -28.046875000000, -1.546875000000, 1491883706
0.116943359375, -0.937255859375, -0.290771484375, -31.367187500000, -28.046875000000, -1.546875000000, 1491883706
0.116943359375, -0.741943359375, -0.509765625000, -26.929687500000, -15.734375000000, 4.648437500000, 1491883706
0.116943359375, -0.741943359375, -0.509765625000, -26.929687500000, -15.734375000000, 4.648437500000, 1491883706
0.116943359375, -0.741943359375, -0.509765625000, -26.929687500000, -15.734375000000, 4.648437500000, 1491883706
0.203613281250, -0.802734375000, -0.366455078125, 12.304687500000, -26.468750000000, -8.398437500000, 1491883706
0.203613281250, -0.802734375000, -0.366455078125, 12.304687500000, -26.468750000000, -8.398437500000, 1491883706
0.203613281250, -0.802734375000, -0.366455078125, 12.304687500000, -26.468750000000, -8.398437500000, 1491883706
0.203613281250, -0.802734375000, -0.366455078125, 12.304687500000, -26.468750000000, -8.398437500000, 1491883706
0.159667968750, -0.849609375000, -0.304687500000, -8.554687500000, 14.140625000000, -14.171875000000, 1491883707
0.159667968750, -0.849609375000, -0.304687500000, -8.554687500000, 14.140625000000, -14.171875000000, 1491883707
0.159667968750, -0.849609375000, -0.304687500000, -8.554687500000, 14.140625000000, -14.171875000000, 1491883707
0.246826171875, -0.821777343750, -0.354003906250, -1.085937500000, 10.757812500000, -10.859375000000, 1491883707
0.246826171875, -0.821777343750, -0.354003906250, -1.085937500000, 10.757812500000, -10.859375000000, 1491883707
0.246826171875, -0.821777343750, -0.354003906250, -1.085937500000, 10.757812500000, -10.859375000000, 1491883707
0.327636718750, -0.995849609375, -0.419433593750, 9.453125000000, 8.007812500000, -7.656250000000, 1491883707
0.327636718750, -0.995849609375, -0.419433593750, 9.453125000000, 8.007812500000, -7.656250000000, 1491883707
0.327636718750, -0.995849609375, -0.419433593750, 9.453125000000, 8.007812500000, -7.656250000000, 1491883707
0.061279296875, -1.038085937500, -0.394775390625, 25.484375000000, 15.171875000000, -11.500000000000, 1491883707
0.061279296875, -1.038085937500, -0.394775390625, 25.484375000000, 15.171875000000, -11.500000000000, 1491883707
0.061279296875, -1.038085937500, -0.394775390625, 25.484375000000, 15.171875000000, -11.500000000000, 1491883707
0.061279296875, -1.038085937500, -0.394775390625, 25.484375000000, 15.171875000000, -11.500000000000, 1491883707
-0.020507812500, -0.878906250000, -0.179931640625, 18.593750000000, 49.226562500000, -22.023437500000, 1491883707
-0.020507812500, -0.878906250000, -0.179931640625, 18.593750000000, 49.226562500000, -22.023437500000, 1491883707
-0.020507812500, -0.878906250000, -0.179931640625, 18.593750000000, 49.226562500000, -22.023437500000, 1491883707
0.071533203125, -0.901123046875, -0.157958984375, 5.257812500000, 45.335937500000, -26.234375000000, 1491883707
0.071533203125, -0.901123046875, -0.157958984375, 5.257812500000, 45.335937500000, -26.234375000000, 1491883707
0.071533203125, -0.901123046875, -0.157958984375, 5.257812500000, 45.335937500000, -26.234375000000, 1491883707
0.122070312500, -1.024169921875, -0.257080078125, -22.492187500000, 50.375000000000, -18.929687500000, 1491883707
0.122070312500, -1.024169921875, -0.257080078125, -22.492187500000, 50.375000000000, -18.929687500000, 1491883707
0.122070312500, -1.024169921875, -0.257080078125, -22.492187500000, 50.375000000000, -18.929687500000, 1491883707
0.275146484375, -1.000244140625, -0.385986328125, -16.351562500000, 57.812500000000, -13.117187500000, 1491883707
0.275146484375, -1.000244140625, -0.385986328125, -16.351562500000, 57.812500000000, -13.117187500000, 1491883707
0.275146484375, -1.000244140625, -0.385986328125, -16.351562500000, 57.812500000000, -13.117187500000, 1491883707
0.275146484375, -1.000244140625, -0.385986328125, -16.351562500000, 57.812500000000, -13.117187500000, 1491883707
0.046142578125, -0.865966796875, -0.366455078125, -9.437500000000, 36.960937500000, -6.617187500000, 1491883707
0.046142578125, -0.865966796875, -0.366455078125, -9.437500000000, 36.960937500000, -6.617187500000, 1491883707
0.046142578125, -0.865966796875, -0.366455078125, -9.437500000000, 36.960937500000, -6.617187500000, 1491883707
0.107177734375, -0.803466796875, -0.410400390625, -6.335937500000, 33.273437500000, -7.835937500000, 1491883707
0.107177734375, -0.803466796875, -0.410400390625, -6.335937500000, 33.273437500000, -7.835937500000, 1491883707
0.107177734375, -0.803466796875, -0.410400390625, -6.335937500000, 33.273437500000, -7.835937500000, 1491883707
0.212890625000, -0.827880859375, -0.331298828125, 10.234375000000, 7.125000000000, -7.218750000000, 1491883707
0.212890625000, -0.827880859375, -0.331298828125, 10.234375000000, 7.125000000000, -7.218750000000, 1491883707
0.212890625000, -0.827880859375, -0.331298828125, 10.234375000000, 7.125000000000, -7.218750000000, 1491883707
0.160644531250, -0.875976562500, -0.170410156250, -8.929687500000, -4.281250000000, 4.812500000000, 1491883707
0.160644531250, -0.875976562500, -0.170410156250, -8.929687500000, -4.281250000000, 4.812500000000, 1491883707
0.160644531250, -0.875976562500, -0.170410156250, -8.929687500000, -4.281250000000, 4.812500000000, 1491883707
0.160644531250, -0.875976562500, -0.170410156250, -8.929687500000, -4.281250000000, 4.812500000000, 1491883707
0.125976562500, -1.012939453125, -0.413574218750, -28.453125000000, 11.125000000000, 4.445312500000, 1491883707
0.125976562500, -1.012939453125, -0.413574218750, -28.453125000000, 11.125000000000, 4.445312500000, 1491883707
0.125976562500, -1.012939453125, -0.413574218750, -28.453125000000, 11.125000000000, 4.445312500000, 1491883707
0.160400390625, -0.995361328125, -0.442138671875, 15.406250000000, -28.296875000000, 13.234375000000, 1491883707
0.160400390625, -0.995361328125, -0.442138671875, 15.406250000000, -28.296875000000, 13.234375000000, 1491883707
0.160400390625, -0.995361328125, -0.442138671875, 15.406250000000, -28.296875000000, 13.234375000000, 1491883707
0.289306640625, -1.040771484375, -0.226562500000, 17.500000000000, -27.898437500000, 1.367187500000, 1491883707
0.289306640625, -1.040771484375, -0.226562500000, 17.500000000000, -27.898437500000, 1.367187500000, 1491883707
0.289306640625, -1.040771484375, -0.226562500000, 17.500000000000, -27.898437500000, 1.367187500000, 1491883707
0.334472656250, -0.924316406250, -0.186279296875, -9.750000000000, -25.296875000000, 11.476562500000, 1491883707
0.334472656250, -0.924316406250, -0.186279296875, -9.750000000000, -25.296875000000, 11.476562500000, 1491883707
0.334472656250, -0.924316406250, -0.186279296875, -9.750000000000, -25.296875000000, 11.476562500000, 1491883707
0.334472656250, -0.924316406250, -0.186279296875, -9.750000000000, -25.296875000000, 11.476562500000, 1491883707
0.323974609375, -0.860595703125, -0.275634765625, -20.718750000000, -19.554687500000, 9.054687500000, 1491883707
0.323974609375, -0.860595703125, -0.275634765625, -20.718750000000, -19.554687500000, 9.054687500000, 1491883707
0.323974609375, -0.860595703125, -0.275634765625, -20.718750000000, -19.554687500000, 9.054687500000, 1491883707
0.123535156250, -0.965087890625, -0.245117187500, -4.882812500000, -42.656250000000, 3.296875000000, 1491883707
0.123535156250, -0.965087890625, -0.245117187500, -4.882812500000, -42.656250000000, 3.296875000000, 1491883707
0.123535156250, -0.965087890625, -0.245117187500, -4.882812500000, -42.656250000000, 3.296875000000, 1491883707
0.274902343750, -0.860107421875, -0.326416015625, -9.171875000000, -28.390625000000, -9.882812500000, 1491883707
0.274902343750, -0.860107421875, -0.326416015625, -9.171875000000, -28.390625000000, -9.882812500000, 1491883707
0.274902343750, -0.860107421875, -0.326416015625, -9.171875000000, -28.390625000000, -9.882812500000, 1491883707
0.320068359375, -0.866210937500, -0.394042968750, -18.718750000000, -15.250000000000, -10.710937500000, 1491883707
0.320068359375, -0.866210937500, -0.394042968750, -18.718750000000, -15.250000000000, -10.710937500000, 1491883707
0.320068359375, -0.866210937500, -0.394042968750, -18.718750000000, -15.250000000000, -10.710937500000, 1491883707
0.320068359375, -0.866210937500, -0.394042968750, -18.718750000000, -15.250000000000, -10.710937500000, 1491883707
0.248291015625, -0.803466796875, -0.305908203125, -17.171875000000, -21.414062500000, -6.859375000000, 1491883707
0.248291015625, -0.803466796875, -0.305908203125, -17.171875000000, -21.414062500000, -6.859375000000, 1491883707
0.248291015625, -0.803466796875, -0.305908203125, -17.171875000000, -21.414062500000, -6.859375000000, 1491883708
0.116943359375, -0.879394531250, -0.289062500000, -10.695312500000, -27.632812500000, -2.429687500000, 1491883708
0.116943359375, -0.879394531250, -0.289062500000, -10.695312500000, -27.632812500000, -2.429687500000, 1491883708
0.116943359375, -0.879394531250, -0.289062500000, -10.695312500000, -27.632812500000, -2.429687500000, 1491883708
0.177246093750, -0.842285156250, -0.290527343750, -8.281250000000, -19.117187500000, 0.625000000000, 1491883708
0.177246093750, -0.842285156250, -0.290527343750, -8.281250000000, -19.117187500000, 0.625000000000, 1491883708
0.177246093750, -0.842285156250, -0.290527343750, -8.281250000000, -19.117187500000, 0.625000000000, 1491883708
0.223388671875, -0.929687500000, -0.236328125000, 0.554687500000, -7.890625000000, -3.929687500000, 1491883708
0.223388671875, -0.929687500000, -0.236328125000, 0.554687500000, -7.890625000000, -3.929687500000, 1491883708
0.223388671875, -0.929687500000, -0.236328125000, 0.554687500000, -7.890625000000, -3.929687500000, 1491883708
0.185546875000, -1.004150390625, -0.347900390625, 0.429687500000, -7.500000000000, -8.281250000000, 1491883708
0.218017578125, -1.113769531250, -0.432617187500, 6.039062500000, -8.328125000000, -8.945312500000, 1491883708
0.218017578125, -1.113769531250, -0.432617187500, 6.039062500000, -8.328125000000, -8.945312500000, 1491883708
0.218017578125, -1.113769531250, -0.432617187500, 6.039062500000, -8.328125000000, -8.945312500000, 1491883708
-0.083496093750, -0.979980468750, -0.234863281250, 16.742187500000, 28.398437500000, -15.703125000000, 1491883708
-0.141601562500, -0.908203125000, -0.161132812500, 10.476562500000, 36.312500000000, -24.515625000000, 1491883708
-0.141601562500, -0.908203125000, -0.161132812500, 10.476562500000, 36.312500000000, -24.515625000000, 1491883708
-0.141601562500, -0.908203125000, -0.161132812500, 10.476562500000, 36.312500000000, -24.515625000000, 1491883708
0.093750000000, -0.945312500000, -0.177001953125, 2.335937500000, 19.937500000000, -19.273437500000, 1491883708
0.093750000000, -0.945312500000, -0.177001953125, 2.335937500000, 19.937500000000, -19.273437500000, 1491883708
0.093750000000, -0.945312500000, -0.177001953125, 2.335937500000, 19.937500000000, -19.273437500000, 1491883708
0.093750000000, -0.945312500000, -0.177001953125, 2.335937500000, 19.937500000000, -19.273437500000, 1491883708
0.204589843750, -0.926757812500, -0.252929687500, -20.492187500000, 31.101562500000, -11.125000000000, 1491883708
0.204589843750, -0.926757812500, -0.252929687500, -20.492187500000, 31.101562500000, -11.125000000000, 1491883708
0.204589843750, -0.926757812500, -0.252929687500, -20.492187500000, 31.101562500000, -11.125000000000, 1491883708
0.204589843750, -0.926757812500, -0.252929687500, -20.492187500000, 31.101562500000, -11.125000000000, 1491883708
0.204589843750, -0.926757812500, -0.252929687500, -20.492187500000, 31.101562500000, -11.125000000000, 1491883708
0.176025390625, -1.068115234375, -0.375976562500, -26.515625000000, 36.882812500000, 2.710937500000, 1491883708
0.176025390625, -1.068115234375, -0.375976562500, -26.515625000000, 36.882812500000, 2.710937500000, 1491883708
0.176025390625, -1.068115234375, -0.375976562500, -26.515625000000, 36.882812500000, 2.710937500000, 1491883708
0.090820312500, -0.945800781250, -0.304931640625, -9.937500000000, 23.281250000000, 1.734375000000, 1491883708
0.090820312500, -0.945800781250, -0.304931640625, -9.937500000000, 23.281250000000, 1.734375000000, 1491883708
0.090820312500, -0.945800781250, -0.304931640625, -9.937500000000, 23.281250000000, 1.734375000000, 1491883708
0.081542968750, -0.803222656250, -0.297363281250, 8.968750000000, 11.085937500000, 0.367187500000, 1491883708
