ACC_X,ACC_Y,ACC_Z,G_X,G_Y,G_Z,Unix Time
0.317626953125, -0.948730468750, -0.051757812500, -5.320312500000, -7.843750000000, -4.695312500000, 1491882854
0.317626953125, -0.948730468750, -0.051757812500, -5.320312500000, -7.843750000000, -4.695312500000, 1491882854
0.317626953125, -0.948730468750, -0.051757812500, -5.320312500000, -7.843750000000, -4.695312500000, 1491882854
0.235351562500, -0.965820312500, -0.035400390625, -3.765625000000, -0.007812500000, -4.765625000000, 1491882854
0.235351562500, -0.965820312500, -0.035400390625, -3.765625000000, -0.007812500000, -4.765625000000, 1491882854
0.235351562500, -0.965820312500, -0.035400390625, -3.765625000000, -0.007812500000, -4.765625000000, 1491882854
0.235351562500, -0.965820312500, -0.035400390625, -3.765625000000, -0.007812500000, -4.765625000000, 1491882854
0.343261718750, -0.867431640625, -0.061035156250, -1.953125000000, 9.179687500000, -6.851562500000, 1491882854
0.343261718750, -0.867431640625, -0.061035156250, -1.953125000000, 9.179687500000, -6.851562500000, 1491882854
0.343261718750, -0.867431640625, -0.061035156250, -1.953125000000, 9.179687500000, -6.851562500000, 1491882854
0.320068359375, -0.909912109375, -0.043701171875, -8.226562500000, 4.148437500000, -1.742187500000, 1491882854
0.320068359375, -0.909912109375, -0.043701171875, -8.226562500000, 4.148437500000, -1.742187500000, 1491882854
0.320068359375, -0.909912109375, -0.043701171875, -8.226562500000, 4.148437500000, -1.742187500000, 1491882854
0.375976562500, -0.966308593750, -0.045410156250, -12.609375000000, -5.843750000000, -1.289062500000, 1491882854
0.375976562500, -0.966308593750, -0.045410156250, -12.609375000000, -5.843750000000, -1.289062500000, 1491882854
0.375976562500, -0.966308593750, -0.045410156250, -12.609375000000, -5.843750000000, -1.289062500000, 1491882854
0.291748046875, -0.950195312500, -0.154296875000, -9.132812500000, -2.710937500000, -3.281250000000, 1491882854
0.291748046875, -0.950195312500, -0.154296875000, -9.132812500000, -2.710937500000, -3.281250000000, 1491882854
0.291748046875, -0.950195312500, -0.154296875000, -9.132812500000, -2.710937500000, -3.281250000000, 1491882854
0.291748046875, -0.950195312500, -0.154296875000, -9.132812500000, -2.710937500000, -3.281250000000, 1491882854
0.191162109375, -0.953857421875, -0.031982421875, -5.320312500000, 4.242187500000, -4.265625000000, 1491882854
0.191162109375, -0.953857421875, -0.031982421875, -5.320312500000, 4.242187500000, -4.265625000000, 1491882854
0.191162109375, -0.953857421875, -0.031982421875, -5.320312500000, 4.242187500000, -4.265625000000, 1491882854
0.268798828125, -0.977050781250, -0.052978515625, -4.429687500000, 1.906250000000, -4.164062500000, 1491882854
0.268798828125, -0.977050781250, -0.052978515625, -4.429687500000, 1.906250000000, -4.164062500000, 1491882854
0.268798828125, -0.977050781250, -0.052978515625, -4.429687500000, 1.906250000000, -4.164062500000, 1491882854
0.380126953125, -0.919189453125, -0.194091796875, -1.296875000000, 1.976562500000, -6.539062500000, 1491882854
0.380126953125, -0.919189453125, -0.194091796875, -1.296875000000, 1.976562500000, -6.539062500000, 1491882854
0.380126953125, -0.919189453125, -0.194091796875, -1.296875000000, 1.976562500000, -6.539062500000, 1491882854
0.257812500000, -0.934570312500, -0.097656250000, -2.343750000000, -1.820312500000, -4.585937500000, 1491882854
0.257812500000, -0.934570312500, -0.097656250000, -2.343750000000, -1.820312500000, -4.585937500000, 1491882854
0.257812500000, -0.934570312500, -0.097656250000, -2.343750000000, -1.820312500000, -4.585937500000, 1491882854
0.257812500000, -0.934570312500, -0.097656250000, -2.343750000000, -1.820312500000, -4.585937500000, 1491882854
0.384521484375, -0.965087890625, -0.060791015625, -0.328125000000, -6.007812500000, 0.437500000000, 1491882854
0.384521484375, -0.965087890625, -0.060791015625, -0.328125000000, -6.007812500000, 0.437500000000, 1491882854
0.384521484375, -0.965087890625, -0.060791015625, -0.328125000000, -6.007812500000, 0.437500000000, 1491882854
0.230712890625, -0.960937500000, -0.195068359375, 1.476562500000, 0.210937500000, -4.781250000000, 1491882854
0.230712890625, -0.960937500000, -0.195068359375, 1.476562500000, 0.210937500000, -4.781250000000, 1491882854
0.230712890625, -0.960937500000, -0.195068359375, 1.476562500000, 0.210937500000, -4.781250000000, 1491882854
0.323974609375, -0.950927734375, -0.129150390625, 1.781250000000, 1.804687500000, -1.296875000000, 1491882854
0.323974609375, -0.950927734375, -0.129150390625, 1.781250000000, 1.804687500000, -1.296875000000, 1491882854
0.323974609375, -0.950927734375, -0.129150390625, 1.781250000000, 1.804687500000, -1.296875000000, 1491882854
0.311279296875, -0.924560546875, -0.052246093750, -0.046875000000, -4.960937500000, 0.046875000000, 1491882854
0.311279296875, -0.924560546875, -0.052246093750, -0.046875000000, -4.960937500000, 0.046875000000, 1491882854
0.311279296875, -0.924560546875, -0.052246093750, -0.046875000000, -4.960937500000, 0.046875000000, 1491882854
0.311279296875, -0.924560546875, -0.052246093750, -0.046875000000, -4.960937500000, 0.046875000000, 1491882854
0.305175781250, -1.020507812500, -0.056152343750, -2.507812500000, 0.046875000000, -3.210937500000, 1491882854
0.305175781250, -1.020507812500, -0.056152343750, -2.507812500000, 0.046875000000, -3.210937500000, 1491882854
0.301025390625, -0.934082031250, -0.077636718750, -1.601562500000, 2.695312500000, -3.039062500000, 1491882854
0.301025390625, -0.934082031250, -0.077636718750, -1.601562500000, 2.695312500000, -3.039062500000, 1491882854
0.301025390625, -0.934082031250, -0.077636718750, -1.601562500000, 2.695312500000, -3.039062500000, 1491882854
0.301025390625, -0.934082031250, -0.077636718750, -1.601562500000, 2.695312500000, -3.039062500000, 1491882854
0.323974609375, -0.909423828125, -0.035644531250, -4.085937500000, 2.531250000000, -4.648437500000, 1491882854
0.323974609375, -0.909423828125, -0.035644531250, -4.085937500000, 2.531250000000, -4.648437500000, 1491882854
0.331298828125, -0.965332031250, -0.067871093750, -6.203125000000, 1.312500000000, -5.882812500000, 1491882854
0.331298828125, -0.965332031250, -0.067871093750, -6.203125000000, 1.312500000000, -5.882812500000, 1491882854
0.331298828125, -0.965332031250, -0.067871093750, -6.203125000000, 1.312500000000, -5.882812500000, 1491882854
0.331298828125, -0.965332031250, -0.067871093750, -6.203125000000, 1.312500000000, -5.882812500000, 1491882854
0.331298828125, -0.965332031250, -0.067871093750, -6.203125000000, 1.312500000000, -5.882812500000, 1491882854
0.296875000000, -0.965087890625, -0.040527343750, -7.156250000000, 2.312500000000, -3.257812500000, 1491882854
0.296875000000, -0.965087890625, -0.040527343750, -7.156250000000, 2.312500000000, -3.257812500000, 1491882854
0.312744140625, -1.007568359375, -0.046630859375, -8.031250000000, -2.085937500000, -3.210937500000, 1491882854
0.325195312500, -0.959472656250, -0.049804687500, -10.289062500000, -0.335937500000, -4.335937500000, 1491882855
0.383544921875, -1.010009765625, -0.105957031250, -6.937500000000, 4.492187500000, -5.468750000000, 1491882855
0.383544921875, -1.010009765625, -0.105957031250, -6.937500000000, 4.492187500000, -5.468750000000, 1491882855
0.383544921875, -1.010009765625, -0.105957031250, -6.937500000000, 4.492187500000, -5.468750000000, 1491882855
0.383544921875, -1.010009765625, -0.105957031250, -6.937500000000, 4.492187500000, -5.468750000000, 1491882855
0.383544921875, -1.010009765625, -0.105957031250, -6.937500000000, 4.492187500000, -5.468750000000, 1491882855
0.392822265625, -1.006103515625, -0.123291015625, -5.117187500000, -2.460937500000, -3.164062500000, 1491882855
0.392822265625, -1.006103515625, -0.123291015625, -5.117187500000, -2.460937500000, -3.164062500000, 1491882855
0.392822265625, -1.006103515625, -0.123291015625, -5.117187500000, -2.460937500000, -3.164062500000, 1491882855
0.392822265625, -1.006103515625, -0.123291015625, -5.851562500000, -3.664062500000, -4.976562500000, 1491882855
0.224853515625, -1.023193359375, -0.061523437500, -5.648437500000, -5.687500000000, -3.062500000000, 1491882855
0.224853515625, -1.023193359375, -0.061523437500, -5.648437500000, -5.687500000000, -3.062500000000, 1491882855
0.339111328125, -0.911621093750, -0.103515625000, -3.875000000000, -1.429687500000, -2.945312500000, 1491882855
0.339111328125, -0.911621093750, -0.103515625000, -3.875000000000, -1.429687500000, -2.945312500000, 1491882855
0.339111328125, -0.911621093750, -0.103515625000, -3.875000000000, -1.429687500000, -2.945312500000, 1491882855
0.339111328125, -0.911621093750, -0.103515625000, -3.875000000000, -1.429687500000, -2.945312500000, 1491882855
0.247802734375, -1.072509765625, -0.058837890625, 0.882812500000, 2.945312500000, -2.859375000000, 1491882855
0.247802734375, -1.072509765625, -0.058837890625, 0.882812500000, 2.945312500000, -2.859375000000, 1491882855
0.238525390625, -0.870117187500, -0.144287109375, -0.015625000000, 1.742187500000, -4.070312500000, 1491882855
0.238525390625, -0.870117187500, -0.144287109375, -0.015625000000, 1.742187500000, -4.070312500000, 1491882855
0.238525390625, -0.870117187500, -0.144287109375, -0.015625000000, 1.742187500000, -4.070312500000, 1491882855
0.238525390625, -0.870117187500, -0.144287109375, -0.015625000000, 1.742187500000, -4.070312500000, 1491882855
0.238525390625, -0.870117187500, -0.144287109375, -0.015625000000, 1.742187500000, -4.070312500000, 1491882855
0.246337890625, -0.948486328125, -0.099853515625, 0.937500000000, -3.804687500000, -4.453125000000, 1491882855
0.246337890625, -0.948486328125, -0.099853515625, 0.937500000000, -3.804687500000, -4.453125000000, 1491882855
0.380371093750, -0.910888671875, -0.135498046875, -0.812500000000, -3.132812500000, -0.164062500000, 1491882855
0.380371093750, -0.910888671875, -0.135498046875, -0.812500000000, -3.132812500000, -0.164062500000, 1491882855
0.380371093750, -0.910888671875, -0.135498046875, -0.812500000000, -3.132812500000, -0.164062500000, 1491882855
0.290527343750, -0.957763671875, -0.138183593750, -0.554687500000, -1.914062500000, -2.664062500000, 1491882855
0.283691406250, -1.012939453125, -0.047851562500, -2.140625000000, -2.921875000000, 0.640625000000, 1491882855
0.283691406250, -1.012939453125, -0.047851562500, -2.140625000000, -2.921875000000, 0.640625000000, 1491882855
0.283691406250, -1.012939453125, -0.047851562500, -2.140625000000, -2.921875000000, 0.640625000000, 1491882855
0.282226562500, -0.853027343750, -0.060791015625, -1.007812500000, 2.609375000000, -0.945312500000, 1491882855
0.282226562500, -0.853027343750, -0.060791015625, -1.007812500000, 2.609375000000, -0.945312500000, 1491882855
0.282226562500, -1.069091796875, -0.083740234375, -3.023437500000, -2.703125000000, -2.195312500000, 1491882855
0.282226562500, -1.069091796875, -0.083740234375, -3.023437500000, -2.703125000000, -2.195312500000, 1491882855
0.282226562500, -1.069091796875, -0.083740234375, -3.023437500000, -2.703125000000, -2.195312500000, 1491882855
0.282226562500, -1.069091796875, -0.083740234375, -3.023437500000, -2.703125000000, -2.195312500000, 1491882855
0.282226562500, -1.069091796875, -0.083740234375, -3.023437500000, -2.703125000000, -2.195312500000, 1491882855
0.318603515625, -1.003417968750, -0.131835937500, -5.898437500000, -4.742187500000, -2.570312500000, 1491882855
0.318603515625, -1.003417968750, -0.131835937500, -5.898437500000, -4.742187500000, -2.570312500000, 1491882855
0.318603515625, -1.003417968750, -0.131835937500, -5.898437500000, -4.742187500000, -2.570312500000, 1491882855
0.404296875000, -1.089599609375, -0.067138671875, -6.320312500000, 0.585937500000, -2.671875000000, 1491882855
0.404296875000, -1.089599609375, -0.067138671875, -6.320312500000, 0.585937500000, -2.671875000000, 1491882855
0.404296875000, -1.089599609375, -0.067138671875, -6.320312500000, 0.585937500000, -2.671875000000, 1491882855
0.387451171875, -1.003662109375, -0.127685546875, -3.351562500000, 7.148437500000, 0.210937500000, 1491882855
0.387451171875, -1.003662109375, -0.127685546875, -3.351562500000, 7.148437500000, 0.210937500000, 1491882855
0.387451171875, -1.003662109375, -0.127685546875, -3.351562500000, 7.148437500000, 0.210937500000, 1491882855
0.387451171875, -1.003662109375, -0.127685546875, -3.351562500000, 7.148437500000, 0.210937500000, 1491882855
0.283691406250, -0.916748046875, -0.155029296875, -6.664062500000, 3.882812500000, 0.460937500000, 1491882855
0.283691406250, -0.916748046875, -0.155029296875, -6.664062500000, 3.882812500000, 0.460937500000, 1491882855
0.283691406250, -0.916748046875, -0.155029296875, -6.664062500000, 3.882812500000, 0.460937500000, 1491882855
0.386718750000, -1.019287109375, -0.073730468750, -7.539062500000, -1.875000000000, 2.328125000000, 1491882855
0.386718750000, -1.019287109375, -0.073730468750, -7.539062500000, -1.875000000000, 2.328125000000, 1491882855
0.386718750000, -1.019287109375, -0.073730468750, -7.539062500000, -1.875000000000, 2.328125000000, 1491882855
0.232177734375, -0.906494140625, -0.122070312500, -10.367187500000, -8.039062500000, 1.414062500000, 1491882855
0.232177734375, -0.906494140625, -0.122070312500, -10.367187500000, -8.039062500000, 1.414062500000, 1491882855
0.232177734375, -0.906494140625, -0.122070312500, -10.367187500000, -8.039062500000, 1.414062500000, 1491882855
0.326416015625, -0.945312500000, -0.057373046875, -6.421875000000, 3.148437500000, 0.101562500000, 1491882855
0.326416015625, -0.945312500000, -0.057373046875, -6.421875000000, 3.148437500000, 0.101562500000, 1491882855
0.326416015625, -0.945312500000, -0.057373046875, -6.421875000000, 3.148437500000, 0.101562500000, 1491882855
0.326416015625, -0.945312500000, -0.057373046875, -6.421875000000, 3.148437500000, 0.101562500000, 1491882855
0.357421875000, -0.947998046875, -0.057373046875, -2.843750000000, 6.859375000000, -4.015625000000, 1491882855
0.357421875000, -0.947998046875, -0.057373046875, -2.843750000000, 6.859375000000, -4.015625000000, 1491882855
0.357421875000, -0.947998046875, -0.057373046875, -2.843750000000, 6.859375000000, -4.015625000000, 1491882855
0.294189453125, -0.955810546875, -0.098144531250, -1.984375000000, 8.179687500000, -6.125000000000, 1491882855
0.294189453125, -0.955810546875, -0.098144531250, -1.984375000000, 8.179687500000, -6.125000000000, 1491882855
0.294189453125, -0.955810546875, -0.098144531250, -1.984375000000, 8.179687500000, -6.125000000000, 1491882855
0.291015625000, -0.935546875000, -0.133300781250, -4.171875000000, -1.375000000000, -2.890625000000, 1491882855
0.291015625000, -0.935546875000, -0.133300781250, -4.171875000000, -1.375000000000, -2.890625000000, 1491882855
0.291015625000, -0.935546875000, -0.133300781250, -4.171875000000, -1.375000000000, -2.890625000000, 1491882856
0.313964843750, -0.938964843750, -0.142089843750, -4.531250000000, -5.250000000000, -2.890625000000, 1491882856
0.313964843750, -0.938964843750, -0.142089843750, -4.531250000000, -5.250000000000, -2.890625000000, 1491882856
0.313964843750, -0.938964843750, -0.142089843750, -4.531250000000, -5.250000000000, -2.890625000000, 1491882856
0.313964843750, -0.938964843750, -0.142089843750, -4.531250000000, -5.250000000000, -2.890625000000, 1491882856
0.229492187500, -0.956787109375, -0.134521484375, -1.765625000000, -2.125000000000, -4.148437500000, 1491882856
0.229492187500, -0.956787109375, -0.134521484375, -1.765625000000, -2.125000000000, -4.148437500000, 1491882856
0.229492187500, -0.956787109375, -0.134521484375, -1.765625000000, -2.125000000000, -4.148437500000, 1491882856
0.310791015625, -0.931884765625, -0.042968750000, -2.640625000000, 1.234375000000, -4.578125000000, 1491882856
0.310791015625, -0.931884765625, -0.042968750000, -2.640625000000, 1.234375000000, -4.578125000000, 1491882856
0.310791015625, -0.931884765625, -0.042968750000, -2.640625000000, 1.234375000000, -4.578125000000, 1491882856
0.311279296875, -1.007568359375, -0.117919921875, -1.593750000000, 0.734375000000, -2.585937500000, 1491882856
0.311279296875, -1.007568359375, -0.117919921875, -1.593750000000, 0.734375000000, -2.585937500000, 1491882856
0.311279296875, -1.007568359375, -0.117919921875, -1.593750000000, 0.734375000000, -2.585937500000, 1491882856
0.384033203125, -0.942626953125, -0.087890625000, -4.781250000000, 0.976562500000, -1.703125000000, 1491882856
0.384033203125, -0.942626953125, -0.087890625000, -4.781250000000, 0.976562500000, -1.703125000000, 1491882856
0.384033203125, -0.942626953125, -0.087890625000, -4.781250000000, 0.976562500000, -1.703125000000, 1491882856
0.384033203125, -0.942626953125, -0.087890625000, -4.781250000000, 0.976562500000, -1.703125000000, 1491882856
0.302246093750, -0.957275390625, -0.051269531250, -1.921875000000, 0.976562500000, -1.062500000000, 1491882856
0.302246093750, -0.957275390625, -0.051269531250, -1.921875000000, 0.976562500000, -1.062500000000, 1491882856
0.302246093750, -0.957275390625, -0.051269531250, -1.921875000000, 0.976562500000, -1.062500000000, 1491882856
0.309326171875, -0.950683593750, -0.191406250000, -1.695312500000, -2.343750000000, -4.906250000000, 1491882856
0.309326171875, -0.950683593750, -0.191406250000, -1.695312500000, -2.343750000000, -4.906250000000, 1491882856
0.309326171875, -0.950683593750, -0.191406250000, -1.695312500000, -2.343750000000, -4.906250000000, 1491882856
0.352539062500, -0.919677734375, -0.048339843750, -1.101562500000, 0.320312500000, -1.164062500000, 1491882856
0.352539062500, -0.919677734375, -0.048339843750, -1.101562500000, 0.320312500000, -1.164062500000, 1491882856
0.352539062500, -0.919677734375, -0.048339843750, -1.101562500000, 0.320312500000, -1.164062500000, 1491882856
0.324218750000, -0.886962890625, -0.043457031250, -2.726562500000, 2.085937500000, -1.453125000000, 1491882856
0.324218750000, -0.886962890625, -0.043457031250, -2.726562500000, 2.085937500000, -1.453125000000, 1491882856
0.324218750000, -0.886962890625, -0.043457031250, -2.726562500000, 2.085937500000, -1.453125000000, 1491882856
0.324218750000, -0.886962890625, -0.043457031250, -2.726562500000, 2.085937500000, -1.453125000000, 1491882856
0.342041015625, -1.016601562500, -0.047851562500, -1.460937500000, 2.742187500000, -2.921875000000, 1491882856
0.342041015625, -1.016601562500, -0.047851562500, -1.460937500000, 2.742187500000, -2.921875000000, 1491882856
0.342041015625, -1.016601562500, -0.047851562500, -1.460937500000, 2.742187500000, -2.921875000000, 1491882856
0.314941406250, -0.918701171875, 0.011230468750, -1.750000000000, 2.312500000000, -3.007812500000, 1491882856
0.314941406250, -0.918701171875, 0.011230468750, -1.750000000000, 2.312500000000, -3.007812500000, 1491882856
0.314941406250, -0.918701171875, 0.011230468750, -1.750000000000, 2.312500000000, -3.007812500000, 1491882856
0.329589843750, -0.924316406250, -0.140380859375, -4.109375000000, 4.289062500000, -4.968750000000, 1491882856
0.329589843750, -0.924316406250, -0.140380859375, -4.109375000000, 4.289062500000, -4.968750000000, 1491882856
0.329589843750, -0.924316406250, -0.140380859375, -4.109375000000, 4.289062500000, -4.968750000000, 1491882856
0.445068359375, -1.028076171875, -0.149414062500, -3.242187500000, -0.625000000000, -6.937500000000, 1491882856
0.445068359375, -1.028076171875, -0.149414062500, -3.242187500000, -0.625000000000, -6.937500000000, 1491882856
0.445068359375, -1.028076171875, -0.149414062500, -3.242187500000, -0.625000000000, -6.937500000000, 1491882856
0.309082031250, -0.979003906250, -0.057373046875, -1.117187500000, 1.023437500000, -3.664062500000, 1491882856
0.309082031250, -0.979003906250, -0.057373046875, -1.117187500000, 1.023437500000, -3.664062500000, 1491882856
0.309082031250, -0.979003906250, -0.057373046875, -1.117187500000, 1.023437500000, -3.664062500000, 1491882856
0.354003906250, -1.025390625000, -0.061523437500, -4.835937500000, 2.085937500000, -4.750000000000, 1491882856
0.377929687500, -0.946533203125, -0.082031250000, -3.187500000000, -0.859375000000, -3.203125000000, 1491882856
0.340087890625, -0.941406250000, -0.102294921875, -3.492187500000, -3.328125000000, -2.546875000000, 1491882856
0.291992187500, -0.913574218750, -0.035156250000, -4.921875000000, -3.453125000000, -2.859375000000, 1491882856
0.291992187500, -0.913574218750, -0.035156250000, -4.921875000000, -3.453125000000, -2.859375000000, 1491882856
0.291992187500, -0.913574218750, -0.035156250000, -4.921875000000, -3.453125000000, -2.859375000000, 1491882856
0.291992187500, -0.913574218750, -0.035156250000, -4.921875000000, -3.453125000000, -2.859375000000, 1491882856
0.298583984375, -0.968505859375, -0.058593750000, -4.890625000000, -1.343750000000, -2.460937500000, 1491882856
0.298583984375, -0.968505859375, -0.058593750000, -4.890625000000, -1.343750000000, -2.460937500000, 1491882856
0.298583984375, -0.968505859375, -0.058593750000, -4.890625000000, -1.343750000000, -2.460937500000, 1491882856
0.298583984375, -0.968505859375, -0.058593750000, -4.890625000000, -1.343750000000, -2.460937500000, 1491882856
0.329833984375, -0.976074218750, -0.049072265625, 2.062500000000, -1.406250000000, -3.875000000000, 1491882856
0.329833984375, -0.976074218750, -0.049072265625, 2.062500000000, -1.406250000000, -3.875000000000, 1491882856
0.329833984375, -0.976074218750, -0.049072265625, 2.062500000000, -1.406250000000, -3.875000000000, 1491882856
0.491455078125, -0.945800781250, 0.013671875000, 24.898437500000, 23.523437500000, 21.140625000000, 1491882856
0.491455078125, -0.945800781250, 0.013671875000, 24.898437500000, 23.523437500000, 21.140625000000, 1491882856
0.491455078125, -0.945800781250, 0.013671875000, 24.898437500000, 23.523437500000, 21.140625000000, 1491882856
0.454589843750, -0.594238281250, 0.007080078125, 36.039062500000, 92.976562500000, 56.445312500000, 1491882856
0.454589843750, -0.594238281250, 0.007080078125, 36.039062500000, 92.976562500000, 56.445312500000, 1491882856
0.454589843750, -0.594238281250, 0.007080078125, 36.039062500000, 92.976562500000, 56.445312500000, 1491882856
0.171630859375, -0.492919921875, -0.068603515625, 10.148437500000, -137.617187500000, 74.367187500000, 1491882857
0.171630859375, -0.492919921875, -0.068603515625, 10.148437500000, -137.617187500000, 74.367187500000, 1491882857
0.171630859375, -0.492919921875, -0.068603515625, 10.148437500000, -137.617187500000, 74.367187500000, 1491882857
0.171630859375, -0.492919921875, -0.068603515625, 10.148437500000, -137.617187500000, 74.367187500000, 1491882857
0.304687500000, -0.881835937500, 0.075927734375, 46.648437500000, -42.664062500000, 27.351562500000, 1491882857
0.304687500000, -0.881835937500, 0.075927734375, 46.648437500000, -42.664062500000, 27.351562500000, 1491882857
0.304687500000, -0.881835937500, 0.075927734375, 46.648437500000, -42.664062500000, 27.351562500000, 1491882857
0.429931640625, -1.311523437500, -0.074707031250, 51.367187500000, -46.382812500000, -2.578125000000, 1491882857
0.429931640625, -1.311523437500, -0.074707031250, 51.367187500000, -46.382812500000, -2.578125000000, 1491882857
0.429931640625, -1.311523437500, -0.074707031250, 51.367187500000, -46.382812500000, -2.578125000000, 1491882857
0.563232421875, -1.277343750000, -0.044921875000, 44.812500000000, -38.718750000000, -4.304687500000, 1491882857
0.563232421875, -1.277343750000, -0.044921875000, 44.812500000000, -38.718750000000, -4.304687500000, 1491882857
0.563232421875, -1.277343750000, -0.044921875000, 44.812500000000, -38.718750000000, -4.304687500000, 1491882857
0.424804687500, -1.376953125000, -0.055664062500, 18.851562500000, 41.804687500000, -10.570312500000, 1491882857
0.424804687500, -1.376953125000, -0.055664062500, 18.851562500000, 41.804687500000, -10.570312500000, 1491882857
0.424804687500, -1.376953125000, -0.055664062500, 18.851562500000, 41.804687500000, -10.570312500000, 1491882857
0.424804687500, -1.376953125000, -0.055664062500, 18.851562500000, 41.804687500000, -10.570312500000, 1491882857
0.619873046875, -1.285400390625, -0.131103515625, -3.718750000000, 116.882812500000, -27.023437500000, 1491882857
0.619873046875, -1.285400390625, -0.131103515625, -3.718750000000, 116.882812500000, -27.023437500000, 1491882857
0.619873046875, -1.285400390625, -0.131103515625, -3.718750000000, 116.882812500000, -27.023437500000, 1491882857
0.493408203125, -1.324951171875, -0.105712890625, -37.085937500000, 143.195312500000, -35.898437500000, 1491882857
0.493408203125, -1.324951171875, -0.105712890625, -37.085937500000, 143.195312500000, -35.898437500000, 1491882857
0.493408203125, -1.324951171875, -0.105712890625, -37.085937500000, 143.195312500000, -35.898437500000, 1491882857
0.584960937500, -1.290771484375, -0.200683593750, -74.281250000000, 90.000000000000, -50.812500000000, 1491882857
0.584960937500, -1.290771484375, -0.200683593750, -74.281250000000, 90.000000000000, -50.812500000000, 1491882857
0.584960937500, -1.290771484375, -0.200683593750, -74.281250000000, 90.000000000000, -50.812500000000, 1491882857
0.495849609375, -1.158935546875, -0.118408203125, -108.015625000000, 11.601562500000, -37.890625000000, 1491882857
0.495849609375, -1.158935546875, -0.118408203125, -108.015625000000, 11.601562500000, -37.890625000000, 1491882857
0.495849609375, -1.158935546875, -0.118408203125, -108.015625000000, 11.601562500000, -37.890625000000, 1491882857
0.495849609375, -1.158935546875, -0.118408203125, -108.015625000000, 11.601562500000, -37.890625000000, 1491882857
0.540283203125, -1.222167968750, -0.166992187500, -109.968750000000, -2.812500000000, -28.460937500000, 1491882857
0.540283203125, -1.222167968750, -0.166992187500, -109.968750000000, -2.812500000000, -28.460937500000, 1491882857
0.540283203125, -1.222167968750, -0.166992187500, -109.968750000000, -2.812500000000, -28.460937500000, 1491882857
0.540283203125, -1.222167968750, -0.166992187500, -109.968750000000, -2.812500000000, -28.460937500000, 1491882857
0.488769531250, -1.039550781250, -0.095703125000, -111.828125000000, -3.757812500000, -22.062500000000, 1491882857
0.424316406250, -1.047363281250, -0.212402343750, -97.640625000000, -14.492187500000, -15.968750000000, 1491882857
0.424316406250, -1.047363281250, -0.212402343750, -97.640625000000, -14.492187500000, -15.968750000000, 1491882857
0.424316406250, -1.047363281250, -0.212402343750, -97.640625000000, -14.492187500000, -15.968750000000, 1491882857
0.424316406250, -1.047363281250, -0.212402343750, -97.640625000000, -14.492187500000, -15.968750000000, 1491882857
0.349609375000, -1.018066406250, -0.116210937500, -53.726562500000, -21.257812500000, 8.429687500000, 1491882857
0.349609375000, -1.018066406250, -0.116210937500, -53.726562500000, -21.257812500000, 8.429687500000, 1491882857
0.349609375000, -1.018066406250, -0.116210937500, -53.726562500000, -21.257812500000, 8.429687500000, 1491882857
0.349609375000, -1.018066406250, -0.116210937500, -53.726562500000, -21.257812500000, 8.429687500000, 1491882857
0.363037109375, -0.917480468750, -0.051025390625, -29.710937500000, -25.101562500000, 3.632812500000, 1491882857
0.363037109375, -0.917480468750, -0.051025390625, -29.710937500000, -25.101562500000, 3.632812500000, 1491882857
0.363037109375, -0.917480468750, -0.051025390625, -29.710937500000, -25.101562500000, 3.632812500000, 1491882857
0.364501953125, -0.888183593750, -0.159912109375, 3.593750000000, -10.695312500000, -6.281250000000, 1491882857
0.364501953125, -0.888183593750, -0.159912109375, 3.593750000000, -10.695312500000, -6.281250000000, 1491882857
0.364501953125, -0.888183593750, -0.159912109375, 3.593750000000, -10.695312500000, -6.281250000000, 1491882857
0.396728515625, -0.845703125000, -0.153076171875, 46.695312500000, -11.945312500000, -7.640625000000, 1491882857
0.396728515625, -0.845703125000, -0.153076171875, 46.695312500000, -11.945312500000, -7.640625000000, 1491882857
0.396728515625, -0.845703125000, -0.153076171875, 46.695312500000, -11.945312500000, -7.640625000000, 1491882857
0.396728515625, -0.845703125000, -0.153076171875, 46.695312500000, -11.945312500000, -7.640625000000, 1491882857
0.289306640625, -0.888916015625, -0.132080078125, 61.335937500000, -11.812500000000, -22.304687500000, 1491882857
0.289306640625, -0.888916015625, -0.132080078125, 61.335937500000, -11.812500000000, -22.304687500000, 1491882857
0.289306640625, -0.888916015625, -0.132080078125, 61.335937500000, -11.812500000000, -22.304687500000, 1491882857
0.118896484375, -0.795166015625, -0.036376953125, 91.296875000000, -42.414062500000, -6.703125000000, 1491882857
0.118896484375, -0.795166015625, -0.036376953125, 91.296875000000, -42.414062500000, -6.703125000000, 1491882857
0.118896484375, -0.795166015625, -0.036376953125, 91.296875000000, -42.414062500000, -6.703125000000, 1491882857
0.263671875000, -0.781005859375, 0.025634765625, 137.335937500000, -18.687500000000, 12.195312500000, 1491882857
0.263671875000, -0.781005859375, 0.025634765625, 137.335937500000, -18.687500000000, 12.195312500000, 1491882857
0.263671875000, -0.781005859375, 0.025634765625, 137.335937500000, -18.687500000000, 12.195312500000, 1491882857
0.193847656250, -1.203125000000, 1.487792968750, 253.992187500000, -256.000000000000, 0.765625000000, 1491882857
0.193847656250, -1.203125000000, 1.487792968750, 253.992187500000, -256.000000000000, 0.765625000000, 1491882857
0.193847656250, -1.203125000000, 1.487792968750, 253.992187500000, -256.000000000000, 0.765625000000, 1491882857
0.193847656250, -1.203125000000, 1.487792968750, 253.992187500000, -256.000000000000, 0.765625000000, 1491882857
0.421875000000, -0.516113281250, 0.556152343750, -248.203125000000, -12.148437500000, 51.546875000000, 1491882857
0.421875000000, -0.516113281250, 0.556152343750, -248.203125000000, -12.148437500000, 51.546875000000, 1491882858
0.421875000000, -0.516113281250, 0.556152343750, -248.203125000000, -12.148437500000, 51.546875000000, 1491882858
0.345947265625, -0.947753906250, -0.119628906250, -144.664062500000, 241.937500000000, 35.835937500000, 1491882858
0.345947265625, -0.947753906250, -0.119628906250, -144.664062500000, 241.937500000000, 35.835937500000, 1491882858
0.345947265625, -0.947753906250, -0.119628906250, -144.664062500000, 241.937500000000, 35.835937500000, 1491882858
0.199218750000, -0.769287109375, -0.206542968750, -83.593750000000, 118.351562500000, -61.406250000000, 1491882858
0.199218750000, -0.769287109375, -0.206542968750, -83.593750000000, 118.351562500000, -61.406250000000, 1491882858
0.199218750000, -0.769287109375, -0.206542968750, -83.593750000000, 118.351562500000, -61.406250000000, 1491882858
0.204345703125, -0.718261718750, -0.113769531250, -88.726562500000, -74.226562500000, 31.218750000000, 1491882858
0.204345703125, -0.718261718750, -0.113769531250, -88.726562500000, -74.226562500000, 31.218750000000, 1491882858
0.204345703125, -0.718261718750, -0.113769531250, -88.726562500000, -74.226562500000, 31.218750000000, 1491882858
0.204345703125, -0.718261718750, -0.113769531250, -88.726562500000, -74.226562500000, 31.218750000000, 1491882858
0.389160156250, -0.805664062500, -0.210205078125, -39.054687500000, -62.671875000000, 24.640625000000, 1491882858
0.389160156250, -0.805664062500, -0.210205078125, -39.054687500000, -62.671875000000, 24.640625000000, 1491882858
0.389160156250, -0.805664062500, -0.210205078125, -39.054687500000, -62.671875000000, 24.640625000000, 1491882858
0.275878906250, -0.832519531250, -0.057373046875, 60.726562500000, 47.765625000000, -22.554687500000, 1491882858
0.275878906250, -0.832519531250, -0.057373046875, 60.726562500000, 47.765625000000, -22.554687500000, 1491882858
0.275878906250, -0.832519531250, -0.057373046875, 60.726562500000, 47.765625000000, -22.554687500000, 1491882858
0.265380859375, -0.918701171875, -0.029052734375, 135.890625000000, 38.148437500000, -27.187500000000, 1491882858
0.265380859375, -0.918701171875, -0.029052734375, 135.890625000000, 38.148437500000, -27.187500000000, 1491882858
0.265380859375, -0.918701171875, -0.029052734375, 135.890625000000, 38.148437500000, -27.187500000000, 1491882858
0.541992187500, -0.952392578125, 0.968994140625, -145.171875000000, -137.132812500000, 24.156250000000, 1491882858
0.541992187500, -0.952392578125, 0.968994140625, -145.171875000000, -137.132812500000, 24.156250000000, 1491882858
0.541992187500, -0.952392578125, 0.968994140625, -145.171875000000, -137.132812500000, 24.156250000000, 1491882858
0.355712890625, -0.848876953125, 0.198730468750, -124.015625000000, 83.023437500000, 26.054687500000, 1491882858
0.355712890625, -0.848876953125, 0.198730468750, -124.015625000000, 83.023437500000, 26.054687500000, 1491882858
0.204833984375, -0.873046875000, -0.193603515625, 27.476562500000, 86.679687500000, -50.023437500000, 1491882858
0.204833984375, -0.873046875000, -0.193603515625, 27.476562500000, 86.679687500000, -50.023437500000, 1491882858
0.204833984375, -0.873046875000, -0.193603515625, 27.476562500000, 86.679687500000, -50.023437500000, 1491882858
0.204833984375, -0.873046875000, -0.193603515625, 27.476562500000, 86.679687500000, -50.023437500000, 1491882858
0.381347656250, -0.861083984375, 0.438720703125, -39.007812500000, -217.023437500000, 48.750000000000, 1491882858
0.381347656250, -0.861083984375, 0.438720703125, -39.007812500000, -217.023437500000, 48.750000000000, 1491882858
0.381347656250, -0.861083984375, 0.438720703125, -39.007812500000, -217.023437500000, 48.750000000000, 1491882858
0.381347656250, -0.861083984375, 0.438720703125, -39.007812500000, -217.023437500000, 48.750000000000, 1491882858
0.390869140625, -0.838134765625, 0.115966796875, -20.531250000000, 108.054687500000, -24.617187500000, 1491882858
0.390869140625, -0.838134765625, 0.115966796875, -20.531250000000, 108.054687500000, -24.617187500000, 1491882858
0.390869140625, -0.838134765625, 0.115966796875, -20.531250000000, 108.054687500000, -24.617187500000, 1491882858
0.390869140625, -0.838134765625, 0.115966796875, -20.531250000000, 108.054687500000, -24.617187500000, 1491882858
0.260986328125, -0.871337890625, 0.012451171875, 19.085937500000, 67.914062500000, -28.210937500000, 1491882858
0.260986328125, -0.871337890625, 0.012451171875, 19.085937500000, 67.914062500000, -28.210937500000, 1491882858
0.260986328125, -0.871337890625, 0.012451171875, 19.085937500000, 67.914062500000, -28.210937500000, 1491882858
0.450195312500, -0.937744140625, 0.204589843750, -28.851562500000, -94.460937500000, 21.992187500000, 1491882858
0.450195312500, -0.937744140625, 0.204589843750, -28.851562500000, -94.460937500000, 21.992187500000, 1491882858
0.450195312500, -0.937744140625, 0.204589843750, -28.851562500000, -94.460937500000, 21.992187500000, 1491882858
0.468505859375, -0.931152343750, 0.311767578125, -4.976562500000, 18.453125000000, -10.054687500000, 1491882858
0.468505859375, -0.931152343750, 0.311767578125, -4.976562500000, 18.453125000000, -10.054687500000, 1491882858
0.468505859375, -0.931152343750, 0.311767578125, -4.976562500000, 18.453125000000, -10.054687500000, 1491882858
0.269042968750, -0.872558593750, 0.189697265625, -4.125000000000, 24.093750000000, -8.875000000000, 1491882858
0.269042968750, -0.872558593750, 0.189697265625, -4.125000000000, 24.093750000000, -8.875000000000, 1491882858
0.269042968750, -0.872558593750, 0.189697265625, -4.125000000000, 24.093750000000, -8.875000000000, 1491882858
0.400146484375, -0.866210937500, 0.211425781250, -0.375000000000, -8.078125000000, -6.531250000000, 1491882858
0.400146484375, -0.866210937500, 0.211425781250, -0.375000000000, -8.078125000000, -6.531250000000, 1491882858
0.400146484375, -0.866210937500, 0.211425781250, -0.375000000000, -8.078125000000, -6.531250000000, 1491882858
0.400146484375, -0.866210937500, 0.211425781250, -0.375000000000, -8.078125000000, -6.531250000000, 1491882858
0.295166015625, -0.868408203125, 0.276367187500, -5.070312500000, 1.335937500000, -1.179687500000, 1491882858
0.295166015625, -0.868408203125, 0.276367187500, -5.070312500000, 1.335937500000, -1.179687500000, 1491882858
0.295166015625, -0.868408203125, 0.276367187500, -5.070312500000, 1.335937500000, -1.179687500000, 1491882858
0.397705078125, -0.872802734375, 0.177978515625, -2.289062500000, -1.765625000000, -4.226562500000, 1491882858
0.397705078125, -0.872802734375, 0.177978515625, -2.289062500000, -1.765625000000, -4.226562500000, 1491882858
0.397705078125, -0.872802734375, 0.177978515625, -2.289062500000, -1.765625000000, -4.226562500000, 1491882858
0.389648437500, -0.923339843750, 0.278808593750, -3.132812500000, -2.007812500000, -1.515625000000, 1491882858
0.389648437500, -0.923339843750, 0.278808593750, -3.132812500000, -2.007812500000, -1.515625000000, 1491882858
0.389648437500, -0.923339843750, 0.278808593750, -3.132812500000, -2.007812500000, -1.515625000000, 1491882858
0.241699218750, -0.909667968750, 0.162597656250, -3.578125000000, 1.453125000000, -4.742187500000, 1491882858
0.241699218750, -0.909667968750, 0.162597656250, -3.578125000000, 1.453125000000, -4.742187500000, 1491882858
0.347167968750, -1.003906250000, 0.213378906250, 2.476562500000, -4.445312500000, -2.492187500000, 1491882859
0.347167968750, -1.003906250000, 0.213378906250, 2.476562500000, -4.445312500000, -2.492187500000, 1491882859
0.347167968750, -1.003906250000, 0.213378906250, 2.476562500000, -4.445312500000, -2.492187500000, 1491882859
0.347167968750, -1.003906250000, 0.213378906250, 2.476562500000, -4.445312500000, -2.492187500000, 1491882859
0.347167968750, -1.003906250000, 0.213378906250, 2.476562500000, -4.445312500000, -2.492187500000, 1491882859
0.398925781250, -0.858642578125, 0.156738281250, 0.007812500000, -2.507812500000, -2.906250000000, 1491882859
0.398925781250, -0.858642578125, 0.156738281250, 0.007812500000, -2.507812500000, -2.906250000000, 1491882859
0.398925781250, -0.858642578125, 0.156738281250, 0.007812500000, -2.507812500000, -2.906250000000, 1491882859
0.382324218750, -0.915771484375, 0.275146484375, -0.578125000000, -8.750000000000, -6.273437500000, 1491882859
0.382324218750, -0.915771484375, 0.275146484375, -0.578125000000, -8.750000000000, -6.273437500000, 1491882859
0.382324218750, -0.915771484375, 0.275146484375, -0.578125000000, -8.750000000000, -6.273437500000, 1491882859
0.382324218750, -0.915771484375, 0.275146484375, -0.578125000000, -8.750000000000, -6.273437500000, 1491882859
0.446044921875, -0.959228515625, 0.182617187500, -2.796875000000, -3.625000000000, -1.445312500000, 1491882859
0.446044921875, -0.959228515625, 0.182617187500, -2.796875000000, -3.625000000000, -1.445312500000, 1491882859
0.446044921875, -0.959228515625, 0.182617187500, -2.796875000000, -3.625000000000, -1.445312500000, 1491882859
0.396484375000, -0.949707031250, 0.175292968750, -2.429687500000, -3.312500000000, -2.382812500000, 1491882859
0.396484375000, -0.949707031250, 0.175292968750, -2.429687500000, -3.312500000000, -2.382812500000, 1491882859
0.396484375000, -0.949707031250, 0.175292968750, -2.429687500000, -3.312500000000, -2.382812500000, 1491882859
0.387695312500, -0.958007812500, 0.169433593750, 0.242187500000, -7.882812500000, -4.375000000000, 1491882859
0.387695312500, -0.958007812500, 0.169433593750, 0.242187500000, -7.882812500000, -4.375000000000, 1491882859
0.387695312500, -0.958007812500, 0.169433593750, 0.242187500000, -7.882812500000, -4.375000000000, 1491882859
0.354003906250, -0.888916015625, 0.204101562500, -3.906250000000, -4.039062500000, -3.546875000000, 1491882859
0.354003906250, -0.888916015625, 0.204101562500, -3.906250000000, -4.039062500000, -3.546875000000, 1491882859
0.354003906250, -0.888916015625, 0.204101562500, -3.906250000000, -4.039062500000, -3.546875000000, 1491882859
0.354003906250, -0.888916015625, 0.204101562500, -3.906250000000, -4.039062500000, -3.546875000000, 1491882859
0.362060546875, -0.945800781250, 0.269287109375, 0.039062500000, -8.304687500000, -3.414062500000, 1491882859
0.362060546875, -0.945800781250, 0.269287109375, 0.039062500000, -8.304687500000, -3.414062500000, 1491882859
0.362060546875, -0.945800781250, 0.269287109375, 0.039062500000, -8.304687500000, -3.414062500000, 1491882859
0.396484375000, -0.873046875000, 0.162109375000, -4.421875000000, -1.476562500000, -4.117187500000, 1491882859
0.396484375000, -0.873046875000, 0.162109375000, -4.421875000000, -1.476562500000, -4.117187500000, 1491882859
0.396484375000, -0.873046875000, 0.162109375000, -4.421875000000, -1.476562500000, -4.117187500000, 1491882859
0.290771484375, -0.788818359375, 0.178466796875, 0.398437500000, -4.078125000000, -5.960937500000, 1491882859
0.290771484375, -0.788818359375, 0.178466796875, 0.398437500000, -4.078125000000, -5.960937500000, 1491882859
0.290771484375, -0.788818359375, 0.178466796875, 0.398437500000, -4.078125000000, -5.960937500000, 1491882859
0.358886718750, -0.856445312500, 0.180419921875, -4.882812500000, -0.960937500000, -3.250000000000, 1491882859
0.358886718750, -0.856445312500, 0.180419921875, -4.882812500000, -0.960937500000, -3.250000000000, 1491882859
0.358886718750, -0.856445312500, 0.180419921875, -4.882812500000, -0.960937500000, -3.250000000000, 1491882859
0.358886718750, -0.856445312500, 0.180419921875, -4.882812500000, -0.960937500000, -3.250000000000, 1491882859
0.393310546875, -0.860107421875, 0.218017578125, -3.429687500000, 2.523437500000, -3.609375000000, 1491882859
0.393310546875, -0.860107421875, 0.218017578125, -3.429687500000, 2.523437500000, -3.609375000000, 1491882859
0.393310546875, -0.860107421875, 0.218017578125, -3.429687500000, 2.523437500000, -3.609375000000, 1491882859
0.368408203125, -0.922851562500, 0.182861328125, -1.867187500000, -2.765625000000, -3.453125000000, 1491882859
0.368408203125, -0.922851562500, 0.182861328125, -1.867187500000, -2.765625000000, -3.453125000000, 1491882859
0.368408203125, -0.922851562500, 0.182861328125, -1.867187500000, -2.765625000000, -3.453125000000, 1491882859
0.390380859375, -0.985595703125, 0.154541015625, -6.445312500000, 2.250000000000, -3.796875000000, 1491882859
0.390380859375, -0.985595703125, 0.154541015625, -6.445312500000, 2.250000000000, -3.796875000000, 1491882859
0.390380859375, -0.985595703125, 0.154541015625, -6.445312500000, 2.250000000000, -3.796875000000, 1491882859
0.394531250000, -0.873535156250, 0.195068359375, -1.867187500000, 0.718750000000, -3.328125000000, 1491882859
0.394531250000, -0.873535156250, 0.195068359375, -1.867187500000, 0.718750000000, -3.328125000000, 1491882859
0.394531250000, -0.873535156250, 0.195068359375, -1.867187500000, 0.718750000000, -3.328125000000, 1491882859
0.394531250000, -0.873535156250, 0.195068359375, -1.867187500000, 0.718750000000, -3.328125000000, 1491882859
0.302734375000, -1.023193359375, 0.176269531250, -4.328125000000, -0.570312500000, -1.218750000000, 1491882859
0.302734375000, -1.023193359375, 0.176269531250, -4.328125000000, -0.570312500000, -1.218750000000, 1491882859
0.302734375000, -1.023193359375, 0.176269531250, -4.328125000000, -0.570312500000, -1.218750000000, 1491882859
0.284179687500, -0.906494140625, 0.201416015625, 0.343750000000, -0.296875000000, -1.125000000000, 1491882859
0.284179687500, -0.906494140625, 0.201416015625, 0.343750000000, -0.296875000000, -1.125000000000, 1491882859
0.284179687500, -0.906494140625, 0.201416015625, 0.343750000000, -0.296875000000, -1.125000000000, 1491882859
0.230957031250, -0.951171875000, 0.207519531250, -3.851562500000, 0.687500000000, -4.429687500000, 1491882859
0.230957031250, -0.951171875000, 0.207519531250, -3.851562500000, 0.687500000000, -4.429687500000, 1491882859
0.230957031250, -0.951171875000, 0.207519531250, -3.851562500000, 0.687500000000, -4.429687500000, 1491882859
0.465576171875, -0.946289062500, 0.251708984375, -3.781250000000, 0.265625000000, -6.210937500000, 1491882859
0.465576171875, -0.946289062500, 0.251708984375, -3.781250000000, 0.265625000000, -6.210937500000, 1491882859
0.465576171875, -0.946289062500, 0.251708984375, -3.781250000000, 0.265625000000, -6.210937500000, 1491882859
0.465576171875, -0.946289062500, 0.251708984375, -3.781250000000, 0.265625000000, -6.210937500000, 1491882859
0.229003906250, -1.025390625000, 0.204589843750, -6.078125000000, 0.257812500000, -5.406250000000, 1491882859
0.229003906250, -1.025390625000, 0.204589843750, -6.078125000000, 0.257812500000, -5.406250000000, 1491882859
0.229003906250, -1.025390625000, 0.204589843750, -6.078125000000, 0.257812500000, -5.406250000000, 1491882859
0.442871093750, -0.960449218750, 0.161621093750, -1.781250000000, -1.000000000000, -5.460937500000, 1491882859
0.442871093750, -0.960449218750, 0.161621093750, -1.781250000000, -1.000000000000, -5.460937500000, 1491882859
0.289794921875, -0.888183593750, 0.196777343750, -4.750000000000, -0.382812500000, -4.460937500000, 1491882860
0.289794921875, -0.888183593750, 0.196777343750, -4.750000000000, -0.382812500000, -4.460937500000, 1491882860
0.289794921875, -0.888183593750, 0.196777343750, -4.750000000000, -0.382812500000, -4.460937500000, 1491882860
0.289794921875, -0.941894531250, 0.107177734375, -1.976562500000, 4.593750000000, -4.304687500000, 1491882860
0.338867187500, -0.949462890625, 0.118408203125, -1.976562500000, 4.593750000000, -4.304687500000, 1491882860
0.338867187500, -0.949462890625, 0.118408203125, -1.976562500000, 4.593750000000, -4.304687500000, 1491882860
0.338867187500, -0.949462890625, 0.118408203125, -1.976562500000, 4.593750000000, -4.304687500000, 1491882860
0.238769531250, -0.890380859375, 0.176025390625, -1.171875000000, 2.585937500000, 0.062500000000, 1491882860
0.293212890625, -0.850097656250, 0.197265625000, -4.757812500000, -4.351562500000, -5.492187500000, 1491882860
0.293212890625, -0.850097656250, 0.197265625000, -4.757812500000, -4.351562500000, -5.492187500000, 1491882860
0.293212890625, -0.850097656250, 0.197265625000, -4.757812500000, -4.351562500000, -5.492187500000, 1491882860
0.443359375000, -0.807373046875, 0.161132812500, -3.804687500000, -0.585937500000, -1.375000000000, 1491882860
0.443359375000, -0.807373046875, 0.161132812500, -3.804687500000, -0.585937500000, -1.375000000000, 1491882860
0.443359375000, -0.807373046875, 0.161132812500, -3.804687500000, -0.585937500000, -1.375000000000, 1491882860
0.391601562500, -0.905273437500, 0.250732421875, -3.781250000000, -4.789062500000, -2.945312500000, 1491882860
0.391601562500, -0.905273437500, 0.250732421875, -3.781250000000, -4.789062500000, -2.945312500000, 1491882860
0.391601562500, -0.905273437500, 0.250732421875, -3.781250000000, -4.789062500000, -2.945312500000, 1491882860
0.309326171875, -0.884033203125, 0.179687500000, -6.515625000000, -1.804687500000, -4.328125000000, 1491882860
0.309326171875, -0.884033203125, 0.179687500000, -6.515625000000, -1.804687500000, -4.328125000000, 1491882860
0.309326171875, -0.884033203125, 0.179687500000, -6.515625000000, -1.804687500000, -4.328125000000, 1491882860
0.309326171875, -0.884033203125, 0.179687500000, -6.515625000000, -1.804687500000, -4.328125000000, 1491882860
0.438964843750, -0.896972656250, 0.101806640625, -3.632812500000, 0.765625000000, -4.070312500000, 1491882860
0.438964843750, -0.896972656250, 0.101806640625, -3.632812500000, 0.765625000000, -4.070312500000, 1491882860
0.384033203125, -0.931396484375, 0.165039062500, -1.484375000000, -1.343750000000, -1.468750000000, 1491882860
