ACC_X,ACC_Y,ACC_Z,G_X,G_Y,G_Z,Unix Time
0.047119140625, -1.048583984375, 0.171142578125, -3.078125000000, -4.382812500000, 2.101562500000, 1491882919
0.047119140625, -1.048583984375, 0.171142578125, -3.078125000000, -4.382812500000, 2.101562500000, 1491882919
0.047119140625, -1.048583984375, 0.171142578125, -3.078125000000, -4.382812500000, 2.101562500000, 1491882919
0.125000000000, -0.985839843750, 0.152343750000, -6.640625000000, -2.437500000000, 0.421875000000, 1491882919
0.125000000000, -0.985839843750, 0.152343750000, -6.640625000000, -2.437500000000, 0.421875000000, 1491882919
0.125000000000, -0.985839843750, 0.152343750000, -6.640625000000, -2.437500000000, 0.421875000000, 1491882919
0.121582031250, -1.030273437500, 0.202880859375, -8.375000000000, -2.156250000000, -2.234375000000, 1491882919
0.121582031250, -1.030273437500, 0.202880859375, -8.375000000000, -2.156250000000, -2.234375000000, 1491882919
0.121582031250, -1.030273437500, 0.202880859375, -8.375000000000, -2.156250000000, -2.234375000000, 1491882919
0.128417968750, -1.018554687500, 0.160644531250, -10.367187500000, 4.523437500000, 0.562500000000, 1491882919
0.128417968750, -1.018554687500, 0.160644531250, -10.367187500000, 4.523437500000, 0.562500000000, 1491882919
0.128417968750, -1.018554687500, 0.160644531250, -10.367187500000, 4.523437500000, 0.562500000000, 1491882919
0.128417968750, -1.018554687500, 0.160644531250, -10.367187500000, 4.523437500000, 0.562500000000, 1491882919
0.106445312500, -0.990234375000, 0.157226562500, -7.679687500000, 1.640625000000, -2.304687500000, 1491882919
0.106445312500, -0.990234375000, 0.157226562500, -7.679687500000, 1.640625000000, -2.304687500000, 1491882919
0.133544921875, -0.921630859375, 0.189453125000, -3.968750000000, 3.656250000000, -4.695312500000, 1491882919
0.115234375000, -0.917724609375, 0.197509765625, -1.992187500000, 6.390625000000, -3.507812500000, 1491882919
0.115234375000, -0.917724609375, 0.197509765625, -1.992187500000, 6.390625000000, -3.507812500000, 1491882919
0.115234375000, -0.917724609375, 0.197509765625, -1.992187500000, 6.390625000000, -3.507812500000, 1491882919
0.051269531250, -0.962890625000, 0.112548828125, -1.406250000000, 7.093750000000, -4.750000000000, 1491882919
0.051269531250, -0.962890625000, 0.112548828125, -1.406250000000, 7.093750000000, -4.750000000000, 1491882919
0.051269531250, -0.962890625000, 0.112548828125, -1.406250000000, 7.093750000000, -4.750000000000, 1491882919
0.100097656250, -0.946289062500, 0.251220703125, -3.023437500000, 1.492187500000, -6.796875000000, 1491882919
0.141357421875, -1.028808593750, 0.176269531250, -1.210937500000, -0.289062500000, -3.976562500000, 1491882919
0.141357421875, -1.028808593750, 0.176269531250, -1.210937500000, -0.289062500000, -3.976562500000, 1491882919
0.141357421875, -1.028808593750, 0.176269531250, -1.210937500000, -0.289062500000, -3.976562500000, 1491882919
0.141357421875, -1.028808593750, 0.176269531250, -1.210937500000, -0.289062500000, -3.976562500000, 1491882919
0.141357421875, -1.028808593750, 0.176269531250, -1.210937500000, -0.289062500000, -3.976562500000, 1491882919
0.100830078125, -1.084228515625, 0.207275390625, -2.843750000000, 4.343750000000, -6.242187500000, 1491882919
0.100830078125, -1.084228515625, 0.207275390625, -2.843750000000, 4.343750000000, -6.242187500000, 1491882919
0.100830078125, -1.084228515625, 0.207275390625, -2.843750000000, 4.343750000000, -6.242187500000, 1491882919
0.100830078125, -1.084228515625, 0.207275390625, -2.843750000000, 4.343750000000, -6.242187500000, 1491882919
0.060058593750, -1.073730468750, 0.202392578125, -2.703125000000, 1.531250000000, -3.179687500000, 1491882919
0.060058593750, -1.073730468750, 0.202392578125, -2.703125000000, 1.531250000000, -3.179687500000, 1491882919
0.060058593750, -1.073730468750, 0.202392578125, -2.703125000000, 1.531250000000, -3.179687500000, 1491882919
0.150878906250, -0.974609375000, 0.119384765625, -4.632812500000, -0.453125000000, -3.875000000000, 1491882919
0.150878906250, -0.974609375000, 0.119384765625, -4.632812500000, -0.453125000000, -3.875000000000, 1491882919
0.150878906250, -0.974609375000, 0.119384765625, -4.632812500000, -0.453125000000, -3.875000000000, 1491882919
0.150878906250, -0.974609375000, 0.119384765625, -4.632812500000, -0.453125000000, -3.875000000000, 1491882919
0.049072265625, -1.012207031250, 0.189697265625, -1.562500000000, -0.031250000000, -4.679687500000, 1491882919
0.142578125000, -0.975830078125, 0.202880859375, -2.007812500000, 4.898437500000, -6.328125000000, 1491882919
0.142578125000, -0.975830078125, 0.202880859375, -2.007812500000, 4.898437500000, -6.328125000000, 1491882919
0.142578125000, -0.975830078125, 0.202880859375, -2.007812500000, 4.898437500000, -6.328125000000, 1491882919
0.142578125000, -0.975830078125, 0.202880859375, -2.007812500000, 4.898437500000, -6.328125000000, 1491882919
0.142578125000, -0.975830078125, 0.202880859375, -2.007812500000, 4.898437500000, -6.328125000000, 1491882919
0.087890625000, -1.003417968750, 0.199218750000, -1.429687500000, 4.398437500000, -6.562500000000, 1491882919
0.087890625000, -1.003417968750, 0.199218750000, -1.429687500000, 4.398437500000, -6.562500000000, 1491882919
0.087890625000, -1.003417968750, 0.199218750000, -1.429687500000, 4.398437500000, -6.562500000000, 1491882919
0.052734375000, -0.989990234375, 0.095703125000, -2.000000000000, -0.132812500000, -1.984375000000, 1491882919
0.052734375000, -0.989990234375, 0.095703125000, -2.000000000000, -0.132812500000, -1.984375000000, 1491882919
0.052734375000, -0.989990234375, 0.095703125000, -2.000000000000, -0.132812500000, -1.984375000000, 1491882919
0.052734375000, -0.989990234375, 0.095703125000, -2.000000000000, -0.132812500000, -1.984375000000, 1491882919
0.050537109375, -0.986816406250, 0.264404296875, -3.007812500000, -0.375000000000, -6.023437500000, 1491882919
0.050537109375, -0.986816406250, 0.264404296875, -3.007812500000, -0.375000000000, -6.023437500000, 1491882920
0.050537109375, -0.986816406250, 0.264404296875, -3.007812500000, -0.375000000000, -6.023437500000, 1491882920
0.045654296875, -0.998291015625, 0.206542968750, -6.523437500000, 0.250000000000, -1.460937500000, 1491882920
0.045654296875, -0.998291015625, 0.206542968750, -6.523437500000, 0.250000000000, -1.460937500000, 1491882920
0.045654296875, -0.998291015625, 0.206542968750, -6.523437500000, 0.250000000000, -1.460937500000, 1491882920
0.097656250000, -1.018310546875, 0.145751953125, -3.914062500000, -0.101562500000, -2.484375000000, 1491882920
0.097656250000, -1.018310546875, 0.145751953125, -3.914062500000, -0.101562500000, -2.484375000000, 1491882920
0.097656250000, -1.018310546875, 0.145751953125, -3.914062500000, -0.101562500000, -2.484375000000, 1491882920
0.152343750000, -0.918457031250, 0.197509765625, -3.296875000000, -0.093750000000, -3.203125000000, 1491882920
0.152343750000, -0.918457031250, 0.197509765625, -3.296875000000, -0.093750000000, -3.203125000000, 1491882920
0.152343750000, -0.918457031250, 0.197509765625, -3.296875000000, -0.093750000000, -3.203125000000, 1491882920
0.152343750000, -0.918457031250, 0.197509765625, -3.296875000000, -0.093750000000, -3.203125000000, 1491882920
0.072509765625, -0.953613281250, 0.155517578125, -4.648437500000, -4.375000000000, -1.601562500000, 1491882920
0.072509765625, -0.953613281250, 0.155517578125, -4.648437500000, -4.375000000000, -1.601562500000, 1491882920
0.072509765625, -0.953613281250, 0.155517578125, -4.648437500000, -4.375000000000, -1.601562500000, 1491882920
0.140136718750, -1.022216796875, 0.214599609375, -3.804687500000, 0.789062500000, -2.898437500000, 1491882920
0.140136718750, -1.022216796875, 0.214599609375, -3.804687500000, 0.789062500000, -2.898437500000, 1491882920
0.140136718750, -1.022216796875, 0.214599609375, -3.804687500000, 0.789062500000, -2.898437500000, 1491882920
0.089599609375, -0.937255859375, 0.113037109375, -3.195312500000, -3.718750000000, -1.062500000000, 1491882920
0.089599609375, -0.937255859375, 0.113037109375, -3.195312500000, -3.718750000000, -1.062500000000, 1491882920
0.089599609375, -0.937255859375, 0.113037109375, -3.195312500000, -3.718750000000, -1.062500000000, 1491882920
-0.006835937500, -1.036376953125, 0.109375000000, -3.695312500000, -2.734375000000, -3.281250000000, 1491882920
-0.006835937500, -1.036376953125, 0.109375000000, -3.695312500000, -2.734375000000, -3.281250000000, 1491882920
-0.006835937500, -1.036376953125, 0.109375000000, -3.695312500000, -2.734375000000, -3.281250000000, 1491882920
-0.006835937500, -1.036376953125, 0.109375000000, -3.695312500000, -2.734375000000, -3.281250000000, 1491882920
0.140136718750, -0.985351562500, 0.197998046875, -2.765625000000, -3.351562500000, -4.460937500000, 1491882920
0.140136718750, -0.985351562500, 0.197998046875, -2.765625000000, -3.351562500000, -4.460937500000, 1491882920
0.140136718750, -0.985351562500, 0.197998046875, -2.765625000000, -3.351562500000, -4.460937500000, 1491882920
0.130126953125, -1.010498046875, 0.203125000000, -1.828125000000, -4.976562500000, -1.203125000000, 1491882920
0.130126953125, -1.010498046875, 0.203125000000, -1.828125000000, -4.976562500000, -1.203125000000, 1491882920
0.130126953125, -1.010498046875, 0.203125000000, -1.828125000000, -4.976562500000, -1.203125000000, 1491882920
0.062011718750, -1.014892578125, 0.163818359375, -3.476562500000, -0.773437500000, -3.289062500000, 1491882920
0.062011718750, -1.014892578125, 0.163818359375, -3.476562500000, -0.773437500000, -3.289062500000, 1491882920
0.062011718750, -1.014892578125, 0.163818359375, -3.476562500000, -0.773437500000, -3.289062500000, 1491882920
0.067382812500, -0.973144531250, 0.122802734375, -3.242187500000, -1.492187500000, -2.953125000000, 1491882920
0.067382812500, -0.973144531250, 0.122802734375, -3.242187500000, -1.492187500000, -2.953125000000, 1491882920
0.067382812500, -0.973144531250, 0.122802734375, -3.242187500000, -1.492187500000, -2.953125000000, 1491882920
0.067382812500, -0.973144531250, 0.122802734375, -3.242187500000, -1.492187500000, -2.953125000000, 1491882920
0.062011718750, -0.991210937500, 0.165283203125, -1.195312500000, -1.015625000000, -4.015625000000, 1491882920
0.071044921875, -0.978759765625, 0.160400390625, -1.968750000000, 0.125000000000, -1.835937500000, 1491882920
0.071044921875, -0.978759765625, 0.160400390625, -1.968750000000, 0.125000000000, -1.835937500000, 1491882920
0.071044921875, -0.978759765625, 0.160400390625, -1.968750000000, 0.125000000000, -1.835937500000, 1491882920
0.071044921875, -0.978759765625, 0.160400390625, -1.968750000000, 0.125000000000, -1.835937500000, 1491882920
0.071044921875, -0.978759765625, 0.160400390625, -1.968750000000, 0.125000000000, -1.835937500000, 1491882920
0.044189453125, -0.929687500000, 0.119628906250, -2.867187500000, 0.640625000000, -2.828125000000, 1491882920
0.044189453125, -0.929687500000, 0.119628906250, -2.867187500000, 0.640625000000, -2.828125000000, 1491882920
0.044189453125, -0.929687500000, 0.119628906250, -2.867187500000, 0.640625000000, -2.828125000000, 1491882920
0.140869140625, -1.019042968750, 0.200439453125, -4.062500000000, 4.031250000000, -3.171875000000, 1491882920
0.140869140625, -1.019042968750, 0.200439453125, -4.062500000000, 4.031250000000, -3.171875000000, 1491882920
0.140869140625, -1.019042968750, 0.200439453125, -4.062500000000, 4.031250000000, -3.171875000000, 1491882920
0.140869140625, -1.019042968750, 0.200439453125, -4.062500000000, 4.031250000000, -3.171875000000, 1491882920
0.059326171875, -0.979980468750, 0.094726562500, -1.468750000000, 0.921875000000, -1.140625000000, 1491882920
0.059326171875, -0.979980468750, 0.094726562500, -1.468750000000, 0.921875000000, -1.140625000000, 1491882920
0.059326171875, -0.979980468750, 0.094726562500, -1.468750000000, 0.921875000000, -1.140625000000, 1491882920
0.208007812500, -0.927734375000, 0.186767578125, -0.367187500000, -5.289062500000, -0.031250000000, 1491882920
0.208007812500, -0.927734375000, 0.186767578125, -0.367187500000, -5.289062500000, -0.031250000000, 1491882920
0.208007812500, -0.927734375000, 0.186767578125, -0.367187500000, -5.289062500000, -0.031250000000, 1491882920
0.057128906250, -0.985107421875, 0.217529296875, -4.656250000000, 0.828125000000, 0.437500000000, 1491882920
0.057128906250, -0.985107421875, 0.217529296875, -4.656250000000, 0.828125000000, 0.437500000000, 1491882920
0.057128906250, -0.985107421875, 0.217529296875, -4.656250000000, 0.828125000000, 0.437500000000, 1491882920
0.057128906250, -0.985107421875, 0.217529296875, -4.656250000000, 0.828125000000, 0.437500000000, 1491882920
0.057128906250, -0.985107421875, 0.217529296875, -4.656250000000, 0.828125000000, 0.437500000000, 1491882920
0.042236328125, -0.975341796875, 0.198486328125, -4.820312500000, -3.062500000000, -1.843750000000, 1491882920
0.042236328125, -0.975341796875, 0.198486328125, -4.820312500000, -3.062500000000, -1.843750000000, 1491882920
0.042236328125, -0.975341796875, 0.198486328125, -4.820312500000, -3.062500000000, -1.843750000000, 1491882920
0.042236328125, -0.975341796875, 0.198486328125, -4.820312500000, -3.062500000000, -1.843750000000, 1491882920
0.042236328125, -0.975341796875, 0.198486328125, -4.820312500000, -3.062500000000, -1.843750000000, 1491882921
0.092285156250, -0.968505859375, 0.118652343750, -2.765625000000, -2.390625000000, -1.679687500000, 1491882921
0.092285156250, -0.968505859375, 0.118652343750, -2.765625000000, -2.390625000000, -1.679687500000, 1491882921
0.092285156250, -0.968505859375, 0.118652343750, -2.765625000000, -2.390625000000, -1.679687500000, 1491882921
0.194824218750, -0.908691406250, 0.216552734375, -1.539062500000, -0.414062500000, 0.539062500000, 1491882921
0.194824218750, -0.908691406250, 0.216552734375, -1.539062500000, -0.414062500000, 0.539062500000, 1491882921
0.194824218750, -0.908691406250, 0.216552734375, -1.539062500000, -0.414062500000, 0.539062500000, 1491882921
0.044677734375, -0.971679687500, 0.190673828125, -1.226562500000, -0.320312500000, -4.156250000000, 1491882921
0.044677734375, -0.971679687500, 0.190673828125, -1.226562500000, -0.320312500000, -4.156250000000, 1491882921
0.044677734375, -0.971679687500, 0.190673828125, -1.226562500000, -0.320312500000, -4.156250000000, 1491882921
0.044677734375, -0.971679687500, 0.190673828125, -1.226562500000, -0.320312500000, -4.156250000000, 1491882921
0.194580078125, -0.984863281250, 0.149169921875, -2.781250000000, 0.867187500000, -4.601562500000, 1491882921
0.194580078125, -0.984863281250, 0.149169921875, -2.781250000000, 0.867187500000, -4.601562500000, 1491882921
0.194580078125, -0.984863281250, 0.149169921875, -2.781250000000, 0.867187500000, -4.601562500000, 1491882921
0.073242187500, -1.025146484375, 0.117187500000, -2.125000000000, -0.140625000000, -3.000000000000, 1491882921
0.073242187500, -1.025146484375, 0.117187500000, -2.125000000000, -0.140625000000, -3.000000000000, 1491882921
0.073242187500, -1.025146484375, 0.117187500000, -2.125000000000, -0.140625000000, -3.000000000000, 1491882921
0.095703125000, -1.030761718750, 0.157958984375, -1.320312500000, -2.515625000000, -4.242187500000, 1491882921
0.095703125000, -1.030761718750, 0.157958984375, -1.320312500000, -2.515625000000, -4.242187500000, 1491882921
0.095703125000, -1.030761718750, 0.157958984375, -1.320312500000, -2.515625000000, -4.242187500000, 1491882921
0.040283203125, -1.003906250000, 0.204833984375, 0.367187500000, 2.468750000000, -5.031250000000, 1491882921
0.040283203125, -1.003906250000, 0.204833984375, 0.367187500000, 2.468750000000, -5.031250000000, 1491882921
0.040283203125, -1.003906250000, 0.204833984375, 0.367187500000, 2.468750000000, -5.031250000000, 1491882921
0.040283203125, -1.003906250000, 0.204833984375, 0.367187500000, 2.468750000000, -5.031250000000, 1491882921
0.134277343750, -1.002197265625, 0.201660156250, -2.265625000000, 4.453125000000, -3.117187500000, 1491882921
0.134277343750, -1.002197265625, 0.201660156250, -2.265625000000, 4.453125000000, -3.117187500000, 1491882921
0.134277343750, -1.002197265625, 0.201660156250, -2.265625000000, 4.453125000000, -3.117187500000, 1491882921
0.043701171875, -1.025146484375, 0.211425781250, -2.164062500000, -0.734375000000, -1.453125000000, 1491882921
0.043701171875, -1.025146484375, 0.211425781250, -2.164062500000, -0.734375000000, -1.453125000000, 1491882921
0.043701171875, -1.025146484375, 0.211425781250, -2.164062500000, -0.734375000000, -1.453125000000, 1491882921
0.079833984375, -1.031005859375, 0.213867187500, 0.359375000000, -2.851562500000, -5.648437500000, 1491882921
0.079833984375, -1.031005859375, 0.213867187500, 0.359375000000, -2.851562500000, -5.648437500000, 1491882921
0.079833984375, -1.031005859375, 0.213867187500, 0.359375000000, -2.851562500000, -5.648437500000, 1491882921
-0.000976562500, -0.941162109375, 0.127441406250, -2.507812500000, 2.226562500000, -3.078125000000, 1491882921
-0.000976562500, -0.941162109375, 0.127441406250, -2.507812500000, 2.226562500000, -3.078125000000, 1491882921
0.100585937500, -0.913085937500, 0.093750000000, -2.570312500000, 0.976562500000, -4.250000000000, 1491882921
0.100585937500, -0.913085937500, 0.093750000000, -2.570312500000, 0.976562500000, -4.250000000000, 1491882921
0.100585937500, -0.913085937500, 0.093750000000, -2.570312500000, 0.976562500000, -4.250000000000, 1491882921
0.100585937500, -0.913085937500, 0.093750000000, -2.570312500000, 0.976562500000, -4.250000000000, 1491882921
0.043457031250, -0.967041015625, 0.201660156250, -4.304687500000, 0.851562500000, -2.976562500000, 1491882921
0.043457031250, -0.967041015625, 0.201660156250, -4.304687500000, 0.851562500000, -2.976562500000, 1491882921
0.043457031250, -0.967041015625, 0.201660156250, -4.304687500000, 0.851562500000, -2.976562500000, 1491882921
0.043457031250, -0.967041015625, 0.201660156250, -4.304687500000, 0.851562500000, -2.976562500000, 1491882921
0.049560546875, -0.924072265625, 0.112060546875, -1.039062500000, 0.703125000000, -4.015625000000, 1491882921
0.049560546875, -0.924072265625, 0.112060546875, -1.039062500000, 0.703125000000, -4.015625000000, 1491882921
0.049560546875, -0.924072265625, 0.112060546875, -1.039062500000, 0.703125000000, -4.015625000000, 1491882921
0.076904296875, -0.997314453125, 0.167968750000, -1.093750000000, 2.960937500000, -4.781250000000, 1491882921
0.076904296875, -0.997314453125, 0.167968750000, -1.093750000000, 2.960937500000, -4.781250000000, 1491882921
0.076904296875, -0.997314453125, 0.167968750000, -1.093750000000, 2.960937500000, -4.781250000000, 1491882921
0.076904296875, -0.997314453125, 0.167968750000, -1.093750000000, 2.960937500000, -4.781250000000, 1491882921
0.077880859375, -1.012939453125, 0.253173828125, -1.507812500000, 2.007812500000, -3.703125000000, 1491882921
0.077880859375, -1.012939453125, 0.253173828125, -1.507812500000, 2.007812500000, -3.703125000000, 1491882921
0.077880859375, -1.012939453125, 0.253173828125, -1.507812500000, 2.007812500000, -3.703125000000, 1491882921
-0.030761718750, -0.972412109375, 0.192138671875, -1.421875000000, -0.585937500000, -5.460937500000, 1491882921
-0.030761718750, -0.972412109375, 0.192138671875, -1.421875000000, -0.585937500000, -5.460937500000, 1491882921
-0.030761718750, -0.972412109375, 0.192138671875, -1.421875000000, -0.585937500000, -5.460937500000, 1491882921
0.208984375000, -0.946777343750, 0.213134765625, -8.867187500000, 6.664062500000, -3.210937500000, 1491882921
0.208984375000, -0.946777343750, 0.213134765625, -8.867187500000, 6.664062500000, -3.210937500000, 1491882921
0.208984375000, -0.946777343750, 0.213134765625, -8.867187500000, 6.664062500000, -3.210937500000, 1491882921
0.194580078125, -0.920654296875, 0.058105468750, 15.515625000000, 6.156250000000, -9.375000000000, 1491882921
0.194580078125, -0.920654296875, 0.058105468750, 15.515625000000, 6.156250000000, -9.375000000000, 1491882921
0.194580078125, -0.920654296875, 0.058105468750, 15.515625000000, 6.156250000000, -9.375000000000, 1491882921
0.194580078125, -0.920654296875, 0.058105468750, 15.515625000000, 6.156250000000, -9.375000000000, 1491882921
-0.020996093750, -0.939208984375, 0.113525390625, 28.796875000000, -5.039062500000, -14.195312500000, 1491882921
-0.020996093750, -0.939208984375, 0.113525390625, 28.796875000000, -5.039062500000, -14.195312500000, 1491882921
-0.020996093750, -0.939208984375, 0.113525390625, 28.796875000000, -5.039062500000, -14.195312500000, 1491882921
-0.025390625000, -0.909179687500, 0.272460937500, 23.960937500000, -12.820312500000, -13.507812500000, 1491882921
-0.025390625000, -0.909179687500, 0.272460937500, 23.960937500000, -12.820312500000, -13.507812500000, 1491882922
-0.025390625000, -0.909179687500, 0.272460937500, 23.960937500000, -12.820312500000, -13.507812500000, 1491882922
-0.102783203125, -0.973388671875, 0.197998046875, 27.492187500000, -3.242187500000, -13.796875000000, 1491882922
-0.102783203125, -0.973388671875, 0.197998046875, 27.492187500000, -3.242187500000, -13.796875000000, 1491882922
-0.102783203125, -0.973388671875, 0.197998046875, 27.492187500000, -3.242187500000, -13.796875000000, 1491882922
0.141113281250, -1.098388671875, 0.276611328125, 17.695312500000, -23.398437500000, -7.406250000000, 1491882922
0.141113281250, -1.098388671875, 0.276611328125, 17.695312500000, -23.398437500000, -7.406250000000, 1491882922
0.141113281250, -1.098388671875, 0.276611328125, 17.695312500000, -23.398437500000, -7.406250000000, 1491882922
0.141113281250, -1.098388671875, 0.276611328125, 17.695312500000, -23.398437500000, -7.406250000000, 1491882922
0.197021484375, -0.857666015625, 0.123046875000, 3.179687500000, -14.328125000000, 4.664062500000, 1491882922
0.197021484375, -0.857666015625, 0.123046875000, 3.179687500000, -14.328125000000, 4.664062500000, 1491882922
0.197021484375, -0.857666015625, 0.123046875000, 3.179687500000, -14.328125000000, 4.664062500000, 1491882922
-0.039794921875, -0.980712890625, 0.108642578125, 12.273437500000, -9.453125000000, 4.820312500000, 1491882922
-0.039794921875, -0.980712890625, 0.108642578125, 12.273437500000, -9.453125000000, 4.820312500000, 1491882922
-0.039794921875, -0.980712890625, 0.108642578125, 12.273437500000, -9.453125000000, 4.820312500000, 1491882922
-0.017578125000, -0.932861328125, 0.183349609375, 3.234375000000, -9.945312500000, 5.484375000000, 1491882922
-0.017578125000, -0.932861328125, 0.183349609375, 3.234375000000, -9.945312500000, 5.484375000000, 1491882922
-0.017578125000, -0.932861328125, 0.183349609375, 3.234375000000, -9.945312500000, 5.484375000000, 1491882922
0.075927734375, -0.940673828125, 0.150146484375, 4.765625000000, -6.585937500000, 7.195312500000, 1491882922
0.075927734375, -0.940673828125, 0.150146484375, 4.765625000000, -6.585937500000, 7.195312500000, 1491882922
0.075927734375, -0.940673828125, 0.150146484375, 4.765625000000, -6.585937500000, 7.195312500000, 1491882922
0.075927734375, -0.940673828125, 0.150146484375, 4.765625000000, -6.585937500000, 7.195312500000, 1491882922
0.097167968750, -0.958496093750, 0.205810546875, -2.593750000000, 3.109375000000, 11.593750000000, 1491882922
0.097167968750, -0.958496093750, 0.205810546875, -2.593750000000, 3.109375000000, 11.593750000000, 1491882922
0.097167968750, -0.958496093750, 0.205810546875, -2.593750000000, 3.109375000000, 11.593750000000, 1491882922
0.054931640625, -0.943603515625, 0.187988281250, -3.226562500000, 4.796875000000, 17.132812500000, 1491882922
0.054931640625, -0.943603515625, 0.187988281250, -3.226562500000, 4.796875000000, 17.132812500000, 1491882922
0.054931640625, -0.943603515625, 0.187988281250, -3.226562500000, 4.796875000000, 17.132812500000, 1491882922
-0.004638671875, -1.037597656250, 0.270019531250, -10.140625000000, 4.828125000000, 22.750000000000, 1491882922
-0.004638671875, -1.037597656250, 0.270019531250, -10.140625000000, 4.828125000000, 22.750000000000, 1491882922
-0.004638671875, -1.037597656250, 0.270019531250, -10.140625000000, 4.828125000000, 22.750000000000, 1491882922
0.138916015625, -1.122802734375, 0.142822265625, -30.367187500000, 5.554687500000, 21.421875000000, 1491882922
0.138916015625, -1.122802734375, 0.142822265625, -30.367187500000, 5.554687500000, 21.421875000000, 1491882922
0.138916015625, -1.122802734375, 0.142822265625, -30.367187500000, 5.554687500000, 21.421875000000, 1491882922
0.138916015625, -1.122802734375, 0.142822265625, -30.367187500000, 5.554687500000, 21.421875000000, 1491882922
-0.001708984375, -1.189453125000, 0.013916015625, -28.046875000000, 22.265625000000, 22.898437500000, 1491882922
-0.001708984375, -1.189453125000, 0.013916015625, -28.046875000000, 22.265625000000, 22.898437500000, 1491882922
-0.001708984375, -1.189453125000, 0.013916015625, -28.046875000000, 22.265625000000, 22.898437500000, 1491882922
0.122558593750, -1.273193359375, -0.129394531250, -1.585937500000, 35.812500000000, 0.343750000000, 1491882922
0.122558593750, -1.273193359375, -0.129394531250, -1.585937500000, 35.812500000000, 0.343750000000, 1491882922
0.122558593750, -1.273193359375, -0.129394531250, -1.585937500000, 35.812500000000, 0.343750000000, 1491882922
0.265136718750, -0.933349609375, 0.043212890625, -1.929687500000, -5.382812500000, -2.171875000000, 1491882922
0.265136718750, -0.933349609375, 0.043212890625, -1.929687500000, -5.382812500000, -2.171875000000, 1491882922
0.265136718750, -0.933349609375, 0.043212890625, -1.929687500000, -5.382812500000, -2.171875000000, 1491882922
0.172851562500, -0.960937500000, 0.089599609375, -11.750000000000, 48.085937500000, -7.039062500000, 1491882922
0.172851562500, -0.960937500000, 0.089599609375, -11.750000000000, 48.085937500000, -7.039062500000, 1491882922
0.172851562500, -0.960937500000, 0.089599609375, -11.750000000000, 48.085937500000, -7.039062500000, 1491882922
0.172851562500, -0.960937500000, 0.089599609375, -11.750000000000, 48.085937500000, -7.039062500000, 1491882922
0.382568359375, -1.007812500000, -0.092285156250, -5.976562500000, 31.281250000000, -9.132812500000, 1491882922
0.382568359375, -1.007812500000, -0.092285156250, -5.976562500000, 31.281250000000, -9.132812500000, 1491882922
0.382568359375, -1.007812500000, -0.092285156250, -5.976562500000, 31.281250000000, -9.132812500000, 1491882922
0.325927734375, -1.087158203125, -0.030029296875, 5.812500000000, 13.453125000000, 6.093750000000, 1491882922
0.325927734375, -1.087158203125, -0.030029296875, 5.812500000000, 13.453125000000, 6.093750000000, 1491882922
0.325927734375, -1.087158203125, -0.030029296875, 5.812500000000, 13.453125000000, 6.093750000000, 1491882922
0.192871093750, -0.958007812500, 0.198486328125, -9.406250000000, 9.289062500000, -19.015625000000, 1491882922
0.192871093750, -0.958007812500, 0.198486328125, -9.406250000000, 9.289062500000, -19.015625000000, 1491882922
0.192871093750, -0.958007812500, 0.198486328125, -9.406250000000, 9.289062500000, -19.015625000000, 1491882922
0.192871093750, -0.958007812500, 0.198486328125, -9.406250000000, 9.289062500000, -19.015625000000, 1491882922
0.192871093750, -0.958007812500, 0.198486328125, -9.406250000000, 9.289062500000, -19.015625000000, 1491882922
0.192871093750, -0.958007812500, 0.198486328125, -9.406250000000, 9.289062500000, -19.015625000000, 1491882922
0.187011718750, -0.934814453125, 0.055175781250, -3.937500000000, 6.062500000000, -22.031250000000, 1491882922
0.187011718750, -0.934814453125, 0.055175781250, -3.937500000000, 6.062500000000, -22.031250000000, 1491882922
0.187011718750, -0.934814453125, 0.055175781250, -3.937500000000, 6.062500000000, -22.031250000000, 1491882922
0.187011718750, -0.934814453125, 0.055175781250, -3.937500000000, 6.062500000000, -22.031250000000, 1491882922
0.177734375000, -0.954345703125, 0.099609375000, -4.796875000000, -4.421875000000, -18.429687500000, 1491882922
0.177734375000, -0.954345703125, 0.099609375000, -4.796875000000, -4.421875000000, -18.429687500000, 1491882922
0.177734375000, -0.954345703125, 0.099609375000, -4.796875000000, -4.421875000000, -18.429687500000, 1491882922
0.188476562500, -1.011718750000, 0.188232421875, -16.757812500000, 3.875000000000, -17.875000000000, 1491882923
0.188476562500, -1.011718750000, 0.188232421875, -16.757812500000, 3.875000000000, -17.875000000000, 1491882923
0.188476562500, -1.011718750000, 0.188232421875, -16.757812500000, 3.875000000000, -17.875000000000, 1491882923
0.112060546875, -0.997314453125, 0.146728515625, -12.843750000000, 6.898437500000, -26.046875000000, 1491882923
0.112060546875, -0.997314453125, 0.146728515625, -12.843750000000, 6.898437500000, -26.046875000000, 1491882923
0.112060546875, -0.997314453125, 0.146728515625, -12.843750000000, 6.898437500000, -26.046875000000, 1491882923
0.242919921875, -1.228515625000, 0.274414062500, -10.546875000000, -20.679687500000, -15.312500000000, 1491882923
0.242919921875, -1.228515625000, 0.274414062500, -10.546875000000, -20.679687500000, -15.312500000000, 1491882923
0.242919921875, -1.228515625000, 0.274414062500, -10.546875000000, -20.679687500000, -15.312500000000, 1491882923
0.192871093750, -1.102539062500, 0.242431640625, -3.117187500000, 4.281250000000, -17.695312500000, 1491882923
0.107177734375, -1.173583984375, 0.123535156250, -9.695312500000, 13.476562500000, -14.671875000000, 1491882923
0.107177734375, -1.173583984375, 0.123535156250, -9.695312500000, 13.476562500000, -14.671875000000, 1491882923
0.139160156250, -1.215332031250, 0.099121093750, -17.687500000000, -8.281250000000, -3.812500000000, 1491882923
0.139160156250, -1.215332031250, 0.099121093750, -17.687500000000, -8.281250000000, -3.812500000000, 1491882923
0.139160156250, -1.215332031250, 0.099121093750, -17.687500000000, -8.281250000000, -3.812500000000, 1491882923
0.139160156250, -1.215332031250, 0.099121093750, -17.687500000000, -8.281250000000, -3.812500000000, 1491882923
-0.010498046875, -0.848388671875, 0.093750000000, -25.898437500000, -5.187500000000, -8.117187500000, 1491882923
-0.010498046875, -0.848388671875, 0.093750000000, -25.898437500000, -5.187500000000, -8.117187500000, 1491882923
-0.010498046875, -0.848388671875, 0.093750000000, -25.898437500000, -5.187500000000, -8.117187500000, 1491882923
-0.010498046875, -0.848388671875, 0.093750000000, -25.898437500000, -5.187500000000, -8.117187500000, 1491882923
-0.111816406250, -0.796386718750, 0.083007812500, -28.109375000000, -12.335937500000, -8.992187500000, 1491882923
-0.111816406250, -0.796386718750, 0.083007812500, -28.109375000000, -12.335937500000, -8.992187500000, 1491882923
-0.111816406250, -0.796386718750, 0.083007812500, -28.109375000000, -12.335937500000, -8.992187500000, 1491882923
-0.074462890625, -1.003173828125, 0.011230468750, -10.484375000000, -41.390625000000, 2.914062500000, 1491882923
-0.074462890625, -1.003173828125, 0.011230468750, -10.484375000000, -41.390625000000, 2.914062500000, 1491882923
-0.074462890625, -1.003173828125, 0.011230468750, -10.484375000000, -41.390625000000, 2.914062500000, 1491882923
0.084960937500, -1.077880859375, 0.086425781250, 29.000000000000, -37.882812500000, -1.656250000000, 1491882923
0.084960937500, -1.077880859375, 0.086425781250, 29.000000000000, -37.882812500000, -1.656250000000, 1491882923
0.084960937500, -1.077880859375, 0.086425781250, 29.000000000000, -37.882812500000, -1.656250000000, 1491882923
0.046386718750, -0.950927734375, 0.254394531250, 7.179687500000, -30.062500000000, 4.671875000000, 1491882923
0.046386718750, -0.950927734375, 0.254394531250, 7.179687500000, -30.062500000000, 4.671875000000, 1491882923
0.046386718750, -0.950927734375, 0.254394531250, 7.179687500000, -30.062500000000, 4.671875000000, 1491882923
0.046386718750, -0.950927734375, 0.254394531250, 7.179687500000, -30.062500000000, 4.671875000000, 1491882923
0.029541015625, -0.893066406250, 0.213134765625, -9.640625000000, -11.242187500000, 1.687500000000, 1491882923
0.029541015625, -0.893066406250, 0.213134765625, -9.640625000000, -11.242187500000, 1.687500000000, 1491882923
0.029541015625, -0.893066406250, 0.213134765625, -9.640625000000, -11.242187500000, 1.687500000000, 1491882923
0.052734375000, -0.958007812500, 0.108886718750, -1.414062500000, -12.828125000000, 3.757812500000, 1491882923
0.052734375000, -0.958007812500, 0.108886718750, -1.414062500000, -12.828125000000, 3.757812500000, 1491882923
0.052734375000, -0.958007812500, 0.108886718750, -1.414062500000, -12.828125000000, 3.757812500000, 1491882923
-0.027099609375, -0.864501953125, 0.103515625000, -1.117187500000, -3.992187500000, 5.195312500000, 1491882923
-0.027099609375, -0.864501953125, 0.103515625000, -1.117187500000, -3.992187500000, 5.195312500000, 1491882923
-0.027099609375, -0.864501953125, 0.103515625000, -1.117187500000, -3.992187500000, 5.195312500000, 1491882923
0.068115234375, -0.968505859375, 0.118896484375, 3.718750000000, 6.093750000000, 7.414062500000, 1491882923
0.068115234375, -0.968505859375, 0.118896484375, 3.718750000000, 6.093750000000, 7.414062500000, 1491882923
0.068115234375, -0.968505859375, 0.118896484375, 3.718750000000, 6.093750000000, 7.414062500000, 1491882923
0.068115234375, -0.968505859375, 0.118896484375, 3.718750000000, 6.093750000000, 7.414062500000, 1491882923
-0.020019531250, -1.145751953125, 0.232421875000, -2.460937500000, 1.046875000000, 7.015625000000, 1491882923
-0.020019531250, -1.145751953125, 0.232421875000, -2.460937500000, 1.046875000000, 7.015625000000, 1491882923
-0.020019531250, -1.145751953125, 0.232421875000, -2.460937500000, 1.046875000000, 7.015625000000, 1491882923
-0.030761718750, -1.036376953125, 0.195800781250, -1.640625000000, 14.875000000000, 10.804687500000, 1491882923
-0.030761718750, -1.036376953125, 0.195800781250, -1.640625000000, 14.875000000000, 10.804687500000, 1491882923
-0.030761718750, -1.036376953125, 0.195800781250, -1.640625000000, 14.875000000000, 10.804687500000, 1491882923
0.133300781250, -1.369140625000, 0.163085937500, -6.515625000000, -6.250000000000, 11.382812500000, 1491882923
0.133300781250, -1.369140625000, 0.163085937500, -6.515625000000, -6.250000000000, 11.382812500000, 1491882923
0.165771484375, -1.005859375000, -0.015625000000, -17.343750000000, 33.593750000000, 10.960937500000, 1491882923
0.165771484375, -1.005859375000, -0.015625000000, -17.343750000000, 33.593750000000, 10.960937500000, 1491882923
0.165771484375, -1.005859375000, -0.015625000000, -17.343750000000, 33.593750000000, 10.960937500000, 1491882923
0.165771484375, -1.005859375000, -0.015625000000, -17.343750000000, 33.593750000000, 10.960937500000, 1491882923
0.165771484375, -1.005859375000, -0.015625000000, -17.343750000000, 33.593750000000, 10.960937500000, 1491882923
0.119628906250, -0.804443359375, -0.031494140625, -7.312500000000, 51.328125000000, 4.593750000000, 1491882923
0.119628906250, -0.804443359375, -0.031494140625, -7.312500000000, 51.328125000000, 4.593750000000, 1491882923
0.119628906250, -0.804443359375, -0.031494140625, -7.312500000000, 51.328125000000, 4.593750000000, 1491882923
0.044433593750, -0.811523437500, 0.018798828125, -6.445312500000, 25.429687500000, -8.250000000000, 1491882923
0.044433593750, -0.811523437500, 0.018798828125, -6.445312500000, 25.429687500000, -8.250000000000, 1491882923
0.044433593750, -0.811523437500, 0.018798828125, -6.445312500000, 25.429687500000, -8.250000000000, 1491882923
0.358154296875, -1.075439453125, 0.008789062500, 10.335937500000, 42.898437500000, -6.195312500000, 1491882924
0.358154296875, -1.075439453125, 0.008789062500, 10.335937500000, 42.898437500000, -6.195312500000, 1491882924
0.358154296875, -1.075439453125, 0.008789062500, 10.335937500000, 42.898437500000, -6.195312500000, 1491882924
0.127197265625, -1.062988281250, 0.127685546875, 16.812500000000, 34.601562500000, 4.093750000000, 1491882924
0.127197265625, -1.062988281250, 0.127685546875, 16.812500000000, 34.601562500000, 4.093750000000, 1491882924
0.127197265625, -1.062988281250, 0.127685546875, 16.812500000000, 34.601562500000, 4.093750000000, 1491882924
0.127197265625, -1.062988281250, 0.127685546875, 16.812500000000, 34.601562500000, 4.093750000000, 1491882924
0.045898437500, -0.899414062500, 0.206542968750, 3.250000000000, 13.476562500000, -11.093750000000, 1491882924
0.045898437500, -0.899414062500, 0.206542968750, 3.250000000000, 13.476562500000, -11.093750000000, 1491882924
0.045898437500, -0.899414062500, 0.206542968750, 3.250000000000, 13.476562500000, -11.093750000000, 1491882924
0.098632812500, -0.789062500000, 0.061523437500, -3.695312500000, 11.296875000000, -12.085937500000, 1491882924
0.098632812500, -0.789062500000, 0.061523437500, -3.695312500000, 11.296875000000, -12.085937500000, 1491882924
0.098632812500, -0.789062500000, 0.061523437500, -3.695312500000, 11.296875000000, -12.085937500000, 1491882924
0.102294921875, -0.967773437500, 0.055908203125, 6.140625000000, -3.843750000000, -10.929687500000, 1491882924
0.102294921875, -0.967773437500, 0.055908203125, 6.140625000000, -3.843750000000, -10.929687500000, 1491882924
0.102294921875, -0.967773437500, 0.055908203125, 6.140625000000, -3.843750000000, -10.929687500000, 1491882924
0.123535156250, -1.025634765625, 0.178222656250, 2.000000000000, -18.671875000000, -14.140625000000, 1491882924
0.123535156250, -1.025634765625, 0.178222656250, 2.000000000000, -18.671875000000, -14.140625000000, 1491882924
0.123535156250, -1.025634765625, 0.178222656250, 2.000000000000, -18.671875000000, -14.140625000000, 1491882924
0.123535156250, -1.025634765625, 0.178222656250, 2.000000000000, -18.671875000000, -14.140625000000, 1491882924
0.212890625000, -1.001220703125, 0.169677734375, -12.257812500000, -11.351562500000, -9.882812500000, 1491882924
0.212890625000, -1.001220703125, 0.169677734375, -12.257812500000, -11.351562500000, -9.882812500000, 1491882924
0.212890625000, -1.001220703125, 0.169677734375, -12.257812500000, -11.351562500000, -9.882812500000, 1491882924
0.217529296875, -1.065185546875, 0.116699218750, -5.445312500000, -13.984375000000, -16.648437500000, 1491882924
0.217529296875, -1.065185546875, 0.116699218750, -5.445312500000, -13.984375000000, -16.648437500000, 1491882924
0.217529296875, -1.065185546875, 0.116699218750, -5.445312500000, -13.984375000000, -16.648437500000, 1491882924
0.271972656250, -1.056396484375, 0.268798828125, -3.906250000000, -15.781250000000, -20.437500000000, 1491882924
0.271972656250, -1.056396484375, 0.268798828125, -3.906250000000, -15.781250000000, -20.437500000000, 1491882924
0.271972656250, -1.056396484375, 0.268798828125, -3.906250000000, -15.781250000000, -20.437500000000, 1491882924
0.007568359375, -1.178466796875, 0.227294921875, -17.851562500000, 2.953125000000, -23.960937500000, 1491882924
0.007568359375, -1.178466796875, 0.227294921875, -17.851562500000, 2.953125000000, -23.960937500000, 1491882924
0.007568359375, -1.178466796875, 0.227294921875, -17.851562500000, 2.953125000000, -23.960937500000, 1491882924
0.007568359375, -1.178466796875, 0.227294921875, -17.851562500000, 2.953125000000, -23.960937500000, 1491882924
-0.004882812500, -1.187988281250, 0.156250000000, -22.937500000000, 2.984375000000, -13.179687500000, 1491882924
-0.004882812500, -1.187988281250, 0.156250000000, -22.937500000000, 2.984375000000, -13.179687500000, 1491882924
-0.004882812500, -1.187988281250, 0.156250000000, -22.937500000000, 2.984375000000, -13.179687500000, 1491882924
0.087158203125, -1.083740234375, 0.062744140625, -21.304687500000, -13.179687500000, -5.976562500000, 1491882924
0.087158203125, -1.083740234375, 0.062744140625, -21.304687500000, -13.179687500000, -5.976562500000, 1491882924
-0.011962890625, -0.901123046875, 0.136230468750, -17.710937500000, -13.718750000000, 6.867187500000, 1491882924
-0.011962890625, -0.901123046875, 0.136230468750, -17.710937500000, -13.718750000000, 6.867187500000, 1491882924
-0.011962890625, -0.901123046875, 0.136230468750, -17.710937500000, -13.718750000000, 6.867187500000, 1491882924
-0.011962890625, -0.901123046875, 0.136230468750, -17.710937500000, -13.718750000000, 6.867187500000, 1491882924
-0.105957031250, -1.054687500000, -0.060546875000, -13.960937500000, -30.460937500000, -2.140625000000, 1491882924
-0.105957031250, -1.054687500000, -0.060546875000, -13.960937500000, -30.460937500000, -2.140625000000, 1491882924
-0.105957031250, -1.054687500000, -0.060546875000, -13.960937500000, -30.460937500000, -2.140625000000, 1491882924
-0.105957031250, -1.054687500000, -0.060546875000, -13.960937500000, -30.460937500000, -2.140625000000, 1491882924
0.150878906250, -0.983886718750, 0.145263671875, 10.640625000000, -41.968750000000, -8.406250000000, 1491882924
0.150878906250, -0.983886718750, 0.145263671875, 10.640625000000, -41.968750000000, -8.406250000000, 1491882924
0.150878906250, -0.983886718750, 0.145263671875, 10.640625000000, -41.968750000000, -8.406250000000, 1491882924
0.164062500000, -0.985595703125, 0.119140625000, 13.515625000000, -30.710937500000, 6.546875000000, 1491882924
0.164062500000, -0.985595703125, 0.119140625000, 13.515625000000, -30.710937500000, 6.546875000000, 1491882924
0.164062500000, -0.985595703125, 0.119140625000, 13.515625000000, -30.710937500000, 6.546875000000, 1491882924
0.019775390625, -0.858154296875, 0.251708984375, 9.375000000000, -16.039062500000, 3.203125000000, 1491882924
0.019775390625, -0.858154296875, 0.251708984375, 9.375000000000, -16.039062500000, 3.203125000000, 1491882924
0.019775390625, -0.858154296875, 0.251708984375, 9.375000000000, -16.039062500000, 3.203125000000, 1491882924
0.083251953125, -0.875732421875, 0.102294921875, -0.945312500000, 6.554687500000, -3.273437500000, 1491882924
0.083251953125, -0.875732421875, 0.102294921875, -0.945312500000, 6.554687500000, -3.273437500000, 1491882924
0.083251953125, -0.875732421875, 0.102294921875, -0.945312500000, 6.554687500000, -3.273437500000, 1491882924
0.083251953125, -0.875732421875, 0.102294921875, -0.945312500000, 6.554687500000, -3.273437500000, 1491882924
-0.020996093750, -0.892822265625, 0.157226562500, 10.164062500000, 8.992187500000, 6.632812500000, 1491882924
-0.020996093750, -0.892822265625, 0.157226562500, 10.164062500000, 8.992187500000, 6.632812500000, 1491882924
-0.020996093750, -0.892822265625, 0.157226562500, 10.164062500000, 8.992187500000, 6.632812500000, 1491882924
-0.023437500000, -0.864257812500, 0.203369140625, -2.375000000000, 18.054687500000, 6.195312500000, 1491882924
0.073974609375, -0.932861328125, 0.170654296875, -2.375000000000, 18.054687500000, 6.195312500000, 1491882924
0.073974609375, -0.932861328125, 0.170654296875, -2.375000000000, 18.054687500000, 6.195312500000, 1491882924
0.073974609375, -0.932861328125, 0.170654296875, -2.375000000000, 18.054687500000, 6.195312500000, 1491882924
0.073974609375, -0.932861328125, 0.170654296875, -2.375000000000, 18.054687500000, 6.195312500000, 1491882925
-0.064453125000, -1.110107421875, 0.149414062500, 2.507812500000, 17.750000000000, 8.945312500000, 1491882925
-0.064453125000, -1.110107421875, 0.149414062500, 2.507812500000, 17.750000000000, 8.945312500000, 1491882925
-0.064453125000, -1.110107421875, 0.149414062500, 2.507812500000, 17.750000000000, 8.945312500000, 1491882925
-0.064453125000, -1.110107421875, 0.149414062500, 2.507812500000, 17.750000000000, 8.945312500000, 1491882925
0.125732421875, -1.162109375000, 0.224121093750, 3.039062500000, 7.320312500000, 8.734375000000, 1491882925
0.125732421875, -1.162109375000, 0.224121093750, 3.039062500000, 7.320312500000, 8.734375000000, 1491882925
0.125732421875, -1.162109375000, 0.224121093750, 3.039062500000, 7.320312500000, 8.734375000000, 1491882925
0.125732421875, -1.162109375000, 0.224121093750, 3.039062500000, 7.320312500000, 8.734375000000, 1491882925
0.218750000000, -1.108398437500, 0.257324218750, -12.164062500000, 32.726562500000, 15.554687500000, 1491882925
0.218750000000, -1.108398437500, 0.257324218750, -12.164062500000, 32.726562500000, 15.554687500000, 1491882925
0.218750000000, -1.108398437500, 0.257324218750, -12.164062500000, 32.726562500000, 15.554687500000, 1491882925
0.161132812500, -1.023681640625, 0.135498046875, -19.789062500000, 44.062500000000, 11.835937500000, 1491882925
0.161132812500, -1.023681640625, 0.135498046875, -19.789062500000, 44.062500000000, 11.835937500000, 1491882925
0.161132812500, -1.023681640625, 0.135498046875, -19.789062500000, 44.062500000000, 11.835937500000, 1491882925
-0.024169921875, -0.746826171875, 0.024902343750, -5.382812500000, 41.859375000000, 1.265625000000, 1491882925
-0.024169921875, -0.746826171875, 0.024902343750, -5.382812500000, 41.859375000000, 1.265625000000, 1491882925
-0.024169921875, -0.746826171875, 0.024902343750, -5.382812500000, 41.859375000000, 1.265625000000, 1491882925
-0.024169921875, -0.746826171875, 0.024902343750, -5.382812500000, 41.859375000000, 1.265625000000, 1491882925
0.164306640625, -0.987060546875, -0.044677734375, -0.117187500000, 19.789062500000, -3.632812500000, 1491882925
0.164306640625, -0.987060546875, -0.044677734375, -0.117187500000, 19.789062500000, -3.632812500000, 1491882925
0.164306640625, -0.987060546875, -0.044677734375, -0.117187500000, 19.789062500000, -3.632812500000, 1491882925
0.302246093750, -1.045654296875, 0.004882812500, 13.203125000000, 29.507812500000, -3.867187500000, 1491882925
0.302246093750, -1.045654296875, 0.004882812500, 13.203125000000, 29.507812500000, -3.867187500000, 1491882925
0.302246093750, -1.045654296875, 0.004882812500, 13.203125000000, 29.507812500000, -3.867187500000, 1491882925
0.116210937500, -1.069580078125, 0.063964843750, 17.500000000000, 25.875000000000, 8.718750000000, 1491882925
0.116210937500, -1.069580078125, 0.063964843750, 17.500000000000, 25.875000000000, 8.718750000000, 1491882925
0.116210937500, -1.069580078125, 0.063964843750, 17.500000000000, 25.875000000000, 8.718750000000, 1491882925
0.144531250000, -0.808349609375, 0.166503906250, 6.578125000000, 7.046875000000, -11.093750000000, 1491882925
0.144531250000, -0.808349609375, 0.166503906250, 6.578125000000, 7.046875000000, -11.093750000000, 1491882925
0.144531250000, -0.808349609375, 0.166503906250, 6.578125000000, 7.046875000000, -11.093750000000, 1491882925
0.144531250000, -0.808349609375, 0.166503906250, 6.578125000000, 7.046875000000, -11.093750000000, 1491882925
0.113769531250, -0.811279296875, 0.153564453125, -14.132812500000, 9.898437500000, -10.257812500000, 1491882925
0.113769531250, -0.811279296875, 0.153564453125, -14.132812500000, 9.898437500000, -10.257812500000, 1491882925
0.113769531250, -0.811279296875, 0.153564453125, -14.132812500000, 9.898437500000, -10.257812500000, 1491882925
0.164062500000, -0.928466796875, 0.047607421875, -4.171875000000, -2.750000000000, -8.632812500000, 1491882925
0.164062500000, -0.928466796875, 0.047607421875, -4.171875000000, -2.750000000000, -8.632812500000, 1491882925
0.164062500000, -0.928466796875, 0.047607421875, -4.171875000000, -2.750000000000, -8.632812500000, 1491882925
0.279052734375, -0.926025390625, 0.096191406250, 2.195312500000, -13.789062500000, -5.078125000000, 1491882925
0.279052734375, -0.926025390625, 0.096191406250, 2.195312500000, -13.789062500000, -5.078125000000, 1491882925
0.279052734375, -0.926025390625, 0.096191406250, 2.195312500000, -13.789062500000, -5.078125000000, 1491882925
0.199462890625, -0.930175781250, 0.044433593750, -8.875000000000, -13.976562500000, -10.718750000000, 1491882925
0.199462890625, -0.930175781250, 0.044433593750, -8.875000000000, -13.976562500000, -10.718750000000, 1491882925
0.199462890625, -0.930175781250, 0.044433593750, -8.875000000000, -13.976562500000, -10.718750000000, 1491882925
0.199462890625, -0.930175781250, 0.044433593750, -8.875000000000, -13.976562500000, -10.718750000000, 1491882925
0.144042968750, -0.960205078125, 0.147705078125, -3.992187500000, -20.609375000000, -16.703125000000, 1491882925
0.144042968750, -0.960205078125, 0.147705078125, -3.992187500000, -20.609375000000, -16.703125000000, 1491882925
0.144042968750, -0.960205078125, 0.147705078125, -3.992187500000, -20.609375000000, -16.703125000000, 1491882925
0.220214843750, -0.975341796875, 0.098876953125, 2.093750000000, -18.679687500000, -14.117187500000, 1491882925
0.220214843750, -0.975341796875, 0.098876953125, 2.093750000000, -18.679687500000, -14.117187500000, 1491882925
0.220214843750, -0.975341796875, 0.098876953125, 2.093750000000, -18.679687500000, -14.117187500000, 1491882925
0.253417968750, -1.141357421875, 0.186523437500, 2.875000000000, -18.312500000000, -9.437500000000, 1491882925
0.253417968750, -1.141357421875, 0.186523437500, 2.875000000000, -18.312500000000, -9.437500000000, 1491882925
0.253417968750, -1.141357421875, 0.186523437500, 2.875000000000, -18.312500000000, -9.437500000000, 1491882925
0.184082031250, -1.044921875000, 0.205810546875, -19.710937500000, -6.960937500000, -16.679687500000, 1491882925
0.184082031250, -1.044921875000, 0.205810546875, -19.710937500000, -6.960937500000, -16.679687500000, 1491882925
0.184082031250, -1.044921875000, 0.205810546875, -19.710937500000, -6.960937500000, -16.679687500000, 1491882925
0.184082031250, -1.044921875000, 0.205810546875, -19.710937500000, -6.960937500000, -16.679687500000, 1491882925
0.257568359375, -1.072021484375, 0.061035156250, -15.968750000000, -0.773437500000, -7.953125000000, 1491882925
0.257568359375, -1.072021484375, 0.061035156250, -15.968750000000, -0.773437500000, -7.953125000000, 1491882925
0.257568359375, -1.072021484375, 0.061035156250, -15.968750000000, -0.773437500000, -7.953125000000, 1491882925
0.141357421875, -0.931640625000, 0.153564453125, -10.500000000000, -12.500000000000, -0.460937500000, 1491882925
0.141357421875, -0.931640625000, 0.153564453125, -10.500000000000, -12.500000000000, -0.460937500000, 1491882925
0.141357421875, -0.931640625000, 0.153564453125, -10.500000000000, -12.500000000000, -0.460937500000, 1491882925
0.068847656250, -0.801757812500, 0.051269531250, -13.296875000000, -4.273437500000, -5.335937500000, 1491882925
0.068847656250, -0.801757812500, 0.051269531250, -13.296875000000, -4.273437500000, -5.335937500000, 1491882925
0.068847656250, -0.801757812500, 0.051269531250, -13.296875000000, -4.273437500000, -5.335937500000, 1491882925
0.019287109375, -0.998535156250, -0.136474609375, -3.187500000000, 4.265625000000, -14.585937500000, 1491882926
0.019287109375, -0.998535156250, -0.136474609375, -3.187500000000, 4.265625000000, -14.585937500000, 1491882926
0.019287109375, -0.998535156250, -0.136474609375, -3.187500000000, 4.265625000000, -14.585937500000, 1491882926
0.019287109375, -0.998535156250, -0.136474609375, -3.187500000000, 4.265625000000, -14.585937500000, 1491882926
-0.014160156250, -1.062011718750, 0.067871093750, 26.078125000000, -45.007812500000, -7.320312500000, 1491882926
-0.014160156250, -1.062011718750, 0.067871093750, 26.078125000000, -45.007812500000, -7.320312500000, 1491882926
-0.014160156250, -1.062011718750, 0.067871093750, 26.078125000000, -45.007812500000, -7.320312500000, 1491882926
0.166503906250, -1.059814453125, 0.232421875000, 20.742187500000, -19.601562500000, -6.328125000000, 1491882926
0.166503906250, -1.059814453125, 0.232421875000, 20.742187500000, -19.601562500000, -6.328125000000, 1491882926
0.166503906250, -1.059814453125, 0.232421875000, 20.742187500000, -19.601562500000, -6.328125000000, 1491882926
0.113037109375, -0.942871093750, 0.192871093750, -12.070312500000, 14.414062500000, -0.054687500000, 1491882926
0.113037109375, -0.942871093750, 0.192871093750, -12.070312500000, 14.414062500000, -0.054687500000, 1491882926
0.113037109375, -0.942871093750, 0.192871093750, -12.070312500000, 14.414062500000, -0.054687500000, 1491882926
0.128417968750, -0.913085937500, 0.142089843750, -1.562500000000, 1.968750000000, 1.593750000000, 1491882926
0.128417968750, -0.913085937500, 0.142089843750, -1.562500000000, 1.968750000000, 1.593750000000, 1491882926
0.128417968750, -0.913085937500, 0.142089843750, -1.562500000000, 1.968750000000, 1.593750000000, 1491882926
0.128417968750, -0.913085937500, 0.142089843750, -1.562500000000, 1.968750000000, 1.593750000000, 1491882926
0.143554687500, -0.843994140625, 0.218505859375, -4.734375000000, 9.085937500000, 7.742187500000, 1491882926
0.143554687500, -0.843994140625, 0.218505859375, -4.734375000000, 9.085937500000, 7.742187500000, 1491882926
0.143554687500, -0.843994140625, 0.218505859375, -4.734375000000, 9.085937500000, 7.742187500000, 1491882926
0.070068359375, -0.954101562500, 0.096435546875, -3.062500000000, 19.984375000000, 11.953125000000, 1491882926
0.070068359375, -0.954101562500, 0.096435546875, -3.062500000000, 19.984375000000, 11.953125000000, 1491882926
0.070068359375, -0.954101562500, 0.096435546875, -3.062500000000, 19.984375000000, 11.953125000000, 1491882926
0.034179687500, -1.007568359375, 0.230957031250, 8.562500000000, 25.968750000000, 8.296875000000, 1491882926
0.034179687500, -1.007568359375, 0.230957031250, 8.562500000000, 25.968750000000, 8.296875000000, 1491882926
0.034179687500, -1.007568359375, 0.230957031250, 8.562500000000, 25.968750000000, 8.296875000000, 1491882926
0.198730468750, -1.069824218750, 0.235351562500, -5.039062500000, 38.468750000000, 14.953125000000, 1491882926
0.198730468750, -1.069824218750, 0.235351562500, -5.039062500000, 38.468750000000, 14.953125000000, 1491882926
0.198730468750, -1.069824218750, 0.235351562500, -5.039062500000, 38.468750000000, 14.953125000000, 1491882926
0.198730468750, -1.069824218750, 0.235351562500, -5.039062500000, 38.468750000000, 14.953125000000, 1491882926
0.207519531250, -1.143798828125, 0.052246093750, -3.929687500000, 36.000000000000, 22.304687500000, 1491882926
0.207519531250, -1.143798828125, 0.052246093750, -3.929687500000, 36.000000000000, 22.304687500000, 1491882926
0.207519531250, -1.143798828125, 0.052246093750, -3.929687500000, 36.000000000000, 22.304687500000, 1491882926
0.262939453125, -1.183349609375, 0.073974609375, 6.804687500000, 53.710937500000, 15.679687500000, 1491882926
0.262939453125, -1.183349609375, 0.073974609375, 6.804687500000, 53.710937500000, 15.679687500000, 1491882926
0.262939453125, -1.183349609375, 0.073974609375, 6.804687500000, 53.710937500000, 15.679687500000, 1491882926
0.214111328125, -0.945068359375, 0.145751953125, 8.140625000000, 63.898437500000, 7.390625000000, 1491882926
0.214111328125, -0.945068359375, 0.145751953125, 8.140625000000, 63.898437500000, 7.390625000000, 1491882926
0.214111328125, -0.945068359375, 0.145751953125, 8.140625000000, 63.898437500000, 7.390625000000, 1491882926
0.234130859375, -0.874511718750, -0.087158203125, -7.781250000000, 98.773437500000, 4.218750000000, 1491882926
0.234130859375, -0.874511718750, -0.087158203125, -7.781250000000, 98.773437500000, 4.218750000000, 1491882926
0.234130859375, -0.874511718750, -0.087158203125, -7.781250000000, 98.773437500000, 4.218750000000, 1491882926
0.234130859375, -0.874511718750, -0.087158203125, -7.781250000000, 98.773437500000, 4.218750000000, 1491882926
0.291748046875, -0.959716796875, -0.049072265625, 21.421875000000, 111.898437500000, -3.539062500000, 1491882926
0.291748046875, -0.959716796875, -0.049072265625, 21.421875000000, 111.898437500000, -3.539062500000, 1491882926
0.291748046875, -0.959716796875, -0.049072265625, 21.421875000000, 111.898437500000, -3.539062500000, 1491882926
0.103515625000, -0.978027343750, 0.010498046875, 21.562500000000, 45.070312500000, 20.804687500000, 1491882926
0.103515625000, -0.978027343750, 0.010498046875, 21.562500000000, 45.070312500000, 20.804687500000, 1491882926
0.103515625000, -0.978027343750, 0.010498046875, 21.562500000000, 45.070312500000, 20.804687500000, 1491882926
-0.010742187500, -1.020019531250, 0.268554687500, 23.789062500000, 31.210937500000, -4.187500000000, 1491882926
-0.010742187500, -1.020019531250, 0.268554687500, 23.789062500000, 31.210937500000, -4.187500000000, 1491882926
-0.010742187500, -1.020019531250, 0.268554687500, 23.789062500000, 31.210937500000, -4.187500000000, 1491882926
0.387451171875, -0.890380859375, 0.053710937500, -4.382812500000, 56.210937500000, -8.867187500000, 1491882926
0.387451171875, -0.890380859375, 0.053710937500, -4.382812500000, 56.210937500000, -8.867187500000, 1491882926
0.387451171875, -0.890380859375, 0.053710937500, -4.382812500000, 56.210937500000, -8.867187500000, 1491882926
0.387451171875, -0.890380859375, 0.053710937500, -4.382812500000, 56.210937500000, -8.867187500000, 1491882926
0.265380859375, -0.915039062500, 0.148925781250, 3.234375000000, 35.882812500000, -8.328125000000, 1491882926
0.265380859375, -0.915039062500, 0.148925781250, 3.234375000000, 35.882812500000, -8.328125000000, 1491882926
0.104980468750, -0.863769531250, 0.189697265625, 5.750000000000, 17.984375000000, -10.359375000000, 1491882926
0.104980468750, -0.863769531250, 0.189697265625, 5.750000000000, 17.984375000000, -10.359375000000, 1491882926
0.104980468750, -0.863769531250, 0.189697265625, 5.750000000000, 17.984375000000, -10.359375000000, 1491882926
0.104980468750, -0.863769531250, 0.189697265625, 5.750000000000, 17.984375000000, -10.359375000000, 1491882926
0.224853515625, -0.940429687500, 0.181152343750, -1.101562500000, 4.031250000000, -7.039062500000, 1491882926
0.224853515625, -0.940429687500, 0.181152343750, -1.101562500000, 4.031250000000, -7.039062500000, 1491882926
0.224853515625, -0.940429687500, 0.181152343750, -1.101562500000, 4.031250000000, -7.039062500000, 1491882926
0.276611328125, -0.914306640625, 0.119140625000, -5.781250000000, -5.132812500000, -17.015625000000, 1491882926
0.276611328125, -0.914306640625, 0.119140625000, -5.781250000000, -5.132812500000, -17.015625000000, 1491882926
0.276611328125, -0.914306640625, 0.119140625000, -5.781250000000, -5.132812500000, -17.015625000000, 1491882926
0.276611328125, -0.914306640625, 0.119140625000, -5.781250000000, -5.132812500000, -17.015625000000, 1491882927
0.183837890625, -1.081787109375, 0.197753906250, -8.250000000000, 0.250000000000, -16.796875000000, 1491882927
0.183837890625, -1.081787109375, 0.197753906250, -8.250000000000, 0.250000000000, -16.796875000000, 1491882927
0.183837890625, -1.081787109375, 0.197753906250, -8.250000000000, 0.250000000000, -16.796875000000, 1491882927
-0.025146484375, -1.460693359375, 0.185791015625, -26.585937500000, -15.984375000000, -17.421875000000, 1491882927
-0.025146484375, -1.460693359375, 0.185791015625, -26.585937500000, -15.984375000000, -17.421875000000, 1491882927
-0.025146484375, -1.460693359375, 0.185791015625, -26.585937500000, -15.984375000000, -17.421875000000, 1491882927
0.210449218750, -1.148681640625, 0.124267578125, -21.234375000000, 22.156250000000, -16.273437500000, 1491882927
0.210449218750, -1.148681640625, 0.124267578125, -21.234375000000, 22.156250000000, -16.273437500000, 1491882927
0.210449218750, -1.148681640625, 0.124267578125, -21.234375000000, 22.156250000000, -16.273437500000, 1491882927
0.175292968750, -0.974609375000, -0.067626953125, -5.546875000000, 32.875000000000, -4.968750000000, 1491882927
0.175292968750, -0.974609375000, -0.067626953125, -5.546875000000, 32.875000000000, -4.968750000000, 1491882927
0.175292968750, -0.974609375000, -0.067626953125, -5.546875000000, 32.875000000000, -4.968750000000, 1491882927
0.175292968750, -0.974609375000, -0.067626953125, -5.546875000000, 32.875000000000, -4.968750000000, 1491882927
0.063720703125, -0.833740234375, -0.028808593750, -1.640625000000, 20.882812500000, 2.898437500000, 1491882927
0.063720703125, -0.833740234375, -0.028808593750, -1.640625000000, 20.882812500000, 2.898437500000, 1491882927
0.063720703125, -0.833740234375, -0.028808593750, -1.640625000000, 20.882812500000, 2.898437500000, 1491882927
-0.042968750000, -0.927490234375, -0.057373046875, -8.250000000000, 3.796875000000, -7.148437500000, 1491882927
-0.042968750000, -0.927490234375, -0.057373046875, -8.250000000000, 3.796875000000, -7.148437500000, 1491882927
-0.042968750000, -0.927490234375, -0.057373046875, -8.250000000000, 3.796875000000, -7.148437500000, 1491882927
-0.008789062500, -0.992431640625, -0.089843750000, 8.906250000000, -17.406250000000, -5.976562500000, 1491882927
-0.008789062500, -0.992431640625, -0.089843750000, 8.906250000000, -17.406250000000, -5.976562500000, 1491882927
0.124023437500, -0.970214843750, 0.151611328125, 10.093750000000, 4.546875000000, -0.945312500000, 1491882927
0.124023437500, -0.970214843750, 0.151611328125, 10.093750000000, 4.546875000000, -0.945312500000, 1491882927
0.124023437500, -0.970214843750, 0.151611328125, 10.093750000000, 4.546875000000, -0.945312500000, 1491882927
0.124023437500, -0.970214843750, 0.151611328125, 10.093750000000, 4.546875000000, -0.945312500000, 1491882927
0.124023437500, -0.970214843750, 0.151611328125, 10.093750000000, 4.546875000000, -0.945312500000, 1491882927
0.129394531250, -0.955566406250, 0.141845703125, -6.500000000000, 24.265625000000, 8.656250000000, 1491882927
0.129394531250, -0.955566406250, 0.141845703125, -6.500000000000, 24.265625000000, 8.656250000000, 1491882927
0.129394531250, -0.955566406250, 0.141845703125, -6.500000000000, 24.265625000000, 8.656250000000, 1491882927
0.085937500000, -0.895996093750, 0.038574218750, 2.601562500000, 20.906250000000, 1.281250000000, 1491882927
0.085937500000, -0.895996093750, 0.038574218750, 2.601562500000, 20.906250000000, 1.281250000000, 1491882927
0.085937500000, -0.895996093750, 0.038574218750, 2.601562500000, 20.906250000000, 1.281250000000, 1491882927
-0.008544921875, -0.954345703125, 0.158447265625, -0.273437500000, 6.070312500000, 6.078125000000, 1491882927
-0.008544921875, -0.954345703125, 0.158447265625, -0.273437500000, 6.070312500000, 6.078125000000, 1491882927
-0.008544921875, -0.954345703125, 0.158447265625, -0.273437500000, 6.070312500000, 6.078125000000, 1491882927
0.109375000000, -0.934570312500, 0.169433593750, -4.015625000000, 21.468750000000, 1.273437500000, 1491882927
0.109375000000, -0.934570312500, 0.169433593750, -4.015625000000, 21.468750000000, 1.273437500000, 1491882927
0.109375000000, -0.934570312500, 0.169433593750, -4.015625000000, 21.468750000000, 1.273437500000, 1491882927
0.109375000000, -0.934570312500, 0.169433593750, -4.015625000000, 21.468750000000, 1.273437500000, 1491882927
0.187988281250, -0.926269531250, 0.123046875000, -1.171875000000, 28.562500000000, 5.507812500000, 1491882927
0.187988281250, -0.926269531250, 0.123046875000, -1.171875000000, 28.562500000000, 5.507812500000, 1491882927
0.187988281250, -0.926269531250, 0.123046875000, -1.171875000000, 28.562500000000, 5.507812500000, 1491882927
0.013916015625, -0.977783203125, 0.181396484375, 1.289062500000, 33.046875000000, 3.789062500000, 1491882927
0.013916015625, -0.977783203125, 0.181396484375, 1.289062500000, 33.046875000000, 3.789062500000, 1491882927
0.013916015625, -0.977783203125, 0.181396484375, 1.289062500000, 33.046875000000, 3.789062500000, 1491882927
-0.004882812500, -1.041259765625, 0.199462890625, -6.867187500000, 35.617187500000, 2.718750000000, 1491882927
-0.004882812500, -1.041259765625, 0.199462890625, -6.867187500000, 35.617187500000, 2.718750000000, 1491882927
-0.004882812500, -1.041259765625, 0.199462890625, -6.867187500000, 35.617187500000, 2.718750000000, 1491882927
0.194580078125, -1.113037109375, 0.216796875000, -1.257812500000, 25.820312500000, 5.593750000000, 1491882927
0.194580078125, -1.113037109375, 0.216796875000, -1.257812500000, 25.820312500000, 5.593750000000, 1491882927
0.194580078125, -1.113037109375, 0.216796875000, -1.257812500000, 25.820312500000, 5.593750000000, 1491882927
0.194580078125, -1.113037109375, 0.216796875000, -1.257812500000, 25.820312500000, 5.593750000000, 1491882927
0.188720703125, -1.104248046875, 0.115478515625, -6.187500000000, 46.031250000000, 7.250000000000, 1491882927
0.188720703125, -1.104248046875, 0.115478515625, -6.187500000000, 46.031250000000, 7.250000000000, 1491882927
0.188720703125, -1.104248046875, 0.115478515625, -6.187500000000, 46.031250000000, 7.250000000000, 1491882927
0.152099609375, -0.960449218750, 0.140869140625, -1.492187500000, 54.070312500000, 9.953125000000, 1491882927
0.152099609375, -0.960449218750, 0.140869140625, -1.492187500000, 54.070312500000, 9.953125000000, 1491882927
0.152099609375, -0.960449218750, 0.140869140625, -1.492187500000, 54.070312500000, 9.953125000000, 1491882927
0.145507812500, -0.811035156250, 0.045410156250, 1.437500000000, 53.718750000000, 4.093750000000, 1491882927
0.145507812500, -0.811035156250, 0.045410156250, 1.437500000000, 53.718750000000, 4.093750000000, 1491882927
0.145507812500, -0.811035156250, 0.045410156250, 1.437500000000, 53.718750000000, 4.093750000000, 1491882927
0.276611328125, -0.847167968750, 0.139648437500, 4.250000000000, 60.546875000000, 3.562500000000, 1491882927
