ACC_X,ACC_Y,ACC_Z,G_X,G_Y,G_Z,Unix Time
0.472412109375, -0.813476562500, 0.350830078125, 0.406250000000, 4.773437500000, -2.992187500000, 1491880794
0.472412109375, -0.813476562500, 0.350830078125, 0.406250000000, 4.773437500000, -2.992187500000, 1491880794
0.472412109375, -0.813476562500, 0.350830078125, 0.406250000000, 4.773437500000, -2.992187500000, 1491880794
0.412353515625, -0.892578125000, 0.295654296875, -2.234375000000, 6.117187500000, -2.742187500000, 1491880794
0.412353515625, -0.892578125000, 0.295654296875, -2.234375000000, 6.117187500000, -2.742187500000, 1491880794
0.412353515625, -0.892578125000, 0.295654296875, -2.234375000000, 6.117187500000, -2.742187500000, 1491880794
0.348388671875, -0.820312500000, 0.294677734375, 2.078125000000, 3.601562500000, -2.765625000000, 1491880794
0.348388671875, -0.820312500000, 0.294677734375, 2.078125000000, 3.601562500000, -2.765625000000, 1491880794
0.348388671875, -0.820312500000, 0.294677734375, 2.078125000000, 3.601562500000, -2.765625000000, 1491880794
0.520263671875, -0.825683593750, 0.353271484375, 0.648437500000, 2.492187500000, -6.960937500000, 1491880794
0.520263671875, -0.825683593750, 0.353271484375, 0.648437500000, 2.492187500000, -6.960937500000, 1491880794
0.520263671875, -0.825683593750, 0.353271484375, 0.648437500000, 2.492187500000, -6.960937500000, 1491880794
0.520263671875, -0.825683593750, 0.353271484375, 0.648437500000, 2.492187500000, -6.960937500000, 1491880794
0.418945312500, -0.735839843750, 0.383544921875, -2.890625000000, -1.921875000000, -6.500000000000, 1491880794
0.418945312500, -0.735839843750, 0.383544921875, -2.890625000000, -1.921875000000, -6.500000000000, 1491880794
0.418945312500, -0.735839843750, 0.383544921875, -2.890625000000, -1.921875000000, -6.500000000000, 1491880794
0.433105468750, -0.790771484375, 0.363281250000, -4.320312500000, 0.273437500000, -3.929687500000, 1491880794
0.433105468750, -0.790771484375, 0.363281250000, -4.320312500000, 0.273437500000, -3.929687500000, 1491880794
0.433105468750, -0.790771484375, 0.363281250000, -4.320312500000, 0.273437500000, -3.929687500000, 1491880794
0.409179687500, -0.725585937500, 0.404052734375, -4.359375000000, -2.562500000000, -6.156250000000, 1491880794
0.409179687500, -0.725585937500, 0.404052734375, -4.359375000000, -2.562500000000, -6.156250000000, 1491880794
0.409179687500, -0.725585937500, 0.404052734375, -4.359375000000, -2.562500000000, -6.156250000000, 1491880794
0.371826171875, -0.786865234375, 0.301025390625, -1.851562500000, -4.093750000000, -6.781250000000, 1491880794
0.371826171875, -0.786865234375, 0.301025390625, -1.851562500000, -4.093750000000, -6.781250000000, 1491880794
0.371826171875, -0.786865234375, 0.301025390625, -1.851562500000, -4.093750000000, -6.781250000000, 1491880794
0.371826171875, -0.786865234375, 0.301025390625, -1.851562500000, -4.093750000000, -6.781250000000, 1491880794
0.422607421875, -0.737548828125, 0.284179687500, -1.242187500000, 0.460937500000, -6.250000000000, 1491880794
0.422607421875, -0.737548828125, 0.284179687500, -1.242187500000, 0.460937500000, -6.250000000000, 1491880794
0.422607421875, -0.737548828125, 0.284179687500, -1.242187500000, 0.460937500000, -6.250000000000, 1491880794
0.423095703125, -0.787109375000, 0.301513671875, -3.945312500000, -2.453125000000, -5.406250000000, 1491880794
0.423095703125, -0.787109375000, 0.301513671875, -3.945312500000, -2.453125000000, -5.406250000000, 1491880794
0.423095703125, -0.787109375000, 0.301513671875, -3.945312500000, -2.453125000000, -5.406250000000, 1491880794
0.345458984375, -0.748046875000, 0.394042968750, -6.085937500000, -2.257812500000, -6.640625000000, 1491880794
0.345458984375, -0.748046875000, 0.394042968750, -6.085937500000, -2.257812500000, -6.640625000000, 1491880794
0.345458984375, -0.748046875000, 0.394042968750, -6.085937500000, -2.257812500000, -6.640625000000, 1491880794
0.447021484375, -0.818847656250, 0.398193359375, -5.671875000000, -2.781250000000, -7.539062500000, 1491880794
0.447021484375, -0.818847656250, 0.398193359375, -5.671875000000, -2.781250000000, -7.539062500000, 1491880794
0.447021484375, -0.818847656250, 0.398193359375, -5.671875000000, -2.781250000000, -7.539062500000, 1491880794
0.447021484375, -0.818847656250, 0.398193359375, -5.671875000000, -2.781250000000, -7.539062500000, 1491880794
0.360107421875, -0.820556640625, 0.378417968750, -3.695312500000, -2.453125000000, -5.546875000000, 1491880794
0.360107421875, -0.820556640625, 0.378417968750, -3.695312500000, -2.453125000000, -5.546875000000, 1491880794
0.360107421875, -0.820556640625, 0.378417968750, -3.695312500000, -2.453125000000, -5.546875000000, 1491880794
0.500976562500, -0.783691406250, 0.304687500000, -3.406250000000, -1.734375000000, -8.320312500000, 1491880794
0.500976562500, -0.783691406250, 0.304687500000, -3.406250000000, -1.734375000000, -8.320312500000, 1491880794
0.500976562500, -0.783691406250, 0.304687500000, -3.406250000000, -1.734375000000, -8.320312500000, 1491880794
0.411376953125, -0.782470703125, 0.383789062500, -2.976562500000, -1.828125000000, -8.437500000000, 1491880794
0.411376953125, -0.782470703125, 0.383789062500, -2.976562500000, -1.828125000000, -8.437500000000, 1491880794
0.411376953125, -0.782470703125, 0.383789062500, -2.976562500000, -1.828125000000, -8.437500000000, 1491880794
0.352783203125, -0.824218750000, 0.406005859375, -1.906250000000, -0.281250000000, -7.023437500000, 1491880794
0.352783203125, -0.824218750000, 0.406005859375, -1.906250000000, -0.281250000000, -7.023437500000, 1491880794
0.352783203125, -0.824218750000, 0.406005859375, -1.906250000000, -0.281250000000, -7.023437500000, 1491880794
0.352783203125, -0.824218750000, 0.406005859375, -1.906250000000, -0.281250000000, -7.023437500000, 1491880794
0.409912109375, -0.768798828125, 0.398437500000, -6.898437500000, -1.421875000000, -3.765625000000, 1491880794
0.409912109375, -0.768798828125, 0.398437500000, -6.898437500000, -1.421875000000, -3.765625000000, 1491880794
0.409912109375, -0.768798828125, 0.398437500000, -6.898437500000, -1.421875000000, -3.765625000000, 1491880795
0.354492187500, -0.842773437500, 0.401367187500, -6.109375000000, -2.335937500000, -8.531250000000, 1491880795
0.346191406250, -0.832275390625, 0.392333984375, -5.437500000000, -1.515625000000, -5.773437500000, 1491880795
0.346191406250, -0.832275390625, 0.392333984375, -5.437500000000, -1.515625000000, -5.773437500000, 1491880795
0.346191406250, -0.832275390625, 0.392333984375, -5.437500000000, -1.515625000000, -5.773437500000, 1491880795
0.454833984375, -0.783203125000, 0.341796875000, -3.562500000000, -2.343750000000, -8.132812500000, 1491880795
0.357910156250, -0.740966796875, 0.346191406250, -6.085937500000, -2.804687500000, -6.937500000000, 1491880795
0.357910156250, -0.740966796875, 0.346191406250, -6.085937500000, -2.804687500000, -6.937500000000, 1491880795
0.357910156250, -0.740966796875, 0.346191406250, -6.085937500000, -2.804687500000, -6.937500000000, 1491880795
0.299072265625, -0.938232421875, 0.352783203125, -3.078125000000, 0.257812500000, -3.617187500000, 1491880795
0.299072265625, -0.938232421875, 0.352783203125, -3.078125000000, 0.257812500000, -3.617187500000, 1491880795
0.299072265625, -0.938232421875, 0.352783203125, -3.078125000000, 0.257812500000, -3.617187500000, 1491880795
0.299072265625, -0.938232421875, 0.352783203125, -3.078125000000, 0.257812500000, -3.617187500000, 1491880795
0.299072265625, -0.938232421875, 0.352783203125, -3.078125000000, 0.257812500000, -3.617187500000, 1491880795
0.452392578125, -0.878173828125, 0.354980468750, -5.000000000000, -0.460937500000, -5.101562500000, 1491880795
0.452392578125, -0.878173828125, 0.354980468750, -5.000000000000, -0.460937500000, -5.101562500000, 1491880795
0.452392578125, -0.878173828125, 0.354980468750, -5.000000000000, -0.460937500000, -5.101562500000, 1491880795
0.347167968750, -0.837646484375, 0.307861328125, -3.523437500000, -0.148437500000, -2.789062500000, 1491880795
0.347167968750, -0.837646484375, 0.307861328125, -3.523437500000, -0.148437500000, -2.789062500000, 1491880795
0.347167968750, -0.837646484375, 0.307861328125, -3.523437500000, -0.148437500000, -2.789062500000, 1491880795
0.439697265625, -0.813476562500, 0.311035156250, -6.742187500000, -1.234375000000, -6.390625000000, 1491880795
0.439697265625, -0.813476562500, 0.311035156250, -6.742187500000, -1.234375000000, -6.390625000000, 1491880795
0.439697265625, -0.813476562500, 0.311035156250, -6.742187500000, -1.234375000000, -6.390625000000, 1491880795
0.439697265625, -0.813476562500, 0.311035156250, -6.742187500000, -1.234375000000, -6.390625000000, 1491880795
0.438476562500, -0.845703125000, 0.344482421875, -1.640625000000, 2.609375000000, -1.726562500000, 1491880795
0.438476562500, -0.845703125000, 0.344482421875, -1.640625000000, 2.609375000000, -1.726562500000, 1491880795
0.438476562500, -0.845703125000, 0.344482421875, -1.640625000000, 2.609375000000, -1.726562500000, 1491880795
0.307861328125, -0.727294921875, 0.388183593750, -1.031250000000, -0.992187500000, -4.375000000000, 1491880795
0.307861328125, -0.727294921875, 0.388183593750, -1.031250000000, -0.992187500000, -4.375000000000, 1491880795
0.307861328125, -0.727294921875, 0.388183593750, -1.031250000000, -0.992187500000, -4.375000000000, 1491880795
0.344238281250, -0.791503906250, 0.379150390625, 0.351562500000, -0.976562500000, -5.726562500000, 1491880795
0.344238281250, -0.791503906250, 0.379150390625, 0.351562500000, -0.976562500000, -5.726562500000, 1491880795
0.344238281250, -0.791503906250, 0.379150390625, 0.351562500000, -0.976562500000, -5.726562500000, 1491880795
0.371582031250, -0.830566406250, 0.409912109375, -2.953125000000, 2.820312500000, -3.070312500000, 1491880795
0.371582031250, -0.830566406250, 0.409912109375, -2.953125000000, 2.820312500000, -3.070312500000, 1491880795
0.371582031250, -0.830566406250, 0.409912109375, -2.953125000000, 2.820312500000, -3.070312500000, 1491880795
0.371582031250, -0.830566406250, 0.409912109375, -2.953125000000, 2.820312500000, -3.070312500000, 1491880795
0.404785156250, -0.791015625000, 0.290527343750, -4.679687500000, -4.625000000000, -4.398437500000, 1491880795
0.404785156250, -0.791015625000, 0.290527343750, -4.679687500000, -4.625000000000, -4.398437500000, 1491880795
0.404785156250, -0.791015625000, 0.290527343750, -4.679687500000, -4.625000000000, -4.398437500000, 1491880795
0.392822265625, -0.818115234375, 0.359130859375, -1.062500000000, -1.906250000000, -4.945312500000, 1491880795
0.392822265625, -0.818115234375, 0.359130859375, -1.062500000000, -1.906250000000, -4.945312500000, 1491880795
0.392822265625, -0.818115234375, 0.359130859375, -1.062500000000, -1.906250000000, -4.945312500000, 1491880795
0.391113281250, -0.827148437500, 0.290039062500, -3.804687500000, -3.023437500000, -3.367187500000, 1491880795
0.369628906250, -0.810302734375, 0.342773437500, -1.406250000000, -3.757812500000, -3.718750000000, 1491880795
0.369628906250, -0.810302734375, 0.342773437500, -1.406250000000, -3.757812500000, -3.718750000000, 1491880795
0.369628906250, -0.810302734375, 0.342773437500, -1.406250000000, -3.757812500000, -3.718750000000, 1491880795
0.369628906250, -0.810302734375, 0.342773437500, -1.406250000000, -3.757812500000, -3.718750000000, 1491880795
0.431640625000, -0.875244140625, 0.299560546875, -4.812500000000, -3.046875000000, -6.851562500000, 1491880795
0.431640625000, -0.875244140625, 0.299560546875, -4.812500000000, -3.046875000000, -6.851562500000, 1491880795
0.431640625000, -0.875244140625, 0.299560546875, -4.812500000000, -3.046875000000, -6.851562500000, 1491880795
0.431640625000, -0.875244140625, 0.299560546875, -4.812500000000, -3.046875000000, -6.851562500000, 1491880795
0.431640625000, -0.875244140625, 0.299560546875, -4.812500000000, -3.046875000000, -6.851562500000, 1491880795
0.406494140625, -0.877441406250, 0.311035156250, -4.835937500000, 0.062500000000, -4.140625000000, 1491880795
0.406494140625, -0.877441406250, 0.311035156250, -4.835937500000, 0.062500000000, -4.140625000000, 1491880795
0.406494140625, -0.877441406250, 0.311035156250, -4.835937500000, 0.062500000000, -4.140625000000, 1491880795
0.359130859375, -0.785644531250, 0.390136718750, -1.320312500000, -0.500000000000, -6.164062500000, 1491880795
0.359130859375, -0.785644531250, 0.390136718750, -1.320312500000, -0.500000000000, -6.164062500000, 1491880795
0.359130859375, -0.785644531250, 0.390136718750, -1.320312500000, -0.500000000000, -6.164062500000, 1491880795
0.445068359375, -0.807373046875, 0.456054687500, -2.515625000000, 4.273437500000, -3.125000000000, 1491880795
0.445068359375, -0.807373046875, 0.456054687500, -2.515625000000, 4.273437500000, -3.125000000000, 1491880795
0.445068359375, -0.807373046875, 0.456054687500, -2.515625000000, 4.273437500000, -3.125000000000, 1491880795
0.445068359375, -0.807373046875, 0.456054687500, -2.515625000000, 4.273437500000, -3.125000000000, 1491880795
0.189208984375, -0.852539062500, 0.450683593750, 5.703125000000, 4.625000000000, 1.757812500000, 1491880795
0.189208984375, -0.852539062500, 0.450683593750, 5.703125000000, 4.625000000000, 1.757812500000, 1491880795
0.189208984375, -0.852539062500, 0.450683593750, 5.703125000000, 4.625000000000, 1.757812500000, 1491880795
0.047119140625, -0.870849609375, 0.514648437500, 0.851562500000, 3.304687500000, 11.812500000000, 1491880796
0.047119140625, -0.870849609375, 0.514648437500, 0.851562500000, 3.304687500000, 11.812500000000, 1491880796
0.047119140625, -0.870849609375, 0.514648437500, 0.851562500000, 3.304687500000, 11.812500000000, 1491880796
-0.065429687500, -1.015136718750, 0.532958984375, 2.562500000000, 10.695312500000, 19.351562500000, 1491880796
-0.065429687500, -1.015136718750, 0.532958984375, 2.562500000000, 10.695312500000, 19.351562500000, 1491880796
-0.065429687500, -1.015136718750, 0.532958984375, 2.562500000000, 10.695312500000, 19.351562500000, 1491880796
-0.084228515625, -0.899169921875, 0.410400390625, 32.953125000000, -28.023437500000, 17.906250000000, 1491880796
-0.084228515625, -0.899169921875, 0.410400390625, 32.953125000000, -28.023437500000, 17.906250000000, 1491880796
-0.084228515625, -0.899169921875, 0.410400390625, 32.953125000000, -28.023437500000, 17.906250000000, 1491880796
-0.084228515625, -0.899169921875, 0.410400390625, 32.953125000000, -28.023437500000, 17.906250000000, 1491880796
-0.222167968750, -0.808837890625, 0.351074218750, 40.078125000000, 62.835937500000, 34.585937500000, 1491880796
-0.222167968750, -0.808837890625, 0.351074218750, 40.078125000000, 62.835937500000, 34.585937500000, 1491880796
-0.222167968750, -0.808837890625, 0.351074218750, 40.078125000000, 62.835937500000, 34.585937500000, 1491880796
-0.217529296875, -0.804443359375, 0.608154296875, 8.218750000000, 39.007812500000, 37.484375000000, 1491880796
-0.217529296875, -0.804443359375, 0.608154296875, 8.218750000000, 39.007812500000, 37.484375000000, 1491880796
-0.217529296875, -0.804443359375, 0.608154296875, 8.218750000000, 39.007812500000, 37.484375000000, 1491880796
0.096923828125, -0.833740234375, 0.343750000000, -4.132812500000, -12.484375000000, 32.843750000000, 1491880796
0.096923828125, -0.833740234375, 0.343750000000, -4.132812500000, -12.484375000000, 32.843750000000, 1491880796
0.096923828125, -0.833740234375, 0.343750000000, -4.132812500000, -12.484375000000, 32.843750000000, 1491880796
0.440673828125, -0.669433593750, 0.332031250000, 44.445312500000, -109.632812500000, 28.625000000000, 1491880796
0.440673828125, -0.669433593750, 0.332031250000, 44.445312500000, -109.632812500000, 28.625000000000, 1491880796
0.440673828125, -0.669433593750, 0.332031250000, 44.445312500000, -109.632812500000, 28.625000000000, 1491880796
0.440673828125, -0.669433593750, 0.332031250000, 44.445312500000, -109.632812500000, 28.625000000000, 1491880796
-0.016845703125, -0.731445312500, 0.258056640625, 43.906250000000, 2.539062500000, 67.320312500000, 1491880796
-0.016845703125, -0.731445312500, 0.258056640625, 43.906250000000, 2.539062500000, 67.320312500000, 1491880796
-0.016845703125, -0.731445312500, 0.258056640625, 43.906250000000, 2.539062500000, 67.320312500000, 1491880796
-0.081298828125, -0.415527343750, 0.271972656250, 1.164062500000, -59.742187500000, 57.976562500000, 1491880796
-0.081298828125, -0.415527343750, 0.271972656250, 1.164062500000, -59.742187500000, 57.976562500000, 1491880796
-0.081298828125, -0.415527343750, 0.271972656250, 1.164062500000, -59.742187500000, 57.976562500000, 1491880796
0.219726562500, -0.297607421875, -0.052734375000, -17.664062500000, -64.171875000000, 47.015625000000, 1491880796
0.219726562500, -0.297607421875, -0.052734375000, -17.664062500000, -64.171875000000, 47.015625000000, 1491880796
0.256103515625, -0.406494140625, 0.201904296875, 39.070312500000, -110.984375000000, 54.398437500000, 1491880796
0.256103515625, -0.406494140625, 0.201904296875, 39.070312500000, -110.984375000000, 54.398437500000, 1491880796
0.256103515625, -0.406494140625, 0.201904296875, 39.070312500000, -110.984375000000, 54.398437500000, 1491880796
0.203369140625, -0.274658203125, 0.048095703125, 51.929687500000, -77.609375000000, 52.101562500000, 1491880796
0.062011718750, -0.160156250000, 0.045654296875, 51.929687500000, -77.609375000000, 52.101562500000, 1491880796
0.062011718750, -0.160156250000, 0.045654296875, 51.929687500000, -77.609375000000, 52.101562500000, 1491880796
0.062011718750, -0.160156250000, 0.045654296875, 51.929687500000, -77.609375000000, 52.101562500000, 1491880796
0.062011718750, -0.160156250000, 0.045654296875, 51.929687500000, -77.609375000000, 52.101562500000, 1491880796
0.073730468750, -0.003906250000, 0.047851562500, 61.351562500000, -69.562500000000, 57.796875000000, 1491880796
0.073730468750, -0.003906250000, 0.047851562500, 61.351562500000, -69.562500000000, 57.796875000000, 1491880796
0.073730468750, -0.003906250000, 0.047851562500, 61.351562500000, -69.562500000000, 57.796875000000, 1491880796
0.047119140625, 0.109375000000, 0.009277343750, 94.250000000000, -56.164062500000, 86.304687500000, 1491880796
0.047119140625, 0.109375000000, 0.009277343750, 94.250000000000, -56.164062500000, 86.304687500000, 1491880796
0.047119140625, 0.109375000000, 0.009277343750, 94.250000000000, -56.164062500000, 86.304687500000, 1491880796
0.074951171875, 0.178222656250, 0.015136718750, 109.703125000000, -31.945312500000, 93.976562500000, 1491880796
0.074951171875, 0.178222656250, 0.015136718750, 109.703125000000, -31.945312500000, 93.976562500000, 1491880796
0.074951171875, 0.178222656250, 0.015136718750, 109.703125000000, -31.945312500000, 93.976562500000, 1491880796
0.074951171875, 0.178222656250, 0.015136718750, 109.703125000000, -31.945312500000, 93.976562500000, 1491880796
0.048583984375, 0.136718750000, -0.080566406250, -13.539062500000, 54.570312500000, 79.062500000000, 1491880796
0.048583984375, 0.136718750000, -0.080566406250, -13.539062500000, 54.570312500000, 79.062500000000, 1491880796
0.048583984375, 0.136718750000, -0.080566406250, -13.539062500000, 54.570312500000, 79.062500000000, 1491880796
0.885009765625, -0.303222656250, -0.610839843750, -244.656250000000, -69.421875000000, -34.882812500000, 1491880796
0.885009765625, -0.303222656250, -0.610839843750, -244.656250000000, -69.421875000000, -34.882812500000, 1491880796
0.885009765625, -0.303222656250, -0.610839843750, -244.656250000000, -69.421875000000, -34.882812500000, 1491880796
1.261718750000, -1.250244140625, -1.783935546875, -256.000000000000, -52.796875000000, 253.992187500000, 1491880796
1.261718750000, -1.250244140625, -1.783935546875, -256.000000000000, -52.796875000000, 253.992187500000, 1491880796
1.261718750000, -1.250244140625, -1.783935546875, -256.000000000000, -52.796875000000, 253.992187500000, 1491880796
1.470703125000, -5.508300781250, -3.567382812500, -256.000000000000, -256.000000000000, -256.000000000000, 1491880796
1.470703125000, -5.508300781250, -3.567382812500, -256.000000000000, -256.000000000000, -256.000000000000, 1491880796
1.470703125000, -5.508300781250, -3.567382812500, -256.000000000000, -256.000000000000, -256.000000000000, 1491880796
1.470703125000, -5.508300781250, -3.567382812500, -256.000000000000, -256.000000000000, -256.000000000000, 1491880796
0.826416015625, -1.462646484375, -0.485595703125, -256.000000000000, 253.992187500000, 253.992187500000, 1491880796
0.826416015625, -1.462646484375, -0.485595703125, -256.000000000000, 253.992187500000, 253.992187500000, 1491880796
0.826416015625, -1.462646484375, -0.485595703125, -256.000000000000, 253.992187500000, 253.992187500000, 1491880796
0.282470703125, -0.719238281250, -0.886474609375, 53.468750000000, -256.000000000000, -91.828125000000, 1491880796
0.282470703125, -0.719238281250, -0.886474609375, 53.468750000000, -256.000000000000, -91.828125000000, 1491880796
0.282470703125, -0.719238281250, -0.886474609375, 53.468750000000, -256.000000000000, -91.828125000000, 1491880797
-0.320312500000, 0.191406250000, 0.224121093750, 253.992187500000, -51.500000000000, -43.335937500000, 1491880797
-0.320312500000, 0.191406250000, 0.224121093750, 253.992187500000, -51.500000000000, -43.335937500000, 1491880797
-0.320312500000, 0.191406250000, 0.224121093750, 253.992187500000, -51.500000000000, -43.335937500000, 1491880797
0.097656250000, -0.104492187500, -0.126953125000, 253.992187500000, 253.992187500000, 33.945312500000, 1491880797
0.097656250000, -0.104492187500, -0.126953125000, 253.992187500000, 253.992187500000, 33.945312500000, 1491880797
0.097656250000, -0.104492187500, -0.126953125000, 253.992187500000, 253.992187500000, 33.945312500000, 1491880797
0.097656250000, -0.104492187500, -0.126953125000, 253.992187500000, 253.992187500000, 33.945312500000, 1491880797
-0.026611328125, -0.099609375000, 0.039794921875, 253.992187500000, 253.992187500000, 133.937500000000, 1491880797
-0.026611328125, -0.099609375000, 0.039794921875, 253.992187500000, 253.992187500000, 133.937500000000, 1491880797
-0.026611328125, -0.099609375000, 0.039794921875, 253.992187500000, 253.992187500000, 133.937500000000, 1491880797
0.094238281250, -0.061523437500, -0.171142578125, 253.992187500000, 253.992187500000, 211.007812500000, 1491880797
0.094238281250, -0.061523437500, -0.171142578125, 253.992187500000, 253.992187500000, 211.007812500000, 1491880797
0.094238281250, -0.061523437500, -0.171142578125, 253.992187500000, 253.992187500000, 211.007812500000, 1491880797
0.208496093750, -0.469238281250, -0.042236328125, -10.078125000000, 112.476562500000, -21.601562500000, 1491880797
0.208496093750, -0.469238281250, -0.042236328125, -10.078125000000, 112.476562500000, -21.601562500000, 1491880797
0.208496093750, -0.469238281250, -0.042236328125, -10.078125000000, 112.476562500000, -21.601562500000, 1491880797
0.278564453125, -0.248535156250, 0.015625000000, 73.070312500000, -71.312500000000, -112.226562500000, 1491880797
0.278564453125, -0.248535156250, 0.015625000000, 73.070312500000, -71.312500000000, -112.226562500000, 1491880797
0.278564453125, -0.248535156250, 0.015625000000, 73.070312500000, -71.312500000000, -112.226562500000, 1491880797
0.278564453125, -0.248535156250, 0.015625000000, 73.070312500000, -71.312500000000, -112.226562500000, 1491880797
1.278320312500, -0.497558593750, 0.029785156250, -28.734375000000, -256.000000000000, 232.156250000000, 1491880797
1.278320312500, -0.497558593750, 0.029785156250, -28.734375000000, -256.000000000000, 232.156250000000, 1491880797
1.278320312500, -0.497558593750, 0.029785156250, -28.734375000000, -256.000000000000, 232.156250000000, 1491880797
2.934570312500, -2.322265625000, -1.376708984375, -256.000000000000, -121.625000000000, 104.421875000000, 1491880797
2.934570312500, -2.322265625000, -1.376708984375, -256.000000000000, -121.625000000000, 104.421875000000, 1491880797
2.934570312500, -2.322265625000, -1.376708984375, -256.000000000000, -121.625000000000, 104.421875000000, 1491880797
1.285644531250, 0.269531250000, -1.167968750000, -256.000000000000, -256.000000000000, -27.890625000000, 1491880797
1.285644531250, 0.269531250000, -1.167968750000, -256.000000000000, -256.000000000000, -27.890625000000, 1491880797
1.285644531250, 0.269531250000, -1.167968750000, -256.000000000000, -256.000000000000, -27.890625000000, 1491880797
0.618652343750, -1.033691406250, -1.136962890625, -256.000000000000, -184.882812500000, -65.500000000000, 1491880797
0.618652343750, -1.033691406250, -1.136962890625, -256.000000000000, -184.882812500000, -65.500000000000, 1491880797
0.618652343750, -1.033691406250, -1.136962890625, -256.000000000000, -184.882812500000, -65.500000000000, 1491880797
0.271240234375, -0.228515625000, -0.842041015625, -190.804687500000, 123.164062500000, -54.515625000000, 1491880797
0.271240234375, -0.228515625000, -0.842041015625, -190.804687500000, 123.164062500000, -54.515625000000, 1491880797
0.271240234375, -0.228515625000, -0.842041015625, -190.804687500000, 123.164062500000, -54.515625000000, 1491880797
0.271240234375, -0.228515625000, -0.842041015625, -190.804687500000, 123.164062500000, -54.515625000000, 1491880797
0.162353515625, -0.272949218750, -0.265869140625, -87.968750000000, 253.992187500000, -81.296875000000, 1491880797
0.162353515625, -0.272949218750, -0.265869140625, -87.968750000000, 253.992187500000, -81.296875000000, 1491880797
0.162353515625, -0.272949218750, -0.265869140625, -87.968750000000, 253.992187500000, -81.296875000000, 1491880797
-0.000488281250, -0.149169921875, -0.063720703125, 102.656250000000, 253.992187500000, -18.898437500000, 1491880797
-0.000488281250, -0.149169921875, -0.063720703125, 102.656250000000, 253.992187500000, -18.898437500000, 1491880797
-0.000488281250, -0.149169921875, -0.063720703125, 102.656250000000, 253.992187500000, -18.898437500000, 1491880797
5.167236328125, -0.563964843750, 0.265380859375, 219.617187500000, -104.343750000000, -61.937500000000, 1491880797
5.167236328125, -0.563964843750, 0.265380859375, 219.617187500000, -104.343750000000, -61.937500000000, 1491880797
5.167236328125, -0.563964843750, 0.265380859375, 219.617187500000, -104.343750000000, -61.937500000000, 1491880797
5.167236328125, -0.563964843750, 0.265380859375, 219.617187500000, -104.343750000000, -61.937500000000, 1491880797
0.309082031250, -0.264160156250, 0.046875000000, -199.015625000000, 71.250000000000, 244.093750000000, 1491880797
0.309082031250, -0.264160156250, 0.046875000000, -199.015625000000, 71.250000000000, 244.093750000000, 1491880797
1.129638671875, -0.420654296875, 0.406738281250, -39.312500000000, -9.257812500000, 90.156250000000, 1491880797
1.129638671875, -0.420654296875, 0.406738281250, -39.312500000000, -9.257812500000, 90.156250000000, 1491880797
1.129638671875, -0.420654296875, 0.406738281250, -39.312500000000, -9.257812500000, 90.156250000000, 1491880797
1.129638671875, -0.420654296875, 0.406738281250, -39.312500000000, -9.257812500000, 90.156250000000, 1491880797
0.911376953125, -0.395263671875, 0.223632812500, -82.109375000000, 14.187500000000, 86.203125000000, 1491880797
0.911376953125, -0.395263671875, 0.223632812500, -82.109375000000, 14.187500000000, 86.203125000000, 1491880797
0.911376953125, -0.395263671875, 0.223632812500, -82.109375000000, 14.187500000000, 86.203125000000, 1491880797
0.899169921875, -0.474609375000, 0.116699218750, 20.882812500000, -18.789062500000, 21.593750000000, 1491880797
0.899169921875, -0.474609375000, 0.116699218750, 20.882812500000, -18.789062500000, 21.593750000000, 1491880797
0.899169921875, -0.474609375000, 0.116699218750, 20.882812500000, -18.789062500000, 21.593750000000, 1491880797
0.899169921875, -0.474609375000, 0.116699218750, 20.882812500000, -18.789062500000, 21.593750000000, 1491880797
0.825927734375, -0.568115234375, 0.044921875000, 19.945312500000, -16.929687500000, 52.507812500000, 1491880797
0.825927734375, -0.568115234375, 0.044921875000, 19.945312500000, -16.929687500000, 52.507812500000, 1491880797
0.825927734375, -0.568115234375, 0.044921875000, 19.945312500000, -16.929687500000, 52.507812500000, 1491880797
0.807128906250, -0.408203125000, -0.001464843750, 24.992187500000, -32.539062500000, -10.640625000000, 1491880797
0.807128906250, -0.408203125000, -0.001464843750, 24.992187500000, -32.539062500000, -10.640625000000, 1491880797
0.807128906250, -0.408203125000, -0.001464843750, 24.992187500000, -32.539062500000, -10.640625000000, 1491880797
0.850585937500, -0.433837890625, 0.075927734375, 0.367187500000, -40.640625000000, -19.093750000000, 1491880798
0.850585937500, -0.433837890625, 0.075927734375, 0.367187500000, -40.640625000000, -19.093750000000, 1491880798
0.850585937500, -0.433837890625, 0.075927734375, 0.367187500000, -40.640625000000, -19.093750000000, 1491880798
1.209228515625, -0.598388671875, -0.142333984375, -26.382812500000, -61.750000000000, -30.976562500000, 1491880798
1.209228515625, -0.598388671875, -0.142333984375, -26.382812500000, -61.750000000000, -30.976562500000, 1491880798
1.209228515625, -0.598388671875, -0.142333984375, -26.382812500000, -61.750000000000, -30.976562500000, 1491880798
1.209228515625, -0.598388671875, -0.142333984375, -26.382812500000, -61.750000000000, -30.976562500000, 1491880798
1.022460937500, -0.699707031250, -0.123291015625, -70.187500000000, -90.992187500000, 11.796875000000, 1491880798
1.022460937500, -0.699707031250, -0.123291015625, -70.187500000000, -90.992187500000, 11.796875000000, 1491880798
1.022460937500, -0.699707031250, -0.123291015625, -70.187500000000, -90.992187500000, 11.796875000000, 1491880798
0.871826171875, -0.498535156250, -0.199462890625, -45.859375000000, -87.921875000000, 50.125000000000, 1491880798
0.871826171875, -0.498535156250, -0.199462890625, -45.859375000000, -87.921875000000, 50.125000000000, 1491880798
0.871826171875, -0.498535156250, -0.199462890625, -45.859375000000, -87.921875000000, 50.125000000000, 1491880798
0.845214843750, -0.457275390625, -0.092285156250, 52.101562500000, -21.835937500000, 60.851562500000, 1491880798
0.845214843750, -0.457275390625, -0.092285156250, 52.101562500000, -21.835937500000, 60.851562500000, 1491880798
0.845214843750, -0.457275390625, -0.092285156250, 52.101562500000, -21.835937500000, 60.851562500000, 1491880798
0.859619140625, -0.400146484375, -0.042236328125, 39.929687500000, 6.375000000000, 28.414062500000, 1491880798
0.859619140625, -0.400146484375, -0.042236328125, 39.929687500000, 6.375000000000, 28.414062500000, 1491880798
0.859619140625, -0.400146484375, -0.042236328125, 39.929687500000, 6.375000000000, 28.414062500000, 1491880798
0.859619140625, -0.400146484375, -0.042236328125, 39.929687500000, 6.375000000000, 28.414062500000, 1491880798
0.942382812500, -0.273681640625, -0.101562500000, -27.265625000000, -53.476562500000, 1.664062500000, 1491880798
0.942382812500, -0.273681640625, -0.101562500000, -27.265625000000, -53.476562500000, 1.664062500000, 1491880798
0.942382812500, -0.273681640625, -0.101562500000, -27.265625000000, -53.476562500000, 1.664062500000, 1491880798
0.910156250000, -0.276855468750, -0.258789062500, -87.710937500000, -118.757812500000, -14.343750000000, 1491880798
0.910156250000, -0.276855468750, -0.258789062500, -87.710937500000, -118.757812500000, -14.343750000000, 1491880798
0.910156250000, -0.276855468750, -0.258789062500, -87.710937500000, -118.757812500000, -14.343750000000, 1491880798
1.004394531250, -0.386962890625, -0.460937500000, -68.937500000000, -93.218750000000, -7.648437500000, 1491880798
1.004394531250, -0.386962890625, -0.460937500000, -68.937500000000, -93.218750000000, -7.648437500000, 1491880798
1.004394531250, -0.386962890625, -0.460937500000, -68.937500000000, -93.218750000000, -7.648437500000, 1491880798
0.844726562500, -0.325927734375, -0.296386718750, 21.171875000000, -11.156250000000, -3.218750000000, 1491880798
0.844726562500, -0.325927734375, -0.296386718750, 21.171875000000, -11.156250000000, -3.218750000000, 1491880798
0.844726562500, -0.325927734375, -0.296386718750, 21.171875000000, -11.156250000000, -3.218750000000, 1491880798
0.844726562500, -0.325927734375, -0.296386718750, 21.171875000000, -11.156250000000, -3.218750000000, 1491880798
0.792724609375, -0.269042968750, -0.283935546875, 10.062500000000, -6.859375000000, -3.890625000000, 1491880798
0.792724609375, -0.269042968750, -0.283935546875, 10.062500000000, -6.859375000000, -3.890625000000, 1491880798
0.792724609375, -0.269042968750, -0.283935546875, 10.062500000000, -6.859375000000, -3.890625000000, 1491880798
0.883300781250, -0.319824218750, -0.384521484375, -26.382812500000, -27.625000000000, -17.726562500000, 1491880798
0.883300781250, -0.319824218750, -0.384521484375, -26.382812500000, -27.625000000000, -17.726562500000, 1491880798
0.883300781250, -0.319824218750, -0.384521484375, -26.382812500000, -27.625000000000, -17.726562500000, 1491880798
0.905761718750, -0.369384765625, -0.410888671875, -42.054687500000, -36.812500000000, -15.703125000000, 1491880798
0.905761718750, -0.369384765625, -0.410888671875, -42.054687500000, -36.812500000000, -15.703125000000, 1491880798
0.905761718750, -0.369384765625, -0.410888671875, -42.054687500000, -36.812500000000, -15.703125000000, 1491880798
0.960937500000, -0.363525390625, -0.460693359375, -1.757812500000, 6.390625000000, -7.500000000000, 1491880798
0.960937500000, -0.363525390625, -0.460693359375, -1.757812500000, 6.390625000000, -7.500000000000, 1491880798
0.960937500000, -0.363525390625, -0.460693359375, -1.757812500000, 6.390625000000, -7.500000000000, 1491880798
0.960937500000, -0.363525390625, -0.460693359375, -1.757812500000, 6.390625000000, -7.500000000000, 1491880798
0.855957031250, -0.465087890625, -0.380126953125, 0.851562500000, 7.632812500000, 1.210937500000, 1491880798
0.855957031250, -0.465087890625, -0.380126953125, 0.851562500000, 7.632812500000, 1.210937500000, 1491880798
0.855957031250, -0.465087890625, -0.380126953125, 0.851562500000, 7.632812500000, 1.210937500000, 1491880798
0.744140625000, -0.375000000000, -0.378173828125, -14.226562500000, -1.765625000000, -2.218750000000, 1491880798
0.744140625000, -0.375000000000, -0.378173828125, -14.226562500000, -1.765625000000, -2.218750000000, 1491880798
0.744140625000, -0.375000000000, -0.378173828125, -14.226562500000, -1.765625000000, -2.218750000000, 1491880798
0.817626953125, -0.361572265625, -0.306640625000, -11.523437500000, -0.695312500000, -6.070312500000, 1491880798
0.810791015625, -0.444335937500, -0.383056640625, -8.531250000000, 2.453125000000, -7.765625000000, 1491880798
0.810791015625, -0.444335937500, -0.383056640625, -8.531250000000, 2.453125000000, -7.765625000000, 1491880798
0.810791015625, -0.444335937500, -0.383056640625, -8.531250000000, 2.453125000000, -7.765625000000, 1491880798
0.810791015625, -0.444335937500, -0.383056640625, -8.531250000000, 2.453125000000, -7.765625000000, 1491880798
0.894287109375, -0.343994140625, -0.242919921875, -3.265625000000, -2.992187500000, -3.679687500000, 1491880798
0.894287109375, -0.343994140625, -0.242919921875, -3.265625000000, -2.992187500000, -3.679687500000, 1491880798
0.894287109375, -0.343994140625, -0.242919921875, -3.265625000000, -2.992187500000, -3.679687500000, 1491880798
0.881347656250, -0.437988281250, -0.291015625000, -4.210937500000, -5.750000000000, -2.070312500000, 1491880798
0.881347656250, -0.437988281250, -0.291015625000, -4.210937500000, -5.750000000000, -2.070312500000, 1491880798
0.881347656250, -0.437988281250, -0.291015625000, -4.210937500000, -5.750000000000, -2.070312500000, 1491880798
0.881347656250, -0.437988281250, -0.291015625000, -4.210937500000, -5.750000000000, -2.070312500000, 1491880798
0.881347656250, -0.437988281250, -0.291015625000, -4.210937500000, -5.750000000000, -2.070312500000, 1491880798
0.888427734375, -0.396728515625, -0.399902343750, -5.460937500000, -16.265625000000, -0.890625000000, 1491880798
0.888427734375, -0.396728515625, -0.399902343750, -5.460937500000, -16.265625000000, -0.890625000000, 1491880799
0.888427734375, -0.396728515625, -0.399902343750, -5.460937500000, -16.265625000000, -0.890625000000, 1491880799
0.838623046875, -0.433593750000, -0.361328125000, -3.390625000000, -14.476562500000, -5.890625000000, 1491880799
0.838623046875, -0.433593750000, -0.361328125000, -3.390625000000, -14.476562500000, -5.890625000000, 1491880799
0.838623046875, -0.433593750000, -0.361328125000, -3.390625000000, -14.476562500000, -5.890625000000, 1491880799
0.838623046875, -0.433593750000, -0.361328125000, -3.390625000000, -14.476562500000, -5.890625000000, 1491880799
0.848388671875, -0.426025390625, -0.451416015625, -6.570312500000, -22.367187500000, -1.296875000000, 1491880799
0.848388671875, -0.426025390625, -0.451416015625, -6.570312500000, -22.367187500000, -1.296875000000, 1491880799
0.848388671875, -0.426025390625, -0.451416015625, -6.570312500000, -22.367187500000, -1.296875000000, 1491880799
0.786376953125, -0.461425781250, -0.306152343750, -7.671875000000, -15.367187500000, -4.140625000000, 1491880799
0.786376953125, -0.461425781250, -0.306152343750, -7.671875000000, -15.367187500000, -4.140625000000, 1491880799
0.786376953125, -0.461425781250, -0.306152343750, -7.671875000000, -15.367187500000, -4.140625000000, 1491880799
0.803222656250, -0.408691406250, -0.423095703125, -7.882812500000, -16.812500000000, 0.828125000000, 1491880799
0.803222656250, -0.408691406250, -0.423095703125, -7.882812500000, -16.812500000000, 0.828125000000, 1491880799
0.803222656250, -0.408691406250, -0.423095703125, -7.882812500000, -16.812500000000, 0.828125000000, 1491880799
0.853759765625, -0.371826171875, -0.414062500000, -3.000000000000, -11.789062500000, 0.867187500000, 1491880799
0.853759765625, -0.371826171875, -0.414062500000, -3.000000000000, -11.789062500000, 0.867187500000, 1491880799
0.853759765625, -0.371826171875, -0.414062500000, -3.000000000000, -11.789062500000, 0.867187500000, 1491880799
0.853759765625, -0.371826171875, -0.414062500000, -3.000000000000, -11.789062500000, 0.867187500000, 1491880799
0.885498046875, -0.306884765625, -0.443847656250, -4.273437500000, -7.945312500000, 1.695312500000, 1491880799
0.885498046875, -0.306884765625, -0.443847656250, -4.273437500000, -7.945312500000, 1.695312500000, 1491880799
0.885498046875, -0.306884765625, -0.443847656250, -4.273437500000, -7.945312500000, 1.695312500000, 1491880799
0.739501953125, -0.408691406250, -0.458496093750, -9.546875000000, -12.281250000000, -1.921875000000, 1491880799
0.739501953125, -0.408691406250, -0.458496093750, -9.546875000000, -12.281250000000, -1.921875000000, 1491880799
0.739501953125, -0.408691406250, -0.458496093750, -9.546875000000, -12.281250000000, -1.921875000000, 1491880799
0.833007812500, -0.453857421875, -0.412841796875, -9.742187500000, -14.570312500000, 0.984375000000, 1491880799
0.833007812500, -0.453857421875, -0.412841796875, -9.742187500000, -14.570312500000, 0.984375000000, 1491880799
0.800292968750, -0.407714843750, -0.467285156250, -7.546875000000, -1.453125000000, -4.953125000000, 1491880799
0.800292968750, -0.407714843750, -0.467285156250, -7.546875000000, -1.453125000000, -4.953125000000, 1491880799
0.800292968750, -0.407714843750, -0.467285156250, -7.546875000000, -1.453125000000, -4.953125000000, 1491880799
0.800292968750, -0.407714843750, -0.467285156250, -7.546875000000, -1.453125000000, -4.953125000000, 1491880799
0.800292968750, -0.407714843750, -0.467285156250, -7.546875000000, -1.453125000000, -4.953125000000, 1491880799
0.810546875000, -0.500976562500, -0.452880859375, -8.929687500000, 2.687500000000, 0.742187500000, 1491880799
0.810546875000, -0.500976562500, -0.452880859375, -8.929687500000, 2.687500000000, 0.742187500000, 1491880799
0.879150390625, -0.372314453125, -0.450195312500, -10.140625000000, -1.156250000000, -0.960937500000, 1491880799
0.835937500000, -0.451416015625, -0.443115234375, -5.687500000000, 1.062500000000, -1.921875000000, 1491880799
0.835937500000, -0.451416015625, -0.443115234375, -5.687500000000, 1.062500000000, -1.921875000000, 1491880799
0.835937500000, -0.451416015625, -0.443115234375, -5.687500000000, 1.062500000000, -1.921875000000, 1491880799
0.834716796875, -0.508056640625, -0.468505859375, -5.460937500000, -2.335937500000, -5.539062500000, 1491880799
0.834716796875, -0.508056640625, -0.468505859375, -5.460937500000, -2.335937500000, -5.539062500000, 1491880799
0.893798828125, -0.356933593750, -0.458251953125, -5.398437500000, -3.804687500000, -4.585937500000, 1491880799
0.893798828125, -0.356933593750, -0.458251953125, -5.398437500000, -3.804687500000, -4.585937500000, 1491880799
0.893798828125, -0.356933593750, -0.458251953125, -5.398437500000, -3.804687500000, -4.585937500000, 1491880799
0.893798828125, -0.356933593750, -0.458251953125, -5.398437500000, -3.804687500000, -4.585937500000, 1491880799
0.893798828125, -0.356933593750, -0.458251953125, -5.398437500000, -3.804687500000, -4.585937500000, 1491880799
0.763671875000, -0.435058593750, -0.424560546875, -5.554687500000, -7.796875000000, -2.812500000000, 1491880799
0.763671875000, -0.435058593750, -0.424560546875, -5.554687500000, -7.796875000000, -2.812500000000, 1491880799
0.763671875000, -0.435058593750, -0.424560546875, -5.554687500000, -7.796875000000, -2.812500000000, 1491880799
0.725830078125, -0.417480468750, -0.425781250000, -6.578125000000, -6.257812500000, -4.328125000000, 1491880799
0.725830078125, -0.417480468750, -0.425781250000, -6.578125000000, -6.257812500000, -4.328125000000, 1491880799
0.725830078125, -0.417480468750, -0.425781250000, -6.578125000000, -6.257812500000, -4.328125000000, 1491880799
0.742919921875, -0.515136718750, -0.411865234375, -5.312500000000, -4.609375000000, -4.812500000000, 1491880799
0.742919921875, -0.515136718750, -0.411865234375, -5.312500000000, -4.609375000000, -4.812500000000, 1491880799
0.769531250000, -0.399414062500, -0.430419921875, -1.648437500000, 4.539062500000, -5.539062500000, 1491880799
0.769531250000, -0.399414062500, -0.430419921875, -1.648437500000, 4.539062500000, -5.539062500000, 1491880799
0.769531250000, -0.399414062500, -0.430419921875, -1.648437500000, 4.539062500000, -5.539062500000, 1491880799
0.769531250000, -0.399414062500, -0.430419921875, -1.648437500000, 4.539062500000, -5.539062500000, 1491880799
0.769531250000, -0.399414062500, -0.430419921875, -1.648437500000, 4.539062500000, -5.539062500000, 1491880799
0.749023437500, -0.402099609375, -0.422851562500, -4.789062500000, 0.351562500000, -3.234375000000, 1491880799
0.749023437500, -0.402099609375, -0.422851562500, -4.789062500000, 0.351562500000, -3.234375000000, 1491880799
0.749023437500, -0.402099609375, -0.422851562500, -4.789062500000, 0.351562500000, -3.234375000000, 1491880799
0.724853515625, -0.417480468750, -0.470703125000, 0.312500000000, -2.242187500000, -1.265625000000, 1491880799
0.724853515625, -0.417480468750, -0.470703125000, 0.312500000000, -2.242187500000, -1.265625000000, 1491880799
0.724853515625, -0.417480468750, -0.470703125000, 0.312500000000, -2.242187500000, -1.265625000000, 1491880799
0.820068359375, -0.409423828125, -0.433837890625, -4.593750000000, -1.710937500000, -1.476562500000, 1491880799
0.820068359375, -0.409423828125, -0.433837890625, -4.593750000000, -1.710937500000, -1.476562500000, 1491880799
0.820068359375, -0.409423828125, -0.433837890625, -4.593750000000, -1.710937500000, -1.476562500000, 1491880799
0.832763671875, -0.362060546875, -0.515136718750, -1.921875000000, -1.320312500000, -3.476562500000, 1491880800
0.832763671875, -0.362060546875, -0.515136718750, -1.921875000000, -1.320312500000, -3.476562500000, 1491880800
0.742431640625, -0.390869140625, -0.430664062500, -4.984375000000, 0.468750000000, -3.632812500000, 1491880800
0.742431640625, -0.390869140625, -0.430664062500, -4.984375000000, 0.468750000000, -3.632812500000, 1491880800
0.742431640625, -0.390869140625, -0.430664062500, -4.984375000000, 0.468750000000, -3.632812500000, 1491880800
0.742431640625, -0.390869140625, -0.430664062500, -4.984375000000, 0.468750000000, -3.632812500000, 1491880800
0.734863281250, -0.439208984375, -0.501464843750, -4.664062500000, -2.070312500000, -3.046875000000, 1491880800
0.781494140625, -0.469238281250, -0.415527343750, -4.617187500000, -2.375000000000, -1.750000000000, 1491880800
0.781494140625, -0.469238281250, -0.415527343750, -4.617187500000, -2.375000000000, -1.750000000000, 1491880800
0.781494140625, -0.469238281250, -0.415527343750, -4.617187500000, -2.375000000000, -1.750000000000, 1491880800
0.743164062500, -0.448730468750, -0.418212890625, -3.781250000000, 2.851562500000, -6.085937500000, 1491880800
0.743164062500, -0.448730468750, -0.418212890625, -3.781250000000, 2.851562500000, -6.085937500000, 1491880800
0.743164062500, -0.448730468750, -0.418212890625, -3.781250000000, 2.851562500000, -6.085937500000, 1491880800
0.834472656250, -0.445312500000, -0.410644531250, -1.429687500000, 0.726562500000, -4.781250000000, 1491880800
0.834472656250, -0.445312500000, -0.410644531250, -1.429687500000, 0.726562500000, -4.781250000000, 1491880800
0.834472656250, -0.445312500000, -0.410644531250, -1.429687500000, 0.726562500000, -4.781250000000, 1491880800
0.834472656250, -0.445312500000, -0.410644531250, -1.429687500000, 0.726562500000, -4.781250000000, 1491880800
0.819580078125, -0.429931640625, -0.369873046875, -3.210937500000, -2.281250000000, -2.906250000000, 1491880800
0.819580078125, -0.429931640625, -0.369873046875, -3.210937500000, -2.281250000000, -2.906250000000, 1491880800
0.819580078125, -0.429931640625, -0.369873046875, -3.210937500000, -2.281250000000, -2.906250000000, 1491880800
0.733398437500, -0.417480468750, -0.410888671875, -1.765625000000, 0.296875000000, -1.976562500000, 1491880800
0.733398437500, -0.417480468750, -0.410888671875, -1.765625000000, 0.296875000000, -1.976562500000, 1491880800
0.733398437500, -0.417480468750, -0.410888671875, -1.765625000000, 0.296875000000, -1.976562500000, 1491880800
0.721923828125, -0.431396484375, -0.467041015625, -3.125000000000, -2.539062500000, -4.359375000000, 1491880800
0.721923828125, -0.431396484375, -0.467041015625, -3.125000000000, -2.539062500000, -4.359375000000, 1491880800
0.721923828125, -0.431396484375, -0.467041015625, -3.125000000000, -2.539062500000, -4.359375000000, 1491880800
0.829101562500, -0.514404296875, -0.477050781250, -4.382812500000, 0.132812500000, -1.367187500000, 1491880800
0.829101562500, -0.514404296875, -0.477050781250, -4.382812500000, 0.132812500000, -1.367187500000, 1491880800
0.829101562500, -0.514404296875, -0.477050781250, -4.382812500000, 0.132812500000, -1.367187500000, 1491880800
0.829101562500, -0.514404296875, -0.477050781250, -4.382812500000, 0.132812500000, -1.367187500000, 1491880800
0.837646484375, -0.372558593750, -0.529296875000, -4.265625000000, 2.929687500000, -4.515625000000, 1491880800
0.837646484375, -0.372558593750, -0.529296875000, -4.265625000000, 2.929687500000, -4.515625000000, 1491880800
0.837646484375, -0.372558593750, -0.529296875000, -4.265625000000, 2.929687500000, -4.515625000000, 1491880800
0.782470703125, -0.449462890625, -0.461669921875, -6.273437500000, -2.742187500000, -2.179687500000, 1491880800
0.782470703125, -0.449462890625, -0.461669921875, -6.273437500000, -2.742187500000, -2.179687500000, 1491880800
0.782470703125, -0.449462890625, -0.461669921875, -6.273437500000, -2.742187500000, -2.179687500000, 1491880800
0.790771484375, -0.438476562500, -0.419433593750, -1.687500000000, 2.429687500000, -1.484375000000, 1491880800
0.790771484375, -0.438476562500, -0.419433593750, -1.687500000000, 2.429687500000, -1.484375000000, 1491880800
0.790771484375, -0.438476562500, -0.419433593750, -1.687500000000, 2.429687500000, -1.484375000000, 1491880800
0.823730468750, -0.426269531250, -0.436035156250, -4.921875000000, 0.218750000000, -3.664062500000, 1491880800
0.823730468750, -0.426269531250, -0.436035156250, -4.921875000000, 0.218750000000, -3.664062500000, 1491880800
0.823730468750, -0.426269531250, -0.436035156250, -4.921875000000, 0.218750000000, -3.664062500000, 1491880800
0.823730468750, -0.426269531250, -0.436035156250, -4.921875000000, 0.218750000000, -3.664062500000, 1491880800
0.747558593750, -0.454345703125, -0.430908203125, -1.976562500000, -2.320312500000, -4.765625000000, 1491880800
0.747558593750, -0.454345703125, -0.430908203125, -1.976562500000, -2.320312500000, -4.765625000000, 1491880800
0.747558593750, -0.454345703125, -0.430908203125, -1.976562500000, -2.320312500000, -4.765625000000, 1491880800
0.812744140625, -0.457519531250, -0.501220703125, -3.289062500000, -0.609375000000, -4.078125000000, 1491880800
0.812744140625, -0.457519531250, -0.501220703125, -3.289062500000, -0.609375000000, -4.078125000000, 1491880800
0.812744140625, -0.457519531250, -0.501220703125, -4.289062500000, -2.125000000000, -1.523437500000, 1491880800
0.821044921875, -0.454589843750, -0.504638671875, -6.070312500000, -2.562500000000, 0.359375000000, 1491880800
0.821044921875, -0.454589843750, -0.504638671875, -6.070312500000, -2.562500000000, 0.359375000000, 1491880800
0.821044921875, -0.454589843750, -0.504638671875, -6.070312500000, -2.562500000000, 0.359375000000, 1491880800
0.821044921875, -0.454589843750, -0.504638671875, -6.070312500000, -2.562500000000, 0.359375000000, 1491880800
0.821044921875, -0.454589843750, -0.504638671875, -6.070312500000, -2.562500000000, 0.359375000000, 1491880800
0.821044921875, -0.454589843750, -0.504638671875, -6.070312500000, -2.562500000000, 0.359375000000, 1491880800
0.783691406250, -0.408935546875, -0.409912109375, -1.484375000000, 0.960937500000, -6.671875000000, 1491880800
0.783691406250, -0.408935546875, -0.409912109375, -1.484375000000, 0.960937500000, -6.671875000000, 1491880800
0.783691406250, -0.408935546875, -0.409912109375, -1.484375000000, 0.960937500000, -6.671875000000, 1491880800
0.783691406250, -0.408935546875, -0.409912109375, -1.484375000000, 0.960937500000, -6.671875000000, 1491880800
0.719238281250, -0.414794921875, -0.473632812500, -4.164062500000, -2.492187500000, -1.765625000000, 1491880800
0.719238281250, -0.414794921875, -0.473632812500, -4.164062500000, -2.492187500000, -1.765625000000, 1491880800
0.719238281250, -0.414794921875, -0.473632812500, -4.164062500000, -2.492187500000, -1.765625000000, 1491880800
0.780761718750, -0.417236328125, -0.422363281250, -4.117187500000, -4.195312500000, -2.242187500000, 1491880800
0.780761718750, -0.417236328125, -0.422363281250, -4.117187500000, -4.195312500000, -2.242187500000, 1491880800
0.780761718750, -0.417236328125, -0.422363281250, -4.117187500000, -4.195312500000, -2.242187500000, 1491880800
0.750732421875, -0.473876953125, -0.516845703125, -3.578125000000, 0.523437500000, -1.078125000000, 1491880801
0.750732421875, -0.473876953125, -0.516845703125, -3.578125000000, 0.523437500000, -1.078125000000, 1491880801
0.750732421875, -0.473876953125, -0.516845703125, -3.578125000000, 0.523437500000, -1.078125000000, 1491880801
0.818603515625, -0.501708984375, -0.415771484375, -7.132812500000, -3.015625000000, -1.171875000000, 1491880801
0.818603515625, -0.501708984375, -0.415771484375, -7.132812500000, -3.015625000000, -1.171875000000, 1491880801
0.818603515625, -0.501708984375, -0.415771484375, -7.132812500000, -3.015625000000, -1.171875000000, 1491880801
0.818603515625, -0.501708984375, -0.415771484375, -7.132812500000, -3.015625000000, -1.171875000000, 1491880801
0.724365234375, -0.451416015625, -0.469970703125, -6.671875000000, 2.492187500000, -4.898437500000, 1491880801
0.724365234375, -0.451416015625, -0.469970703125, -6.671875000000, 2.492187500000, -4.898437500000, 1491880801
0.724365234375, -0.451416015625, -0.469970703125, -6.671875000000, 2.492187500000, -4.898437500000, 1491880801
0.822265625000, -0.504638671875, -0.426757812500, -3.078125000000, -0.359375000000, -1.804687500000, 1491880801
0.822265625000, -0.504638671875, -0.426757812500, -3.078125000000, -0.359375000000, -1.804687500000, 1491880801
0.822265625000, -0.504638671875, -0.426757812500, -3.078125000000, -0.359375000000, -1.804687500000, 1491880801
0.786376953125, -0.459228515625, -0.415527343750, -1.859375000000, -0.765625000000, -1.820312500000, 1491880801
0.786376953125, -0.459228515625, -0.415527343750, -1.859375000000, -0.765625000000, -1.820312500000, 1491880801
0.786376953125, -0.459228515625, -0.415527343750, -1.859375000000, -0.765625000000, -1.820312500000, 1491880801
0.786376953125, -0.459228515625, -0.415527343750, -1.859375000000, -0.765625000000, -1.820312500000, 1491880801
0.842529296875, -0.441162109375, -0.452148437500, -2.757812500000, -4.804687500000, -2.609375000000, 1491880801
0.842529296875, -0.441162109375, -0.452148437500, -2.757812500000, -4.804687500000, -2.609375000000, 1491880801
0.842529296875, -0.441162109375, -0.452148437500, -2.757812500000, -4.804687500000, -2.609375000000, 1491880801
0.796630859375, -0.433837890625, -0.517822265625, -1.382812500000, -6.023437500000, -4.796875000000, 1491880801
0.796630859375, -0.433837890625, -0.517822265625, -1.382812500000, -6.023437500000, -4.796875000000, 1491880801
0.796630859375, -0.433837890625, -0.517822265625, -1.382812500000, -6.023437500000, -4.796875000000, 1491880801
0.788085937500, -0.516601562500, -0.473632812500, -4.843750000000, 0.031250000000, -4.726562500000, 1491880801
0.788085937500, -0.516601562500, -0.473632812500, -4.843750000000, 0.031250000000, -4.726562500000, 1491880801
0.775146484375, -0.366943359375, -0.465820312500, -1.578125000000, 1.796875000000, -4.015625000000, 1491880801
0.775146484375, -0.366943359375, -0.465820312500, -1.578125000000, 1.796875000000, -4.015625000000, 1491880801
0.775146484375, -0.366943359375, -0.465820312500, -1.578125000000, 1.796875000000, -4.015625000000, 1491880801
0.775146484375, -0.366943359375, -0.465820312500, -1.578125000000, 1.796875000000, -4.015625000000, 1491880801
0.775146484375, -0.366943359375, -0.465820312500, -1.578125000000, 1.796875000000, -4.015625000000, 1491880801
0.790039062500, -0.408203125000, -0.453125000000, -6.851562500000, 1.609375000000, -3.625000000000, 1491880801
0.790039062500, -0.408203125000, -0.453125000000, -6.851562500000, 1.609375000000, -3.625000000000, 1491880801
0.790039062500, -0.408203125000, -0.453125000000, -6.851562500000, 1.609375000000, -3.625000000000, 1491880801
0.824462890625, -0.422851562500, -0.414794921875, -4.023437500000, 3.171875000000, -4.257812500000, 1491880801
0.824462890625, -0.422851562500, -0.414794921875, -4.023437500000, 3.171875000000, -4.257812500000, 1491880801
0.824462890625, -0.422851562500, -0.414794921875, -4.023437500000, 3.171875000000, -4.257812500000, 1491880801
0.808349609375, -0.443847656250, -0.510986328125, 0.031250000000, 8.281250000000, 4.296875000000, 1491880801
0.808349609375, -0.443847656250, -0.510986328125, 0.031250000000, 8.281250000000, 4.296875000000, 1491880801
0.734130859375, -0.525878906250, -0.457519531250, -10.234375000000, 76.984375000000, 27.593750000000, 1491880801
0.734130859375, -0.525878906250, -0.457519531250, -10.234375000000, 76.984375000000, 27.593750000000, 1491880801
0.734130859375, -0.525878906250, -0.457519531250, 9.796875000000, 75.031250000000, 24.812500000000, 1491880801
1.033935546875, -0.516845703125, -0.508789062500, 19.445312500000, 57.429687500000, 77.218750000000, 1491880801
1.033935546875, -0.516845703125, -0.508789062500, 19.445312500000, 57.429687500000, 77.218750000000, 1491880801
1.033935546875, -0.516845703125, -0.508789062500, 19.445312500000, 57.429687500000, 77.218750000000, 1491880801
1.063720703125, -0.478027343750, -0.357421875000, 12.976562500000, 78.890625000000, 78.234375000000, 1491880801
1.021240234375, -0.438232421875, -0.421875000000, 25.789062500000, 106.554687500000, 66.726562500000, 1491880801
1.021240234375, -0.438232421875, -0.421875000000, 25.789062500000, 106.554687500000, 66.726562500000, 1491880801
1.021240234375, -0.438232421875, -0.421875000000, 25.789062500000, 106.554687500000, 66.726562500000, 1491880801
1.021240234375, -0.438232421875, -0.421875000000, 25.789062500000, 106.554687500000, 66.726562500000, 1491880801
0.980468750000, -0.368652343750, -0.334472656250, 36.265625000000, 91.773437500000, 58.648437500000, 1491880801
0.980468750000, -0.368652343750, -0.334472656250, 36.265625000000, 91.773437500000, 58.648437500000, 1491880801
0.980468750000, -0.368652343750, -0.334472656250, 36.265625000000, 91.773437500000, 58.648437500000, 1491880801
