ACC_X,ACC_Y,ACC_Z,G_X,G_Y,G_Z,Unix Time
0.682617187500, -0.589599609375, 0.225341796875, -6.117187500000, 36.695312500000, -9.257812500000, 1491880658
0.682617187500, -0.589599609375, 0.225341796875, -6.117187500000, 36.695312500000, -9.257812500000, 1491880658
0.682617187500, -0.589599609375, 0.225341796875, -6.117187500000, 36.695312500000, -9.257812500000, 1491880658
0.682617187500, -0.589599609375, 0.225341796875, -6.117187500000, 36.695312500000, -9.257812500000, 1491880658
0.727783203125, -0.524169921875, 0.441650390625, -7.062500000000, 21.250000000000, -10.890625000000, 1491880658
0.727783203125, -0.524169921875, 0.441650390625, -7.062500000000, 21.250000000000, -10.890625000000, 1491880658
0.727783203125, -0.524169921875, 0.441650390625, -7.062500000000, 21.250000000000, -10.890625000000, 1491880658
0.754394531250, -0.602294921875, 0.392333984375, -9.359375000000, 5.695312500000, -5.390625000000, 1491880658
0.754394531250, -0.602294921875, 0.392333984375, -9.359375000000, 5.695312500000, -5.390625000000, 1491880658
0.754394531250, -0.602294921875, 0.392333984375, -9.359375000000, 5.695312500000, -5.390625000000, 1491880658
0.725341796875, -0.536865234375, 0.321044921875, -31.500000000000, -34.695312500000, -10.250000000000, 1491880658
0.725341796875, -0.536865234375, 0.321044921875, -31.500000000000, -34.695312500000, -10.250000000000, 1491880658
0.725341796875, -0.536865234375, 0.321044921875, -31.500000000000, -34.695312500000, -10.250000000000, 1491880658
0.814453125000, -0.568847656250, 0.378662109375, -26.382812500000, -40.632812500000, -9.773437500000, 1491880658
0.814453125000, -0.568847656250, 0.378662109375, -26.382812500000, -40.632812500000, -9.773437500000, 1491880658
0.814453125000, -0.568847656250, 0.378662109375, -26.382812500000, -40.632812500000, -9.773437500000, 1491880658
0.814453125000, -0.568847656250, 0.378662109375, -26.382812500000, -40.632812500000, -9.773437500000, 1491880658
0.728271484375, -0.447265625000, 0.317626953125, -21.109375000000, -52.039062500000, -5.320312500000, 1491880658
0.728271484375, -0.447265625000, 0.317626953125, -21.109375000000, -52.039062500000, -5.320312500000, 1491880658
0.728271484375, -0.447265625000, 0.317626953125, -21.109375000000, -52.039062500000, -5.320312500000, 1491880658
0.781982421875, -0.518066406250, 0.263671875000, -4.742187500000, -21.632812500000, -6.554687500000, 1491880658
0.781982421875, -0.518066406250, 0.263671875000, -4.742187500000, -21.632812500000, -6.554687500000, 1491880658
0.781982421875, -0.518066406250, 0.263671875000, -4.742187500000, -21.632812500000, -6.554687500000, 1491880658
0.804443359375, -0.514892578125, 0.273437500000, -3.031250000000, -7.312500000000, -7.414062500000, 1491880659
0.804443359375, -0.514892578125, 0.273437500000, -3.031250000000, -7.312500000000, -7.414062500000, 1491880659
0.804443359375, -0.514892578125, 0.273437500000, -3.031250000000, -7.312500000000, -7.414062500000, 1491880659
0.802978515625, -0.486083984375, 0.187500000000, 11.601562500000, 3.445312500000, -5.382812500000, 1491880659
0.802978515625, -0.486083984375, 0.187500000000, 11.601562500000, 3.445312500000, -5.382812500000, 1491880659
0.802978515625, -0.486083984375, 0.187500000000, 11.601562500000, 3.445312500000, -5.382812500000, 1491880659
0.802978515625, -0.486083984375, 0.187500000000, 11.601562500000, 3.445312500000, -5.382812500000, 1491880659
0.763427734375, -0.643310546875, 0.177734375000, 18.898437500000, 9.804687500000, -8.734375000000, 1491880659
0.763427734375, -0.643310546875, 0.177734375000, 18.898437500000, 9.804687500000, -8.734375000000, 1491880659
0.763427734375, -0.643310546875, 0.177734375000, 18.898437500000, 9.804687500000, -8.734375000000, 1491880659
0.731201171875, -0.591064453125, 0.186767578125, 17.226562500000, 10.273437500000, -15.593750000000, 1491880659
0.769531250000, -0.557861328125, 0.183593750000, 13.554687500000, 13.117187500000, -10.375000000000, 1491880659
0.769531250000, -0.557861328125, 0.183593750000, 13.554687500000, 13.117187500000, -10.375000000000, 1491880659
0.769531250000, -0.557861328125, 0.183593750000, 13.554687500000, 13.117187500000, -10.375000000000, 1491880659
0.752197265625, -0.555175781250, 0.259033203125, 10.031250000000, 5.593750000000, -10.226562500000, 1491880659
0.720947265625, -0.633300781250, 0.183837890625, 7.289062500000, -0.117187500000, -8.960937500000, 1491880659
0.720947265625, -0.633300781250, 0.183837890625, 7.289062500000, -0.117187500000, -8.960937500000, 1491880659
0.720947265625, -0.633300781250, 0.183837890625, 7.289062500000, -0.117187500000, -8.960937500000, 1491880659
0.720947265625, -0.633300781250, 0.183837890625, 7.578125000000, -0.960937500000, -7.859375000000, 1491880659
0.680908203125, -0.614013671875, 0.255615234375, 9.742187500000, -4.140625000000, -3.382812500000, 1491880659
0.680908203125, -0.614013671875, 0.255615234375, 9.742187500000, -4.140625000000, -3.382812500000, 1491880659
0.680908203125, -0.614013671875, 0.255615234375, 9.742187500000, -4.140625000000, -3.382812500000, 1491880659
0.680908203125, -0.614013671875, 0.255615234375, 9.742187500000, -4.140625000000, -3.382812500000, 1491880659
0.682861328125, -0.555175781250, 0.178466796875, 4.664062500000, -10.203125000000, -5.843750000000, 1491880659
0.682861328125, -0.555175781250, 0.178466796875, 4.664062500000, -10.203125000000, -5.843750000000, 1491880659
0.682861328125, -0.555175781250, 0.178466796875, 4.664062500000, -10.203125000000, -5.843750000000, 1491880659
0.732910156250, -0.650634765625, 0.170166015625, -8.257812500000, -16.500000000000, -6.546875000000, 1491880659
0.732910156250, -0.650634765625, 0.170166015625, -8.257812500000, -16.500000000000, -6.546875000000, 1491880659
0.732910156250, -0.650634765625, 0.170166015625, -8.257812500000, -16.500000000000, -6.546875000000, 1491880659
0.738037109375, -0.608642578125, 0.166748046875, -1.296875000000, -5.773437500000, -5.281250000000, 1491880659
0.738037109375, -0.608642578125, 0.166748046875, -1.296875000000, -5.773437500000, -5.281250000000, 1491880659
0.738037109375, -0.608642578125, 0.166748046875, -1.296875000000, -5.773437500000, -5.281250000000, 1491880659
0.738037109375, -0.608642578125, 0.166748046875, -1.296875000000, -5.773437500000, -5.281250000000, 1491880659
0.841308593750, -0.599121093750, 0.264404296875, -3.085937500000, 1.359375000000, -1.468750000000, 1491880659
0.841308593750, -0.599121093750, 0.264404296875, -3.085937500000, 1.359375000000, -1.468750000000, 1491880659
0.841308593750, -0.599121093750, 0.264404296875, -3.085937500000, 1.359375000000, -1.468750000000, 1491880659
0.672607421875, -0.561767578125, 0.199707031250, -1.351562500000, 1.835937500000, -7.562500000000, 1491880659
0.672607421875, -0.561767578125, 0.199707031250, -1.351562500000, 1.835937500000, -7.562500000000, 1491880659
0.672607421875, -0.561767578125, 0.199707031250, -1.351562500000, 1.835937500000, -7.562500000000, 1491880659
0.736083984375, -0.553222656250, 0.112060546875, -2.445312500000, 8.601562500000, -1.976562500000, 1491880659
0.736083984375, -0.553222656250, 0.112060546875, -2.445312500000, 8.601562500000, -1.976562500000, 1491880659
0.736083984375, -0.553222656250, 0.112060546875, -2.445312500000, 8.601562500000, -1.976562500000, 1491880659
0.722412109375, -0.611816406250, 0.162841796875, 0.773437500000, -0.281250000000, -5.640625000000, 1491880659
0.722412109375, -0.611816406250, 0.162841796875, 0.773437500000, -0.281250000000, -5.640625000000, 1491880659
0.722412109375, -0.611816406250, 0.162841796875, 0.773437500000, -0.281250000000, -5.640625000000, 1491880659
0.722412109375, -0.611816406250, 0.162841796875, 0.773437500000, -0.281250000000, -5.640625000000, 1491880659
0.821777343750, -0.656005859375, 0.184570312500, -4.421875000000, 5.187500000000, -6.859375000000, 1491880659
0.821777343750, -0.656005859375, 0.184570312500, -4.421875000000, 5.187500000000, -6.859375000000, 1491880659
0.821777343750, -0.656005859375, 0.184570312500, -4.421875000000, 5.187500000000, -6.859375000000, 1491880659
0.721923828125, -0.649902343750, 0.229736328125, -7.953125000000, -4.531250000000, -4.476562500000, 1491880659
0.721923828125, -0.649902343750, 0.229736328125, -7.953125000000, -4.531250000000, -4.476562500000, 1491880659
0.721923828125, -0.649902343750, 0.229736328125, -7.953125000000, -4.531250000000, -4.476562500000, 1491880659
0.727539062500, -0.560302734375, 0.175537109375, -14.695312500000, 1.898437500000, -4.007812500000, 1491880659
0.727539062500, -0.560302734375, 0.175537109375, -14.695312500000, 1.898437500000, -4.007812500000, 1491880659
0.727539062500, -0.560302734375, 0.175537109375, -14.695312500000, 1.898437500000, -4.007812500000, 1491880659
0.731445312500, -0.580322265625, 0.157226562500, -6.054687500000, -2.593750000000, 3.093750000000, 1491880659
0.731445312500, -0.580322265625, 0.157226562500, -6.054687500000, -2.593750000000, 3.093750000000, 1491880659
0.731445312500, -0.580322265625, 0.157226562500, -6.054687500000, -2.593750000000, 3.093750000000, 1491880659
0.731445312500, -0.580322265625, 0.157226562500, -6.054687500000, -2.593750000000, 3.093750000000, 1491880659
0.760498046875, -0.594726562500, 0.262451171875, -0.218750000000, 11.828125000000, 7.468750000000, 1491880659
0.760498046875, -0.594726562500, 0.262451171875, -0.218750000000, 11.828125000000, 7.468750000000, 1491880659
0.760498046875, -0.594726562500, 0.262451171875, -0.218750000000, 11.828125000000, 7.468750000000, 1491880659
0.719482421875, -0.634521484375, 0.254150390625, -6.156250000000, 10.820312500000, 2.781250000000, 1491880659
0.719482421875, -0.634521484375, 0.254150390625, -6.156250000000, 10.820312500000, 2.781250000000, 1491880659
0.719482421875, -0.634521484375, 0.254150390625, -6.156250000000, 10.820312500000, 2.781250000000, 1491880659
0.747314453125, -0.500000000000, 0.185791015625, -21.414062500000, -1.429687500000, -0.210937500000, 1491880659
0.747314453125, -0.500000000000, 0.185791015625, -21.414062500000, -1.429687500000, -0.210937500000, 1491880660
0.747314453125, -0.500000000000, 0.185791015625, -21.414062500000, -1.429687500000, -0.210937500000, 1491880660
0.816894531250, -0.553222656250, 0.160888671875, -14.140625000000, -14.359375000000, 16.507812500000, 1491880660
0.816894531250, -0.553222656250, 0.160888671875, -14.140625000000, -14.359375000000, 16.507812500000, 1491880660
0.816894531250, -0.553222656250, 0.160888671875, -14.140625000000, -14.359375000000, 16.507812500000, 1491880660
0.816894531250, -0.553222656250, 0.160888671875, -14.140625000000, -14.359375000000, 16.507812500000, 1491880660
0.732421875000, -0.641357421875, 0.179199218750, -14.671875000000, -12.929687500000, 16.281250000000, 1491880660
0.732421875000, -0.641357421875, 0.179199218750, -14.671875000000, -12.929687500000, 16.281250000000, 1491880660
0.732421875000, -0.641357421875, 0.179199218750, -14.671875000000, -12.929687500000, 16.281250000000, 1491880660
0.842285156250, -0.474853515625, 0.173828125000, -13.062500000000, -10.382812500000, 3.273437500000, 1491880660
0.842285156250, -0.474853515625, 0.173828125000, -13.062500000000, -10.382812500000, 3.273437500000, 1491880660
0.842285156250, -0.474853515625, 0.173828125000, -13.062500000000, -10.382812500000, 3.273437500000, 1491880660
0.829345703125, -0.517089843750, 0.182373046875, -13.640625000000, -4.781250000000, -2.468750000000, 1491880660
0.829345703125, -0.517089843750, 0.182373046875, -13.640625000000, -4.781250000000, -2.468750000000, 1491880660
0.829345703125, -0.517089843750, 0.182373046875, -13.640625000000, -4.781250000000, -2.468750000000, 1491880660
0.811523437500, -0.522460937500, 0.177490234375, -10.257812500000, -4.367187500000, 1.445312500000, 1491880660
0.811523437500, -0.522460937500, 0.177490234375, -10.257812500000, -4.367187500000, 1.445312500000, 1491880660
0.811523437500, -0.522460937500, 0.177490234375, -10.257812500000, -4.367187500000, 1.445312500000, 1491880660
0.885253906250, -0.517822265625, 0.179931640625, -13.406250000000, -5.171875000000, 2.843750000000, 1491880660
0.805664062500, -0.499023437500, 0.232177734375, -14.593750000000, -14.195312500000, 8.328125000000, 1491880660
0.805664062500, -0.499023437500, 0.232177734375, -14.593750000000, -14.195312500000, 8.328125000000, 1491880660
0.805664062500, -0.499023437500, 0.232177734375, -14.593750000000, -14.195312500000, 8.328125000000, 1491880660
0.832519531250, -0.531738281250, 0.178955078125, -5.335937500000, -2.781250000000, 16.453125000000, 1491880660
0.832519531250, -0.531738281250, 0.178955078125, -5.335937500000, -2.781250000000, 16.453125000000, 1491880660
0.832519531250, -0.531738281250, 0.178955078125, -5.335937500000, -2.781250000000, 16.453125000000, 1491880660
0.834472656250, -0.591552734375, 0.278320312500, 0.210937500000, -3.953125000000, 9.843750000000, 1491880660
0.834472656250, -0.591552734375, 0.278320312500, 0.210937500000, -3.953125000000, 9.843750000000, 1491880660
0.834472656250, -0.591552734375, 0.278320312500, 0.210937500000, -3.953125000000, 9.843750000000, 1491880660
0.735595703125, -0.585937500000, 0.270751953125, -16.515625000000, -8.859375000000, -9.398437500000, 1491880660
0.735595703125, -0.585937500000, 0.270751953125, -16.515625000000, -8.859375000000, -9.398437500000, 1491880660
0.735595703125, -0.585937500000, 0.270751953125, -16.515625000000, -8.859375000000, -9.398437500000, 1491880660
0.735595703125, -0.585937500000, 0.270751953125, -16.515625000000, -8.859375000000, -9.398437500000, 1491880660
0.895996093750, -0.417236328125, 0.197509765625, -25.906250000000, -17.859375000000, -7.781250000000, 1491880660
0.895996093750, -0.417236328125, 0.197509765625, -25.906250000000, -17.859375000000, -7.781250000000, 1491880660
0.895996093750, -0.417236328125, 0.197509765625, -25.906250000000, -17.859375000000, -7.781250000000, 1491880660
0.215576171875, -0.367919921875, 0.382080078125, -256.000000000000, -69.335937500000, -256.000000000000, 1491880660
0.215576171875, -0.367919921875, 0.382080078125, -256.000000000000, -69.335937500000, -256.000000000000, 1491880660
0.215576171875, -0.367919921875, 0.382080078125, -256.000000000000, -69.335937500000, -256.000000000000, 1491880660
0.602050781250, -0.822021484375, -0.139648437500, 23.507812500000, -49.000000000000, -46.171875000000, 1491880660
0.602050781250, -0.822021484375, -0.139648437500, 23.507812500000, -49.000000000000, -46.171875000000, 1491880660
0.602050781250, -0.822021484375, -0.139648437500, 23.507812500000, -49.000000000000, -46.171875000000, 1491880660
1.089843750000, -0.651855468750, 0.335449218750, -18.429687500000, -98.281250000000, -91.507812500000, 1491880660
1.089843750000, -0.651855468750, 0.335449218750, -18.429687500000, -98.281250000000, -91.507812500000, 1491880660
1.089843750000, -0.651855468750, 0.335449218750, -18.429687500000, -98.281250000000, -91.507812500000, 1491880660
1.089843750000, -0.651855468750, 0.335449218750, -18.429687500000, -98.281250000000, -91.507812500000, 1491880660
0.405029296875, -1.102050781250, 0.462158203125, 121.554687500000, 143.929687500000, 33.734375000000, 1491880660
0.405029296875, -1.102050781250, 0.462158203125, 121.554687500000, 143.929687500000, 33.734375000000, 1491880660
0.405029296875, -1.102050781250, 0.462158203125, 121.554687500000, 143.929687500000, 33.734375000000, 1491880660
0.372314453125, -0.479736328125, 0.426025390625, -112.289062500000, -124.796875000000, -146.234375000000, 1491880660
0.372314453125, -0.479736328125, 0.426025390625, -112.289062500000, -124.796875000000, -146.234375000000, 1491880660
0.372314453125, -0.479736328125, 0.426025390625, -112.289062500000, -124.796875000000, -146.234375000000, 1491880660
0.218994140625, -0.235351562500, 0.121093750000, -56.898437500000, -256.000000000000, -230.625000000000, 1491880660
0.218994140625, -0.235351562500, 0.121093750000, -56.898437500000, -256.000000000000, -230.625000000000, 1491880660
0.218994140625, -0.235351562500, 0.121093750000, -56.898437500000, -256.000000000000, -230.625000000000, 1491880660
1.099121093750, -0.672607421875, 0.067871093750, -253.117187500000, 253.992187500000, 39.414062500000, 1491880660
1.099121093750, -0.672607421875, 0.067871093750, -253.117187500000, 253.992187500000, 39.414062500000, 1491880660
1.099121093750, -0.672607421875, 0.067871093750, -253.117187500000, 253.992187500000, 39.414062500000, 1491880660
1.099121093750, -0.672607421875, 0.067871093750, -253.117187500000, 253.992187500000, 39.414062500000, 1491880660
1.196533203125, -0.188476562500, 0.317382812500, 46.507812500000, -245.085937500000, -85.015625000000, 1491880660
1.196533203125, -0.188476562500, 0.317382812500, 46.507812500000, -245.085937500000, -85.015625000000, 1491880660
1.196533203125, -0.188476562500, 0.317382812500, 46.507812500000, -245.085937500000, -85.015625000000, 1491880660
0.702148437500, -0.390380859375, -0.016357421875, -13.664062500000, 89.664062500000, 69.179687500000, 1491880660
0.095703125000, -1.177001953125, 0.416015625000, 35.218750000000, 103.968750000000, 34.945312500000, 1491880660
0.095703125000, -1.177001953125, 0.416015625000, 35.218750000000, 103.968750000000, 34.945312500000, 1491880660
0.507568359375, -0.812744140625, 0.305908203125, -64.507812500000, -87.054687500000, -9.117187500000, 1491880661
0.507568359375, -0.812744140625, 0.305908203125, -64.507812500000, -87.054687500000, -9.117187500000, 1491880661
0.507568359375, -0.812744140625, 0.305908203125, -64.507812500000, -87.054687500000, -9.117187500000, 1491880661
0.507568359375, -0.812744140625, 0.305908203125, -64.507812500000, -87.054687500000, -9.117187500000, 1491880661
0.507568359375, -0.812744140625, 0.305908203125, -64.507812500000, -87.054687500000, -9.117187500000, 1491880661
0.553955078125, -0.711181640625, 0.245849609375, 22.226562500000, 75.554687500000, 1.046875000000, 1491880661
0.470458984375, -0.730224609375, 0.302978515625, 22.226562500000, 75.554687500000, 1.046875000000, 1491880661
0.470458984375, -0.730224609375, 0.302978515625, 22.226562500000, 75.554687500000, 1.046875000000, 1491880661
0.470458984375, -0.730224609375, 0.302978515625, 22.226562500000, 75.554687500000, 1.046875000000, 1491880661
0.470458984375, -0.730224609375, 0.302978515625, 22.226562500000, 75.554687500000, 1.046875000000, 1491880661
0.349609375000, -0.808349609375, 0.291015625000, 2.664062500000, 23.007812500000, -0.304687500000, 1491880661
0.349609375000, -0.808349609375, 0.291015625000, 2.664062500000, 23.007812500000, -0.304687500000, 1491880661
0.349609375000, -0.808349609375, 0.291015625000, 2.664062500000, 23.007812500000, -0.304687500000, 1491880661
0.437744140625, -0.807617187500, 0.301513671875, 6.664062500000, 17.164062500000, -2.632812500000, 1491880661
0.437744140625, -0.807617187500, 0.301513671875, 6.664062500000, 17.164062500000, -2.632812500000, 1491880661
0.437744140625, -0.807617187500, 0.301513671875, 6.664062500000, 17.164062500000, -2.632812500000, 1491880661
0.462646484375, -0.805908203125, 0.322753906250, -2.164062500000, 7.687500000000, -8.484375000000, 1491880661
0.462646484375, -0.805908203125, 0.322753906250, -2.164062500000, 7.687500000000, -8.484375000000, 1491880661
0.410400390625, -0.805175781250, 0.383300781250, 0.851562500000, -2.906250000000, -7.570312500000, 1491880661
0.410400390625, -0.805175781250, 0.383300781250, 0.851562500000, -2.906250000000, -7.570312500000, 1491880661
0.410400390625, -0.805175781250, 0.383300781250, 0.851562500000, -2.906250000000, -7.570312500000, 1491880661
0.410400390625, -0.805175781250, 0.383300781250, 0.851562500000, -2.906250000000, -7.570312500000, 1491880661
0.410400390625, -0.805175781250, 0.383300781250, 0.851562500000, -2.906250000000, -7.570312500000, 1491880661
0.415771484375, -0.738769531250, 0.343505859375, -10.164062500000, -10.726562500000, -7.539062500000, 1491880661
0.415771484375, -0.738769531250, 0.343505859375, -10.164062500000, -10.726562500000, -7.539062500000, 1491880661
0.415771484375, -0.738769531250, 0.343505859375, -10.164062500000, -10.726562500000, -7.539062500000, 1491880661
0.463378906250, -0.852539062500, 0.377929687500, 1.203125000000, -8.046875000000, -4.140625000000, 1491880661
0.463378906250, -0.852539062500, 0.377929687500, 1.203125000000, -8.046875000000, -4.140625000000, 1491880661
0.463378906250, -0.852539062500, 0.377929687500, 1.203125000000, -8.046875000000, -4.140625000000, 1491880661
0.468505859375, -0.748779296875, 0.239990234375, -14.078125000000, -15.476562500000, -6.351562500000, 1491880661
0.468505859375, -0.748779296875, 0.239990234375, -14.078125000000, -15.476562500000, -6.351562500000, 1491880661
0.468505859375, -0.748779296875, 0.239990234375, -14.078125000000, -15.476562500000, -6.351562500000, 1491880661
0.468505859375, -0.748779296875, 0.239990234375, -14.078125000000, -15.476562500000, -6.351562500000, 1491880661
0.463134765625, -0.823730468750, 0.392822265625, 2.609375000000, -2.375000000000, 3.156250000000, 1491880661
0.463134765625, -0.823730468750, 0.392822265625, 2.609375000000, -2.375000000000, 3.156250000000, 1491880661
0.463134765625, -0.823730468750, 0.392822265625, 2.609375000000, -2.375000000000, 3.156250000000, 1491880661
0.426757812500, -0.838867187500, 0.291015625000, 0.351562500000, -6.687500000000, 4.000000000000, 1491880661
0.426757812500, -0.838867187500, 0.291015625000, 0.351562500000, -6.687500000000, 4.000000000000, 1491880661
0.426757812500, -0.838867187500, 0.291015625000, 0.351562500000, -6.687500000000, 4.000000000000, 1491880661
0.464843750000, -0.833251953125, 0.333984375000, -2.015625000000, 12.445312500000, -0.132812500000, 1491880661
0.464843750000, -0.833251953125, 0.333984375000, -2.015625000000, 12.445312500000, -0.132812500000, 1491880661
0.464843750000, -0.833251953125, 0.333984375000, -2.015625000000, 12.445312500000, -0.132812500000, 1491880661
0.424560546875, -0.841308593750, 0.284667968750, 3.515625000000, 17.093750000000, -0.406250000000, 1491880661
0.424560546875, -0.841308593750, 0.284667968750, 3.515625000000, 17.093750000000, -0.406250000000, 1491880661
0.424560546875, -0.841308593750, 0.284667968750, 3.515625000000, 17.093750000000, -0.406250000000, 1491880661
0.424560546875, -0.841308593750, 0.284667968750, 3.515625000000, 17.093750000000, -0.406250000000, 1491880661
0.468261718750, -0.842773437500, 0.322509765625, -1.859375000000, 4.148437500000, 0.695312500000, 1491880661
0.468261718750, -0.842773437500, 0.322509765625, -1.859375000000, 4.148437500000, 0.695312500000, 1491880661
0.468261718750, -0.842773437500, 0.322509765625, -1.859375000000, 4.148437500000, 0.695312500000, 1491880661
0.425537109375, -0.807128906250, 0.294189453125, -9.093750000000, -7.054687500000, -6.148437500000, 1491880661
0.425537109375, -0.807128906250, 0.294189453125, -9.093750000000, -7.054687500000, -6.148437500000, 1491880661
0.425537109375, -0.807128906250, 0.294189453125, -9.093750000000, -7.054687500000, -6.148437500000, 1491880661
0.412597656250, -0.827880859375, 0.294433593750, 0.578125000000, -2.812500000000, -2.742187500000, 1491880661
0.412597656250, -0.827880859375, 0.294433593750, 0.578125000000, -2.812500000000, -2.742187500000, 1491880661
0.412597656250, -0.827880859375, 0.294433593750, 0.578125000000, -2.812500000000, -2.742187500000, 1491880661
0.421142578125, -0.811523437500, 0.313964843750, -3.125000000000, -6.656250000000, -3.023437500000, 1491880661
0.421142578125, -0.811523437500, 0.313964843750, -3.125000000000, -6.656250000000, -3.023437500000, 1491880661
0.421142578125, -0.811523437500, 0.313964843750, -3.125000000000, -6.656250000000, -3.023437500000, 1491880661
0.421142578125, -0.811523437500, 0.313964843750, -3.125000000000, -6.656250000000, -3.023437500000, 1491880661
0.438476562500, -0.886718750000, 0.277099609375, 0.179687500000, -1.078125000000, -6.023437500000, 1491880661
0.438476562500, -0.886718750000, 0.277099609375, 0.179687500000, -1.078125000000, -6.023437500000, 1491880661
0.438476562500, -0.886718750000, 0.277099609375, 0.179687500000, -1.078125000000, -6.023437500000, 1491880661
0.458984375000, -0.790283203125, 0.275634765625, -2.132812500000, -5.835937500000, -4.726562500000, 1491880661
0.458984375000, -0.790283203125, 0.275634765625, -2.132812500000, -5.835937500000, -4.726562500000, 1491880661
0.458984375000, -0.790283203125, 0.275634765625, -2.132812500000, -5.835937500000, -4.726562500000, 1491880661
0.400634765625, -0.952148437500, 0.171875000000, 3.773437500000, -3.085937500000, -1.765625000000, 1491880661
0.400634765625, -0.952148437500, 0.171875000000, 3.773437500000, -3.085937500000, -1.765625000000, 1491880661
0.400634765625, -0.952148437500, 0.171875000000, 3.773437500000, -3.085937500000, -1.765625000000, 1491880661
0.464843750000, -0.943603515625, 0.252929687500, -7.937500000000, 4.742187500000, -0.617187500000, 1491880662
0.464843750000, -0.943603515625, 0.252929687500, -7.937500000000, 4.742187500000, -0.617187500000, 1491880662
0.464843750000, -0.943603515625, 0.252929687500, -7.937500000000, 4.742187500000, -0.617187500000, 1491880662
0.464843750000, -0.943603515625, 0.252929687500, -7.937500000000, 4.742187500000, -0.617187500000, 1491880662
0.421142578125, -0.803710937500, 0.214599609375, -11.109375000000, 2.414062500000, 4.023437500000, 1491880662
0.421142578125, -0.803710937500, 0.214599609375, -11.109375000000, 2.414062500000, 4.023437500000, 1491880662
0.421142578125, -0.803710937500, 0.214599609375, -11.109375000000, 2.414062500000, 4.023437500000, 1491880662
0.443115234375, -0.748291015625, 0.171630859375, -15.312500000000, 4.875000000000, 6.593750000000, 1491880662
0.443115234375, -0.748291015625, 0.171630859375, -15.312500000000, 4.875000000000, 6.593750000000, 1491880662
0.443115234375, -0.748291015625, 0.171630859375, -15.312500000000, 4.875000000000, 6.593750000000, 1491880662
0.343994140625, -0.812500000000, 0.188476562500, -16.445312500000, 6.843750000000, 7.601562500000, 1491880662
0.343994140625, -0.812500000000, 0.188476562500, -16.445312500000, 6.843750000000, 7.601562500000, 1491880662
0.343994140625, -0.812500000000, 0.188476562500, -16.445312500000, 6.843750000000, 7.601562500000, 1491880662
0.435546875000, -0.848632812500, 0.169677734375, -22.500000000000, 2.156250000000, 3.382812500000, 1491880662
0.435546875000, -0.848632812500, 0.169677734375, -22.500000000000, 2.156250000000, 3.382812500000, 1491880662
0.435546875000, -0.848632812500, 0.169677734375, -22.500000000000, 2.156250000000, 3.382812500000, 1491880662
0.452636718750, -0.853271484375, 0.276855468750, -26.921875000000, -2.773437500000, 9.578125000000, 1491880662
0.452636718750, -0.853271484375, 0.276855468750, -26.921875000000, -2.773437500000, 9.578125000000, 1491880662
0.452636718750, -0.853271484375, 0.276855468750, -26.921875000000, -2.773437500000, 9.578125000000, 1491880662
0.438964843750, -0.745361328125, 0.168212890625, -30.726562500000, 2.367187500000, 12.375000000000, 1491880662
0.359130859375, -0.780761718750, 0.268554687500, -30.726562500000, 2.367187500000, 12.375000000000, 1491880662
0.359130859375, -0.780761718750, 0.268554687500, -30.726562500000, 2.367187500000, 12.375000000000, 1491880662
0.359130859375, -0.780761718750, 0.268554687500, -30.726562500000, 2.367187500000, 12.375000000000, 1491880662
0.462402343750, -0.838134765625, 0.265869140625, -34.421875000000, 1.945312500000, 9.273437500000, 1491880662
0.462402343750, -0.838134765625, 0.265869140625, -34.421875000000, 1.945312500000, 9.273437500000, 1491880662
0.462402343750, -0.838134765625, 0.265869140625, -34.421875000000, 1.945312500000, 9.273437500000, 1491880662
0.456054687500, -0.802978515625, 0.268798828125, -35.695312500000, 2.937500000000, 13.898437500000, 1491880662
0.456054687500, -0.802978515625, 0.268798828125, -35.695312500000, 2.937500000000, 13.898437500000, 1491880662
0.456054687500, -0.802978515625, 0.268798828125, -35.695312500000, 2.937500000000, 13.898437500000, 1491880662
0.456054687500, -0.802978515625, 0.268798828125, -35.695312500000, 2.937500000000, 13.898437500000, 1491880662
0.368164062500, -0.740478515625, 0.268798828125, -37.570312500000, -0.109375000000, 13.585937500000, 1491880662
0.368164062500, -0.740478515625, 0.268798828125, -37.570312500000, -0.109375000000, 13.585937500000, 1491880662
0.368164062500, -0.740478515625, 0.268798828125, -37.570312500000, -0.109375000000, 13.585937500000, 1491880662
0.458984375000, -0.729492187500, 0.275878906250, -45.664062500000, 2.890625000000, 15.914062500000, 1491880662
0.458984375000, -0.729492187500, 0.275878906250, -45.664062500000, 2.890625000000, 15.914062500000, 1491880662
0.458984375000, -0.729492187500, 0.275878906250, -45.664062500000, 2.890625000000, 15.914062500000, 1491880662
0.445312500000, -0.709716796875, 0.186279296875, -44.164062500000, -0.851562500000, 20.187500000000, 1491880662
0.445312500000, -0.709716796875, 0.186279296875, -44.164062500000, -0.851562500000, 20.187500000000, 1491880662
0.445312500000, -0.709716796875, 0.186279296875, -44.164062500000, -0.851562500000, 20.187500000000, 1491880662
0.367431640625, -0.628662109375, 0.186279296875, -40.070312500000, -6.828125000000, 22.234375000000, 1491880662
0.367431640625, -0.628662109375, 0.186279296875, -40.070312500000, -6.828125000000, 22.234375000000, 1491880662
0.367431640625, -0.628662109375, 0.186279296875, -40.070312500000, -6.828125000000, 22.234375000000, 1491880662
0.367431640625, -0.628662109375, 0.186279296875, -40.070312500000, -6.828125000000, 22.234375000000, 1491880662
0.319335937500, -0.635986328125, 0.174072265625, -32.578125000000, -8.695312500000, 16.601562500000, 1491880662
0.319335937500, -0.635986328125, 0.174072265625, -32.578125000000, -8.695312500000, 16.601562500000, 1491880662
0.319335937500, -0.635986328125, 0.174072265625, -32.578125000000, -8.695312500000, 16.601562500000, 1491880662
0.229492187500, -0.527099609375, 0.131103515625, -23.601562500000, -24.328125000000, 20.968750000000, 1491880662
0.229492187500, -0.527099609375, 0.131103515625, -23.601562500000, -24.328125000000, 20.968750000000, 1491880662
0.229492187500, -0.527099609375, 0.131103515625, -23.601562500000, -24.328125000000, 20.968750000000, 1491880662
0.294189453125, -0.379150390625, 0.094726562500, -24.320312500000, -38.882812500000, 25.296875000000, 1491880662
0.294189453125, -0.379150390625, 0.094726562500, -24.320312500000, -38.882812500000, 25.296875000000, 1491880662
0.294189453125, -0.379150390625, 0.094726562500, -24.320312500000, -38.882812500000, 25.296875000000, 1491880662
0.155517578125, -0.043457031250, 0.079345703125, 14.117187500000, -58.476562500000, 16.492187500000, 1491880662
0.155517578125, -0.043457031250, 0.079345703125, 14.117187500000, -58.476562500000, 16.492187500000, 1491880662
0.155517578125, -0.043457031250, 0.079345703125, 14.117187500000, -58.476562500000, 16.492187500000, 1491880662
0.155517578125, -0.043457031250, 0.079345703125, 5.328125000000, -55.710937500000, 12.531250000000, 1491880662
-0.008544921875, 0.033691406250, -0.021240234375, -16.867187500000, -47.585937500000, 19.945312500000, 1491880662
-0.008544921875, 0.033691406250, -0.021240234375, -16.867187500000, -47.585937500000, 19.945312500000, 1491880662
0.010986328125, -0.026855468750, 0.030273437500, -6.546875000000, -20.109375000000, -4.820312500000, 1491880662
0.010986328125, -0.026855468750, 0.030273437500, -6.546875000000, -20.109375000000, -4.820312500000, 1491880662
0.010986328125, -0.026855468750, 0.030273437500, -6.546875000000, -20.109375000000, -4.820312500000, 1491880662
0.010986328125, -0.026855468750, 0.030273437500, -6.546875000000, -20.109375000000, -4.820312500000, 1491880662
-0.019042968750, 0.086669921875, -0.029541015625, -30.828125000000, -92.226562500000, 5.578125000000, 1491880662
-0.019042968750, 0.086669921875, -0.029541015625, -30.828125000000, -92.226562500000, 5.578125000000, 1491880662
-0.019042968750, 0.086669921875, -0.029541015625, -30.828125000000, -92.226562500000, 5.578125000000, 1491880662
0.159423828125, 0.275390625000, 0.587890625000, 50.562500000000, 31.453125000000, 73.820312500000, 1491880662
0.159423828125, 0.275390625000, 0.587890625000, 50.562500000000, 31.453125000000, 73.820312500000, 1491880662
0.159423828125, 0.275390625000, 0.587890625000, 50.562500000000, 31.453125000000, 73.820312500000, 1491880663
2.990234375000, -2.974121093750, 1.999511718750, -154.500000000000, 253.992187500000, 46.382812500000, 1491880663
2.990234375000, -2.974121093750, 1.999511718750, -154.500000000000, 253.992187500000, 46.382812500000, 1491880663
2.990234375000, -2.974121093750, 1.999511718750, -154.500000000000, 253.992187500000, 46.382812500000, 1491880663
2.990234375000, -2.974121093750, 1.999511718750, -154.500000000000, 253.992187500000, 46.382812500000, 1491880663
2.427246093750, -1.246826171875, 2.103027343750, -256.000000000000, 117.367187500000, 253.992187500000, 1491880663
2.427246093750, -1.246826171875, 2.103027343750, -256.000000000000, 117.367187500000, 253.992187500000, 1491880663
2.427246093750, -1.246826171875, 2.103027343750, -256.000000000000, 117.367187500000, 253.992187500000, 1491880663
0.298583984375, 1.050292968750, 1.868164062500, -25.781250000000, 160.203125000000, 249.617187500000, 1491880663
0.298583984375, 1.050292968750, 1.868164062500, -25.781250000000, 160.203125000000, 249.617187500000, 1491880663
0.298583984375, 1.050292968750, 1.868164062500, -25.781250000000, 160.203125000000, 249.617187500000, 1491880663
0.054931640625, 1.213623046875, 0.195312500000, 66.820312500000, 137.312500000000, 154.953125000000, 1491880663
0.055175781250, 0.920166015625, 0.415039062500, 66.820312500000, 137.312500000000, 154.953125000000, 1491880663
0.077636718750, 0.352539062500, 0.192382812500, 121.023437500000, 25.765625000000, 150.007812500000, 1491880663
-0.097167968750, 0.117919921875, 0.486083984375, 87.039062500000, -10.710937500000, 38.593750000000, 1491880663
-0.097167968750, 0.117919921875, 0.486083984375, 87.039062500000, -10.710937500000, 38.593750000000, 1491880663
-0.097167968750, 0.117919921875, 0.486083984375, 87.039062500000, -10.710937500000, 38.593750000000, 1491880663
-0.097167968750, 0.117919921875, 0.486083984375, 87.039062500000, -10.710937500000, 38.593750000000, 1491880663
-0.097167968750, 0.117919921875, 0.486083984375, 87.039062500000, -10.710937500000, 38.593750000000, 1491880663
-0.097167968750, 0.117919921875, 0.486083984375, 87.039062500000, -10.710937500000, 38.593750000000, 1491880663
-0.095703125000, 0.562500000000, 0.588134765625, 42.703125000000, 157.851562500000, 97.257812500000, 1491880663
-0.095703125000, 0.562500000000, 0.588134765625, 42.703125000000, 157.851562500000, 97.257812500000, 1491880663
-0.095703125000, 0.562500000000, 0.588134765625, 42.703125000000, 157.851562500000, 97.257812500000, 1491880663
-0.095703125000, 0.562500000000, 0.588134765625, 42.703125000000, 157.851562500000, 97.257812500000, 1491880663
-0.581787109375, 0.810302734375, 1.519775390625, 85.351562500000, 38.882812500000, 55.382812500000, 1491880663
-0.581787109375, 0.810302734375, 1.519775390625, 85.351562500000, 38.882812500000, 55.382812500000, 1491880663
-0.581787109375, 0.810302734375, 1.519775390625, 85.351562500000, 38.882812500000, 55.382812500000, 1491880663
-0.581787109375, 0.810302734375, 1.519775390625, 85.351562500000, 38.882812500000, 55.382812500000, 1491880663
-0.567871093750, 0.899658203125, 1.273437500000, 6.921875000000, -44.101562500000, -21.765625000000, 1491880663
-0.567871093750, 0.899658203125, 1.273437500000, 6.921875000000, -44.101562500000, -21.765625000000, 1491880663
-0.567871093750, 0.899658203125, 1.273437500000, 6.921875000000, -44.101562500000, -21.765625000000, 1491880663
-0.041015625000, 0.899414062500, 1.122314453125, 38.257812500000, -5.835937500000, -46.234375000000, 1491880663
-0.041015625000, 0.899414062500, 1.122314453125, 38.257812500000, -5.835937500000, -46.234375000000, 1491880663
-0.041015625000, 0.899414062500, 1.122314453125, 38.257812500000, -5.835937500000, -46.234375000000, 1491880663
0.098144531250, 0.509765625000, 1.063720703125, 10.859375000000, -32.101562500000, -29.085937500000, 1491880663
0.098144531250, 0.509765625000, 1.063720703125, 10.859375000000, -32.101562500000, -29.085937500000, 1491880663
0.098144531250, 0.509765625000, 1.063720703125, 10.859375000000, -32.101562500000, -29.085937500000, 1491880663
0.168212890625, 0.327392578125, 1.142333984375, -16.929687500000, 20.710937500000, -18.445312500000, 1491880663
0.168212890625, 0.327392578125, 1.142333984375, -16.929687500000, 20.710937500000, -18.445312500000, 1491880663
0.168212890625, 0.327392578125, 1.142333984375, -16.929687500000, 20.710937500000, -18.445312500000, 1491880663
0.168212890625, 0.327392578125, 1.142333984375, -16.929687500000, 20.710937500000, -18.445312500000, 1491880663
0.161865234375, 0.187744140625, 0.978027343750, -23.289062500000, 24.546875000000, 5.531250000000, 1491880663
0.161865234375, 0.187744140625, 0.978027343750, -23.289062500000, 24.546875000000, 5.531250000000, 1491880663
0.161865234375, 0.187744140625, 0.978027343750, -23.289062500000, 24.546875000000, 5.531250000000, 1491880663
-0.064941406250, 0.567871093750, 0.785644531250, -17.500000000000, -34.062500000000, 2.195312500000, 1491880663
-0.064941406250, 0.567871093750, 0.785644531250, -17.500000000000, -34.062500000000, 2.195312500000, 1491880663
-0.064941406250, 0.567871093750, 0.785644531250, -17.500000000000, -34.062500000000, 2.195312500000, 1491880663
-0.143310546875, 0.458740234375, 0.689941406250, 17.125000000000, -42.023437500000, -24.664062500000, 1491880663
-0.143310546875, 0.458740234375, 0.689941406250, 17.125000000000, -42.023437500000, -24.664062500000, 1491880663
-0.143310546875, 0.458740234375, 0.689941406250, 17.125000000000, -42.023437500000, -24.664062500000, 1491880663
0.300292968750, 0.338623046875, 0.776611328125, 20.375000000000, -28.476562500000, -43.023437500000, 1491880663
0.300292968750, 0.338623046875, 0.776611328125, 20.375000000000, -28.476562500000, -43.023437500000, 1491880663
0.300292968750, 0.338623046875, 0.776611328125, 20.375000000000, -28.476562500000, -43.023437500000, 1491880663
0.300292968750, 0.338623046875, 0.776611328125, 20.375000000000, -28.476562500000, -43.023437500000, 1491880663
0.291748046875, 0.121826171875, 0.864013671875, 28.031250000000, -9.718750000000, -24.421875000000, 1491880663
0.291748046875, 0.121826171875, 0.864013671875, 28.031250000000, -9.718750000000, -24.421875000000, 1491880663
0.291748046875, 0.121826171875, 0.864013671875, 28.031250000000, -9.718750000000, -24.421875000000, 1491880663
0.335937500000, 0.263916015625, 1.015625000000, 9.710937500000, 15.382812500000, 0.421875000000, 1491880663
0.335937500000, 0.263916015625, 1.015625000000, 9.710937500000, 15.382812500000, 0.421875000000, 1491880663
0.335937500000, 0.263916015625, 1.015625000000, 9.710937500000, 15.382812500000, 0.421875000000, 1491880663
0.138916015625, 0.278564453125, 0.874267578125, -22.796875000000, -14.585937500000, -1.281250000000, 1491880663
0.138916015625, 0.278564453125, 0.874267578125, -22.796875000000, -14.585937500000, -1.281250000000, 1491880663
0.138916015625, 0.278564453125, 0.874267578125, -22.796875000000, -14.585937500000, -1.281250000000, 1491880663
0.376953125000, 0.262207031250, 0.854492187500, -56.953125000000, 9.039062500000, 11.257812500000, 1491880663
0.376953125000, 0.262207031250, 0.854492187500, -56.953125000000, 9.039062500000, 11.257812500000, 1491880663
0.376953125000, 0.262207031250, 0.854492187500, -56.953125000000, 9.039062500000, 11.257812500000, 1491880663
0.376953125000, 0.262207031250, 0.854492187500, -56.953125000000, 9.039062500000, 11.257812500000, 1491880663
0.352539062500, 0.177978515625, 0.690673828125, -35.898437500000, -58.687500000000, 4.578125000000, 1491880663
0.352539062500, 0.177978515625, 0.690673828125, -35.898437500000, -58.687500000000, 4.578125000000, 1491880664
0.352539062500, 0.177978515625, 0.690673828125, -35.898437500000, -58.687500000000, 4.578125000000, 1491880664
0.303466796875, 0.163085937500, 0.604492187500, -22.968750000000, -66.765625000000, -8.867187500000, 1491880664
0.303466796875, 0.163085937500, 0.604492187500, -22.968750000000, -66.765625000000, -8.867187500000, 1491880664
0.303466796875, 0.163085937500, 0.604492187500, -22.968750000000, -66.765625000000, -8.867187500000, 1491880664
0.591552734375, 0.077148437500, 0.885009765625, -10.164062500000, -33.773437500000, -20.140625000000, 1491880664
0.591552734375, 0.077148437500, 0.885009765625, -10.164062500000, -33.773437500000, -20.140625000000, 1491880664
0.591552734375, 0.077148437500, 0.885009765625, -10.164062500000, -33.773437500000, -20.140625000000, 1491880664
0.559814453125, 0.388183593750, 0.926757812500, 0.531250000000, 35.164062500000, 34.351562500000, 1491880664
0.559814453125, 0.388183593750, 0.926757812500, 0.531250000000, 35.164062500000, 34.351562500000, 1491880664
0.359863281250, 0.554931640625, 1.178222656250, 29.109375000000, 95.835937500000, 60.007812500000, 1491880664
0.359863281250, 0.554931640625, 1.178222656250, 29.109375000000, 95.835937500000, 60.007812500000, 1491880664
0.359863281250, 0.554931640625, 1.178222656250, 29.109375000000, 95.835937500000, 60.007812500000, 1491880664
-0.040771484375, 0.729003906250, 1.212158203125, 26.015625000000, 8.687500000000, -12.445312500000, 1491880664
-0.040771484375, 0.729003906250, 1.212158203125, 26.015625000000, 8.687500000000, -12.445312500000, 1491880664
-0.040771484375, 0.729003906250, 1.212158203125, 26.015625000000, 8.687500000000, -12.445312500000, 1491880664
-0.040771484375, 0.729003906250, 1.212158203125, 26.015625000000, 8.687500000000, -12.445312500000, 1491880664
0.151855468750, 0.387939453125, 0.774414062500, -26.296875000000, -10.492187500000, -13.195312500000, 1491880664
0.151855468750, 0.387939453125, 0.774414062500, -26.296875000000, -10.492187500000, -13.195312500000, 1491880664
0.151855468750, 0.387939453125, 0.774414062500, -26.296875000000, -10.492187500000, -13.195312500000, 1491880664
0.151855468750, 0.387939453125, 0.774414062500, -26.296875000000, -10.492187500000, -13.195312500000, 1491880664
0.116210937500, 0.460693359375, 0.745117187500, -18.820312500000, -1.765625000000, -10.710937500000, 1491880664
-0.009277343750, 0.418457031250, 0.837402343750, -22.039062500000, -11.187500000000, -8.335937500000, 1491880664
-0.009277343750, 0.418457031250, 0.837402343750, -22.039062500000, -11.187500000000, -8.335937500000, 1491880664
-0.009277343750, 0.418457031250, 0.837402343750, -22.039062500000, -11.187500000000, -8.335937500000, 1491880664
-0.009277343750, 0.418457031250, 0.837402343750, -22.039062500000, -11.187500000000, -8.335937500000, 1491880664
0.179199218750, 0.522705078125, 0.935791015625, -11.375000000000, 10.429687500000, -7.601562500000, 1491880664
0.179199218750, 0.522705078125, 0.935791015625, -11.375000000000, 10.429687500000, -7.601562500000, 1491880664
0.179199218750, 0.522705078125, 0.935791015625, -11.375000000000, 10.429687500000, -7.601562500000, 1491880664
0.179199218750, 0.522705078125, 0.935791015625, -11.375000000000, 10.429687500000, -7.601562500000, 1491880664
0.179199218750, 0.522705078125, 0.935791015625, -11.375000000000, 10.429687500000, -7.601562500000, 1491880664
0.165283203125, 0.435546875000, 0.981445312500, -8.500000000000, -1.304687500000, -17.648437500000, 1491880664
0.165283203125, 0.435546875000, 0.981445312500, -8.500000000000, -1.304687500000, -17.648437500000, 1491880664
0.165283203125, 0.435546875000, 0.981445312500, -8.500000000000, -1.304687500000, -17.648437500000, 1491880664
0.290771484375, 0.313476562500, 0.957519531250, -7.757812500000, -27.054687500000, -41.562500000000, 1491880664
0.290771484375, 0.313476562500, 0.957519531250, -7.757812500000, -27.054687500000, -41.562500000000, 1491880664
0.290771484375, 0.313476562500, 0.957519531250, -7.757812500000, -27.054687500000, -41.562500000000, 1491880664
0.290771484375, 0.313476562500, 0.957519531250, -7.757812500000, -27.054687500000, -41.562500000000, 1491880664
0.359130859375, 0.209716796875, 0.796386718750, -8.062500000000, -28.742187500000, -29.203125000000, 1491880664
0.359130859375, 0.209716796875, 0.796386718750, -8.062500000000, -28.742187500000, -29.203125000000, 1491880664
0.359130859375, 0.209716796875, 0.796386718750, -8.062500000000, -28.742187500000, -29.203125000000, 1491880664
0.376953125000, 0.332031250000, 0.827636718750, -14.609375000000, -3.250000000000, 9.039062500000, 1491880664
0.376953125000, 0.332031250000, 0.827636718750, -14.609375000000, -3.250000000000, 9.039062500000, 1491880664
0.376953125000, 0.332031250000, 0.827636718750, -14.609375000000, -3.250000000000, 9.039062500000, 1491880664
0.230224609375, 0.365966796875, 0.832275390625, -7.156250000000, 14.273437500000, 20.015625000000, 1491880664
0.230224609375, 0.365966796875, 0.832275390625, -7.156250000000, 14.273437500000, 20.015625000000, 1491880664
0.230224609375, 0.365966796875, 0.832275390625, -7.156250000000, 14.273437500000, 20.015625000000, 1491880664
0.179443359375, 0.512207031250, 0.866699218750, -3.085937500000, 13.820312500000, 3.445312500000, 1491880664
0.179443359375, 0.512207031250, 0.866699218750, -3.085937500000, 13.820312500000, 3.445312500000, 1491880664
0.179443359375, 0.512207031250, 0.866699218750, -3.085937500000, 13.820312500000, 3.445312500000, 1491880664
0.179443359375, 0.512207031250, 0.866699218750, -3.085937500000, 13.820312500000, 3.445312500000, 1491880664
0.103515625000, 0.495361328125, 0.911132812500, 4.070312500000, 5.601562500000, -1.804687500000, 1491880664
0.103515625000, 0.495361328125, 0.911132812500, 4.070312500000, 5.601562500000, -1.804687500000, 1491880664
0.103515625000, 0.495361328125, 0.911132812500, 4.070312500000, 5.601562500000, -1.804687500000, 1491880664
0.193603515625, 0.492187500000, 0.965332031250, 0.710937500000, 5.492187500000, -7.937500000000, 1491880664
0.193603515625, 0.492187500000, 0.965332031250, 0.710937500000, 5.492187500000, -7.937500000000, 1491880664
0.193603515625, 0.492187500000, 0.965332031250, 0.710937500000, 5.492187500000, -7.937500000000, 1491880664
0.188964843750, 0.443115234375, 0.887695312500, -1.468750000000, 0.828125000000, -9.500000000000, 1491880664
0.188964843750, 0.443115234375, 0.887695312500, -1.468750000000, 0.828125000000, -9.500000000000, 1491880664
0.188964843750, 0.443115234375, 0.887695312500, -1.468750000000, 0.828125000000, -9.500000000000, 1491880664
0.197021484375, 0.447265625000, 0.805419921875, -8.375000000000, -1.320312500000, 2.625000000000, 1491880664
0.197021484375, 0.447265625000, 0.805419921875, -8.375000000000, -1.320312500000, 2.625000000000, 1491880664
0.197021484375, 0.447265625000, 0.805419921875, -8.375000000000, -1.320312500000, 2.625000000000, 1491880664
0.197021484375, 0.447265625000, 0.805419921875, -8.375000000000, -1.320312500000, 2.625000000000, 1491880664
0.169433593750, 0.310791015625, 0.869628906250, -6.046875000000, -4.187500000000, -2.601562500000, 1491880664
0.169433593750, 0.310791015625, 0.869628906250, -6.046875000000, -4.187500000000, -2.601562500000, 1491880664
0.169433593750, 0.310791015625, 0.869628906250, -6.046875000000, -4.187500000000, -2.601562500000, 1491880664
0.254150390625, 0.412597656250, 0.960937500000, -2.000000000000, -1.273437500000, -1.851562500000, 1491880665
0.254150390625, 0.412597656250, 0.960937500000, -2.000000000000, -1.273437500000, -1.851562500000, 1491880665
0.254150390625, 0.412597656250, 0.960937500000, -2.000000000000, -1.273437500000, -1.851562500000, 1491880665
0.256347656250, 0.443603515625, 0.865478515625, -3.085937500000, -0.273437500000, -3.625000000000, 1491880665
0.256347656250, 0.443603515625, 0.865478515625, -3.085937500000, -0.273437500000, -3.625000000000, 1491880665
0.256347656250, 0.443603515625, 0.865478515625, -3.085937500000, -0.273437500000, -3.625000000000, 1491880665
0.234863281250, 0.463134765625, 0.937988281250, -6.101562500000, -4.828125000000, -9.265625000000, 1491880665
0.234863281250, 0.463134765625, 0.937988281250, -6.101562500000, -4.828125000000, -9.265625000000, 1491880665
0.234863281250, 0.463134765625, 0.937988281250, -6.101562500000, -4.828125000000, -9.265625000000, 1491880665
0.234863281250, 0.463134765625, 0.937988281250, -6.101562500000, -4.828125000000, -9.265625000000, 1491880665
0.315917968750, 0.465820312500, 0.783691406250, -7.796875000000, -0.554687500000, -1.679687500000, 1491880665
0.315917968750, 0.465820312500, 0.783691406250, -7.796875000000, -0.554687500000, -1.679687500000, 1491880665
0.315917968750, 0.465820312500, 0.783691406250, -7.796875000000, -0.554687500000, -1.679687500000, 1491880665
0.268310546875, 0.359375000000, 0.880615234375, -6.468750000000, 2.718750000000, -4.976562500000, 1491880665
0.268310546875, 0.359375000000, 0.880615234375, -6.468750000000, 2.718750000000, -4.976562500000, 1491880665
0.268310546875, 0.359375000000, 0.880615234375, -6.468750000000, 2.718750000000, -4.976562500000, 1491880665
0.162597656250, 0.465332031250, 0.850341796875, -3.289062500000, 3.085937500000, -4.007812500000, 1491880665
0.162597656250, 0.465332031250, 0.850341796875, -3.289062500000, 3.085937500000, -4.007812500000, 1491880665
0.162597656250, 0.465332031250, 0.850341796875, -3.289062500000, 3.085937500000, -4.007812500000, 1491880665
0.180175781250, 0.437011718750, 0.844482421875, -4.273437500000, 0.031250000000, -1.726562500000, 1491880665
0.180175781250, 0.437011718750, 0.844482421875, -4.273437500000, 0.031250000000, -1.726562500000, 1491880665
0.180175781250, 0.437011718750, 0.844482421875, -4.273437500000, 0.031250000000, -1.726562500000, 1491880665
0.180175781250, 0.437011718750, 0.844482421875, -4.273437500000, 0.031250000000, -1.726562500000, 1491880665
0.265380859375, 0.419921875000, 0.887207031250, -0.234375000000, -0.320312500000, -4.023437500000, 1491880665
0.265380859375, 0.419921875000, 0.887207031250, -0.234375000000, -0.320312500000, -4.023437500000, 1491880665
0.263671875000, 0.361816406250, 0.882568359375, -1.789062500000, -1.875000000000, -4.648437500000, 1491880665
0.263671875000, 0.361816406250, 0.882568359375, -1.789062500000, -1.875000000000, -4.648437500000, 1491880665
0.263671875000, 0.361816406250, 0.882568359375, -1.789062500000, -1.875000000000, -4.648437500000, 1491880665
0.263671875000, 0.361816406250, 0.882568359375, -1.789062500000, -1.875000000000, -4.648437500000, 1491880665
0.179687500000, 0.426025390625, 0.897705078125, -4.507812500000, 1.054687500000, -1.406250000000, 1491880665
0.179687500000, 0.426025390625, 0.897705078125, -4.507812500000, 1.054687500000, -1.406250000000, 1491880665
0.179687500000, 0.426025390625, 0.897705078125, -4.507812500000, 1.054687500000, -1.406250000000, 1491880665
0.170166015625, 0.419677734375, 0.946289062500, -1.750000000000, -4.726562500000, -6.148437500000, 1491880665
0.170166015625, 0.419677734375, 0.946289062500, -1.750000000000, -4.726562500000, -6.148437500000, 1491880665
0.170166015625, 0.419677734375, 0.946289062500, -1.750000000000, -4.726562500000, -6.148437500000, 1491880665
0.170166015625, 0.419677734375, 0.946289062500, -1.750000000000, -4.726562500000, -6.148437500000, 1491880665
0.245849609375, 0.456542968750, 0.890380859375, -3.281250000000, -2.843750000000, -4.250000000000, 1491880665
0.245849609375, 0.456542968750, 0.890380859375, -3.281250000000, -2.843750000000, -4.250000000000, 1491880665
0.245849609375, 0.456542968750, 0.890380859375, -3.281250000000, -2.843750000000, -4.250000000000, 1491880665
0.262939453125, 0.415771484375, 0.899658203125, -6.656250000000, 1.359375000000, 0.281250000000, 1491880665
0.262939453125, 0.415771484375, 0.899658203125, -6.656250000000, 1.359375000000, 0.281250000000, 1491880665
0.262939453125, 0.415771484375, 0.899658203125, -6.656250000000, 1.359375000000, 0.281250000000, 1491880665
0.280517578125, 0.443115234375, 0.897949218750, -2.156250000000, 0.554687500000, -1.132812500000, 1491880665
0.280517578125, 0.443115234375, 0.897949218750, -2.156250000000, 0.554687500000, -1.132812500000, 1491880665
0.280517578125, 0.443115234375, 0.897949218750, -2.156250000000, 0.554687500000, -1.132812500000, 1491880665
0.230224609375, 0.362792968750, 0.847412109375, -1.695312500000, -0.601562500000, -1.812500000000, 1491880665
0.230224609375, 0.362792968750, 0.847412109375, -1.695312500000, -0.601562500000, -1.812500000000, 1491880665
0.230224609375, 0.362792968750, 0.847412109375, -1.695312500000, -0.601562500000, -1.812500000000, 1491880665
0.230224609375, 0.362792968750, 0.847412109375, -1.695312500000, -0.601562500000, -1.812500000000, 1491880665
0.261474609375, 0.361816406250, 0.873535156250, -1.632812500000, 2.359375000000, -6.429687500000, 1491880665
0.261474609375, 0.361816406250, 0.873535156250, -1.632812500000, 2.359375000000, -6.429687500000, 1491880665
0.261474609375, 0.361816406250, 0.873535156250, -1.632812500000, 2.359375000000, -6.429687500000, 1491880665
0.263427734375, 0.370361328125, 0.859619140625, -2.867187500000, -1.062500000000, -2.312500000000, 1491880665
0.263427734375, 0.370361328125, 0.859619140625, -2.867187500000, -1.062500000000, -2.312500000000, 1491880665
0.263427734375, 0.370361328125, 0.859619140625, -2.867187500000, -1.062500000000, -2.312500000000, 1491880665
0.203125000000, 0.372070312500, 0.854736328125, -4.859375000000, 2.132812500000, -1.937500000000, 1491880665
0.203125000000, 0.372070312500, 0.854736328125, -4.859375000000, 2.132812500000, -1.937500000000, 1491880665
0.203125000000, 0.372070312500, 0.854736328125, -4.859375000000, 2.132812500000, -1.937500000000, 1491880665
0.160156250000, 0.439941406250, 0.896972656250, -3.054687500000, 2.851562500000, -4.976562500000, 1491880665
0.160156250000, 0.439941406250, 0.896972656250, -3.054687500000, 2.851562500000, -4.976562500000, 1491880665
0.160156250000, 0.439941406250, 0.896972656250, -3.054687500000, 2.851562500000, -4.976562500000, 1491880665
0.160156250000, 0.439941406250, 0.896972656250, -3.054687500000, 2.851562500000, -4.976562500000, 1491880665
0.227050781250, 0.465820312500, 0.848632812500, -1.820312500000, -0.632812500000, -5.757812500000, 1491880665
0.227050781250, 0.465820312500, 0.848632812500, -1.820312500000, -0.632812500000, -5.757812500000, 1491880665
0.227050781250, 0.465820312500, 0.848632812500, -1.820312500000, -0.632812500000, -5.757812500000, 1491880665
0.235351562500, 0.447021484375, 0.810302734375, -4.250000000000, 0.742187500000, -1.992187500000, 1491880665
0.235351562500, 0.447021484375, 0.810302734375, -4.250000000000, 0.742187500000, -1.992187500000, 1491880666
0.255126953125, 0.419921875000, 0.944091796875, -3.453125000000, -2.742187500000, -1.046875000000, 1491880666
0.255126953125, 0.419921875000, 0.944091796875, -3.453125000000, -2.742187500000, -1.046875000000, 1491880666
0.255126953125, 0.419921875000, 0.944091796875, -3.453125000000, -2.742187500000, -1.046875000000, 1491880666
0.255126953125, 0.419921875000, 0.944091796875, -3.453125000000, -2.742187500000, -1.046875000000, 1491880666
0.252929687500, 0.368652343750, 0.811767578125, -2.820312500000, 0.718750000000, -3.648437500000, 1491880666
0.252929687500, 0.368652343750, 0.811767578125, -2.820312500000, 0.718750000000, -3.648437500000, 1491880666
0.252929687500, 0.368652343750, 0.811767578125, -2.820312500000, 0.718750000000, -3.648437500000, 1491880666
0.252929687500, 0.368652343750, 0.811767578125, -2.820312500000, 0.718750000000, -3.648437500000, 1491880666
0.264404296875, 0.430175781250, 0.856201171875, -4.890625000000, 0.867187500000, -6.398437500000, 1491880666
0.264404296875, 0.430175781250, 0.856201171875, -4.890625000000, 0.867187500000, -6.398437500000, 1491880666
0.264404296875, 0.430175781250, 0.856201171875, -4.890625000000, 0.867187500000, -6.398437500000, 1491880666
0.314697265625, 0.440185546875, 0.851074218750, -3.460937500000, 2.781250000000, -3.281250000000, 1491880666
0.314697265625, 0.440185546875, 0.851074218750, -3.460937500000, 2.781250000000, -3.281250000000, 1491880666
0.314697265625, 0.440185546875, 0.851074218750, -3.460937500000, 2.781250000000, -3.281250000000, 1491880666
0.159667968750, 0.438476562500, 0.940185546875, -2.476562500000, 2.164062500000, -6.281250000000, 1491880666
0.159667968750, 0.438476562500, 0.940185546875, -2.476562500000, 2.164062500000, -6.281250000000, 1491880666
0.159667968750, 0.438476562500, 0.940185546875, -2.476562500000, 2.164062500000, -6.281250000000, 1491880666
0.278076171875, 0.449951171875, 0.864013671875, -3.507812500000, 0.242187500000, -3.250000000000, 1491880666
0.278076171875, 0.449951171875, 0.864013671875, -3.507812500000, 0.242187500000, -3.250000000000, 1491880666
0.278076171875, 0.449951171875, 0.864013671875, -3.507812500000, 0.242187500000, -3.250000000000, 1491880666
0.278076171875, 0.449951171875, 0.864013671875, -3.507812500000, 0.242187500000, -3.250000000000, 1491880666
0.275878906250, 0.367675781250, 0.866210937500, -4.164062500000, -0.757812500000, -2.781250000000, 1491880666
0.275878906250, 0.367675781250, 0.866210937500, -4.164062500000, -0.757812500000, -2.781250000000, 1491880666
0.275878906250, 0.367675781250, 0.866210937500, -4.164062500000, -0.757812500000, -2.781250000000, 1491880666
0.267578125000, 0.415527343750, 0.866699218750, -4.132812500000, -0.320312500000, -0.765625000000, 1491880666
0.267578125000, 0.415527343750, 0.866699218750, -4.132812500000, -0.320312500000, -0.765625000000, 1491880666
0.267578125000, 0.415527343750, 0.866699218750, -4.132812500000, -0.320312500000, -0.765625000000, 1491880666
0.177734375000, 0.440185546875, 0.855468750000, -3.085937500000, -0.773437500000, -4.585937500000, 1491880666
0.177734375000, 0.440185546875, 0.855468750000, -3.085937500000, -0.773437500000, -4.585937500000, 1491880666
0.177734375000, 0.440185546875, 0.855468750000, -3.085937500000, -0.773437500000, -4.585937500000, 1491880666
0.179931640625, 0.463867187500, 0.891113281250, -4.117187500000, 0.507812500000, -3.953125000000, 1491880666
0.179931640625, 0.463867187500, 0.891113281250, -4.117187500000, 0.507812500000, -3.953125000000, 1491880666
0.179931640625, 0.463867187500, 0.891113281250, -4.117187500000, 0.507812500000, -3.953125000000, 1491880666
0.179931640625, 0.463867187500, 0.891113281250, -4.117187500000, 0.507812500000, -3.953125000000, 1491880666
0.178710937500, 0.357421875000, 0.893066406250, -1.414062500000, 2.296875000000, -4.359375000000, 1491880666
0.178710937500, 0.357421875000, 0.893066406250, -1.414062500000, 2.296875000000, -4.359375000000, 1491880666
0.178710937500, 0.357421875000, 0.893066406250, -1.414062500000, 2.296875000000, -4.359375000000, 1491880666
0.259765625000, 0.501953125000, 0.864257812500, -1.765625000000, 0.000000000000, -2.085937500000, 1491880666
0.259765625000, 0.501953125000, 0.864257812500, -1.765625000000, 0.000000000000, -2.085937500000, 1491880666
0.259765625000, 0.501953125000, 0.864257812500, -1.765625000000, 0.000000000000, -2.085937500000, 1491880666
0.243408203125, 0.447509765625, 0.946777343750, -4.398437500000, 3.500000000000, -3.812500000000, 1491880666
0.243408203125, 0.447509765625, 0.946777343750, -4.398437500000, 3.500000000000, -3.812500000000, 1491880666
0.243408203125, 0.447509765625, 0.946777343750, -4.398437500000, 3.500000000000, -3.812500000000, 1491880666
0.278564453125, 0.361083984375, 0.900878906250, -4.007812500000, -4.101562500000, -1.734375000000, 1491880666
0.278564453125, 0.361083984375, 0.900878906250, -4.007812500000, -4.101562500000, -1.734375000000, 1491880666
0.278564453125, 0.361083984375, 0.900878906250, -4.007812500000, -4.101562500000, -1.734375000000, 1491880666
0.278564453125, 0.361083984375, 0.900878906250, -4.007812500000, -4.101562500000, -1.734375000000, 1491880666
0.267578125000, 0.440185546875, 0.866210937500, -3.828125000000, 0.195312500000, -1.031250000000, 1491880666
0.267578125000, 0.440185546875, 0.866210937500, -3.828125000000, 0.195312500000, -1.031250000000, 1491880666
0.267578125000, 0.440185546875, 0.866210937500, -3.828125000000, 0.195312500000, -1.031250000000, 1491880666
0.156738281250, 0.447509765625, 0.865722656250, -4.281250000000, 2.984375000000, -4.054687500000, 1491880666
0.156738281250, 0.447509765625, 0.865722656250, -4.281250000000, 2.984375000000, -4.054687500000, 1491880666
0.156738281250, 0.447509765625, 0.865722656250, -4.281250000000, 2.984375000000, -4.054687500000, 1491880666
0.259521484375, 0.374023437500, 0.800048828125, -4.789062500000, -1.640625000000, -6.390625000000, 1491880666
0.259521484375, 0.374023437500, 0.800048828125, -4.789062500000, -1.640625000000, -6.390625000000, 1491880666
0.259521484375, 0.374023437500, 0.800048828125, -4.789062500000, -1.640625000000, -6.390625000000, 1491880666
0.259521484375, 0.374023437500, 0.800048828125, -4.789062500000, -1.640625000000, -6.390625000000, 1491880666
0.165771484375, 0.367675781250, 0.860107421875, -1.914062500000, 1.554687500000, -1.289062500000, 1491880666
0.165771484375, 0.367675781250, 0.860107421875, -1.914062500000, 1.554687500000, -1.289062500000, 1491880666
0.165771484375, 0.367675781250, 0.860107421875, -1.914062500000, 1.554687500000, -1.289062500000, 1491880666
0.165771484375, 0.367675781250, 0.860107421875, -1.914062500000, 1.554687500000, -1.289062500000, 1491880666
0.165771484375, 0.367675781250, 0.860107421875, -1.914062500000, 1.554687500000, -1.289062500000, 1491880666
0.165771484375, 0.367675781250, 0.860107421875, -1.914062500000, 1.554687500000, -1.289062500000, 1491880666
0.209960937500, 0.364257812500, 0.852294921875, -3.281250000000, -0.492187500000, -1.945312500000, 1491880666
0.209960937500, 0.364257812500, 0.852294921875, -3.281250000000, -0.492187500000, -1.945312500000, 1491880666
0.209960937500, 0.364257812500, 0.852294921875, -3.281250000000, -0.492187500000, -1.945312500000, 1491880666
0.179443359375, 0.371337890625, 0.863037109375, -4.578125000000, -2.320312500000, -1.750000000000, 1491880667
0.179443359375, 0.371337890625, 0.863037109375, -4.578125000000, -2.320312500000, -1.750000000000, 1491880667
0.179443359375, 0.371337890625, 0.863037109375, -4.578125000000, -2.320312500000, -1.750000000000, 1491880667
0.251464843750, 0.445556640625, 0.850830078125, -4.468750000000, 2.984375000000, -2.437500000000, 1491880667
0.251464843750, 0.445556640625, 0.850830078125, -4.468750000000, 2.984375000000, -2.437500000000, 1491880667
0.251464843750, 0.445556640625, 0.850830078125, -4.468750000000, 2.984375000000, -2.437500000000, 1491880667
0.251464843750, 0.445556640625, 0.850830078125, -4.468750000000, 2.984375000000, -2.437500000000, 1491880667
0.254150390625, 0.372070312500, 0.863525390625, -4.593750000000, -2.054687500000, -3.335937500000, 1491880667
0.254150390625, 0.372070312500, 0.863525390625, -4.593750000000, -2.054687500000, -3.335937500000, 1491880667
0.254150390625, 0.372070312500, 0.863525390625, -4.593750000000, -2.054687500000, -3.335937500000, 1491880667
0.326660156250, 0.437988281250, 0.891601562500, -2.000000000000, -0.851562500000, -3.296875000000, 1491880667
0.326660156250, 0.437988281250, 0.891601562500, -2.000000000000, -0.851562500000, -3.296875000000, 1491880667
0.326660156250, 0.437988281250, 0.891601562500, -2.000000000000, -0.851562500000, -3.296875000000, 1491880667
0.220947265625, 0.445312500000, 0.893310546875, -2.585937500000, -0.039062500000, -4.257812500000, 1491880667
0.220947265625, 0.445312500000, 0.893310546875, -2.585937500000, -0.039062500000, -4.257812500000, 1491880667
0.220947265625, 0.445312500000, 0.893310546875, -2.585937500000, -0.039062500000, -4.257812500000, 1491880667
0.263916015625, 0.406250000000, 0.883544921875, -4.390625000000, -0.093750000000, -2.445312500000, 1491880667
0.263916015625, 0.406250000000, 0.883544921875, -4.390625000000, -0.093750000000, -2.445312500000, 1491880667
0.263916015625, 0.406250000000, 0.883544921875, -4.390625000000, -0.093750000000, -2.445312500000, 1491880667
0.263916015625, 0.406250000000, 0.883544921875, -4.390625000000, -0.093750000000, -2.445312500000, 1491880667
0.253417968750, 0.458740234375, 0.884765625000, -4.507812500000, 2.234375000000, -3.687500000000, 1491880667
0.253417968750, 0.458740234375, 0.884765625000, -4.507812500000, 2.234375000000, -3.687500000000, 1491880667
0.253417968750, 0.458740234375, 0.884765625000, -4.507812500000, 2.234375000000, -3.687500000000, 1491880667
0.165771484375, 0.446777343750, 0.848144531250, -1.781250000000, 2.218750000000, -2.828125000000, 1491880667
0.165771484375, 0.446777343750, 0.848144531250, -1.781250000000, 2.218750000000, -2.828125000000, 1491880667
0.165771484375, 0.446777343750, 0.848144531250, -1.781250000000, 2.218750000000, -2.828125000000, 1491880667
0.259521484375, 0.372802734375, 0.939697265625, -1.312500000000, 1.890625000000, -4.562500000000, 1491880667
0.259521484375, 0.372802734375, 0.939697265625, -1.312500000000, 1.890625000000, -4.562500000000, 1491880667
0.259521484375, 0.372802734375, 0.939697265625, -1.312500000000, 1.890625000000, -4.562500000000, 1491880667
0.272216796875, 0.444091796875, 0.895507812500, -6.664062500000, 0.437500000000, -1.890625000000, 1491880667
0.272216796875, 0.444091796875, 0.895507812500, -6.664062500000, 0.437500000000, -1.890625000000, 1491880667
0.272216796875, 0.444091796875, 0.895507812500, -6.664062500000, 0.437500000000, -1.890625000000, 1491880667
0.272216796875, 0.444091796875, 0.895507812500, -6.664062500000, 0.437500000000, -1.890625000000, 1491880667
0.266357421875, 0.401367187500, 0.901611328125, -3.539062500000, -0.531250000000, -2.078125000000, 1491880667
0.266357421875, 0.401367187500, 0.901611328125, -3.539062500000, -0.531250000000, -2.078125000000, 1491880667
0.266357421875, 0.401367187500, 0.901611328125, -3.539062500000, -0.531250000000, -2.078125000000, 1491880667
0.175292968750, 0.454589843750, 0.847412109375, -3.921875000000, 2.945312500000, -1.625000000000, 1491880667
0.175292968750, 0.454589843750, 0.847412109375, -3.921875000000, 2.945312500000, -1.625000000000, 1491880667
0.175292968750, 0.454589843750, 0.847412109375, -3.921875000000, 2.945312500000, -1.625000000000, 1491880667
0.254882812500, 0.462158203125, 0.947021484375, -3.539062500000, -2.929687500000, -3.703125000000, 1491880667
0.254882812500, 0.462158203125, 0.947021484375, -3.539062500000, -2.929687500000, -3.703125000000, 1491880667
0.254882812500, 0.462158203125, 0.947021484375, -3.539062500000, -2.929687500000, -3.703125000000, 1491880667
0.227783203125, 0.445312500000, 0.888183593750, -3.085937500000, 2.468750000000, -2.257812500000, 1491880667
0.227783203125, 0.445312500000, 0.888183593750, -3.085937500000, 2.468750000000, -2.257812500000, 1491880667
0.227783203125, 0.445312500000, 0.888183593750, -3.085937500000, 2.468750000000, -2.257812500000, 1491880667
0.227783203125, 0.445312500000, 0.888183593750, -3.085937500000, 2.468750000000, -2.257812500000, 1491880667
0.184814453125, 0.468505859375, 0.883544921875, 0.953125000000, 1.812500000000, -3.640625000000, 1491880667
0.184814453125, 0.468505859375, 0.883544921875, 0.953125000000, 1.812500000000, -3.640625000000, 1491880667
0.184814453125, 0.468505859375, 0.883544921875, 0.953125000000, 1.812500000000, -3.640625000000, 1491880667
0.263427734375, 0.353759765625, 0.938964843750, 12.820312500000, 11.828125000000, -4.648437500000, 1491880667
0.263427734375, 0.353759765625, 0.938964843750, 12.820312500000, 11.828125000000, -4.648437500000, 1491880667
0.263427734375, 0.353759765625, 0.938964843750, 12.820312500000, 11.828125000000, -4.648437500000, 1491880667
0.151367187500, 0.392578125000, 0.888427734375, 16.187500000000, 7.093750000000, 1.671875000000, 1491880667
-0.053466796875, 0.708007812500, 1.068359375000, 81.789062500000, -123.109375000000, -45.804687500000, 1491880667
-0.053466796875, 0.708007812500, 1.068359375000, 81.789062500000, -123.109375000000, -45.804687500000, 1491880667
-0.053466796875, 0.708007812500, 1.068359375000, 81.789062500000, -123.109375000000, -45.804687500000, 1491880667
-0.053466796875, 0.708007812500, 1.068359375000, 81.789062500000, -123.109375000000, -45.804687500000, 1491880667
-0.053466796875, 0.708007812500, 1.068359375000, 81.789062500000, -123.109375000000, -45.804687500000, 1491880667
0.513916015625, 0.308837890625, 1.086914062500, 94.664062500000, -100.093750000000, -64.015625000000, 1491880667
0.513916015625, 0.308837890625, 1.086914062500, 94.664062500000, -100.093750000000, -64.015625000000, 1491880667
0.513916015625, 0.308837890625, 1.086914062500, 94.664062500000, -100.093750000000, -64.015625000000, 1491880667
0.513916015625, 0.308837890625, 1.086914062500, 94.664062500000, -100.093750000000, -64.015625000000, 1491880667
