ACC_X,ACC_Y,ACC_Z,G_X,G_Y,G_Z,Unix Time
0.265869140625, -0.954833984375, 0.224121093750, -4.953125000000, -4.968750000000, -3.000000000000, 1491880774
0.265869140625, -0.954833984375, 0.224121093750, -4.953125000000, -4.968750000000, -3.000000000000, 1491880774
0.265869140625, -0.954833984375, 0.224121093750, -4.953125000000, -4.968750000000, -3.000000000000, 1491880774
0.185302734375, -0.926757812500, 0.240966796875, -6.773437500000, -2.304687500000, 0.867187500000, 1491880774
0.185302734375, -0.926757812500, 0.240966796875, -6.773437500000, -2.304687500000, 0.867187500000, 1491880774
0.185302734375, -0.926757812500, 0.240966796875, -6.773437500000, -2.304687500000, 0.867187500000, 1491880774
0.272216796875, -0.942871093750, 0.182373046875, -5.804687500000, -2.179687500000, -2.437500000000, 1491880774
0.272216796875, -0.942871093750, 0.182373046875, -5.804687500000, -2.179687500000, -2.437500000000, 1491880774
0.272216796875, -0.942871093750, 0.182373046875, -5.804687500000, -2.179687500000, -2.437500000000, 1491880774
0.161621093750, -0.864257812500, 0.185058593750, -3.312500000000, -1.468750000000, -3.257812500000, 1491880774
0.161621093750, -0.864257812500, 0.185058593750, -3.312500000000, -1.468750000000, -3.257812500000, 1491880774
0.161621093750, -0.864257812500, 0.185058593750, -3.312500000000, -1.468750000000, -3.257812500000, 1491880774
0.161621093750, -0.864257812500, 0.185058593750, -3.312500000000, -1.468750000000, -3.257812500000, 1491880774
0.156494140625, -0.847167968750, 0.343505859375, -6.148437500000, -2.125000000000, -4.570312500000, 1491880774
0.156494140625, -0.847167968750, 0.343505859375, -6.148437500000, -2.125000000000, -4.570312500000, 1491880774
0.156494140625, -0.847167968750, 0.343505859375, -6.148437500000, -2.125000000000, -4.570312500000, 1491880774
0.175048828125, -0.947509765625, 0.174316406250, -5.273437500000, -2.718750000000, -1.570312500000, 1491880774
0.175048828125, -0.947509765625, 0.174316406250, -5.273437500000, -2.718750000000, -1.570312500000, 1491880774
0.175048828125, -0.947509765625, 0.174316406250, -5.273437500000, -2.718750000000, -1.570312500000, 1491880774
0.276123046875, -0.867431640625, 0.183837890625, -3.140625000000, -0.101562500000, -6.976562500000, 1491880774
0.276123046875, -0.867431640625, 0.183837890625, -3.140625000000, -0.101562500000, -6.976562500000, 1491880774
0.276123046875, -0.867431640625, 0.183837890625, -3.140625000000, -0.101562500000, -6.976562500000, 1491880774
0.201416015625, -0.912841796875, 0.241943359375, -4.109375000000, 6.484375000000, -4.460937500000, 1491880774
0.201416015625, -0.912841796875, 0.241943359375, -4.109375000000, 6.484375000000, -4.460937500000, 1491880774
0.201416015625, -0.912841796875, 0.241943359375, -4.109375000000, 6.484375000000, -4.460937500000, 1491880774
0.201416015625, -0.912841796875, 0.241943359375, -4.109375000000, 6.484375000000, -4.460937500000, 1491880774
0.247070312500, -0.906738281250, 0.251464843750, -2.140625000000, -8.843750000000, -3.382812500000, 1491880774
0.247070312500, -0.906738281250, 0.251464843750, -2.140625000000, -8.843750000000, -3.382812500000, 1491880774
0.247070312500, -0.906738281250, 0.251464843750, -2.140625000000, -8.843750000000, -3.382812500000, 1491880774
0.163085937500, -0.934570312500, 0.158447265625, -1.906250000000, 1.265625000000, -1.406250000000, 1491880774
0.163085937500, -0.934570312500, 0.158447265625, -1.906250000000, 1.265625000000, -1.406250000000, 1491880774
0.163085937500, -0.934570312500, 0.158447265625, -1.906250000000, 1.265625000000, -1.406250000000, 1491880774
0.184570312500, -0.891113281250, 0.232421875000, -3.554687500000, -2.804687500000, -4.171875000000, 1491880774
0.184570312500, -0.891113281250, 0.232421875000, -3.554687500000, -2.804687500000, -4.171875000000, 1491880774
0.184570312500, -0.891113281250, 0.232421875000, -3.554687500000, -2.804687500000, -4.171875000000, 1491880774
0.193115234375, -0.907470703125, 0.235107421875, -3.632812500000, -0.507812500000, -3.664062500000, 1491880774
0.193115234375, -0.907470703125, 0.235107421875, -3.632812500000, -0.507812500000, -3.664062500000, 1491880774
0.193115234375, -0.907470703125, 0.235107421875, -3.632812500000, -0.507812500000, -3.664062500000, 1491880774
0.193115234375, -0.907470703125, 0.235107421875, -3.632812500000, -0.507812500000, -3.664062500000, 1491880774
0.165771484375, -1.000732421875, 0.253662109375, -6.835937500000, 0.648437500000, -3.218750000000, 1491880774
0.165771484375, -1.000732421875, 0.253662109375, -6.835937500000, 0.648437500000, -3.218750000000, 1491880774
0.165771484375, -1.000732421875, 0.253662109375, -6.835937500000, 0.648437500000, -3.218750000000, 1491880774
0.212890625000, -0.959960937500, 0.176025390625, -4.812500000000, 4.617187500000, -2.203125000000, 1491880774
0.212890625000, -0.959960937500, 0.176025390625, -4.812500000000, 4.617187500000, -2.203125000000, 1491880774
0.212890625000, -0.959960937500, 0.176025390625, -4.812500000000, 4.617187500000, -2.203125000000, 1491880774
0.162841796875, -0.961425781250, 0.220703125000, -5.203125000000, 4.046875000000, -4.367187500000, 1491880775
0.162841796875, -0.961425781250, 0.220703125000, -5.203125000000, 4.046875000000, -4.367187500000, 1491880775
0.162841796875, -0.961425781250, 0.220703125000, -5.203125000000, 4.046875000000, -4.367187500000, 1491880775
0.119873046875, -0.858886718750, 0.239501953125, -3.585937500000, -2.289062500000, -4.492187500000, 1491880775
0.119873046875, -0.858886718750, 0.239501953125, -3.585937500000, -2.289062500000, -4.492187500000, 1491880775
0.119873046875, -0.858886718750, 0.239501953125, -3.585937500000, -2.289062500000, -4.492187500000, 1491880775
0.119873046875, -0.858886718750, 0.239501953125, -3.585937500000, -2.289062500000, -4.492187500000, 1491880775
0.198486328125, -0.924560546875, 0.232910156250, -6.007812500000, -2.031250000000, -4.585937500000, 1491880775
0.171875000000, -0.919189453125, 0.263183593750, -5.765625000000, 0.335937500000, -6.656250000000, 1491880775
0.171875000000, -0.919189453125, 0.263183593750, -5.765625000000, 0.335937500000, -6.656250000000, 1491880775
0.171875000000, -0.919189453125, 0.263183593750, -5.765625000000, 0.335937500000, -6.656250000000, 1491880775
0.201171875000, -0.900878906250, 0.234375000000, -1.281250000000, 4.320312500000, -1.265625000000, 1491880775
0.276367187500, -0.867919921875, 0.268066406250, -1.648437500000, 6.593750000000, -4.007812500000, 1491880775
0.276367187500, -0.867919921875, 0.268066406250, -1.648437500000, 6.593750000000, -4.007812500000, 1491880775
0.276367187500, -0.867919921875, 0.268066406250, -1.648437500000, 6.593750000000, -4.007812500000, 1491880775
0.276367187500, -0.867919921875, 0.268066406250, -1.648437500000, 6.593750000000, -4.007812500000, 1491880775
0.158935546875, -0.860107421875, 0.170166015625, -5.578125000000, 5.703125000000, 0.531250000000, 1491880775
0.158935546875, -0.860107421875, 0.170166015625, -5.578125000000, 5.703125000000, 0.531250000000, 1491880775
0.158935546875, -0.860107421875, 0.170166015625, -5.578125000000, 5.703125000000, 0.531250000000, 1491880775
0.158935546875, -0.860107421875, 0.170166015625, -5.578125000000, 5.703125000000, 0.531250000000, 1491880775
0.156494140625, -0.864501953125, 0.226806640625, -2.984375000000, -4.000000000000, -3.078125000000, 1491880775
0.156494140625, -0.864501953125, 0.226806640625, -2.984375000000, -4.000000000000, -3.078125000000, 1491880775
0.156494140625, -0.864501953125, 0.226806640625, -2.984375000000, -4.000000000000, -3.078125000000, 1491880775
0.264648437500, -0.889648437500, 0.269042968750, -1.429687500000, 2.242187500000, -2.304687500000, 1491880775
0.264648437500, -0.889648437500, 0.269042968750, -1.429687500000, 2.242187500000, -2.304687500000, 1491880775
0.264648437500, -0.889648437500, 0.269042968750, -1.429687500000, 2.242187500000, -2.304687500000, 1491880775
0.177246093750, -0.854248046875, 0.240478515625, -5.515625000000, -1.906250000000, -1.304687500000, 1491880775
0.177246093750, -0.854248046875, 0.240478515625, -5.515625000000, -1.906250000000, -1.304687500000, 1491880775
0.177246093750, -0.854248046875, 0.240478515625, -5.515625000000, -1.906250000000, -1.304687500000, 1491880775
0.163574218750, -0.923828125000, 0.240234375000, -4.835937500000, 2.296875000000, -4.164062500000, 1491880775
0.163574218750, -0.923828125000, 0.240234375000, -4.835937500000, 2.296875000000, -4.164062500000, 1491880775
0.163574218750, -0.923828125000, 0.240234375000, -4.835937500000, 2.296875000000, -4.164062500000, 1491880775
0.163574218750, -0.923828125000, 0.240234375000, -4.835937500000, 2.296875000000, -4.164062500000, 1491880775
0.161621093750, -0.927734375000, 0.258300781250, -6.070312500000, -0.992187500000, -4.867187500000, 1491880775
0.161621093750, -0.927734375000, 0.258300781250, -6.070312500000, -0.992187500000, -4.867187500000, 1491880775
0.161621093750, -0.927734375000, 0.258300781250, -6.070312500000, -0.992187500000, -4.867187500000, 1491880775
0.180908203125, -0.859375000000, 0.274902343750, -3.367187500000, -1.242187500000, -3.609375000000, 1491880775
0.180908203125, -0.859375000000, 0.274902343750, -3.367187500000, -1.242187500000, -3.609375000000, 1491880775
0.180908203125, -0.859375000000, 0.274902343750, -3.367187500000, -1.242187500000, -3.609375000000, 1491880775
0.108886718750, -0.968750000000, 0.222900390625, -6.679687500000, -0.351562500000, -1.312500000000, 1491880775
0.108886718750, -0.968750000000, 0.222900390625, -6.679687500000, -0.351562500000, -1.312500000000, 1491880775
0.108886718750, -0.968750000000, 0.222900390625, -6.679687500000, -0.351562500000, -1.312500000000, 1491880775
0.184326171875, -0.945556640625, 0.255615234375, -4.828125000000, -2.226562500000, -6.078125000000, 1491880775
0.184326171875, -0.945556640625, 0.255615234375, -4.828125000000, -2.226562500000, -6.078125000000, 1491880775
0.184326171875, -0.945556640625, 0.255615234375, -4.828125000000, -2.226562500000, -6.078125000000, 1491880775
0.184326171875, -0.945556640625, 0.255615234375, -4.828125000000, -2.226562500000, -6.078125000000, 1491880775
0.173339843750, -0.958740234375, 0.226318359375, -3.101562500000, 1.414062500000, -1.882812500000, 1491880775
0.173339843750, -0.958740234375, 0.226318359375, -3.101562500000, 1.414062500000, -1.882812500000, 1491880775
0.173339843750, -0.958740234375, 0.226318359375, -3.101562500000, 1.414062500000, -1.882812500000, 1491880775
0.201171875000, -0.944824218750, 0.258300781250, -3.132812500000, -2.289062500000, -3.031250000000, 1491880775
0.201171875000, -0.944824218750, 0.258300781250, -3.132812500000, -2.289062500000, -3.031250000000, 1491880775
0.201171875000, -0.944824218750, 0.258300781250, -3.132812500000, -2.289062500000, -3.031250000000, 1491880775
0.201660156250, -0.916503906250, 0.259277343750, -3.070312500000, 1.390625000000, -4.859375000000, 1491880775
0.201660156250, -0.916503906250, 0.259277343750, -3.070312500000, 1.390625000000, -4.859375000000, 1491880775
0.201660156250, -0.916503906250, 0.259277343750, -3.070312500000, 1.390625000000, -4.859375000000, 1491880775
0.176269531250, -0.949951171875, 0.254882812500, -1.851562500000, 5.320312500000, -2.640625000000, 1491880775
0.176269531250, -0.949951171875, 0.254882812500, -1.851562500000, 5.320312500000, -2.640625000000, 1491880775
0.176269531250, -0.949951171875, 0.254882812500, -1.851562500000, 5.320312500000, -2.640625000000, 1491880775
0.176269531250, -0.949951171875, 0.254882812500, -1.851562500000, 5.320312500000, -2.640625000000, 1491880775
0.164794921875, -0.946044921875, 0.218994140625, -1.343750000000, -5.632812500000, -1.265625000000, 1491880775
0.164794921875, -0.946044921875, 0.218994140625, -1.343750000000, -5.632812500000, -1.265625000000, 1491880775
0.164794921875, -0.946044921875, 0.218994140625, -1.343750000000, -5.632812500000, -1.265625000000, 1491880775
0.117431640625, -0.918701171875, 0.163330078125, -2.921875000000, 1.968750000000, -3.562500000000, 1491880775
0.117431640625, -0.918701171875, 0.163330078125, -2.921875000000, 1.968750000000, -3.562500000000, 1491880775
0.117431640625, -0.918701171875, 0.163330078125, -2.921875000000, 1.968750000000, -3.562500000000, 1491880775
0.200439453125, -0.949218750000, 0.280273437500, -1.351562500000, -1.429687500000, -1.929687500000, 1491880775
0.200439453125, -0.949218750000, 0.280273437500, -1.351562500000, -1.429687500000, -1.929687500000, 1491880775
0.200439453125, -0.949218750000, 0.280273437500, -1.351562500000, -1.429687500000, -1.929687500000, 1491880775
0.160400390625, -0.891601562500, 0.221191406250, -4.617187500000, -2.132812500000, -6.476562500000, 1491880776
0.160400390625, -0.891601562500, 0.221191406250, -4.617187500000, -2.132812500000, -6.476562500000, 1491880776
0.160400390625, -0.891601562500, 0.221191406250, -4.617187500000, -2.132812500000, -6.476562500000, 1491880776
0.160400390625, -0.891601562500, 0.221191406250, -4.617187500000, -2.132812500000, -6.476562500000, 1491880776
0.110595703125, -0.919921875000, 0.275634765625, -3.664062500000, -2.164062500000, -4.820312500000, 1491880776
0.110595703125, -0.919921875000, 0.275634765625, -3.664062500000, -2.164062500000, -4.820312500000, 1491880776
0.110595703125, -0.919921875000, 0.275634765625, -3.664062500000, -2.164062500000, -4.820312500000, 1491880776
0.096679687500, -0.906982421875, 0.328125000000, -1.320312500000, -2.921875000000, -2.640625000000, 1491880776
0.096679687500, -0.906982421875, 0.328125000000, -1.320312500000, -2.921875000000, -2.640625000000, 1491880776
0.096679687500, -0.906982421875, 0.328125000000, -1.320312500000, -2.921875000000, -2.640625000000, 1491880776
0.193847656250, -0.908691406250, 0.289306640625, -3.085937500000, 2.359375000000, -4.500000000000, 1491880776
0.193847656250, -0.908691406250, 0.289306640625, -3.085937500000, 2.359375000000, -4.500000000000, 1491880776
0.193847656250, -0.908691406250, 0.289306640625, -3.085937500000, 2.359375000000, -4.500000000000, 1491880776
0.184082031250, -0.856689453125, 0.264892578125, -1.140625000000, 0.648437500000, -4.414062500000, 1491880776
0.184082031250, -0.856689453125, 0.264892578125, -1.140625000000, 0.648437500000, -4.414062500000, 1491880776
0.184082031250, -0.856689453125, 0.264892578125, -1.140625000000, 0.648437500000, -4.414062500000, 1491880776
0.184082031250, -0.856689453125, 0.264892578125, -1.140625000000, 0.648437500000, -4.414062500000, 1491880776
0.090820312500, -1.322265625000, 0.231201171875, -8.765625000000, -10.765625000000, -9.367187500000, 1491880776
0.090820312500, -1.322265625000, 0.231201171875, -8.765625000000, -10.765625000000, -9.367187500000, 1491880776
0.090820312500, -1.322265625000, 0.231201171875, -8.765625000000, -10.765625000000, -9.367187500000, 1491880776
0.098144531250, -0.910400390625, 0.037597656250, -27.132812500000, -114.109375000000, -20.500000000000, 1491880776
0.098144531250, -0.910400390625, 0.037597656250, -27.132812500000, -114.109375000000, -20.500000000000, 1491880776
0.098144531250, -0.910400390625, 0.037597656250, -27.132812500000, -114.109375000000, -20.500000000000, 1491880776
0.253173828125, -0.900146484375, 0.062011718750, -35.210937500000, -92.976562500000, -8.453125000000, 1491880776
0.253173828125, -0.900146484375, 0.062011718750, -35.210937500000, -92.976562500000, -8.453125000000, 1491880776
0.253173828125, -0.900146484375, 0.062011718750, -35.210937500000, -92.976562500000, -8.453125000000, 1491880776
-0.019042968750, -1.185302734375, 0.131347656250, -188.203125000000, 106.640625000000, -61.531250000000, 1491880776
-0.019042968750, -1.185302734375, 0.131347656250, -188.203125000000, 106.640625000000, -61.531250000000, 1491880776
-0.019042968750, -1.185302734375, 0.131347656250, -188.203125000000, 106.640625000000, -61.531250000000, 1491880776
-0.019042968750, -1.185302734375, 0.131347656250, -188.203125000000, 106.640625000000, -61.531250000000, 1491880776
0.179931640625, -1.013183593750, 0.036865234375, -101.890625000000, -40.984375000000, -101.039062500000, 1491880776
0.179931640625, -1.013183593750, 0.036865234375, -101.890625000000, -40.984375000000, -101.039062500000, 1491880776
0.179931640625, -1.013183593750, 0.036865234375, -101.890625000000, -40.984375000000, -101.039062500000, 1491880776
-0.193359375000, -1.337646484375, 0.097412109375, -82.296875000000, -49.812500000000, -34.140625000000, 1491880776
-0.193359375000, -1.337646484375, 0.097412109375, -82.296875000000, -49.812500000000, -34.140625000000, 1491880776
-0.193359375000, -1.337646484375, 0.097412109375, -82.296875000000, -49.812500000000, -34.140625000000, 1491880776
-0.034423828125, -0.915283203125, 0.132812500000, -138.632812500000, 54.257812500000, -25.062500000000, 1491880776
-0.034423828125, -0.915283203125, 0.132812500000, -138.632812500000, 54.257812500000, -25.062500000000, 1491880776
-0.034423828125, -0.915283203125, 0.132812500000, -138.632812500000, 54.257812500000, -25.062500000000, 1491880776
0.269287109375, 0.186767578125, 0.261962890625, 89.312500000000, 11.671875000000, 190.335937500000, 1491880776
0.269287109375, 0.186767578125, 0.261962890625, 89.312500000000, 11.671875000000, 190.335937500000, 1491880776
0.269287109375, 0.186767578125, 0.261962890625, 89.312500000000, 11.671875000000, 190.335937500000, 1491880776
0.269287109375, 0.186767578125, 0.261962890625, 89.312500000000, 11.671875000000, 190.335937500000, 1491880776
0.404052734375, -0.345458984375, 0.069091796875, 191.906250000000, 122.031250000000, 116.351562500000, 1491880776
0.404052734375, -0.345458984375, 0.069091796875, 191.906250000000, 122.031250000000, 116.351562500000, 1491880776
0.404052734375, -0.345458984375, 0.069091796875, 191.906250000000, 122.031250000000, 116.351562500000, 1491880776
-0.143554687500, -1.163085937500, 0.480468750000, -34.687500000000, 212.593750000000, -52.132812500000, 1491880776
-0.143554687500, -1.163085937500, 0.480468750000, -34.687500000000, 212.593750000000, -52.132812500000, 1491880776
-0.143554687500, -1.163085937500, 0.480468750000, -34.687500000000, 212.593750000000, -52.132812500000, 1491880776
-0.020019531250, -0.496826171875, 0.047119140625, -80.523437500000, -256.000000000000, 48.359375000000, 1491880776
-0.020019531250, -0.496826171875, 0.047119140625, -80.523437500000, -256.000000000000, 48.359375000000, 1491880776
-0.020019531250, -0.496826171875, 0.047119140625, -80.523437500000, -256.000000000000, 48.359375000000, 1491880776
0.146484375000, -0.305175781250, 0.117187500000, 21.625000000000, -173.054687500000, 8.140625000000, 1491880776
0.146484375000, -0.305175781250, 0.117187500000, 21.625000000000, -173.054687500000, 8.140625000000, 1491880776
0.146484375000, -0.305175781250, 0.117187500000, 21.625000000000, -173.054687500000, 8.140625000000, 1491880776
0.146484375000, -0.305175781250, 0.117187500000, 21.625000000000, -173.054687500000, 8.140625000000, 1491880776
0.018798828125, -0.155761718750, 0.103759765625, -12.937500000000, -21.578125000000, 2.515625000000, 1491880776
0.018798828125, -0.155761718750, 0.103759765625, -12.937500000000, -21.578125000000, 2.515625000000, 1491880776
0.018798828125, -0.155761718750, 0.103759765625, -12.937500000000, -21.578125000000, 2.515625000000, 1491880776
-0.072265625000, 0.061523437500, -0.003173828125, 24.539062500000, -73.242187500000, 4.156250000000, 1491880776
-0.072265625000, 0.061523437500, -0.003173828125, 24.539062500000, -73.242187500000, 4.156250000000, 1491880776
0.038818359375, 0.145751953125, -0.022949218750, 50.632812500000, -256.000000000000, 21.593750000000, 1491880776
0.038818359375, 0.145751953125, -0.022949218750, 50.632812500000, -256.000000000000, 21.593750000000, 1491880776
0.038818359375, 0.145751953125, -0.022949218750, 50.632812500000, -256.000000000000, 21.593750000000, 1491880776
0.038818359375, 0.145751953125, -0.022949218750, 50.632812500000, -256.000000000000, 21.593750000000, 1491880776
-0.013671875000, -0.020996093750, -0.025390625000, -62.640625000000, -214.921875000000, 99.734375000000, 1491880777
-0.013671875000, -0.020996093750, -0.025390625000, -62.640625000000, -214.921875000000, 99.734375000000, 1491880777
-0.013671875000, -0.020996093750, -0.025390625000, -62.640625000000, -214.921875000000, 99.734375000000, 1491880777
-0.013671875000, -0.020996093750, -0.025390625000, -62.640625000000, -214.921875000000, 99.734375000000, 1491880777
0.089111328125, 0.151123046875, 0.092529296875, -61.468750000000, -107.281250000000, 31.265625000000, 1491880777
0.089111328125, 0.151123046875, 0.092529296875, -61.468750000000, -107.281250000000, 31.265625000000, 1491880777
0.089111328125, 0.151123046875, 0.092529296875, -61.468750000000, -107.281250000000, 31.265625000000, 1491880777
-0.013671875000, -0.026367187500, 0.041748046875, -88.742187500000, 99.359375000000, 60.312500000000, 1491880777
-0.013671875000, -0.026367187500, 0.041748046875, -88.742187500000, 99.359375000000, 60.312500000000, 1491880777
-0.013671875000, -0.026367187500, 0.041748046875, -88.742187500000, 99.359375000000, 60.312500000000, 1491880777
4.702148437500, -3.907714843750, 3.025634765625, 9.570312500000, 253.992187500000, -256.000000000000, 1491880777
4.702148437500, -3.907714843750, 3.025634765625, 9.570312500000, 253.992187500000, -256.000000000000, 1491880777
4.702148437500, -3.907714843750, 3.025634765625, 9.570312500000, 253.992187500000, -256.000000000000, 1491880777
3.204589843750, -2.976074218750, 0.892822265625, -256.000000000000, -256.000000000000, 253.992187500000, 1491880777
3.204589843750, -2.976074218750, 0.892822265625, -256.000000000000, -256.000000000000, 253.992187500000, 1491880777
3.204589843750, -2.976074218750, 0.892822265625, -256.000000000000, -256.000000000000, 253.992187500000, 1491880777
3.204589843750, -2.976074218750, 0.892822265625, -256.000000000000, -256.000000000000, 253.992187500000, 1491880777
3.265869140625, 2.178222656250, 2.064697265625, -221.804687500000, 90.187500000000, -154.906250000000, 1491880777
3.265869140625, 2.178222656250, 2.064697265625, -221.804687500000, 90.187500000000, -154.906250000000, 1491880777
3.265869140625, 2.178222656250, 2.064697265625, -221.804687500000, 90.187500000000, -154.906250000000, 1491880777
-0.352783203125, 0.629638671875, 0.692138671875, -256.000000000000, 253.992187500000, 253.992187500000, 1491880777
-0.352783203125, 0.629638671875, 0.692138671875, -256.000000000000, 253.992187500000, 253.992187500000, 1491880777
-0.352783203125, 0.629638671875, 0.692138671875, -256.000000000000, 253.992187500000, 253.992187500000, 1491880777
0.076171875000, 0.095458984375, -0.059570312500, -77.921875000000, -85.546875000000, 66.828125000000, 1491880777
0.076171875000, 0.095458984375, -0.059570312500, -77.921875000000, -85.546875000000, 66.828125000000, 1491880777
0.076171875000, 0.095458984375, -0.059570312500, -77.921875000000, -85.546875000000, 66.828125000000, 1491880777
0.056884765625, 0.144775390625, 0.010742187500, -167.929687500000, -256.000000000000, 122.585937500000, 1491880777
0.056884765625, 0.144775390625, 0.010742187500, -167.929687500000, -256.000000000000, 122.585937500000, 1491880777
0.075439453125, 0.205078125000, 0.043457031250, -86.164062500000, -189.953125000000, 222.351562500000, 1491880777
0.075439453125, 0.205078125000, 0.043457031250, -86.164062500000, -189.953125000000, 222.351562500000, 1491880777
0.075439453125, 0.205078125000, 0.043457031250, -86.164062500000, -189.953125000000, 222.351562500000, 1491880777
0.075439453125, 0.205078125000, 0.043457031250, -86.164062500000, -189.953125000000, 222.351562500000, 1491880777
0.009521484375, 0.315917968750, 0.123535156250, 190.750000000000, -14.273437500000, 226.257812500000, 1491880777
0.009521484375, 0.315917968750, 0.123535156250, 190.750000000000, -14.273437500000, 226.257812500000, 1491880777
0.009521484375, 0.315917968750, 0.123535156250, 190.750000000000, -14.273437500000, 226.257812500000, 1491880777
0.009521484375, 0.315917968750, 0.123535156250, 190.750000000000, -14.273437500000, 226.257812500000, 1491880777
-0.024902343750, 0.154785156250, 0.195556640625, 253.992187500000, 1.335937500000, 34.070312500000, 1491880777
-0.024902343750, 0.154785156250, 0.195556640625, 253.992187500000, 1.335937500000, 34.070312500000, 1491880777
-0.024902343750, 0.154785156250, 0.195556640625, 253.992187500000, 1.335937500000, 34.070312500000, 1491880777
-0.081298828125, 2.149169921875, 2.971923828125, -249.960937500000, 253.992187500000, 253.992187500000, 1491880777
-0.081298828125, 2.149169921875, 2.971923828125, -249.960937500000, 253.992187500000, 253.992187500000, 1491880777
-0.081298828125, 2.149169921875, 2.971923828125, -249.960937500000, 253.992187500000, 253.992187500000, 1491880777
-0.081298828125, 2.149169921875, 2.971923828125, -249.960937500000, 253.992187500000, 253.992187500000, 1491880777
-1.890136718750, 2.826660156250, 2.272460937500, -211.679687500000, 253.992187500000, 185.109375000000, 1491880777
-1.090576171875, 0.482177734375, 0.810791015625, 105.757812500000, 253.992187500000, 18.015625000000, 1491880777
-1.090576171875, 0.482177734375, 0.810791015625, 105.757812500000, 253.992187500000, 18.015625000000, 1491880777
-1.090576171875, 0.482177734375, 0.810791015625, 105.757812500000, 253.992187500000, 18.015625000000, 1491880777
-1.090576171875, 0.482177734375, 0.810791015625, 105.757812500000, 253.992187500000, 18.015625000000, 1491880777
-0.134277343750, 0.340576171875, 0.970703125000, -23.140625000000, -140.031250000000, -50.187500000000, 1491880777
-0.134277343750, 0.340576171875, 0.970703125000, -23.140625000000, -140.031250000000, -50.187500000000, 1491880777
-0.134277343750, 0.340576171875, 0.970703125000, -23.140625000000, -140.031250000000, -50.187500000000, 1491880777
-0.134277343750, 0.340576171875, 0.970703125000, -23.140625000000, -140.031250000000, -50.187500000000, 1491880777
-0.282958984375, 0.335205078125, 0.673583984375, -19.406250000000, -58.593750000000, -49.140625000000, 1491880777
-0.282958984375, 0.335205078125, 0.673583984375, -19.406250000000, -58.593750000000, -49.140625000000, 1491880777
-0.282958984375, 0.335205078125, 0.673583984375, -19.406250000000, -58.593750000000, -49.140625000000, 1491880777
-0.282958984375, 0.335205078125, 0.673583984375, -19.406250000000, -58.593750000000, -49.140625000000, 1491880777
-0.048339843750, 0.299316406250, 0.659423828125, -20.468750000000, -63.679687500000, -41.812500000000, 1491880777
-0.048339843750, 0.299316406250, 0.659423828125, -20.468750000000, -63.679687500000, -41.812500000000, 1491880777
-0.048339843750, 0.299316406250, 0.659423828125, -20.468750000000, -63.679687500000, -41.812500000000, 1491880777
0.064697265625, 0.394042968750, 0.553710937500, 2.742187500000, -50.687500000000, -44.070312500000, 1491880777
0.064697265625, 0.394042968750, 0.553710937500, 2.742187500000, -50.687500000000, -44.070312500000, 1491880777
0.064697265625, 0.394042968750, 0.553710937500, 2.742187500000, -50.687500000000, -44.070312500000, 1491880777
0.196777343750, 0.360107421875, 0.956787109375, 25.632812500000, 52.101562500000, -22.164062500000, 1491880777
0.196777343750, 0.360107421875, 0.956787109375, 25.632812500000, 52.101562500000, -22.164062500000, 1491880777
0.196777343750, 0.360107421875, 0.956787109375, 25.632812500000, 52.101562500000, -22.164062500000, 1491880777
0.230712890625, 0.224365234375, 1.135742187500, -8.125000000000, -5.921875000000, -3.007812500000, 1491880777
0.230712890625, 0.224365234375, 1.135742187500, -8.125000000000, -5.921875000000, -3.007812500000, 1491880777
0.230712890625, 0.224365234375, 1.135742187500, -8.125000000000, -5.921875000000, -3.007812500000, 1491880778
0.230712890625, 0.224365234375, 1.135742187500, -8.125000000000, -5.921875000000, -3.007812500000, 1491880778
0.505371093750, 0.190673828125, 1.089111328125, -35.195312500000, 5.523437500000, 7.078125000000, 1491880778
0.505371093750, 0.190673828125, 1.089111328125, -35.195312500000, 5.523437500000, 7.078125000000, 1491880778
0.505371093750, 0.190673828125, 1.089111328125, -35.195312500000, 5.523437500000, 7.078125000000, 1491880778
0.354980468750, 0.130126953125, 0.779296875000, -34.085937500000, 7.250000000000, 11.328125000000, 1491880778
0.354980468750, 0.130126953125, 0.779296875000, -34.085937500000, 7.250000000000, 11.328125000000, 1491880778
0.354980468750, 0.130126953125, 0.779296875000, -34.085937500000, 7.250000000000, 11.328125000000, 1491880778
0.100585937500, 0.208007812500, 0.673583984375, -26.195312500000, 21.570312500000, 26.851562500000, 1491880778
0.100585937500, 0.208007812500, 0.673583984375, -26.195312500000, 21.570312500000, 26.851562500000, 1491880778
0.100585937500, 0.208007812500, 0.673583984375, -26.195312500000, 21.570312500000, 26.851562500000, 1491880778
0.050781250000, 0.327148437500, 0.954345703125, -25.460937500000, -25.820312500000, 6.546875000000, 1491880778
0.050781250000, 0.327148437500, 0.954345703125, -25.460937500000, -25.820312500000, 6.546875000000, 1491880778
0.050781250000, 0.327148437500, 0.954345703125, -25.460937500000, -25.820312500000, 6.546875000000, 1491880778
0.050781250000, 0.327148437500, 0.954345703125, -25.460937500000, -25.820312500000, 6.546875000000, 1491880778
0.111572265625, 0.569335937500, 1.136718750000, 5.414062500000, 42.554687500000, 22.148437500000, 1491880778
0.111572265625, 0.569335937500, 1.136718750000, 5.414062500000, 42.554687500000, 22.148437500000, 1491880778
0.111572265625, 0.569335937500, 1.136718750000, 5.414062500000, 42.554687500000, 22.148437500000, 1491880778
-0.320800781250, 0.975585937500, 1.334228515625, 46.218750000000, 95.937500000000, 26.328125000000, 1491880778
-0.320800781250, 0.975585937500, 1.334228515625, 46.218750000000, 95.937500000000, 26.328125000000, 1491880778
-0.320800781250, 0.975585937500, 1.334228515625, 46.218750000000, 95.937500000000, 26.328125000000, 1491880778
-0.620605468750, 0.666503906250, 1.021728515625, 12.695312500000, 10.953125000000, 8.671875000000, 1491880778
-0.620605468750, 0.666503906250, 1.021728515625, 12.695312500000, 10.953125000000, 8.671875000000, 1491880778
-0.620605468750, 0.666503906250, 1.021728515625, 12.695312500000, 10.953125000000, 8.671875000000, 1491880778
-0.230224609375, 0.369628906250, 0.622070312500, -10.914062500000, -38.726562500000, -21.960937500000, 1491880778
-0.230224609375, 0.369628906250, 0.622070312500, -10.914062500000, -38.726562500000, -21.960937500000, 1491880778
-0.230224609375, 0.369628906250, 0.622070312500, -10.914062500000, -38.726562500000, -21.960937500000, 1491880778
-0.230224609375, 0.369628906250, 0.622070312500, -10.914062500000, -38.726562500000, -21.960937500000, 1491880778
-0.099365234375, 0.307128906250, 0.590820312500, -35.718750000000, -24.085937500000, -14.140625000000, 1491880778
-0.099365234375, 0.307128906250, 0.590820312500, -35.718750000000, -24.085937500000, -14.140625000000, 1491880778
-0.099365234375, 0.307128906250, 0.590820312500, -35.718750000000, -24.085937500000, -14.140625000000, 1491880778
-0.071777343750, 0.330322265625, 0.812988281250, -14.085937500000, 45.484375000000, -6.773437500000, 1491880778
-0.071777343750, 0.330322265625, 0.812988281250, -14.085937500000, 45.484375000000, -6.773437500000, 1491880778
-0.071777343750, 0.330322265625, 0.812988281250, -14.085937500000, 45.484375000000, -6.773437500000, 1491880778
-0.057373046875, 0.309570312500, 0.901855468750, -10.054687500000, 63.757812500000, -8.195312500000, 1491880778
-0.025146484375, 0.434570312500, 1.100830078125, -4.796875000000, -4.554687500000, -1.335937500000, 1491880778
0.033447265625, 0.381591796875, 0.969970703125, -3.156250000000, -12.859375000000, -6.703125000000, 1491880778
0.033447265625, 0.381591796875, 0.969970703125, -3.156250000000, -12.859375000000, -6.703125000000, 1491880778
0.033447265625, 0.381591796875, 0.969970703125, -3.156250000000, -12.859375000000, -6.703125000000, 1491880778
0.033447265625, 0.381591796875, 0.969970703125, -3.156250000000, -12.859375000000, -6.703125000000, 1491880778
-0.000000000000, 0.378173828125, 0.841308593750, -11.351562500000, -9.546875000000, -3.406250000000, 1491880778
-0.000000000000, 0.378173828125, 0.841308593750, -11.351562500000, -9.546875000000, -3.406250000000, 1491880778
-0.000000000000, 0.378173828125, 0.841308593750, -11.351562500000, -9.546875000000, -3.406250000000, 1491880778
-0.000000000000, 0.378173828125, 0.841308593750, -11.351562500000, -9.546875000000, -3.406250000000, 1491880778
-0.000000000000, 0.378173828125, 0.841308593750, -11.351562500000, -9.546875000000, -3.406250000000, 1491880778
-0.000000000000, 0.378173828125, 0.841308593750, -11.351562500000, -9.546875000000, -3.406250000000, 1491880778
-0.000000000000, 0.378173828125, 0.841308593750, -11.351562500000, -9.546875000000, -3.406250000000, 1491880778
-0.082519531250, 0.455810546875, 0.778808593750, -24.773437500000, 3.343750000000, 0.867187500000, 1491880778
-0.082519531250, 0.455810546875, 0.778808593750, -24.773437500000, 3.343750000000, 0.867187500000, 1491880778
-0.082519531250, 0.455810546875, 0.778808593750, -24.773437500000, 3.343750000000, 0.867187500000, 1491880778
-0.146728515625, 0.530029296875, 0.904296875000, -12.757812500000, 15.828125000000, -0.625000000000, 1491880778
-0.146728515625, 0.530029296875, 0.904296875000, -12.757812500000, 15.828125000000, -0.625000000000, 1491880778
-0.146728515625, 0.530029296875, 0.904296875000, -12.757812500000, 15.828125000000, -0.625000000000, 1491880778
-0.178466796875, 0.630615234375, 0.917236328125, -5.984375000000, 9.617187500000, -2.117187500000, 1491880778
-0.232177734375, 0.599853515625, 0.940429687500, -2.406250000000, 7.171875000000, -1.398437500000, 1491880778
-0.232177734375, 0.599853515625, 0.940429687500, -2.406250000000, 7.171875000000, -1.398437500000, 1491880778
-0.232177734375, 0.599853515625, 0.940429687500, -2.406250000000, 7.171875000000, -1.398437500000, 1491880778
-0.259521484375, 0.490234375000, 0.963378906250, 1.312500000000, 4.765625000000, -1.031250000000, 1491880778
-0.259521484375, 0.490234375000, 0.963378906250, 1.312500000000, 4.765625000000, -1.031250000000, 1491880778
-0.259521484375, 0.490234375000, 0.963378906250, 1.312500000000, 4.765625000000, -1.031250000000, 1491880778
-0.117431640625, 0.502197265625, 0.839355468750, -1.898437500000, 2.546875000000, -6.656250000000, 1491880778
-0.117431640625, 0.502197265625, 0.839355468750, -1.898437500000, 2.546875000000, -6.656250000000, 1491880778
-0.117431640625, 0.502197265625, 0.839355468750, -1.898437500000, 2.546875000000, -6.656250000000, 1491880778
-0.057617187500, 0.409667968750, 0.814697265625, -8.484375000000, 2.062500000000, -1.117187500000, 1491880778
-0.057617187500, 0.409667968750, 0.814697265625, -8.484375000000, 2.062500000000, -1.117187500000, 1491880778
-0.057617187500, 0.409667968750, 0.814697265625, -8.484375000000, 2.062500000000, -1.117187500000, 1491880778
-0.057617187500, 0.409667968750, 0.814697265625, -8.484375000000, 2.062500000000, -1.117187500000, 1491880778
-0.095947265625, 0.406982421875, 0.850097656250, -8.921875000000, 6.796875000000, 0.937500000000, 1491880778
-0.095947265625, 0.406982421875, 0.850097656250, -8.921875000000, 6.796875000000, 0.937500000000, 1491880779
-0.095947265625, 0.406982421875, 0.850097656250, -8.921875000000, 6.796875000000, 0.937500000000, 1491880779
-0.123779296875, 0.431152343750, 0.899658203125, -4.781250000000, -2.179687500000, -1.781250000000, 1491880779
-0.123779296875, 0.431152343750, 0.899658203125, -4.781250000000, -2.179687500000, -1.781250000000, 1491880779
-0.123779296875, 0.431152343750, 0.899658203125, -4.781250000000, -2.179687500000, -1.781250000000, 1491880779
-0.135498046875, 0.571533203125, 0.943847656250, 0.437500000000, 0.132812500000, -3.046875000000, 1491880779
-0.135498046875, 0.571533203125, 0.943847656250, 0.437500000000, 0.132812500000, -3.046875000000, 1491880779
-0.135498046875, 0.571533203125, 0.943847656250, 0.437500000000, 0.132812500000, -3.046875000000, 1491880779
-0.037109375000, 0.511474609375, 0.954833984375, -2.656250000000, -0.992187500000, -4.718750000000, 1491880779
-0.037109375000, 0.511474609375, 0.954833984375, -2.656250000000, -0.992187500000, -4.718750000000, 1491880779
-0.037109375000, 0.511474609375, 0.954833984375, -2.656250000000, -0.992187500000, -4.718750000000, 1491880779
-0.037109375000, 0.511474609375, 0.954833984375, -2.656250000000, -0.992187500000, -4.718750000000, 1491880779
-0.057373046875, 0.411621093750, 0.889892578125, 0.656250000000, -1.171875000000, -6.281250000000, 1491880779
-0.057373046875, 0.411621093750, 0.889892578125, 0.656250000000, -1.171875000000, -6.281250000000, 1491880779
-0.057373046875, 0.411621093750, 0.889892578125, 0.656250000000, -1.171875000000, -6.281250000000, 1491880779
-0.108154296875, 0.413574218750, 0.797363281250, -4.656250000000, 2.601562500000, -4.265625000000, 1491880779
-0.108154296875, 0.413574218750, 0.797363281250, -4.656250000000, 2.601562500000, -4.265625000000, 1491880779
-0.108154296875, 0.413574218750, 0.797363281250, -4.656250000000, 2.601562500000, -4.265625000000, 1491880779
-0.110839843750, 0.471923828125, 0.811767578125, 0.023437500000, 6.687500000000, -2.195312500000, 1491880779
-0.110839843750, 0.471923828125, 0.811767578125, 0.023437500000, 6.687500000000, -2.195312500000, 1491880779
-0.110839843750, 0.471923828125, 0.811767578125, 0.023437500000, 6.687500000000, -2.195312500000, 1491880779
-0.138427734375, 0.480468750000, 0.873535156250, 0.570312500000, -0.570312500000, -2.625000000000, 1491880779
-0.138427734375, 0.480468750000, 0.873535156250, 0.570312500000, -0.570312500000, -2.625000000000, 1491880779
-0.145507812500, 0.531005859375, 0.869384765625, -2.976562500000, -1.000000000000, -1.210937500000, 1491880779
-0.145507812500, 0.531005859375, 0.869384765625, -2.976562500000, -1.000000000000, -1.210937500000, 1491880779
-0.145507812500, 0.531005859375, 0.869384765625, -2.976562500000, -1.000000000000, -1.210937500000, 1491880779
-0.145507812500, 0.531005859375, 0.869384765625, -2.976562500000, -1.000000000000, -1.210937500000, 1491880779
-0.145507812500, 0.531005859375, 0.869384765625, -2.976562500000, -1.000000000000, -1.210937500000, 1491880779
-0.085937500000, 0.419677734375, 0.844970703125, -4.304687500000, 0.406250000000, -1.054687500000, 1491880779
-0.110351562500, 0.465576171875, 0.848388671875, -2.757812500000, -0.921875000000, -4.359375000000, 1491880779
-0.110351562500, 0.465576171875, 0.848388671875, -2.757812500000, -0.921875000000, -4.359375000000, 1491880779
-0.110351562500, 0.465576171875, 0.848388671875, -2.757812500000, -0.921875000000, -4.359375000000, 1491880779
-0.110351562500, 0.465576171875, 0.848388671875, -2.757812500000, -0.921875000000, -4.359375000000, 1491880779
-0.110351562500, 0.465576171875, 0.848388671875, -2.757812500000, -0.921875000000, -4.359375000000, 1491880779
-0.137939453125, 0.364746093750, 0.949951171875, -2.656250000000, -1.351562500000, -3.289062500000, 1491880779
-0.137939453125, 0.364746093750, 0.949951171875, -2.656250000000, -1.351562500000, -3.289062500000, 1491880779
-0.137939453125, 0.364746093750, 0.949951171875, -4.937500000000, 0.968750000000, -4.875000000000, 1491880779
-0.111328125000, 0.435546875000, 0.860595703125, -1.953125000000, -0.765625000000, -2.195312500000, 1491880779
-0.111328125000, 0.435546875000, 0.860595703125, -1.953125000000, -0.765625000000, -2.195312500000, 1491880779
-0.111328125000, 0.435546875000, 0.860595703125, -1.953125000000, -0.765625000000, -2.195312500000, 1491880779
-0.111328125000, 0.435546875000, 0.860595703125, -1.953125000000, -0.765625000000, -2.195312500000, 1491880779
-0.082031250000, 0.524414062500, 0.801025390625, -1.625000000000, 0.937500000000, -4.421875000000, 1491880779
-0.082031250000, 0.524414062500, 0.801025390625, -1.625000000000, 0.937500000000, -4.421875000000, 1491880779
-0.082031250000, 0.524414062500, 0.801025390625, -1.625000000000, 0.937500000000, -4.421875000000, 1491880779
-0.041748046875, 0.516113281250, 0.868164062500, -2.656250000000, -2.429687500000, -3.765625000000, 1491880779
-0.041748046875, 0.516113281250, 0.868164062500, -2.656250000000, -2.429687500000, -3.765625000000, 1491880779
-0.041748046875, 0.516113281250, 0.868164062500, -2.656250000000, -2.429687500000, -3.765625000000, 1491880779
-0.107910156250, 0.408447265625, 0.902343750000, -4.007812500000, -2.960937500000, -1.656250000000, 1491880779
-0.107910156250, 0.408447265625, 0.902343750000, -4.007812500000, -2.960937500000, -1.656250000000, 1491880779
-0.107910156250, 0.408447265625, 0.902343750000, -4.007812500000, -2.960937500000, -1.656250000000, 1491880779
-0.107910156250, 0.408447265625, 0.902343750000, -4.007812500000, -2.960937500000, -1.656250000000, 1491880779
-0.055175781250, 0.503662109375, 0.902587890625, 3.101562500000, -2.453125000000, -5.195312500000, 1491880779
-0.055175781250, 0.503662109375, 0.902587890625, 3.101562500000, -2.453125000000, -5.195312500000, 1491880779
-0.055175781250, 0.503662109375, 0.902587890625, 3.101562500000, -2.453125000000, -5.195312500000, 1491880779
-0.126953125000, 0.442138671875, 0.812255859375, -1.609375000000, -4.343750000000, -1.125000000000, 1491880779
-0.126953125000, 0.442138671875, 0.812255859375, -1.609375000000, -4.343750000000, -1.125000000000, 1491880779
-0.126953125000, 0.442138671875, 0.812255859375, -1.609375000000, -4.343750000000, -1.125000000000, 1491880779
-0.132080078125, 0.475830078125, 0.896972656250, -4.046875000000, 2.570312500000, -4.250000000000, 1491880779
-0.132080078125, 0.475830078125, 0.896972656250, -4.046875000000, 2.570312500000, -4.250000000000, 1491880779
-0.132080078125, 0.475830078125, 0.896972656250, -4.046875000000, 2.570312500000, -4.250000000000, 1491880779
-0.117187500000, 0.408447265625, 0.890869140625, -1.429687500000, 1.867187500000, -1.328125000000, 1491880779
-0.117187500000, 0.408447265625, 0.890869140625, -1.429687500000, 1.867187500000, -1.328125000000, 1491880779
-0.117187500000, 0.408447265625, 0.890869140625, -1.429687500000, 1.867187500000, -1.328125000000, 1491880779
-0.117187500000, 0.408447265625, 0.890869140625, -1.429687500000, 1.867187500000, -1.328125000000, 1491880779
-0.056884765625, 0.422119140625, 0.861083984375, -1.648437500000, -0.007812500000, -4.703125000000, 1491880779
-0.056884765625, 0.422119140625, 0.861083984375, -1.648437500000, -0.007812500000, -4.703125000000, 1491880779
-0.056884765625, 0.422119140625, 0.861083984375, -1.648437500000, -0.007812500000, -4.703125000000, 1491880779
-0.095214843750, 0.528808593750, 0.888183593750, -4.648437500000, -0.882812500000, -1.257812500000, 1491880780
-0.095214843750, 0.528808593750, 0.888183593750, -4.648437500000, -0.882812500000, -1.257812500000, 1491880780
-0.095214843750, 0.528808593750, 0.888183593750, -4.648437500000, -0.882812500000, -1.257812500000, 1491880780
-0.104980468750, 0.414062500000, 0.849365234375, 0.671875000000, -0.789062500000, -4.085937500000, 1491880780
-0.104980468750, 0.414062500000, 0.849365234375, 0.671875000000, -0.789062500000, -4.085937500000, 1491880780
-0.104980468750, 0.414062500000, 0.849365234375, 0.671875000000, -0.789062500000, -4.085937500000, 1491880780
-0.046630859375, 0.505371093750, 0.865966796875, -1.078125000000, -0.179687500000, -2.882812500000, 1491880780
-0.046630859375, 0.505371093750, 0.865966796875, -1.078125000000, -0.179687500000, -2.882812500000, 1491880780
-0.046630859375, 0.505371093750, 0.865966796875, -1.078125000000, -0.179687500000, -2.882812500000, 1491880780
-0.053466796875, 0.510986328125, 0.865722656250, 0.085937500000, -2.164062500000, -4.304687500000, 1491880780
-0.053466796875, 0.510986328125, 0.865722656250, 0.085937500000, -2.164062500000, -4.304687500000, 1491880780
-0.053466796875, 0.510986328125, 0.865722656250, 0.085937500000, -2.164062500000, -4.304687500000, 1491880780
-0.053466796875, 0.510986328125, 0.865722656250, 0.085937500000, -2.164062500000, -4.304687500000, 1491880780
-0.060791015625, 0.418212890625, 0.871582031250, -2.062500000000, 0.492187500000, -4.554687500000, 1491880780
-0.060791015625, 0.418212890625, 0.871582031250, -2.062500000000, 0.492187500000, -4.554687500000, 1491880780
-0.060791015625, 0.418212890625, 0.871582031250, -2.062500000000, 0.492187500000, -4.554687500000, 1491880780
-0.104248046875, 0.451416015625, 0.937744140625, 0.671875000000, -0.914062500000, -4.828125000000, 1491880780
-0.104248046875, 0.451416015625, 0.937744140625, 0.671875000000, -0.914062500000, -4.828125000000, 1491880780
-0.104248046875, 0.451416015625, 0.937744140625, 0.671875000000, -0.914062500000, -4.828125000000, 1491880780
-0.103271484375, 0.466796875000, 0.892578125000, -2.656250000000, -0.757812500000, -1.781250000000, 1491880780
-0.103271484375, 0.466796875000, 0.892578125000, -2.656250000000, -0.757812500000, -1.781250000000, 1491880780
-0.103271484375, 0.466796875000, 0.892578125000, -2.656250000000, -0.757812500000, -1.781250000000, 1491880780
-0.103271484375, 0.466796875000, 0.892578125000, -2.656250000000, -0.757812500000, -1.781250000000, 1491880780
-0.138671875000, 0.468750000000, 0.947265625000, 0.085937500000, 4.859375000000, -4.382812500000, 1491880780
-0.138671875000, 0.468750000000, 0.947265625000, 0.085937500000, 4.859375000000, -4.382812500000, 1491880780
-0.138671875000, 0.468750000000, 0.947265625000, 0.085937500000, 4.859375000000, -4.382812500000, 1491880780
-0.143798828125, 0.370605468750, 0.859130859375, 2.398437500000, -4.937500000000, -4.921875000000, 1491880780
-0.143798828125, 0.370605468750, 0.859130859375, 2.398437500000, -4.937500000000, -4.921875000000, 1491880780
-0.143798828125, 0.370605468750, 0.859130859375, 2.398437500000, -4.937500000000, -4.921875000000, 1491880780
-0.188476562500, 0.458984375000, 0.873291015625, -4.500000000000, -1.304687500000, -2.523437500000, 1491880780
-0.188476562500, 0.458984375000, 0.873291015625, -4.500000000000, -1.304687500000, -2.523437500000, 1491880780
-0.188476562500, 0.458984375000, 0.873291015625, -4.500000000000, -1.304687500000, -2.523437500000, 1491880780
-0.148925781250, 0.424804687500, 0.946777343750, -3.789062500000, -0.945312500000, -1.867187500000, 1491880780
-0.148925781250, 0.424804687500, 0.946777343750, -3.789062500000, -0.945312500000, -1.867187500000, 1491880780
-0.148925781250, 0.424804687500, 0.946777343750, -3.789062500000, -0.945312500000, -1.867187500000, 1491880780
-0.148925781250, 0.424804687500, 0.946777343750, -3.789062500000, -0.945312500000, -1.867187500000, 1491880780
-0.127929687500, 0.460937500000, 0.937744140625, -3.585937500000, 2.195312500000, -1.578125000000, 1491880780
-0.127929687500, 0.460937500000, 0.937744140625, -3.585937500000, 2.195312500000, -1.578125000000, 1491880780
-0.127929687500, 0.460937500000, 0.937744140625, -3.585937500000, 2.195312500000, -1.578125000000, 1491880780
-0.109130859375, 0.517333984375, 0.847412109375, -4.171875000000, -0.468750000000, -1.382812500000, 1491880780
-0.109130859375, 0.517333984375, 0.847412109375, -4.171875000000, -0.468750000000, -1.382812500000, 1491880780
-0.127929687500, 0.425292968750, 0.941894531250, -3.929687500000, 2.421875000000, -2.320312500000, 1491880780
-0.114501953125, 0.408691406250, 0.899169921875, -3.515625000000, -0.726562500000, -4.921875000000, 1491880780
-0.114501953125, 0.408691406250, 0.899169921875, -3.515625000000, -0.726562500000, -4.921875000000, 1491880780
-0.098144531250, 0.353515625000, 0.849853515625, -4.625000000000, -2.484375000000, -2.523437500000, 1491880780
-0.123046875000, 0.350097656250, 0.887451171875, -3.835937500000, -1.828125000000, -4.507812500000, 1491880780
-0.123046875000, 0.350097656250, 0.887451171875, -3.835937500000, -1.828125000000, -4.507812500000, 1491880780
-0.123046875000, 0.350097656250, 0.887451171875, -3.835937500000, -1.828125000000, -4.507812500000, 1491880780
-0.123046875000, 0.350097656250, 0.887451171875, -3.835937500000, -1.828125000000, -4.507812500000, 1491880780
-0.123046875000, 0.350097656250, 0.887451171875, -3.835937500000, -1.828125000000, -4.507812500000, 1491880780
-0.032226562500, 0.428222656250, 0.890625000000, -6.875000000000, 2.617187500000, -4.093750000000, 1491880780
-0.032226562500, 0.428222656250, 0.890625000000, -6.875000000000, 2.617187500000, -4.093750000000, 1491880780
-0.032226562500, 0.428222656250, 0.890625000000, -6.875000000000, 2.617187500000, -4.093750000000, 1491880780
-0.032226562500, 0.428222656250, 0.890625000000, -6.875000000000, 2.617187500000, -4.093750000000, 1491880780
-0.106933593750, 0.500488281250, 0.846191406250, -8.531250000000, 1.140625000000, 0.179687500000, 1491880780
-0.106933593750, 0.500488281250, 0.846191406250, -8.531250000000, 1.140625000000, 0.179687500000, 1491880780
-0.106933593750, 0.500488281250, 0.846191406250, -8.531250000000, 1.140625000000, 0.179687500000, 1491880780
-0.106933593750, 0.500488281250, 0.846191406250, -8.531250000000, 1.140625000000, 0.179687500000, 1491880780
-0.094970703125, 0.416748046875, 0.864257812500, -7.882812500000, -2.304687500000, -1.125000000000, 1491880780
-0.094970703125, 0.416748046875, 0.864257812500, -7.882812500000, -2.304687500000, -1.125000000000, 1491880780
-0.094970703125, 0.416748046875, 0.864257812500, -7.882812500000, -2.304687500000, -1.125000000000, 1491880780
-0.094970703125, 0.416748046875, 0.864257812500, -7.882812500000, -2.304687500000, -1.125000000000, 1491880780
-0.094970703125, 0.416748046875, 0.864257812500, -7.882812500000, -2.304687500000, -1.125000000000, 1491880780
-0.094970703125, 0.416748046875, 0.864257812500, -7.882812500000, -2.304687500000, -1.125000000000, 1491880780
-0.094970703125, 0.416748046875, 0.864257812500, -7.882812500000, -2.304687500000, -1.125000000000, 1491880780
-0.191162109375, 0.459228515625, 0.811279296875, -9.156250000000, -0.406250000000, -1.195312500000, 1491880781
-0.191162109375, 0.459228515625, 0.811279296875, -9.156250000000, -0.406250000000, -1.195312500000, 1491880781
-0.191162109375, 0.459228515625, 0.811279296875, -9.156250000000, -0.406250000000, -1.195312500000, 1491880781
-0.059326171875, 0.453857421875, 0.898925781250, -7.765625000000, 4.390625000000, -2.773437500000, 1491880781
-0.059326171875, 0.453857421875, 0.898925781250, -7.765625000000, 4.390625000000, -2.773437500000, 1491880781
-0.059326171875, 0.453857421875, 0.898925781250, -7.765625000000, 4.390625000000, -2.773437500000, 1491880781
-0.125000000000, 0.407714843750, 0.897216796875, -7.054687500000, 2.570312500000, 0.359375000000, 1491880781
-0.125000000000, 0.407714843750, 0.897216796875, -7.054687500000, 2.570312500000, 0.359375000000, 1491880781
-0.125000000000, 0.407714843750, 0.897216796875, -7.054687500000, 2.570312500000, 0.359375000000, 1491880781
-0.125000000000, 0.407714843750, 0.897216796875, -7.054687500000, 2.570312500000, 0.359375000000, 1491880781
-0.138916015625, 0.516357421875, 0.847412109375, -3.734375000000, 2.960937500000, -2.796875000000, 1491880781
-0.138916015625, 0.516357421875, 0.847412109375, -3.734375000000, 2.960937500000, -2.796875000000, 1491880781
-0.131103515625, 0.491210937500, 0.899658203125, -7.007812500000, 1.343750000000, -1.078125000000, 1491880781
-0.110595703125, 0.513916015625, 0.867675781250, -7.984375000000, 0.531250000000, -2.398437500000, 1491880781
-0.187744140625, 0.523193359375, 0.882324218750, -7.015625000000, 4.085937500000, -1.296875000000, 1491880781
-0.046875000000, 0.419921875000, 0.833740234375, -7.429687500000, -0.179687500000, -2.609375000000, 1491880781
-0.046875000000, 0.419921875000, 0.833740234375, -7.429687500000, -0.179687500000, -2.609375000000, 1491880781
-0.046875000000, 0.419921875000, 0.833740234375, -7.429687500000, -0.179687500000, -2.609375000000, 1491880781
-0.046875000000, 0.419921875000, 0.833740234375, -7.429687500000, -0.179687500000, -2.609375000000, 1491880781
-0.104492187500, 0.507812500000, 0.868164062500, -5.867187500000, 1.218750000000, -4.257812500000, 1491880781
-0.104492187500, 0.507812500000, 0.868164062500, -5.867187500000, 1.218750000000, -4.257812500000, 1491880781
-0.104492187500, 0.507812500000, 0.868164062500, -5.867187500000, 1.218750000000, -4.257812500000, 1491880781
-0.104492187500, 0.507812500000, 0.868164062500, -5.867187500000, 1.218750000000, -4.257812500000, 1491880781
-0.190917968750, 0.501220703125, 0.900390625000, -5.625000000000, 2.460937500000, -2.750000000000, 1491880781
-0.190917968750, 0.501220703125, 0.900390625000, -5.625000000000, 2.460937500000, -2.750000000000, 1491880781
-0.190917968750, 0.501220703125, 0.900390625000, -5.625000000000, 2.460937500000, -2.750000000000, 1491880781
-0.192382812500, 0.527832031250, 0.899414062500, -5.593750000000, -0.320312500000, -1.679687500000, 1491880781
-0.192382812500, 0.527832031250, 0.899414062500, -5.593750000000, -0.320312500000, -1.679687500000, 1491880781
-0.192382812500, 0.527832031250, 0.899414062500, -5.593750000000, -0.320312500000, -1.679687500000, 1491880781
-0.153076171875, 0.434326171875, 0.878173828125, -6.476562500000, 1.976562500000, 0.960937500000, 1491880781
-0.153076171875, 0.434326171875, 0.878173828125, -6.476562500000, 1.976562500000, 0.960937500000, 1491880781
-0.153076171875, 0.434326171875, 0.878173828125, -6.476562500000, 1.976562500000, 0.960937500000, 1491880781
-0.111572265625, 0.424804687500, 0.880615234375, -5.570312500000, 0.773437500000, -2.312500000000, 1491880781
-0.111572265625, 0.424804687500, 0.880615234375, -5.570312500000, 0.773437500000, -2.312500000000, 1491880781
-0.111572265625, 0.424804687500, 0.880615234375, -5.570312500000, 0.773437500000, -2.312500000000, 1491880781
-0.058105468750, 0.585449218750, 0.941406250000, -6.242187500000, 0.132812500000, -2.812500000000, 1491880781
-0.058105468750, 0.585449218750, 0.941406250000, -6.242187500000, 0.132812500000, -2.812500000000, 1491880781
-0.058105468750, 0.585449218750, 0.941406250000, -6.242187500000, 0.132812500000, -2.812500000000, 1491880781
-0.058105468750, 0.585449218750, 0.941406250000, -6.242187500000, 0.132812500000, -2.812500000000, 1491880781
-0.039550781250, 0.565185546875, 0.871582031250, -3.570312500000, 0.523437500000, -1.054687500000, 1491880781
-0.039550781250, 0.565185546875, 0.871582031250, -3.570312500000, 0.523437500000, -1.054687500000, 1491880781
-0.039550781250, 0.565185546875, 0.871582031250, -3.570312500000, 0.523437500000, -1.054687500000, 1491880781
-0.054931640625, 0.526367187500, 0.889892578125, -4.765625000000, -0.953125000000, -1.992187500000, 1491880781
-0.054931640625, 0.526367187500, 0.889892578125, -4.765625000000, -0.953125000000, -1.992187500000, 1491880781
-0.054931640625, 0.526367187500, 0.889892578125, -4.765625000000, -0.953125000000, -1.992187500000, 1491880781
-0.127197265625, 0.472656250000, 0.882324218750, -2.492187500000, 0.992187500000, -1.765625000000, 1491880781
-0.127197265625, 0.472656250000, 0.882324218750, -2.492187500000, 0.992187500000, -1.765625000000, 1491880781
-0.127197265625, 0.472656250000, 0.882324218750, -2.492187500000, 0.992187500000, -1.765625000000, 1491880781
-0.127197265625, 0.472656250000, 0.882324218750, -2.492187500000, 0.992187500000, -1.765625000000, 1491880781
-0.196289062500, 0.432617187500, 0.836425781250, -2.281250000000, -1.171875000000, -4.960937500000, 1491880781
-0.196289062500, 0.432617187500, 0.836425781250, -2.281250000000, -1.171875000000, -4.960937500000, 1491880781
-0.196289062500, 0.432617187500, 0.836425781250, -2.281250000000, -1.171875000000, -4.960937500000, 1491880781
-0.144042968750, 0.496093750000, 0.843994140625, -1.281250000000, 0.054687500000, -1.679687500000, 1491880781
-0.144042968750, 0.496093750000, 0.843994140625, -1.281250000000, 0.054687500000, -1.679687500000, 1491880781
-0.144042968750, 0.496093750000, 0.843994140625, -1.281250000000, 0.054687500000, -1.679687500000, 1491880781
-0.099853515625, 0.427246093750, 0.865234375000, -2.937500000000, 0.851562500000, -3.070312500000, 1491880781
-0.099853515625, 0.427246093750, 0.865234375000, -2.937500000000, 0.851562500000, -3.070312500000, 1491880781
-0.099853515625, 0.427246093750, 0.865234375000, -2.937500000000, 0.851562500000, -3.070312500000, 1491880781
-0.102783203125, 0.436767578125, 0.887695312500, -2.359375000000, 0.578125000000, -3.578125000000, 1491880781
-0.102783203125, 0.436767578125, 0.887695312500, -2.359375000000, 0.578125000000, -3.578125000000, 1491880781
-0.102783203125, 0.436767578125, 0.887695312500, -2.359375000000, 0.578125000000, -3.578125000000, 1491880781
-0.102783203125, 0.436767578125, 0.887695312500, -2.359375000000, 0.578125000000, -3.578125000000, 1491880781
-0.191162109375, 0.409667968750, 0.852783203125, -1.945312500000, 2.406250000000, -1.390625000000, 1491880781
-0.191162109375, 0.409667968750, 0.852783203125, -1.945312500000, 2.406250000000, -1.390625000000, 1491880781
-0.191162109375, 0.409667968750, 0.852783203125, -1.945312500000, 2.406250000000, -1.390625000000, 1491880781
-0.139648437500, 0.466064453125, 0.878662109375, -4.789062500000, -2.804687500000, -2.960937500000, 1491880781
-0.139648437500, 0.466064453125, 0.878662109375, -4.789062500000, -2.804687500000, -2.960937500000, 1491880781
-0.139648437500, 0.466064453125, 0.878662109375, -4.789062500000, -2.804687500000, -2.960937500000, 1491880781
-0.094970703125, 0.516845703125, 0.892822265625, -2.773437500000, 2.476562500000, -3.070312500000, 1491880782
-0.094970703125, 0.516845703125, 0.892822265625, -2.773437500000, 2.476562500000, -3.070312500000, 1491880782
-0.094970703125, 0.516845703125, 0.892822265625, -2.773437500000, 2.476562500000, -3.070312500000, 1491880782
-0.105224609375, 0.418945312500, 0.888916015625, -1.281250000000, -1.085937500000, -2.976562500000, 1491880782
-0.191406250000, 0.489257812500, 0.793457031250, -1.281250000000, -1.085937500000, -2.976562500000, 1491880782
-0.191406250000, 0.489257812500, 0.793457031250, -1.281250000000, -1.085937500000, -2.976562500000, 1491880782
-0.191406250000, 0.489257812500, 0.793457031250, -1.281250000000, -1.085937500000, -2.976562500000, 1491880782
-0.047607421875, 0.477294921875, 0.874511718750, -1.296875000000, 2.125000000000, 0.023437500000, 1491880782
-0.047607421875, 0.477294921875, 0.874511718750, -1.296875000000, 2.125000000000, 0.023437500000, 1491880782
-0.047607421875, 0.477294921875, 0.874511718750, -1.296875000000, 2.125000000000, 0.023437500000, 1491880782
-0.145019531250, 0.525146484375, 0.808593750000, -1.320312500000, -0.609375000000, -6.210937500000, 1491880782
-0.145019531250, 0.525146484375, 0.808593750000, -1.320312500000, -0.609375000000, -6.210937500000, 1491880782
-0.145019531250, 0.525146484375, 0.808593750000, -1.320312500000, -0.609375000000, -6.210937500000, 1491880782
-0.101074218750, 0.441162109375, 0.905761718750, -1.062500000000, 0.640625000000, -4.843750000000, 1491880782
-0.101074218750, 0.441162109375, 0.905761718750, -1.062500000000, 0.640625000000, -4.843750000000, 1491880782
-0.101074218750, 0.441162109375, 0.905761718750, -1.062500000000, 0.640625000000, -4.843750000000, 1491880782
-0.136230468750, 0.507812500000, 0.968505859375, 0.289062500000, -2.335937500000, -1.609375000000, 1491880782
-0.136230468750, 0.507812500000, 0.968505859375, 0.289062500000, -2.335937500000, -1.609375000000, 1491880782
-0.136230468750, 0.507812500000, 0.968505859375, 0.289062500000, -2.335937500000, -1.609375000000, 1491880782
-0.136230468750, 0.507812500000, 0.968505859375, 0.289062500000, -2.335937500000, -1.609375000000, 1491880782
-0.109130859375, 0.524414062500, 0.850097656250, -3.234375000000, -0.757812500000, -4.007812500000, 1491880782
-0.109130859375, 0.524414062500, 0.850097656250, -3.234375000000, -0.757812500000, -4.007812500000, 1491880782
-0.109130859375, 0.524414062500, 0.850097656250, -3.234375000000, -0.757812500000, -4.007812500000, 1491880782
-0.121582031250, 0.468505859375, 0.855468750000, -4.070312500000, 2.000000000000, -4.070312500000, 1491880782
-0.121582031250, 0.468505859375, 0.855468750000, -4.070312500000, 2.000000000000, -4.070312500000, 1491880782
-0.121582031250, 0.468505859375, 0.855468750000, -4.070312500000, 2.000000000000, -4.070312500000, 1491880782
-0.105224609375, 0.407714843750, 0.897705078125, -1.429687500000, 0.375000000000, -1.500000000000, 1491880782
-0.105224609375, 0.407714843750, 0.897705078125, -1.429687500000, 0.375000000000, -1.500000000000, 1491880782
-0.105224609375, 0.407714843750, 0.897705078125, -1.429687500000, 0.375000000000, -1.500000000000, 1491880782
-0.086669921875, 0.438232421875, 0.852539062500, -4.054687500000, 0.796875000000, -2.367187500000, 1491880782
-0.086669921875, 0.438232421875, 0.852539062500, -4.054687500000, 0.796875000000, -2.367187500000, 1491880782
-0.086669921875, 0.438232421875, 0.852539062500, -4.054687500000, 0.796875000000, -2.367187500000, 1491880782
-0.086669921875, 0.438232421875, 0.852539062500, -4.054687500000, 0.796875000000, -2.367187500000, 1491880782
