ACC_X,ACC_Y,ACC_Z,G_X,G_Y,G_Z,Unix Time
0.020996093750, -1.023681640625, 0.041992187500, -5.093750000000, -4.046875000000, -1.492187500000, 1491880598
0.020996093750, -1.023681640625, 0.041992187500, -5.093750000000, -4.046875000000, -1.492187500000, 1491880598
0.020996093750, -1.023681640625, 0.041992187500, -5.093750000000, -4.046875000000, -1.492187500000, 1491880598
0.025390625000, -1.002441406250, 0.172851562500, -2.976562500000, 2.734375000000, -1.570312500000, 1491880598
0.025390625000, -1.002441406250, 0.172851562500, -2.976562500000, 2.734375000000, -1.570312500000, 1491880598
0.025390625000, -1.002441406250, 0.172851562500, -2.976562500000, 2.734375000000, -1.570312500000, 1491880598
0.087890625000, -0.952392578125, 0.123535156250, -1.539062500000, -8.375000000000, -2.203125000000, 1491880598
0.087890625000, -0.952392578125, 0.123535156250, -1.539062500000, -8.375000000000, -2.203125000000, 1491880598
0.087890625000, -0.952392578125, 0.123535156250, -1.539062500000, -8.375000000000, -2.203125000000, 1491880598
0.072265625000, -0.941406250000, 0.094970703125, 0.890625000000, -2.851562500000, -1.257812500000, 1491880598
0.072265625000, -0.941406250000, 0.094970703125, 0.890625000000, -2.851562500000, -1.257812500000, 1491880598
0.072265625000, -0.941406250000, 0.094970703125, 0.890625000000, -2.851562500000, -1.257812500000, 1491880598
-0.013183593750, -0.949951171875, 0.091552734375, 2.468750000000, -1.312500000000, -2.125000000000, 1491880598
-0.013183593750, -0.949951171875, 0.091552734375, 2.468750000000, -1.312500000000, -2.125000000000, 1491880598
-0.013183593750, -0.949951171875, 0.091552734375, 2.468750000000, -1.312500000000, -2.125000000000, 1491880598
-0.013183593750, -0.949951171875, 0.091552734375, 2.468750000000, -1.312500000000, -2.125000000000, 1491880598
0.006835937500, -0.906738281250, 0.149414062500, 0.492187500000, -1.296875000000, -1.687500000000, 1491880598
0.006835937500, -0.906738281250, 0.149414062500, 0.492187500000, -1.296875000000, -1.687500000000, 1491880598
0.006835937500, -0.906738281250, 0.149414062500, 0.492187500000, -1.296875000000, -1.687500000000, 1491880598
-0.005859375000, -0.865722656250, 0.053955078125, -0.007812500000, -0.085937500000, -2.632812500000, 1491880599
-0.005859375000, -0.865722656250, 0.053955078125, -0.007812500000, -0.085937500000, -2.632812500000, 1491880599
-0.005859375000, -0.865722656250, 0.053955078125, -0.007812500000, -0.085937500000, -2.632812500000, 1491880599
-0.009277343750, -0.928466796875, 0.125488281250, 0.718750000000, -3.585937500000, -4.476562500000, 1491880599
-0.009277343750, -0.928466796875, 0.125488281250, 0.718750000000, -3.585937500000, -4.476562500000, 1491880599
-0.009277343750, -0.928466796875, 0.125488281250, 0.718750000000, -3.585937500000, -4.476562500000, 1491880599
-0.009277343750, -0.928466796875, 0.125488281250, 0.718750000000, -3.585937500000, -4.476562500000, 1491880599
-0.014648437500, -0.907470703125, 0.129394531250, 0.250000000000, -0.078125000000, 0.445312500000, 1491880599
-0.014648437500, -0.907470703125, 0.129394531250, 0.250000000000, -0.078125000000, 0.445312500000, 1491880599
-0.014648437500, -0.907470703125, 0.129394531250, 0.250000000000, -0.078125000000, 0.445312500000, 1491880599
-0.021728515625, -0.927490234375, 0.130859375000, -2.460937500000, -4.250000000000, 0.890625000000, 1491880599
-0.021728515625, -0.927490234375, 0.130859375000, -2.460937500000, -4.250000000000, 0.890625000000, 1491880599
-0.021728515625, -0.927490234375, 0.130859375000, -2.460937500000, -4.250000000000, 0.890625000000, 1491880599
0.090087890625, -0.912597656250, 0.046386718750, -4.578125000000, 1.656250000000, -4.601562500000, 1491880599
0.090087890625, -0.912597656250, 0.046386718750, -4.578125000000, 1.656250000000, -4.601562500000, 1491880599
0.090087890625, -0.912597656250, 0.046386718750, -4.578125000000, 1.656250000000, -4.601562500000, 1491880599
-0.073242187500, -1.016357421875, 0.121826171875, 0.070312500000, 0.515625000000, -1.117187500000, 1491880599
-0.073242187500, -1.016357421875, 0.121826171875, 0.070312500000, 0.515625000000, -1.117187500000, 1491880599
-0.073242187500, -1.016357421875, 0.121826171875, 0.070312500000, 0.515625000000, -1.117187500000, 1491880599
-0.073242187500, -1.016357421875, 0.121826171875, 0.070312500000, 0.515625000000, -1.117187500000, 1491880599
-0.012939453125, -0.949462890625, 0.128662109375, -4.421875000000, 2.734375000000, -3.781250000000, 1491880599
-0.012939453125, -0.949462890625, 0.128662109375, -4.421875000000, 2.734375000000, -3.781250000000, 1491880599
-0.012939453125, -0.949462890625, 0.128662109375, -4.421875000000, 2.734375000000, -3.781250000000, 1491880599
0.010253906250, -0.974365234375, 0.102050781250, -5.937500000000, -2.093750000000, -2.296875000000, 1491880599
0.010253906250, -0.974365234375, 0.102050781250, -5.937500000000, -2.093750000000, -2.296875000000, 1491880599
0.010253906250, -0.974365234375, 0.102050781250, -5.937500000000, -2.093750000000, -2.296875000000, 1491880599
0.006591796875, -0.866943359375, 0.094726562500, -8.773437500000, 0.304687500000, -1.187500000000, 1491880599
0.006591796875, -0.866943359375, 0.094726562500, -8.773437500000, 0.304687500000, -1.187500000000, 1491880599
0.006591796875, -0.866943359375, 0.094726562500, -8.773437500000, 0.304687500000, -1.187500000000, 1491880599
0.014404296875, -0.912109375000, 0.153564453125, -5.851562500000, 1.070312500000, -4.578125000000, 1491880599
0.014404296875, -0.912109375000, 0.153564453125, -5.851562500000, 1.070312500000, -4.578125000000, 1491880599
0.014404296875, -0.912109375000, 0.153564453125, -5.851562500000, 1.070312500000, -4.578125000000, 1491880599
0.014404296875, -0.912109375000, 0.153564453125, -5.851562500000, 1.070312500000, -4.578125000000, 1491880599
0.012207031250, -0.910400390625, 0.097656250000, -8.101562500000, 5.492187500000, 0.164062500000, 1491880599
0.012207031250, -0.910400390625, 0.097656250000, -8.101562500000, 5.492187500000, 0.164062500000, 1491880599
0.012207031250, -0.910400390625, 0.097656250000, -8.101562500000, 5.492187500000, 0.164062500000, 1491880599
-0.024902343750, -0.923583984375, 0.206298828125, -5.937500000000, 0.507812500000, -2.875000000000, 1491880599
-0.024902343750, -0.923583984375, 0.206298828125, -5.937500000000, 0.507812500000, -2.875000000000, 1491880599
-0.024902343750, -0.923583984375, 0.206298828125, -5.937500000000, 0.507812500000, -2.875000000000, 1491880599
0.008056640625, -0.918457031250, 0.112792968750, -6.289062500000, 2.156250000000, -1.039062500000, 1491880599
0.008056640625, -0.918457031250, 0.112792968750, -6.289062500000, 2.156250000000, -1.039062500000, 1491880599
0.008056640625, -0.918457031250, 0.112792968750, -6.289062500000, 2.156250000000, -1.039062500000, 1491880599
0.023193359375, -0.964599609375, 0.168457031250, -7.414062500000, 4.492187500000, 0.984375000000, 1491880599
0.023193359375, -0.964599609375, 0.168457031250, -7.414062500000, 4.492187500000, 0.984375000000, 1491880599
0.023193359375, -0.964599609375, 0.168457031250, -7.414062500000, 4.492187500000, 0.984375000000, 1491880599
0.023193359375, -0.964599609375, 0.168457031250, -7.414062500000, 4.492187500000, 0.984375000000, 1491880599
-0.016113281250, -0.910888671875, 0.191162109375, -6.812500000000, -0.437500000000, 4.148437500000, 1491880599
-0.016113281250, -0.910888671875, 0.191162109375, -6.812500000000, -0.437500000000, 4.148437500000, 1491880599
-0.016113281250, -0.910888671875, 0.191162109375, -6.812500000000, -0.437500000000, 4.148437500000, 1491880599
0.043212890625, -0.928222656250, 0.191406250000, -1.687500000000, 8.148437500000, 2.609375000000, 1491880599
0.043212890625, -0.928222656250, 0.191406250000, -1.687500000000, 8.148437500000, 2.609375000000, 1491880599
0.043212890625, -0.928222656250, 0.191406250000, -1.687500000000, 8.148437500000, 2.609375000000, 1491880599
0.127197265625, -0.910644531250, 0.151367187500, -9.304687500000, -1.578125000000, 2.593750000000, 1491880599
0.127197265625, -0.910644531250, 0.151367187500, -9.304687500000, -1.578125000000, 2.593750000000, 1491880599
0.127197265625, -0.910644531250, 0.151367187500, -9.304687500000, -1.578125000000, 2.593750000000, 1491880599
-0.016357421875, -0.950927734375, 0.114746093750, -4.210937500000, 15.007812500000, -5.953125000000, 1491880599
-0.016357421875, -0.950927734375, 0.114746093750, -4.210937500000, 15.007812500000, -5.953125000000, 1491880599
-0.016357421875, -0.950927734375, 0.114746093750, -4.210937500000, 15.007812500000, -5.953125000000, 1491880599
-0.016357421875, -0.950927734375, 0.114746093750, -4.210937500000, 15.007812500000, -5.953125000000, 1491880599
0.023437500000, -0.995605468750, 0.102783203125, -12.273437500000, -0.468750000000, -12.328125000000, 1491880599
0.023437500000, -0.995605468750, 0.102783203125, -12.273437500000, -0.468750000000, -12.328125000000, 1491880599
0.023437500000, -0.995605468750, 0.102783203125, -12.273437500000, -0.468750000000, -12.328125000000, 1491880599
-0.013916015625, -0.960693359375, 0.104248046875, -3.328125000000, 3.898437500000, -12.406250000000, 1491880599
-0.013916015625, -0.960693359375, 0.104248046875, -3.328125000000, 3.898437500000, -12.406250000000, 1491880599
-0.013916015625, -0.960693359375, 0.104248046875, -3.328125000000, 3.898437500000, -12.406250000000, 1491880599
-0.021484375000, -0.910156250000, 0.137451171875, -5.937500000000, 4.429687500000, -8.679687500000, 1491880599
-0.021484375000, -0.910156250000, 0.137451171875, -5.937500000000, 4.429687500000, -8.679687500000, 1491880599
-0.021484375000, -0.910156250000, 0.137451171875, -5.937500000000, 4.429687500000, -8.679687500000, 1491880600
-0.065429687500, -0.941162109375, 0.038574218750, -8.117187500000, 2.382812500000, -4.531250000000, 1491880600
-0.065429687500, -0.941162109375, 0.038574218750, -8.117187500000, 2.382812500000, -4.531250000000, 1491880600
-0.065429687500, -0.941162109375, 0.038574218750, -8.117187500000, 2.382812500000, -4.531250000000, 1491880600
-0.065429687500, -0.941162109375, 0.038574218750, -8.117187500000, 2.382812500000, -4.531250000000, 1491880600
-0.088867187500, -0.975585937500, 0.141113281250, -1.796875000000, 21.070312500000, -10.234375000000, 1491880600
-0.088867187500, -0.975585937500, 0.141113281250, -1.796875000000, 21.070312500000, -10.234375000000, 1491880600
0.030517578125, -0.967773437500, 0.110107421875, -4.000000000000, 4.570312500000, 1.132812500000, 1491880600
0.030517578125, -0.967773437500, 0.110107421875, -4.000000000000, 4.570312500000, 1.132812500000, 1491880600
0.030517578125, -0.967773437500, 0.110107421875, -4.000000000000, 4.570312500000, 1.132812500000, 1491880600
0.030517578125, -0.967773437500, 0.110107421875, -4.000000000000, 4.570312500000, 1.132812500000, 1491880600
-0.082031250000, -0.950683593750, 0.059082031250, -4.656250000000, 7.125000000000, -0.976562500000, 1491880600
-0.082031250000, -0.950683593750, 0.059082031250, -4.656250000000, 7.125000000000, -0.976562500000, 1491880600
-0.082031250000, -0.950683593750, 0.059082031250, -4.656250000000, 7.125000000000, -0.976562500000, 1491880600
-0.057617187500, -0.922607421875, 0.196777343750, -6.890625000000, 5.789062500000, 0.906250000000, 1491880600
-0.057617187500, -0.922607421875, 0.196777343750, -6.890625000000, 5.789062500000, 0.906250000000, 1491880600
-0.057617187500, -0.922607421875, 0.196777343750, -6.890625000000, 5.789062500000, 0.906250000000, 1491880600
-0.057617187500, -0.922607421875, 0.196777343750, -6.890625000000, 5.789062500000, 0.906250000000, 1491880600
-0.070556640625, -0.983642578125, 0.109619140625, -4.664062500000, 3.398437500000, -0.351562500000, 1491880600
-0.070556640625, -0.983642578125, 0.109619140625, -4.664062500000, 3.398437500000, -0.351562500000, 1491880600
-0.070556640625, -0.983642578125, 0.109619140625, -4.664062500000, 3.398437500000, -0.351562500000, 1491880600
-0.006347656250, -0.873779296875, 0.113037109375, -8.375000000000, 10.125000000000, 4.500000000000, 1491880600
-0.006347656250, -0.873779296875, 0.113037109375, -8.375000000000, 10.125000000000, 4.500000000000, 1491880600
-0.006347656250, -0.873779296875, 0.113037109375, -8.375000000000, 10.125000000000, 4.500000000000, 1491880600
-0.053710937500, -0.949462890625, 0.148437500000, -10.140625000000, 3.937500000000, 2.945312500000, 1491880600
-0.053710937500, -0.949462890625, 0.148437500000, -10.140625000000, 3.937500000000, 2.945312500000, 1491880600
-0.053710937500, -0.949462890625, 0.148437500000, -10.140625000000, 3.937500000000, 2.945312500000, 1491880600
-0.021240234375, -0.949951171875, 0.155761718750, -8.492187500000, -2.218750000000, -0.710937500000, 1491880600
-0.021240234375, -0.949951171875, 0.155761718750, -8.492187500000, -2.218750000000, -0.710937500000, 1491880600
-0.021240234375, -0.949951171875, 0.155761718750, -8.492187500000, -2.218750000000, -0.710937500000, 1491880600
-0.021240234375, -0.949951171875, 0.155761718750, -8.492187500000, -2.218750000000, -0.710937500000, 1491880600
0.020751953125, -0.917480468750, 0.203613281250, -8.554687500000, 0.257812500000, -0.085937500000, 1491880600
0.020751953125, -0.917480468750, 0.203613281250, -8.554687500000, 0.257812500000, -0.085937500000, 1491880600
0.020751953125, -0.917480468750, 0.203613281250, -8.554687500000, 0.257812500000, -0.085937500000, 1491880600
0.026855468750, -0.941406250000, 0.121582031250, -3.695312500000, 1.875000000000, 2.171875000000, 1491880600
0.026855468750, -0.941406250000, 0.121582031250, -3.695312500000, 1.875000000000, 2.171875000000, 1491880600
0.026855468750, -0.941406250000, 0.121582031250, -3.695312500000, 1.875000000000, 2.171875000000, 1491880600
0.024414062500, -0.940185546875, 0.160888671875, -6.406250000000, -1.820312500000, -1.656250000000, 1491880600
0.024414062500, -0.940185546875, 0.160888671875, -6.406250000000, -1.820312500000, -1.656250000000, 1491880600
0.024414062500, -0.940185546875, 0.160888671875, -6.406250000000, -1.820312500000, -1.656250000000, 1491880600
-0.093017578125, -0.946289062500, 0.194091796875, -4.929687500000, -4.617187500000, -0.476562500000, 1491880600
-0.093017578125, -0.946289062500, 0.194091796875, -4.929687500000, -4.617187500000, -0.476562500000, 1491880600
-0.093017578125, -0.946289062500, 0.194091796875, -4.929687500000, -4.617187500000, -0.476562500000, 1491880600
-0.093017578125, -0.946289062500, 0.194091796875, -4.929687500000, -4.617187500000, -0.476562500000, 1491880600
-0.024902343750, -0.844238281250, 0.094238281250, -1.390625000000, -2.523437500000, 0.281250000000, 1491880600
-0.024902343750, -0.844238281250, 0.094238281250, -1.390625000000, -2.523437500000, 0.281250000000, 1491880600
-0.024902343750, -0.844238281250, 0.094238281250, -1.390625000000, -2.523437500000, 0.281250000000, 1491880600
-0.018798828125, -0.956787109375, 0.125976562500, -4.992187500000, -2.546875000000, -2.945312500000, 1491880600
-0.018798828125, -0.956787109375, 0.125976562500, -4.992187500000, -2.546875000000, -2.945312500000, 1491880600
-0.018798828125, -0.956787109375, 0.125976562500, -4.992187500000, -2.546875000000, -2.945312500000, 1491880600
-0.014404296875, -0.959228515625, 0.108642578125, -1.992187500000, 2.234375000000, -4.476562500000, 1491880600
-0.014404296875, -0.959228515625, 0.108642578125, -1.992187500000, 2.234375000000, -4.476562500000, 1491880600
-0.014404296875, -0.959228515625, 0.108642578125, -1.992187500000, 2.234375000000, -4.476562500000, 1491880600
-0.013671875000, -1.021484375000, 0.139160156250, -0.968750000000, 1.054687500000, -6.648437500000, 1491880600
-0.013671875000, -1.021484375000, 0.139160156250, -0.968750000000, 1.054687500000, -6.648437500000, 1491880600
-0.013671875000, -1.021484375000, 0.139160156250, -0.968750000000, 1.054687500000, -6.648437500000, 1491880600
-0.071289062500, -0.947998046875, 0.109863281250, -2.921875000000, 6.140625000000, -1.445312500000, 1491880600
-0.071289062500, -0.947998046875, 0.109863281250, -2.921875000000, 6.140625000000, -1.445312500000, 1491880600
-0.071289062500, -0.947998046875, 0.109863281250, -2.921875000000, 6.140625000000, -1.445312500000, 1491880600
-0.071289062500, -0.947998046875, 0.109863281250, -4.414062500000, 2.226562500000, -4.460937500000, 1491880600
0.064208984375, -1.009765625000, 0.099365234375, -4.664062500000, -2.929687500000, -6.796875000000, 1491880600
0.064208984375, -1.009765625000, 0.099365234375, -4.664062500000, -2.929687500000, -6.796875000000, 1491880600
0.064208984375, -1.009765625000, 0.099365234375, -4.664062500000, -2.929687500000, -6.796875000000, 1491880600
0.024902343750, -0.979980468750, 0.161376953125, -0.250000000000, 0.921875000000, -8.078125000000, 1491880600
0.024902343750, -0.979980468750, 0.161376953125, -0.250000000000, 0.921875000000, -8.078125000000, 1491880600
0.024902343750, -0.979980468750, 0.161376953125, -0.250000000000, 0.921875000000, -8.078125000000, 1491880600
0.011230468750, -0.942382812500, 0.111083984375, -2.085937500000, -0.648437500000, -7.945312500000, 1491880601
0.011230468750, -0.942382812500, 0.111083984375, -2.085937500000, -0.648437500000, -7.945312500000, 1491880601
0.011230468750, -0.942382812500, 0.111083984375, -2.085937500000, -0.648437500000, -7.945312500000, 1491880601
0.011230468750, -0.942382812500, 0.111083984375, -2.085937500000, -0.648437500000, -7.945312500000, 1491880601
-0.078613281250, -0.957031250000, 0.122802734375, -1.625000000000, 0.250000000000, -6.710937500000, 1491880601
-0.078613281250, -0.957031250000, 0.122802734375, -1.625000000000, 0.250000000000, -6.710937500000, 1491880601
-0.078613281250, -0.957031250000, 0.122802734375, -1.625000000000, 0.250000000000, -6.710937500000, 1491880601
0.025878906250, -0.961669921875, 0.151367187500, -3.343750000000, 0.789062500000, -8.289062500000, 1491880601
0.025878906250, -0.961669921875, 0.151367187500, -3.343750000000, 0.789062500000, -8.289062500000, 1491880601
0.020507812500, -0.938720703125, 0.213134765625, -1.750000000000, 2.398437500000, -6.875000000000, 1491880601
0.026611328125, -0.944091796875, 0.117187500000, -4.664062500000, -4.187500000000, -6.890625000000, 1491880601
0.026611328125, -0.944091796875, 0.117187500000, -4.664062500000, -4.187500000000, -6.890625000000, 1491880601
0.026611328125, -0.944091796875, 0.117187500000, -4.664062500000, -4.187500000000, -6.890625000000, 1491880601
0.010009765625, -1.010009765625, 0.198974609375, -3.617187500000, 4.398437500000, -5.140625000000, 1491880601
0.010009765625, -1.010009765625, 0.198974609375, -3.617187500000, 4.398437500000, -5.140625000000, 1491880601
0.010009765625, -1.010009765625, 0.198974609375, -3.617187500000, 4.398437500000, -5.140625000000, 1491880601
0.010009765625, -1.010009765625, 0.198974609375, -3.617187500000, 4.398437500000, -5.140625000000, 1491880601
-0.075439453125, -0.871582031250, 0.151611328125, -3.968750000000, -1.289062500000, -8.117187500000, 1491880601
-0.075439453125, -0.871582031250, 0.151611328125, -3.968750000000, -1.289062500000, -8.117187500000, 1491880601
-0.075439453125, -0.871582031250, 0.151611328125, -3.968750000000, -1.289062500000, -8.117187500000, 1491880601
0.002441406250, -0.946777343750, 0.123535156250, 0.085937500000, 5.335937500000, -7.718750000000, 1491880601
0.002441406250, -0.946777343750, 0.123535156250, 0.085937500000, 5.335937500000, -7.718750000000, 1491880601
0.002441406250, -0.946777343750, 0.123535156250, 0.085937500000, 5.335937500000, -7.718750000000, 1491880601
0.001953125000, -0.910888671875, 0.158447265625, -1.226562500000, 2.546875000000, -4.976562500000, 1491880601
0.001953125000, -0.910888671875, 0.158447265625, -1.226562500000, 2.546875000000, -4.976562500000, 1491880601
0.001953125000, -0.910888671875, 0.158447265625, -1.226562500000, 2.546875000000, -4.976562500000, 1491880601
0.012695312500, -0.913818359375, 0.122802734375, -4.421875000000, 0.750000000000, -4.906250000000, 1491880601
0.012695312500, -0.913818359375, 0.122802734375, -4.421875000000, 0.750000000000, -4.906250000000, 1491880601
0.012695312500, -0.913818359375, 0.122802734375, -4.421875000000, 0.750000000000, -4.906250000000, 1491880601
0.012695312500, -0.913818359375, 0.122802734375, -4.421875000000, 0.750000000000, -4.906250000000, 1491880601
-0.080810546875, -0.966064453125, 0.191650390625, -3.304687500000, 2.492187500000, -4.843750000000, 1491880601
-0.080810546875, -0.966064453125, 0.191650390625, -3.304687500000, 2.492187500000, -4.843750000000, 1491880601
-0.080810546875, -0.966064453125, 0.191650390625, -3.304687500000, 2.492187500000, -4.843750000000, 1491880601
-0.045654296875, -0.953613281250, 0.108886718750, -5.375000000000, 2.031250000000, -1.695312500000, 1491880601
-0.045654296875, -0.953613281250, 0.108886718750, -5.375000000000, 2.031250000000, -1.695312500000, 1491880601
-0.045654296875, -0.953613281250, 0.108886718750, -5.375000000000, 2.031250000000, -1.695312500000, 1491880601
-0.069091796875, -0.946777343750, 0.039306640625, -4.117187500000, 6.062500000000, -2.460937500000, 1491880601
-0.069091796875, -0.946777343750, 0.039306640625, -4.117187500000, 6.062500000000, -2.460937500000, 1491880601
-0.069091796875, -0.946777343750, 0.039306640625, -4.117187500000, 6.062500000000, -2.460937500000, 1491880601
-0.090332031250, -0.958251953125, 0.121093750000, -2.000000000000, -14.023437500000, 0.851562500000, 1491880601
-0.090332031250, -0.958251953125, 0.121093750000, -2.000000000000, -14.023437500000, 0.851562500000, 1491880601
-0.090332031250, -0.958251953125, 0.121093750000, -2.000000000000, -14.023437500000, 0.851562500000, 1491880601
-0.090332031250, -0.958251953125, 0.121093750000, -2.000000000000, -14.023437500000, 0.851562500000, 1491880601
0.079589843750, -0.893066406250, 0.094482421875, -6.625000000000, -1.171875000000, -0.585937500000, 1491880601
0.079589843750, -0.893066406250, 0.094482421875, -6.625000000000, -1.171875000000, -0.585937500000, 1491880601
0.079589843750, -0.893066406250, 0.094482421875, -6.625000000000, -1.171875000000, -0.585937500000, 1491880601
0.026855468750, -0.963134765625, 0.057128906250, -2.203125000000, -9.437500000000, -2.210937500000, 1491880601
0.026855468750, -0.963134765625, 0.057128906250, -2.203125000000, -9.437500000000, -2.210937500000, 1491880601
0.026855468750, -0.963134765625, 0.057128906250, -2.203125000000, -9.437500000000, -2.210937500000, 1491880601
-0.039550781250, -0.911865234375, 0.124023437500, 6.062500000000, -13.335937500000, -4.000000000000, 1491880601
-0.039550781250, -0.911865234375, 0.124023437500, 6.062500000000, -13.335937500000, -4.000000000000, 1491880601
-0.039550781250, -0.911865234375, 0.124023437500, 6.062500000000, -13.335937500000, -4.000000000000, 1491880601
-0.125732421875, -0.963134765625, 0.253906250000, 8.156250000000, -22.007812500000, -14.070312500000, 1491880601
-0.125732421875, -0.963134765625, 0.253906250000, 8.156250000000, -22.007812500000, -14.070312500000, 1491880601
0.030761718750, -1.002929687500, 0.260253906250, 20.148437500000, -47.859375000000, -14.351562500000, 1491880601
0.030761718750, -1.002929687500, 0.260253906250, 20.148437500000, -47.859375000000, -14.351562500000, 1491880601
0.030761718750, -1.002929687500, 0.260253906250, 20.148437500000, -47.859375000000, -14.351562500000, 1491880601
0.030761718750, -1.002929687500, 0.260253906250, 20.148437500000, -47.859375000000, -14.351562500000, 1491880601
0.030761718750, -1.002929687500, 0.260253906250, 20.148437500000, -47.859375000000, -14.351562500000, 1491880601
-0.021240234375, -0.867675781250, 0.170654296875, 13.820312500000, -32.335937500000, -7.492187500000, 1491880601
-0.021240234375, -0.867675781250, 0.170654296875, 13.820312500000, -32.335937500000, -7.492187500000, 1491880601
-0.021240234375, -0.867675781250, 0.170654296875, 13.820312500000, -32.335937500000, -7.492187500000, 1491880601
-0.125976562500, -0.862548828125, 0.097412109375, 14.992187500000, -21.945312500000, -11.062500000000, 1491880601
-0.125976562500, -0.862548828125, 0.097412109375, 14.992187500000, -21.945312500000, -11.062500000000, 1491880601
-0.125976562500, -0.862548828125, 0.097412109375, 14.992187500000, -21.945312500000, -11.062500000000, 1491880601
-0.082275390625, -0.872070312500, 0.121093750000, 15.601562500000, -0.679687500000, -4.687500000000, 1491880601
-0.082275390625, -0.872070312500, 0.121093750000, 15.601562500000, -0.679687500000, -4.687500000000, 1491880601
-0.082275390625, -0.872070312500, 0.121093750000, 15.601562500000, -0.679687500000, -4.687500000000, 1491880602
-0.082275390625, -0.872070312500, 0.121093750000, 15.601562500000, -0.679687500000, -4.687500000000, 1491880602
-0.029541015625, -0.861572265625, 0.119140625000, 7.203125000000, -7.203125000000, 4.117187500000, 1491880602
-0.029541015625, -0.861572265625, 0.119140625000, 7.203125000000, -7.203125000000, 4.117187500000, 1491880602
-0.029541015625, -0.861572265625, 0.119140625000, 7.203125000000, -7.203125000000, 4.117187500000, 1491880602
0.080810546875, -0.906738281250, 0.123046875000, 4.000000000000, -4.054687500000, 12.375000000000, 1491880602
0.080810546875, -0.906738281250, 0.123046875000, 4.000000000000, -4.054687500000, 12.375000000000, 1491880602
0.080810546875, -0.906738281250, 0.123046875000, 4.000000000000, -4.054687500000, 12.375000000000, 1491880602
-0.004394531250, -0.846435546875, 0.257324218750, 3.343750000000, 6.226562500000, 15.882812500000, 1491880602
-0.004394531250, -0.846435546875, 0.257324218750, 3.343750000000, 6.226562500000, 15.882812500000, 1491880602
0.011474609375, -0.950927734375, 0.206787109375, -12.000000000000, 10.031250000000, 30.796875000000, 1491880602
0.011474609375, -0.950927734375, 0.206787109375, -12.000000000000, 10.031250000000, 30.796875000000, 1491880602
0.011474609375, -0.950927734375, 0.206787109375, -12.000000000000, 10.031250000000, 30.796875000000, 1491880602
0.011474609375, -0.950927734375, 0.206787109375, -12.000000000000, 10.031250000000, 30.796875000000, 1491880602
0.011474609375, -0.950927734375, 0.206787109375, -12.000000000000, 10.031250000000, 30.796875000000, 1491880602
0.014160156250, -0.941894531250, 0.097167968750, -8.906250000000, -18.195312500000, 29.398437500000, 1491880602
0.014160156250, -0.941894531250, 0.097167968750, -8.906250000000, -18.195312500000, 29.398437500000, 1491880602
0.014160156250, -0.941894531250, 0.097167968750, -8.906250000000, -18.195312500000, 29.398437500000, 1491880602
0.076171875000, -0.950927734375, 0.157714843750, -1.171875000000, 31.406250000000, 25.453125000000, 1491880602
0.076171875000, -0.950927734375, 0.157714843750, -1.171875000000, 31.406250000000, 25.453125000000, 1491880602
0.076171875000, -0.950927734375, 0.157714843750, -1.171875000000, 31.406250000000, 25.453125000000, 1491880602
-0.142822265625, -1.123535156250, 0.256103515625, -13.664062500000, 34.531250000000, 21.625000000000, 1491880602
-0.142822265625, -1.123535156250, 0.256103515625, -13.664062500000, 34.531250000000, 21.625000000000, 1491880602
-0.142822265625, -1.123535156250, 0.256103515625, -13.664062500000, 34.531250000000, 21.625000000000, 1491880602
-0.087402343750, -1.090332031250, -0.025634765625, -17.078125000000, -8.601562500000, -2.484375000000, 1491880602
-0.087402343750, -1.090332031250, -0.025634765625, -17.078125000000, -8.601562500000, -2.484375000000, 1491880602
-0.087402343750, -1.090332031250, -0.025634765625, -17.078125000000, -8.601562500000, -2.484375000000, 1491880602
-0.087402343750, -1.090332031250, -0.025634765625, -17.078125000000, -8.601562500000, -2.484375000000, 1491880602
0.051025390625, -0.864990234375, -0.093261718750, -4.304687500000, 12.562500000000, -14.882812500000, 1491880602
0.051025390625, -0.864990234375, -0.093261718750, -4.304687500000, 12.562500000000, -14.882812500000, 1491880602
0.051025390625, -0.864990234375, -0.093261718750, -4.304687500000, 12.562500000000, -14.882812500000, 1491880602
0.131835937500, -0.806640625000, -0.092285156250, 4.210937500000, 21.429687500000, -13.914062500000, 1491880602
0.131835937500, -0.806640625000, -0.092285156250, 4.210937500000, 21.429687500000, -13.914062500000, 1491880602
0.131835937500, -0.806640625000, -0.092285156250, 4.210937500000, 21.429687500000, -13.914062500000, 1491880602
0.313232421875, -1.082519531250, -0.044921875000, -12.046875000000, 29.539062500000, -16.843750000000, 1491880602
0.313232421875, -1.082519531250, -0.044921875000, -12.046875000000, 29.539062500000, -16.843750000000, 1491880602
0.313232421875, -1.082519531250, -0.044921875000, -12.046875000000, 29.539062500000, -16.843750000000, 1491880602
0.073242187500, -1.016601562500, -0.004638671875, 4.148437500000, 20.125000000000, -4.976562500000, 1491880602
0.073242187500, -1.016601562500, -0.004638671875, 4.148437500000, 20.125000000000, -4.976562500000, 1491880602
0.073242187500, -1.016601562500, -0.004638671875, 4.148437500000, 20.125000000000, -4.976562500000, 1491880602
-0.011718750000, -0.894042968750, 0.060791015625, 2.351562500000, 35.296875000000, -19.554687500000, 1491880602
-0.011718750000, -0.894042968750, 0.060791015625, 2.351562500000, 35.296875000000, -19.554687500000, 1491880602
-0.011718750000, -0.894042968750, 0.060791015625, 2.351562500000, 35.296875000000, -19.554687500000, 1491880602
-0.011718750000, -0.894042968750, 0.060791015625, 2.351562500000, 35.296875000000, -19.554687500000, 1491880602
0.046875000000, -0.939208984375, 0.048339843750, -4.117187500000, 17.070312500000, -14.960937500000, 1491880602
0.046875000000, -0.939208984375, 0.048339843750, -4.117187500000, 17.070312500000, -14.960937500000, 1491880602
0.046875000000, -0.939208984375, 0.048339843750, -4.117187500000, 17.070312500000, -14.960937500000, 1491880602
-0.024658203125, -0.811279296875, 0.055175781250, -14.828125000000, 6.812500000000, -14.937500000000, 1491880602
-0.024658203125, -0.811279296875, 0.055175781250, -14.828125000000, 6.812500000000, -14.937500000000, 1491880602
-0.024658203125, -0.811279296875, 0.055175781250, -14.828125000000, 6.812500000000, -14.937500000000, 1491880602
0.058837890625, -0.947998046875, 0.084716796875, -1.179687500000, 18.976562500000, -14.656250000000, 1491880602
0.058837890625, -0.947998046875, 0.084716796875, -1.179687500000, 18.976562500000, -14.656250000000, 1491880602
0.058837890625, -0.947998046875, 0.084716796875, -1.179687500000, 18.976562500000, -14.656250000000, 1491880602
0.058837890625, -0.947998046875, 0.084716796875, -1.179687500000, 18.976562500000, -14.656250000000, 1491880602
0.066894531250, -0.937744140625, 0.120117187500, -3.515625000000, 3.875000000000, -10.414062500000, 1491880602
0.066894531250, -0.937744140625, 0.120117187500, -3.515625000000, 3.875000000000, -10.414062500000, 1491880602
0.066894531250, -0.937744140625, 0.120117187500, -3.515625000000, 3.875000000000, -10.414062500000, 1491880602
-0.078125000000, -1.021484375000, 0.102294921875, -10.132812500000, 2.851562500000, -20.093750000000, 1491880602
-0.078125000000, -1.021484375000, 0.102294921875, -10.132812500000, 2.851562500000, -20.093750000000, 1491880602
-0.078125000000, -1.021484375000, 0.102294921875, -10.132812500000, 2.851562500000, -20.093750000000, 1491880602
0.091796875000, -1.033447265625, 0.091796875000, -3.054687500000, -3.093750000000, -18.265625000000, 1491880602
0.091796875000, -1.033447265625, 0.091796875000, -3.054687500000, -3.093750000000, -18.265625000000, 1491880602
0.091796875000, -1.033447265625, 0.091796875000, -3.054687500000, -3.093750000000, -18.265625000000, 1491880602
-0.085449218750, -1.063720703125, 0.236572265625, -9.093750000000, 3.437500000000, -7.164062500000, 1491880602
-0.085449218750, -1.063720703125, 0.236572265625, -9.093750000000, 3.437500000000, -7.164062500000, 1491880602
-0.085449218750, -1.063720703125, 0.236572265625, -9.093750000000, 3.437500000000, -7.164062500000, 1491880602
-0.085449218750, -1.063720703125, 0.236572265625, -9.093750000000, 3.437500000000, -7.164062500000, 1491880602
0.007568359375, -0.850097656250, 0.018066406250, -20.687500000000, -37.554687500000, -15.328125000000, 1491880603
0.007568359375, -0.850097656250, 0.018066406250, -20.687500000000, -37.554687500000, -15.328125000000, 1491880603
0.007568359375, -0.850097656250, 0.018066406250, -20.687500000000, -37.554687500000, -15.328125000000, 1491880603
0.007568359375, -0.850097656250, 0.018066406250, -20.687500000000, -37.554687500000, -15.328125000000, 1491880603
-0.202636718750, -0.897949218750, -0.024169921875, -10.546875000000, -60.945312500000, -9.382812500000, 1491880603
-0.202636718750, -0.897949218750, -0.024169921875, -10.546875000000, -60.945312500000, -9.382812500000, 1491880603
-0.202636718750, -0.897949218750, -0.024169921875, -10.546875000000, -60.945312500000, -9.382812500000, 1491880603
-0.202636718750, -0.897949218750, -0.024169921875, -10.546875000000, -60.945312500000, -9.382812500000, 1491880603
-0.202636718750, -0.897949218750, -0.024169921875, -10.546875000000, -60.945312500000, -9.382812500000, 1491880603
-0.227783203125, -0.919921875000, -0.012939453125, -3.687500000000, -41.765625000000, -2.507812500000, 1491880603
-0.227783203125, -0.919921875000, -0.012939453125, -3.687500000000, -41.765625000000, -2.507812500000, 1491880603
-0.227783203125, -0.919921875000, -0.012939453125, -3.687500000000, -41.765625000000, -2.507812500000, 1491880603
-0.227783203125, -0.919921875000, -0.012939453125, -3.687500000000, -41.765625000000, -2.507812500000, 1491880603
-0.105712890625, -0.987792968750, 0.043457031250, -6.632812500000, -6.781250000000, -22.312500000000, 1491880603
-0.105712890625, -0.987792968750, 0.043457031250, -6.632812500000, -6.781250000000, -22.312500000000, 1491880603
-0.105712890625, -0.987792968750, 0.043457031250, -6.632812500000, -6.781250000000, -22.312500000000, 1491880603
0.009765625000, -0.897216796875, 0.037353515625, 26.281250000000, -20.375000000000, -8.046875000000, 1491880603
0.009765625000, -0.897216796875, 0.037353515625, 26.281250000000, -20.375000000000, -8.046875000000, 1491880603
0.009765625000, -0.897216796875, 0.037353515625, 26.281250000000, -20.375000000000, -8.046875000000, 1491880603
0.029785156250, -0.726074218750, 0.253662109375, 2.257812500000, 1.796875000000, 16.492187500000, 1491880603
0.029785156250, -0.726074218750, 0.253662109375, 2.257812500000, 1.796875000000, 16.492187500000, 1491880603
0.029785156250, -0.726074218750, 0.253662109375, 2.257812500000, 1.796875000000, 16.492187500000, 1491880603
-0.066162109375, -0.807373046875, 0.153076171875, -16.039062500000, -18.484375000000, 9.343750000000, 1491880603
-0.066162109375, -0.807373046875, 0.153076171875, -16.039062500000, -18.484375000000, 9.343750000000, 1491880603
-0.066162109375, -0.807373046875, 0.153076171875, -16.039062500000, -18.484375000000, 9.343750000000, 1491880603
-0.066162109375, -0.807373046875, 0.153076171875, -16.039062500000, -18.484375000000, 9.343750000000, 1491880603
0.016601562500, -0.951171875000, 0.114257812500, -9.562500000000, -9.742187500000, 11.585937500000, 1491880603
-0.084716796875, -0.872070312500, 0.156494140625, 12.945312500000, 16.859375000000, 13.468750000000, 1491880603
-0.084716796875, -0.872070312500, 0.156494140625, 12.945312500000, 16.859375000000, 13.468750000000, 1491880603
-0.084716796875, -0.872070312500, 0.156494140625, 12.945312500000, 16.859375000000, 13.468750000000, 1491880603
-0.084716796875, -0.872070312500, 0.156494140625, 12.945312500000, 16.859375000000, 13.468750000000, 1491880603
-0.084716796875, -0.872070312500, 0.156494140625, 12.945312500000, 16.859375000000, 13.468750000000, 1491880603
-0.079101562500, -0.862548828125, 0.231689453125, 7.851562500000, 23.578125000000, 14.039062500000, 1491880603
-0.019531250000, -0.934082031250, 0.273193359375, -4.570312500000, -3.070312500000, 26.593750000000, 1491880603
-0.019531250000, -0.934082031250, 0.273193359375, -4.570312500000, -3.070312500000, 26.593750000000, 1491880603
-0.019531250000, -0.934082031250, 0.273193359375, -4.570312500000, -3.070312500000, 26.593750000000, 1491880603
-0.019531250000, -0.934082031250, 0.273193359375, -4.570312500000, -3.070312500000, 26.593750000000, 1491880603
-0.019531250000, -0.934082031250, 0.273193359375, -4.570312500000, -3.070312500000, 26.593750000000, 1491880603
-0.019531250000, -0.934082031250, 0.273193359375, -4.570312500000, -3.070312500000, 26.593750000000, 1491880603
-0.025878906250, -1.012939453125, 0.274169921875, 3.593750000000, 15.460937500000, 26.156250000000, 1491880603
-0.025878906250, -1.012939453125, 0.274169921875, 3.593750000000, 15.460937500000, 26.156250000000, 1491880603
-0.025878906250, -1.012939453125, 0.274169921875, 3.593750000000, 15.460937500000, 26.156250000000, 1491880603
0.033447265625, -0.938476562500, 0.339355468750, -6.593750000000, 30.375000000000, 27.531250000000, 1491880603
0.033447265625, -0.938476562500, 0.339355468750, -6.593750000000, 30.375000000000, 27.531250000000, 1491880603
0.033447265625, -0.938476562500, 0.339355468750, -6.593750000000, 30.375000000000, 27.531250000000, 1491880603
-0.102294921875, -1.096191406250, 0.123535156250, -24.531250000000, 4.960937500000, 21.531250000000, 1491880603
-0.102294921875, -1.096191406250, 0.123535156250, -24.531250000000, 4.960937500000, 21.531250000000, 1491880603
-0.102294921875, -1.096191406250, 0.123535156250, -24.531250000000, 4.960937500000, 21.531250000000, 1491880603
0.080078125000, -0.909423828125, -0.064208984375, -12.984375000000, -22.242187500000, 14.765625000000, 1491880603
0.080078125000, -0.909423828125, -0.064208984375, -12.984375000000, -22.242187500000, 14.765625000000, 1491880603
0.128662109375, -0.955566406250, -0.141357421875, -25.367187500000, 52.734375000000, -8.593750000000, 1491880603
0.128662109375, -0.955566406250, -0.141357421875, -25.367187500000, 52.734375000000, -8.593750000000, 1491880603
0.128662109375, -0.955566406250, -0.141357421875, -25.367187500000, 52.734375000000, -8.593750000000, 1491880603
0.128662109375, -0.955566406250, -0.141357421875, -25.367187500000, 52.734375000000, -8.593750000000, 1491880603
0.128662109375, -0.955566406250, -0.141357421875, -25.367187500000, 52.734375000000, -8.593750000000, 1491880603
0.114501953125, -0.930664062500, -0.129882812500, 4.171875000000, 89.781250000000, 10.906250000000, 1491880603
0.114501953125, -0.930664062500, -0.129882812500, 4.171875000000, 89.781250000000, 10.906250000000, 1491880603
0.114501953125, -0.930664062500, -0.129882812500, 4.171875000000, 89.781250000000, 10.906250000000, 1491880603
0.149902343750, -0.927001953125, -0.041259765625, 22.601562500000, 61.078125000000, -5.289062500000, 1491880603
0.149902343750, -0.927001953125, -0.041259765625, 22.601562500000, 61.078125000000, -5.289062500000, 1491880603
0.149902343750, -0.927001953125, -0.041259765625, 22.601562500000, 61.078125000000, -5.289062500000, 1491880603
0.080810546875, -0.838623046875, 0.085937500000, 42.039062500000, 58.445312500000, -3.484375000000, 1491880603
0.080810546875, -0.838623046875, 0.085937500000, 42.039062500000, 58.445312500000, -3.484375000000, 1491880603
0.080810546875, -0.838623046875, 0.085937500000, 42.039062500000, 58.445312500000, -3.484375000000, 1491880603
0.080810546875, -0.838623046875, 0.085937500000, 42.039062500000, 58.445312500000, -3.484375000000, 1491880603
0.038818359375, -0.895996093750, 0.052246093750, 15.335937500000, 57.015625000000, -10.421875000000, 1491880603
0.038818359375, -0.895996093750, 0.052246093750, 15.335937500000, 57.015625000000, -10.421875000000, 1491880604
0.038818359375, -0.895996093750, 0.052246093750, 15.335937500000, 57.015625000000, -10.421875000000, 1491880604
0.052734375000, -0.848876953125, 0.053710937500, -10.945312500000, -17.773437500000, -3.625000000000, 1491880604
0.052734375000, -0.848876953125, 0.053710937500, -10.945312500000, -17.773437500000, -3.625000000000, 1491880604
0.052734375000, -0.848876953125, 0.053710937500, -10.945312500000, -17.773437500000, -3.625000000000, 1491880604
0.086669921875, -0.916992187500, 0.063964843750, -10.664062500000, -5.078125000000, -7.789062500000, 1491880604
0.086669921875, -0.916992187500, 0.063964843750, -10.664062500000, -5.078125000000, -7.789062500000, 1491880604
0.086669921875, -0.916992187500, 0.063964843750, -10.664062500000, -5.078125000000, -7.789062500000, 1491880604
0.055664062500, -0.874023437500, -0.002929687500, 13.398437500000, -6.796875000000, -24.070312500000, 1491880604
0.055664062500, -0.874023437500, -0.002929687500, 13.398437500000, -6.796875000000, -24.070312500000, 1491880604
0.055664062500, -0.874023437500, -0.002929687500, 13.398437500000, -6.796875000000, -24.070312500000, 1491880604
0.055664062500, -0.874023437500, -0.002929687500, 13.398437500000, -6.796875000000, -24.070312500000, 1491880604
0.098388671875, -1.002929687500, 0.081298828125, 15.906250000000, -14.515625000000, -25.132812500000, 1491880604
0.098388671875, -1.002929687500, 0.081298828125, 15.906250000000, -14.515625000000, -25.132812500000, 1491880604
0.044677734375, -1.025878906250, 0.108398437500, -11.515625000000, -8.820312500000, -19.015625000000, 1491880604
0.044677734375, -1.025878906250, 0.108398437500, -11.515625000000, -8.820312500000, -19.015625000000, 1491880604
0.044677734375, -1.025878906250, 0.108398437500, -11.515625000000, -8.820312500000, -19.015625000000, 1491880604
0.044677734375, -1.025878906250, 0.108398437500, -11.515625000000, -8.820312500000, -19.015625000000, 1491880604
0.039062500000, -1.019287109375, 0.145263671875, -11.851562500000, -25.234375000000, -23.695312500000, 1491880604
0.039062500000, -1.019287109375, 0.145263671875, -11.851562500000, -25.234375000000, -23.695312500000, 1491880604
0.039062500000, -1.019287109375, 0.145263671875, -11.851562500000, -25.234375000000, -23.695312500000, 1491880604
-0.021972656250, -1.178955078125, 0.107666015625, -20.328125000000, -20.570312500000, -25.875000000000, 1491880604
-0.021972656250, -1.178955078125, 0.107666015625, -20.328125000000, -20.570312500000, -25.875000000000, 1491880604
-0.021972656250, -1.178955078125, 0.107666015625, -20.328125000000, -20.570312500000, -25.875000000000, 1491880604
-0.021972656250, -1.178955078125, 0.107666015625, -14.539062500000, -21.187500000000, -27.257812500000, 1491880604
0.022216796875, -0.812255859375, 0.055664062500, -6.273437500000, -24.304687500000, -26.007812500000, 1491880604
0.022216796875, -0.812255859375, 0.055664062500, -6.273437500000, -24.304687500000, -26.007812500000, 1491880604
0.022216796875, -0.812255859375, 0.055664062500, -6.273437500000, -24.304687500000, -26.007812500000, 1491880604
-0.110107421875, -1.010009765625, 0.012939453125, -25.328125000000, -45.070312500000, -24.398437500000, 1491880604
-0.110107421875, -1.010009765625, 0.012939453125, -25.328125000000, -45.070312500000, -24.398437500000, 1491880604
-0.110107421875, -1.010009765625, 0.012939453125, -25.328125000000, -45.070312500000, -24.398437500000, 1491880604
0.078857421875, -0.875488281250, 0.020996093750, 2.531250000000, 1.710937500000, -28.828125000000, 1491880604
0.078857421875, -0.875488281250, 0.020996093750, 2.531250000000, 1.710937500000, -28.828125000000, 1491880604
0.078857421875, -0.875488281250, 0.020996093750, 2.531250000000, 1.710937500000, -28.828125000000, 1491880604
-0.233154296875, -0.848632812500, 0.072998046875, -0.304687500000, -51.015625000000, -8.640625000000, 1491880604
-0.233154296875, -0.848632812500, 0.072998046875, -0.304687500000, -51.015625000000, -8.640625000000, 1491880604
-0.233154296875, -0.848632812500, 0.072998046875, -0.304687500000, -51.015625000000, -8.640625000000, 1491880604
-0.233154296875, -0.848632812500, 0.072998046875, -0.304687500000, -51.015625000000, -8.640625000000, 1491880604
-0.186523437500, -0.944091796875, -0.025390625000, -16.351562500000, -78.554687500000, -7.890625000000, 1491880604
-0.186523437500, -0.944091796875, -0.025390625000, -16.351562500000, -78.554687500000, -7.890625000000, 1491880604
-0.186523437500, -0.944091796875, -0.025390625000, -16.351562500000, -78.554687500000, -7.890625000000, 1491880604
-0.242187500000, -0.923095703125, -0.016845703125, -30.328125000000, -24.937500000000, -17.812500000000, 1491880604
-0.242187500000, -0.923095703125, -0.016845703125, -30.328125000000, -24.937500000000, -17.812500000000, 1491880604
-0.242187500000, -0.923095703125, -0.016845703125, -30.328125000000, -24.937500000000, -17.812500000000, 1491880604
-0.238037109375, -0.946289062500, 0.025878906250, 2.812500000000, -6.578125000000, -18.414062500000, 1491880604
-0.238037109375, -0.946289062500, 0.025878906250, 2.812500000000, -6.578125000000, -18.414062500000, 1491880604
-0.238037109375, -0.946289062500, 0.025878906250, 2.812500000000, -6.578125000000, -18.414062500000, 1491880604
-0.133056640625, -0.848632812500, 0.029296875000, 44.562500000000, 50.632812500000, -22.351562500000, 1491880604
-0.133056640625, -0.848632812500, 0.029296875000, 44.562500000000, 50.632812500000, -22.351562500000, 1491880604
-0.133056640625, -0.848632812500, 0.029296875000, 44.562500000000, 50.632812500000, -22.351562500000, 1491880604
-0.133056640625, -0.848632812500, 0.029296875000, 44.562500000000, 50.632812500000, -22.351562500000, 1491880604
-0.202148437500, -0.892333984375, 0.046630859375, 22.093750000000, 45.898437500000, -4.750000000000, 1491880604
-0.202148437500, -0.892333984375, 0.046630859375, 22.093750000000, 45.898437500000, -4.750000000000, 1491880604
-0.202148437500, -0.892333984375, 0.046630859375, 22.093750000000, 45.898437500000, -4.750000000000, 1491880604
-0.170654296875, -0.746337890625, 0.090820312500, 11.351562500000, -23.476562500000, 7.976562500000, 1491880604
-0.255615234375, -0.745361328125, 0.074218750000, 13.320312500000, -20.765625000000, 8.250000000000, 1491880604
-0.255615234375, -0.745361328125, 0.074218750000, 13.320312500000, -20.765625000000, 8.250000000000, 1491880604
-0.255615234375, -0.745361328125, 0.074218750000, 13.320312500000, -20.765625000000, 8.250000000000, 1491880604
-0.255371093750, -0.798583984375, 0.137451171875, 16.859375000000, -10.835937500000, -0.875000000000, 1491880604
-0.103515625000, -0.794433593750, 0.125732421875, 29.914062500000, 6.093750000000, -1.687500000000, 1491880604
-0.103515625000, -0.794433593750, 0.125732421875, 29.914062500000, 6.093750000000, -1.687500000000, 1491880604
-0.103515625000, -0.794433593750, 0.125732421875, 29.914062500000, 6.093750000000, -1.687500000000, 1491880604
-0.103515625000, -0.794433593750, 0.125732421875, 29.914062500000, 6.093750000000, -1.687500000000, 1491880604
-0.127929687500, -0.993652343750, 0.042236328125, 34.718750000000, 17.656250000000, -0.554687500000, 1491880604
-0.127929687500, -0.993652343750, 0.042236328125, 34.718750000000, 17.656250000000, -0.554687500000, 1491880604
-0.127929687500, -0.993652343750, 0.042236328125, 34.718750000000, 17.656250000000, -0.554687500000, 1491880604
-0.127929687500, -0.993652343750, 0.042236328125, 34.718750000000, 17.656250000000, -0.554687500000, 1491880604
-0.140869140625, -1.025390625000, 0.156250000000, 41.335937500000, 30.656250000000, 5.867187500000, 1491880605
-0.140869140625, -1.025390625000, 0.156250000000, 41.335937500000, 30.656250000000, 5.867187500000, 1491880605
-0.140869140625, -1.025390625000, 0.156250000000, 41.335937500000, 30.656250000000, 5.867187500000, 1491880605
-0.159179687500, -0.884765625000, 0.191406250000, 33.710937500000, 32.406250000000, 3.093750000000, 1491880605
-0.159179687500, -0.884765625000, 0.191406250000, 33.710937500000, 32.406250000000, 3.093750000000, 1491880605
-0.159179687500, -0.884765625000, 0.191406250000, 33.710937500000, 32.406250000000, 3.093750000000, 1491880605
-0.083740234375, -0.782226562500, 0.154541015625, 36.437500000000, -32.046875000000, -6.210937500000, 1491880605
-0.083740234375, -0.782226562500, 0.154541015625, 36.437500000000, -32.046875000000, -6.210937500000, 1491880605
-0.083740234375, -0.782226562500, 0.154541015625, 36.437500000000, -32.046875000000, -6.210937500000, 1491880605
-0.083740234375, -0.782226562500, 0.154541015625, 36.437500000000, -32.046875000000, -6.210937500000, 1491880605
-0.074707031250, -0.794677734375, 0.129638671875, 41.226562500000, -15.046875000000, -1.781250000000, 1491880605
-0.074707031250, -0.794677734375, 0.129638671875, 41.226562500000, -15.046875000000, -1.781250000000, 1491880605
-0.074707031250, -0.794677734375, 0.129638671875, 41.226562500000, -15.046875000000, -1.781250000000, 1491880605
-0.026611328125, -0.794921875000, 0.055664062500, 48.125000000000, 1.023437500000, -5.554687500000, 1491880605
-0.026611328125, -0.794921875000, 0.055664062500, 48.125000000000, 1.023437500000, -5.554687500000, 1491880605
-0.026611328125, -0.794921875000, 0.055664062500, 48.125000000000, 1.023437500000, -5.554687500000, 1491880605
0.011718750000, -0.848632812500, 0.075927734375, 54.289062500000, 9.851562500000, -10.328125000000, 1491880605
0.011718750000, -0.848632812500, 0.075927734375, 54.289062500000, 9.851562500000, -10.328125000000, 1491880605
0.011718750000, -0.848632812500, 0.075927734375, 54.289062500000, 9.851562500000, -10.328125000000, 1491880605
-0.069580078125, -0.734375000000, 0.068847656250, 49.484375000000, -31.273437500000, -14.906250000000, 1491880605
-0.069580078125, -0.734375000000, 0.068847656250, 49.484375000000, -31.273437500000, -14.906250000000, 1491880605
-0.069580078125, -0.734375000000, 0.068847656250, 49.484375000000, -31.273437500000, -14.906250000000, 1491880605
-0.069580078125, -0.734375000000, 0.068847656250, 49.484375000000, -31.273437500000, -14.906250000000, 1491880605
-0.095458984375, -0.752441406250, -0.023193359375, 32.750000000000, -24.375000000000, -12.875000000000, 1491880605
-0.095458984375, -0.752441406250, -0.023193359375, 32.750000000000, -24.375000000000, -12.875000000000, 1491880605
-0.095458984375, -0.752441406250, -0.023193359375, 32.750000000000, -24.375000000000, -12.875000000000, 1491880605
-0.043457031250, -0.830566406250, 0.010009765625, 20.968750000000, -29.656250000000, -17.390625000000, 1491880605
-0.043457031250, -0.830566406250, 0.010009765625, 20.968750000000, -29.656250000000, -17.390625000000, 1491880605
-0.043457031250, -0.830566406250, 0.010009765625, 20.968750000000, -29.656250000000, -17.390625000000, 1491880605
-0.121826171875, -0.824707031250, -0.007324218750, 26.179687500000, 8.656250000000, -19.726562500000, 1491880605
-0.121826171875, -0.824707031250, -0.007324218750, 26.179687500000, 8.656250000000, -19.726562500000, 1491880605
-0.121826171875, -0.824707031250, -0.007324218750, 26.179687500000, 8.656250000000, -19.726562500000, 1491880605
0.054687500000, -0.735351562500, 0.031738281250, 33.195312500000, 22.734375000000, -25.062500000000, 1491880605
0.054687500000, -0.735351562500, 0.031738281250, 33.195312500000, 22.734375000000, -25.062500000000, 1491880605
0.054687500000, -0.735351562500, 0.031738281250, 33.195312500000, 22.734375000000, -25.062500000000, 1491880605
0.054687500000, -0.735351562500, 0.031738281250, 33.195312500000, 22.734375000000, -25.062500000000, 1491880605
0.141357421875, -0.461181640625, 0.255615234375, 51.617187500000, 63.953125000000, 5.992187500000, 1491880605
0.141357421875, -0.461181640625, 0.255615234375, 51.617187500000, 63.953125000000, 5.992187500000, 1491880605
0.141357421875, -0.461181640625, 0.255615234375, 51.617187500000, 63.953125000000, 5.992187500000, 1491880605
0.080322265625, 0.120117187500, 0.163330078125, 17.304687500000, -53.000000000000, 54.250000000000, 1491880605
0.080322265625, 0.120117187500, 0.163330078125, 17.304687500000, -53.000000000000, 54.250000000000, 1491880605
0.080322265625, 0.120117187500, 0.163330078125, 17.304687500000, -53.000000000000, 54.250000000000, 1491880605
-0.029296875000, 0.189941406250, 0.329589843750, -28.648437500000, -138.312500000000, 65.820312500000, 1491880605
-0.029296875000, 0.189941406250, 0.329589843750, -28.648437500000, -138.312500000000, 65.820312500000, 1491880605
-0.029296875000, 0.189941406250, 0.329589843750, -28.648437500000, -138.312500000000, 65.820312500000, 1491880605
0.069091796875, 0.049316406250, -0.017578125000, -54.960937500000, -163.132812500000, -35.023437500000, 1491880605
0.069091796875, 0.049316406250, -0.017578125000, -54.960937500000, -163.132812500000, -35.023437500000, 1491880605
0.069091796875, 0.049316406250, -0.017578125000, -54.960937500000, -163.132812500000, -35.023437500000, 1491880605
0.069091796875, 0.049316406250, -0.017578125000, -54.960937500000, -163.132812500000, -35.023437500000, 1491880605
0.112548828125, 0.263183593750, 0.085693359375, 44.695312500000, 6.367187500000, 10.242187500000, 1491880605
0.112548828125, 0.263183593750, 0.085693359375, 44.695312500000, 6.367187500000, 10.242187500000, 1491880605
0.112548828125, 0.263183593750, 0.085693359375, 44.695312500000, 6.367187500000, 10.242187500000, 1491880605
-3.204101562500, -6.313476562500, -4.696289062500, 253.992187500000, 253.992187500000, -6.609375000000, 1491880605
-3.204101562500, -6.313476562500, -4.696289062500, 253.992187500000, 253.992187500000, -6.609375000000, 1491880605
-3.204101562500, -6.313476562500, -4.696289062500, 253.992187500000, 253.992187500000, -6.609375000000, 1491880605
-1.623779296875, -1.332031250000, -6.115966796875, 123.179687500000, 76.015625000000, 18.382812500000, 1491880605
-1.580322265625, -2.067871093750, -5.310791015625, 39.578125000000, 65.945312500000, 4.265625000000, 1491880605
-0.887451171875, -2.880859375000, -4.546142578125, -107.289062500000, 14.750000000000, -5.828125000000, 1491880605
-0.968994140625, -1.583251953125, -3.215820312500, -107.289062500000, 14.750000000000, -5.828125000000, 1491880605
-0.968994140625, -1.583251953125, -3.215820312500, -107.289062500000, 14.750000000000, -5.828125000000, 1491880605
-0.968994140625, -1.583251953125, -3.215820312500, -107.289062500000, 14.750000000000, -5.828125000000, 1491880605
-0.968994140625, -1.583251953125, -3.215820312500, -107.289062500000, 14.750000000000, -5.828125000000, 1491880605
-0.335937500000, 0.559082031250, 0.648681640625, 36.859375000000, -27.718750000000, 3.210937500000, 1491880605
0.195068359375, 0.703613281250, 0.021484375000, 136.414062500000, -83.648437500000, 12.921875000000, 1491880605
0.195068359375, 0.703613281250, 0.021484375000, 136.414062500000, -83.648437500000, 12.921875000000, 1491880606
0.195068359375, 0.703613281250, 0.021484375000, 136.414062500000, -83.648437500000, 12.921875000000, 1491880606
0.195068359375, 0.703613281250, 0.021484375000, 136.414062500000, -83.648437500000, 12.921875000000, 1491880606
0.195068359375, 0.703613281250, 0.021484375000, 136.414062500000, -83.648437500000, 12.921875000000, 1491880606
0.217041015625, -0.068115234375, -0.086669921875, -256.000000000000, -210.812500000000, 184.179687500000, 1491880606
0.217041015625, -0.068115234375, -0.086669921875, -256.000000000000, -210.812500000000, 184.179687500000, 1491880606
0.217041015625, -0.068115234375, -0.086669921875, -256.000000000000, -210.812500000000, 184.179687500000, 1491880606
-0.067382812500, 0.229003906250, 0.029296875000, 59.250000000000, -256.000000000000, 60.828125000000, 1491880606
-0.067382812500, 0.229003906250, 0.029296875000, 59.250000000000, -256.000000000000, 60.828125000000, 1491880606
-0.067382812500, 0.229003906250, 0.029296875000, 59.250000000000, -256.000000000000, 60.828125000000, 1491880606
-0.067382812500, 0.229003906250, 0.029296875000, 59.250000000000, -256.000000000000, 60.828125000000, 1491880606
-0.444580078125, -0.207763671875, -0.523437500000, 233.960937500000, -256.000000000000, 53.132812500000, 1491880606
-0.444580078125, -0.207763671875, -0.523437500000, 233.960937500000, -256.000000000000, 53.132812500000, 1491880606
-0.444580078125, -0.207763671875, -0.523437500000, 233.960937500000, -256.000000000000, 53.132812500000, 1491880606
2.239746093750, 1.958740234375, 2.129394531250, 193.875000000000, 253.992187500000, 84.515625000000, 1491880606
2.239746093750, 1.958740234375, 2.129394531250, 193.875000000000, 253.992187500000, 84.515625000000, 1491880606
2.239746093750, 1.958740234375, 2.129394531250, 193.875000000000, 253.992187500000, 84.515625000000, 1491880606
1.791503906250, -1.706542968750, 0.381103515625, 215.484375000000, -8.593750000000, 23.500000000000, 1491880606
1.791503906250, -1.706542968750, 0.381103515625, 215.484375000000, -8.593750000000, 23.500000000000, 1491880606
1.791503906250, -1.706542968750, 0.381103515625, 215.484375000000, -8.593750000000, 23.500000000000, 1491880606
-0.216308593750, -0.704833984375, -2.713867187500, -47.640625000000, -24.695312500000, -1.109375000000, 1491880606
-0.216308593750, -0.704833984375, -2.713867187500, -47.640625000000, -24.695312500000, -1.109375000000, 1491880606
-0.216308593750, -0.704833984375, -2.713867187500, -47.640625000000, -24.695312500000, -1.109375000000, 1491880606
-0.216308593750, -0.704833984375, -2.713867187500, -47.640625000000, -24.695312500000, -1.109375000000, 1491880606
0.263183593750, -0.707275390625, -1.627441406250, -120.164062500000, 16.000000000000, 27.531250000000, 1491880606
0.263183593750, -0.707275390625, -1.627441406250, -120.164062500000, 16.000000000000, 27.531250000000, 1491880606
0.263183593750, -0.707275390625, -1.627441406250, -120.164062500000, 16.000000000000, 27.531250000000, 1491880606
-0.045166015625, 0.170898437500, -0.629150390625, -39.953125000000, 33.578125000000, 4.062500000000, 1491880606
-0.045166015625, 0.170898437500, -0.629150390625, -39.953125000000, 33.578125000000, 4.062500000000, 1491880606
-0.045166015625, 0.170898437500, -0.629150390625, -39.953125000000, 33.578125000000, 4.062500000000, 1491880606
-0.326904296875, 0.656250000000, -0.499511718750, -50.210937500000, 20.390625000000, -14.062500000000, 1491880606
-0.326904296875, 0.656250000000, -0.499511718750, -50.210937500000, 20.390625000000, -14.062500000000, 1491880606
-0.326904296875, 0.656250000000, -0.499511718750, -50.210937500000, 20.390625000000, -14.062500000000, 1491880606
-0.121826171875, -0.310058593750, -1.183349609375, -18.031250000000, 28.195312500000, 4.828125000000, 1491880606
-0.121826171875, -0.310058593750, -1.183349609375, -18.031250000000, 28.195312500000, 4.828125000000, 1491880606
-0.121826171875, -0.310058593750, -1.183349609375, -18.031250000000, 28.195312500000, 4.828125000000, 1491880606
-0.121826171875, -0.310058593750, -1.183349609375, -18.031250000000, 28.195312500000, 4.828125000000, 1491880606
-0.061523437500, -0.457763671875, -1.450927734375, -4.281250000000, 27.578125000000, -3.203125000000, 1491880606
-0.061523437500, -0.457763671875, -1.450927734375, -4.281250000000, 27.578125000000, -3.203125000000, 1491880606
-0.061523437500, -0.457763671875, -1.450927734375, -4.281250000000, 27.578125000000, -3.203125000000, 1491880606
-0.030273437500, -0.321777343750, -1.342285156250, -37.539062500000, 21.039062500000, -0.953125000000, 1491880606
-0.030273437500, -0.321777343750, -1.342285156250, -37.539062500000, 21.039062500000, -0.953125000000, 1491880606
-0.030273437500, -0.321777343750, -1.342285156250, -37.539062500000, 21.039062500000, -0.953125000000, 1491880606
0.077636718750, -0.042724609375, -1.148437500000, -24.500000000000, -10.945312500000, 3.164062500000, 1491880606
0.077636718750, -0.042724609375, -1.148437500000, -24.500000000000, -10.945312500000, 3.164062500000, 1491880606
0.077636718750, -0.042724609375, -1.148437500000, -24.500000000000, -10.945312500000, 3.164062500000, 1491880606
-0.080566406250, -0.202148437500, -0.488525390625, 199.750000000000, -155.617187500000, -13.398437500000, 1491880606
-0.080566406250, -0.202148437500, -0.488525390625, 199.750000000000, -155.617187500000, -13.398437500000, 1491880606
-0.080566406250, -0.202148437500, -0.488525390625, 199.750000000000, -155.617187500000, -13.398437500000, 1491880606
-0.080566406250, -0.202148437500, -0.488525390625, 199.750000000000, -155.617187500000, -13.398437500000, 1491880606
-0.010986328125, -0.453857421875, -1.099853515625, -8.937500000000, -14.476562500000, 19.859375000000, 1491880606
-0.010986328125, -0.453857421875, -1.099853515625, -8.937500000000, -14.476562500000, 19.859375000000, 1491880606
-0.010986328125, -0.453857421875, -1.099853515625, -8.937500000000, -14.476562500000, 19.859375000000, 1491880606
-0.072265625000, -0.025634765625, -0.956298828125, -61.656250000000, -14.585937500000, 48.960937500000, 1491880606
-0.072265625000, -0.025634765625, -0.956298828125, -61.656250000000, -14.585937500000, 48.960937500000, 1491880606
-0.072265625000, -0.025634765625, -0.956298828125, -61.656250000000, -14.585937500000, 48.960937500000, 1491880606
-0.162841796875, -0.342041015625, -0.880615234375, -45.671875000000, 15.453125000000, 55.921875000000, 1491880606
-0.162841796875, -0.342041015625, -0.880615234375, -45.671875000000, 15.453125000000, 55.921875000000, 1491880606
-0.162841796875, -0.342041015625, -0.880615234375, -45.671875000000, 15.453125000000, 55.921875000000, 1491880606
0.071777343750, -0.106689453125, -0.835449218750, 29.406250000000, -31.296875000000, 61.023437500000, 1491880606
0.071777343750, -0.106689453125, -0.835449218750, 29.406250000000, -31.296875000000, 61.023437500000, 1491880606
0.071777343750, -0.106689453125, -0.835449218750, 29.406250000000, -31.296875000000, 61.023437500000, 1491880606
0.071777343750, -0.106689453125, -0.835449218750, 29.406250000000, -31.296875000000, 61.023437500000, 1491880606
0.096191406250, -0.147216796875, -0.868652343750, 100.867187500000, 31.218750000000, 34.703125000000, 1491880606
0.096191406250, -0.147216796875, -0.868652343750, 100.867187500000, 31.218750000000, 34.703125000000, 1491880606
0.096191406250, -0.147216796875, -0.868652343750, 100.867187500000, 31.218750000000, 34.703125000000, 1491880606
-0.014648437500, -0.143310546875, -0.997802734375, 76.039062500000, 54.875000000000, 16.835937500000, 1491880606
-0.014648437500, -0.143310546875, -0.997802734375, 76.039062500000, 54.875000000000, 16.835937500000, 1491880606
-0.014648437500, -0.143310546875, -0.997802734375, 76.039062500000, 54.875000000000, 16.835937500000, 1491880606
0.004882812500, -0.072265625000, -0.657470703125, 28.226562500000, 109.031250000000, -7.367187500000, 1491880607
0.004882812500, -0.072265625000, -0.657470703125, 28.226562500000, 109.031250000000, -7.367187500000, 1491880607
0.004882812500, -0.072265625000, -0.657470703125, 28.226562500000, 109.031250000000, -7.367187500000, 1491880607
0.138427734375, 0.006591796875, -1.154052734375, 37.500000000000, -14.804687500000, -2.093750000000, 1491880607
0.138427734375, 0.006591796875, -1.154052734375, 37.500000000000, -14.804687500000, -2.093750000000, 1491880607
0.138427734375, 0.006591796875, -1.154052734375, 37.500000000000, -14.804687500000, -2.093750000000, 1491880607
0.138427734375, 0.006591796875, -1.154052734375, 37.500000000000, -14.804687500000, -2.093750000000, 1491880607
0.320556640625, -0.076416015625, -1.119384765625, -6.171875000000, 64.382812500000, -6.414062500000, 1491880607
0.320556640625, -0.076416015625, -1.119384765625, -6.171875000000, 64.382812500000, -6.414062500000, 1491880607
0.320556640625, -0.076416015625, -1.119384765625, -6.171875000000, 64.382812500000, -6.414062500000, 1491880607
0.296875000000, 0.154541015625, -1.079345703125, 14.656250000000, -0.132812500000, 7.664062500000, 1491880607
0.322753906250, 0.034667968750, -1.129638671875, 6.570312500000, -8.953125000000, 6.046875000000, 1491880607
0.313232421875, -0.011474609375, -1.153564453125, 17.031250000000, -26.343750000000, -3.375000000000, 1491880607
0.109375000000, 0.143066406250, -0.992675781250, 14.328125000000, -31.507812500000, -0.437500000000, 1491880607
0.109375000000, 0.143066406250, -0.992675781250, 14.328125000000, -31.507812500000, -0.437500000000, 1491880607
0.109375000000, 0.143066406250, -0.992675781250, 14.328125000000, -31.507812500000, -0.437500000000, 1491880607
0.109375000000, 0.143066406250, -0.992675781250, 14.328125000000, -31.507812500000, -0.437500000000, 1491880607
0.109375000000, 0.143066406250, -0.992675781250, 14.328125000000, -31.507812500000, -0.437500000000, 1491880607
0.109375000000, 0.143066406250, -0.992675781250, 14.328125000000, -31.507812500000, -0.437500000000, 1491880607
0.181396484375, 0.096191406250, -1.007324218750, -13.843750000000, -8.812500000000, -1.125000000000, 1491880607
0.181396484375, 0.096191406250, -1.007324218750, -13.843750000000, -8.812500000000, -1.125000000000, 1491880607
0.181396484375, 0.096191406250, -1.007324218750, -13.843750000000, -8.812500000000, -1.125000000000, 1491880607
0.181396484375, 0.096191406250, -1.007324218750, -13.843750000000, -8.812500000000, -1.125000000000, 1491880607
0.189453125000, 0.142333984375, -0.944335937500, -9.273437500000, -1.632812500000, -4.726562500000, 1491880607
0.189453125000, 0.142333984375, -0.944335937500, -9.273437500000, -1.632812500000, -4.726562500000, 1491880607
0.189453125000, 0.142333984375, -0.944335937500, -9.273437500000, -1.632812500000, -4.726562500000, 1491880607
0.255371093750, 0.138916015625, -1.026611328125, -12.007812500000, 7.179687500000, -7.039062500000, 1491880607
0.255371093750, 0.138916015625, -1.026611328125, -12.007812500000, 7.179687500000, -7.039062500000, 1491880607
0.255371093750, 0.138916015625, -1.026611328125, -12.007812500000, 7.179687500000, -7.039062500000, 1491880607
0.237548828125, 0.141113281250, -1.085205078125, -13.554687500000, 14.968750000000, -3.484375000000, 1491880607
0.237548828125, 0.141113281250, -1.085205078125, -13.554687500000, 14.968750000000, -3.484375000000, 1491880607
0.237548828125, 0.141113281250, -1.085205078125, -13.554687500000, 14.968750000000, -3.484375000000, 1491880607
0.237548828125, 0.141113281250, -1.085205078125, -13.554687500000, 14.968750000000, -3.484375000000, 1491880607
0.226562500000, 0.080810546875, -1.080810546875, -10.492187500000, -2.625000000000, -5.937500000000, 1491880607
0.226562500000, 0.080810546875, -1.080810546875, -10.492187500000, -2.625000000000, -5.937500000000, 1491880607
0.226562500000, 0.080810546875, -1.080810546875, -10.492187500000, -2.625000000000, -5.937500000000, 1491880607
0.269775390625, 0.065429687500, -1.083496093750, -18.273437500000, 4.492187500000, -3.687500000000, 1491880607
0.269775390625, 0.065429687500, -1.083496093750, -18.273437500000, 4.492187500000, -3.687500000000, 1491880607
0.269775390625, 0.065429687500, -1.083496093750, -18.273437500000, 4.492187500000, -3.687500000000, 1491880607
0.196777343750, -0.008544921875, -0.994140625000, -17.664062500000, -4.046875000000, -2.453125000000, 1491880607
0.196777343750, -0.008544921875, -0.994140625000, -17.664062500000, -4.046875000000, -2.453125000000, 1491880607
0.196777343750, -0.008544921875, -0.994140625000, -17.664062500000, -4.046875000000, -2.453125000000, 1491880607
0.223632812500, 0.067138671875, -1.014160156250, -34.671875000000, 0.367187500000, -24.367187500000, 1491880607
0.223632812500, 0.067138671875, -1.014160156250, -34.671875000000, 0.367187500000, -24.367187500000, 1491880607
0.223632812500, 0.067138671875, -1.014160156250, -34.671875000000, 0.367187500000, -24.367187500000, 1491880607
0.223632812500, 0.067138671875, -1.014160156250, -34.671875000000, 0.367187500000, -24.367187500000, 1491880607
0.158935546875, 0.085205078125, -0.970214843750, -33.757812500000, 9.414062500000, -45.875000000000, 1491880607
0.258056640625, -0.066894531250, -0.984863281250, -18.851562500000, 1.585937500000, -35.179687500000, 1491880607
0.258056640625, -0.066894531250, -0.984863281250, -18.851562500000, 1.585937500000, -35.179687500000, 1491880607
0.258056640625, -0.066894531250, -0.984863281250, -18.851562500000, 1.585937500000, -35.179687500000, 1491880607
0.258056640625, -0.066894531250, -0.984863281250, -18.851562500000, 1.585937500000, -35.179687500000, 1491880607
0.258056640625, -0.066894531250, -0.984863281250, -18.851562500000, 1.585937500000, -35.179687500000, 1491880607
0.281005859375, -0.075683593750, -1.130615234375, -15.718750000000, 6.578125000000, -24.664062500000, 1491880607
0.281005859375, -0.075683593750, -1.130615234375, -15.718750000000, 6.578125000000, -24.664062500000, 1491880607
0.281005859375, -0.075683593750, -1.130615234375, -15.718750000000, 6.578125000000, -24.664062500000, 1491880607
0.190429687500, -0.088623046875, -1.071044921875, -13.179687500000, 2.039062500000, -15.562500000000, 1491880607
0.190429687500, -0.088623046875, -1.071044921875, -13.179687500000, 2.039062500000, -15.562500000000, 1491880607
0.190429687500, -0.088623046875, -1.071044921875, -13.179687500000, 2.039062500000, -15.562500000000, 1491880607
0.190429687500, -0.088623046875, -1.071044921875, -13.179687500000, 2.039062500000, -15.562500000000, 1491880607
0.170898437500, -0.031738281250, -1.064208984375, -9.046875000000, -1.960937500000, -18.687500000000, 1491880607
0.170898437500, -0.031738281250, -1.064208984375, -9.046875000000, -1.960937500000, -18.687500000000, 1491880607
0.170898437500, -0.031738281250, -1.064208984375, -9.046875000000, -1.960937500000, -18.687500000000, 1491880607
0.259765625000, -0.094238281250, -1.018554687500, -7.117187500000, -2.484375000000, -13.578125000000, 1491880607
0.259765625000, -0.094238281250, -1.018554687500, -7.117187500000, -2.484375000000, -13.578125000000, 1491880607
0.259765625000, -0.094238281250, -1.018554687500, -7.117187500000, -2.484375000000, -13.578125000000, 1491880607
0.158935546875, 0.019775390625, -0.929931640625, -8.937500000000, 4.750000000000, -12.187500000000, 1491880607
0.158935546875, 0.019775390625, -0.929931640625, -8.937500000000, 4.750000000000, -12.187500000000, 1491880607
0.158935546875, 0.019775390625, -0.929931640625, -8.937500000000, 4.750000000000, -12.187500000000, 1491880607
0.177001953125, -0.143066406250, -1.026367187500, -6.156250000000, 3.359375000000, -1.945312500000, 1491880608
0.177001953125, -0.143066406250, -1.026367187500, -6.156250000000, 3.359375000000, -1.945312500000, 1491880608
0.177001953125, -0.143066406250, -1.026367187500, -6.156250000000, 3.359375000000, -1.945312500000, 1491880608
0.177001953125, -0.143066406250, -1.026367187500, -6.156250000000, 3.359375000000, -1.945312500000, 1491880608
0.269775390625, -0.053955078125, -1.039550781250, -3.398437500000, 5.304687500000, -1.117187500000, 1491880608
0.269775390625, -0.053955078125, -1.039550781250, -3.398437500000, 5.304687500000, -1.117187500000, 1491880608
0.269775390625, -0.053955078125, -1.039550781250, -3.398437500000, 5.304687500000, -1.117187500000, 1491880608
0.257324218750, -0.134277343750, -1.028564453125, -0.421875000000, 4.117187500000, 0.164062500000, 1491880608
0.257324218750, -0.134277343750, -1.028564453125, -0.421875000000, 4.117187500000, 0.164062500000, 1491880608
0.257324218750, -0.134277343750, -1.028564453125, -0.421875000000, 4.117187500000, 0.164062500000, 1491880608
0.200439453125, -0.077148437500, -0.935058593750, -4.304687500000, 2.312500000000, -3.421875000000, 1491880608
0.200439453125, -0.077148437500, -0.935058593750, -4.304687500000, 2.312500000000, -3.421875000000, 1491880608
0.200439453125, -0.077148437500, -0.935058593750, -4.304687500000, 2.312500000000, -3.421875000000, 1491880608
0.218261718750, -0.043945312500, -0.988037109375, -2.593750000000, 1.992187500000, -1.335937500000, 1491880608
0.218261718750, -0.043945312500, -0.988037109375, -2.593750000000, 1.992187500000, -1.335937500000, 1491880608
0.218261718750, -0.043945312500, -0.988037109375, -2.593750000000, 1.992187500000, -1.335937500000, 1491880608
0.218261718750, -0.043945312500, -0.988037109375, -2.593750000000, 1.992187500000, -1.335937500000, 1491880608
0.111572265625, -0.078369140625, -0.929687500000, -6.257812500000, 4.046875000000, -3.007812500000, 1491880608
0.111572265625, -0.078369140625, -0.929687500000, -6.257812500000, 4.046875000000, -3.007812500000, 1491880608
0.111572265625, -0.078369140625, -0.929687500000, -6.257812500000, 4.046875000000, -3.007812500000, 1491880608
0.185302734375, -0.151367187500, -1.005615234375, -6.593750000000, 4.632812500000, -3.656250000000, 1491880608
0.185302734375, -0.151367187500, -1.005615234375, -6.593750000000, 4.632812500000, -3.656250000000, 1491880608
0.185302734375, -0.151367187500, -1.005615234375, -6.593750000000, 4.632812500000, -3.656250000000, 1491880608
0.280517578125, -0.139160156250, -0.988281250000, -5.507812500000, 4.109375000000, -4.304687500000, 1491880608
0.280517578125, -0.139160156250, -0.988281250000, -5.507812500000, 4.109375000000, -4.304687500000, 1491880608
0.280517578125, -0.139160156250, -0.988281250000, -5.507812500000, 4.109375000000, -4.304687500000, 1491880608
0.180664062500, -0.031982421875, -1.077880859375, -3.242187500000, 3.195312500000, -1.078125000000, 1491880608
0.180664062500, -0.031982421875, -1.077880859375, -3.242187500000, 3.195312500000, -1.078125000000, 1491880608
0.180664062500, -0.031982421875, -1.077880859375, -3.242187500000, 3.195312500000, -1.078125000000, 1491880608
0.180664062500, -0.031982421875, -1.077880859375, -3.242187500000, 3.195312500000, -1.078125000000, 1491880608
0.250244140625, -0.148681640625, -0.972167968750, -3.742187500000, 2.343750000000, -1.921875000000, 1491880608
0.250244140625, -0.148681640625, -0.972167968750, -3.742187500000, 2.343750000000, -1.921875000000, 1491880608
0.250244140625, -0.148681640625, -0.972167968750, -3.742187500000, 2.343750000000, -1.921875000000, 1491880608
0.197753906250, -0.025634765625, -1.074218750000, -1.953125000000, 0.070312500000, -2.976562500000, 1491880608
0.197753906250, -0.025634765625, -1.074218750000, -1.953125000000, 0.070312500000, -2.976562500000, 1491880608
0.197753906250, -0.025634765625, -1.074218750000, -1.953125000000, 0.070312500000, -2.976562500000, 1491880608
0.166259765625, -0.151367187500, -0.989501953125, -4.585937500000, 0.593750000000, -2.148437500000, 1491880608
0.166259765625, -0.151367187500, -0.989501953125, -4.585937500000, 0.593750000000, -2.148437500000, 1491880608
0.166259765625, -0.151367187500, -0.989501953125, -4.585937500000, 0.593750000000, -2.148437500000, 1491880608
0.271484375000, -0.134033203125, -0.982421875000, -2.914062500000, -2.335937500000, -2.773437500000, 1491880608
0.271484375000, -0.134033203125, -0.982421875000, -2.914062500000, -2.335937500000, -2.773437500000, 1491880608
0.271484375000, -0.134033203125, -0.982421875000, -2.914062500000, -2.335937500000, -2.773437500000, 1491880608
0.271484375000, -0.134033203125, -0.982421875000, -2.914062500000, -2.335937500000, -2.773437500000, 1491880608
0.254394531250, -0.092285156250, -1.068359375000, -4.359375000000, 0.023437500000, -2.765625000000, 1491880608
0.254394531250, -0.092285156250, -1.068359375000, -4.359375000000, 0.023437500000, -2.765625000000, 1491880608
0.254394531250, -0.092285156250, -1.068359375000, -4.359375000000, 0.023437500000, -2.765625000000, 1491880608
0.254394531250, -0.092285156250, -1.068359375000, -4.359375000000, 0.023437500000, -2.765625000000, 1491880608
0.254394531250, -0.092285156250, -1.068359375000, -4.359375000000, 0.023437500000, -2.765625000000, 1491880608
0.225585937500, -0.061523437500, -1.004394531250, -3.242187500000, 1.632812500000, -1.414062500000, 1491880608
0.225585937500, -0.061523437500, -1.004394531250, -3.242187500000, 1.632812500000, -1.414062500000, 1491880608
0.225585937500, -0.061523437500, -1.004394531250, -3.242187500000, 1.632812500000, -1.414062500000, 1491880608
0.225585937500, -0.061523437500, -1.004394531250, -3.242187500000, 1.632812500000, -1.414062500000, 1491880608
0.253662109375, -0.193847656250, -0.983398437500, -4.359375000000, -0.984375000000, -1.515625000000, 1491880608
0.253662109375, -0.193847656250, -0.983398437500, -4.359375000000, -0.984375000000, -1.515625000000, 1491880608
0.253662109375, -0.193847656250, -0.983398437500, -4.359375000000, -0.984375000000, -1.515625000000, 1491880608
0.253662109375, -0.193847656250, -0.983398437500, -4.359375000000, -0.984375000000, -1.515625000000, 1491880608
0.255126953125, -0.140625000000, -1.063476562500, -3.039062500000, -2.031250000000, -2.898437500000, 1491880608
0.255126953125, -0.140625000000, -1.063476562500, -3.039062500000, -2.031250000000, -2.898437500000, 1491880608
0.255126953125, -0.140625000000, -1.063476562500, -3.039062500000, -2.031250000000, -2.898437500000, 1491880608
0.223144531250, -0.118408203125, -0.978027343750, -1.476562500000, 0.132812500000, -4.476562500000, 1491880608
0.223144531250, -0.118408203125, -0.978027343750, -1.476562500000, 0.132812500000, -4.476562500000, 1491880608
0.223144531250, -0.118408203125, -0.978027343750, -1.476562500000, 0.132812500000, -4.476562500000, 1491880608
0.266357421875, -0.141845703125, -0.934814453125, -1.078125000000, 0.492187500000, -1.273437500000, 1491880608
0.266357421875, -0.141845703125, -0.934814453125, -1.078125000000, 0.492187500000, -1.273437500000, 1491880608
0.266357421875, -0.141845703125, -0.934814453125, -1.078125000000, 0.492187500000, -1.273437500000, 1491880608
0.178222656250, -0.076904296875, -1.026367187500, -3.109375000000, 2.695312500000, -6.687500000000, 1491880609
0.178222656250, -0.076904296875, -1.026367187500, -3.109375000000, 2.695312500000, -6.687500000000, 1491880609
0.178222656250, -0.076904296875, -1.026367187500, -3.109375000000, 2.695312500000, -6.687500000000, 1491880609
0.178222656250, -0.076904296875, -1.026367187500, -3.109375000000, 2.695312500000, -6.687500000000, 1491880609
0.233154296875, -0.067871093750, -0.988037109375, -4.054687500000, 1.125000000000, 0.304687500000, 1491880609
0.233154296875, -0.067871093750, -0.988037109375, -4.054687500000, 1.125000000000, 0.304687500000, 1491880609
0.233154296875, -0.067871093750, -0.988037109375, -4.054687500000, 1.125000000000, 0.304687500000, 1491880609
0.175537109375, -0.057128906250, -1.022460937500, -3.507812500000, -0.070312500000, 0.882812500000, 1491880609
0.175537109375, -0.057128906250, -1.022460937500, -3.507812500000, -0.070312500000, 0.882812500000, 1491880609
0.175537109375, -0.057128906250, -1.022460937500, -3.507812500000, -0.070312500000, 0.882812500000, 1491880609
0.252929687500, -0.057373046875, -0.930664062500, -6.687500000000, 1.585937500000, -1.187500000000, 1491880609
0.252929687500, -0.057373046875, -0.930664062500, -6.687500000000, 1.585937500000, -1.187500000000, 1491880609
0.252929687500, -0.057373046875, -0.930664062500, -6.687500000000, 1.585937500000, -1.187500000000, 1491880609
0.275390625000, -0.091552734375, -0.986083984375, -1.945312500000, -0.039062500000, -2.078125000000, 1491880609
0.275390625000, -0.091552734375, -0.986083984375, -1.945312500000, -0.039062500000, -2.078125000000, 1491880609
0.275390625000, -0.091552734375, -0.986083984375, -1.945312500000, -0.039062500000, -2.078125000000, 1491880609
0.275390625000, -0.091552734375, -0.986083984375, -1.945312500000, -0.039062500000, -2.078125000000, 1491880609
0.215820312500, -0.039062500000, -0.985107421875, -1.953125000000, 0.757812500000, 0.007812500000, 1491880609
0.215820312500, -0.039062500000, -0.985107421875, -1.953125000000, 0.757812500000, 0.007812500000, 1491880609
0.215820312500, -0.039062500000, -0.985107421875, -1.953125000000, 0.757812500000, 0.007812500000, 1491880609
0.281250000000, -0.130371093750, -1.021484375000, -3.328125000000, 1.703125000000, -2.265625000000, 1491880609
0.281250000000, -0.130371093750, -1.021484375000, -3.328125000000, 1.703125000000, -2.265625000000, 1491880609
0.281250000000, -0.130371093750, -1.021484375000, -3.328125000000, 1.703125000000, -2.265625000000, 1491880609
0.254638671875, -0.058349609375, -1.066894531250, -3.804687500000, 1.117187500000, -3.031250000000, 1491880609
0.254638671875, -0.058349609375, -1.066894531250, -3.804687500000, 1.117187500000, -3.031250000000, 1491880609
0.254638671875, -0.058349609375, -1.066894531250, -3.804687500000, 1.117187500000, -3.031250000000, 1491880609
0.199951171875, -0.035400390625, -0.993896484375, -3.171875000000, 0.296875000000, -1.328125000000, 1491880609
0.199951171875, -0.035400390625, -0.993896484375, -3.171875000000, 0.296875000000, -1.328125000000, 1491880609
0.199951171875, -0.035400390625, -0.993896484375, -3.171875000000, 0.296875000000, -1.328125000000, 1491880609
0.199951171875, -0.035400390625, -0.993896484375, -3.171875000000, 0.296875000000, -1.328125000000, 1491880609
0.175292968750, -0.032226562500, -0.917236328125, -1.171875000000, 1.109375000000, -3.914062500000, 1491880609
0.175292968750, -0.032226562500, -0.917236328125, -1.171875000000, 1.109375000000, -3.914062500000, 1491880609
0.175292968750, -0.032226562500, -0.917236328125, -1.171875000000, 1.109375000000, -3.914062500000, 1491880609
0.161621093750, -0.050292968750, -1.070556640625, -1.187500000000, 2.406250000000, -2.937500000000, 1491880609
0.161621093750, -0.050292968750, -1.070556640625, -1.187500000000, 2.406250000000, -2.937500000000, 1491880609
0.161621093750, -0.050292968750, -1.070556640625, -1.187500000000, 2.406250000000, -2.937500000000, 1491880609
0.251953125000, -0.034667968750, -1.024902343750, -3.312500000000, 2.382812500000, -2.953125000000, 1491880609
0.251953125000, -0.034667968750, -1.024902343750, -3.312500000000, 2.382812500000, -2.953125000000, 1491880609
0.251953125000, -0.034667968750, -1.024902343750, -3.312500000000, 2.382812500000, -2.953125000000, 1491880609
0.269775390625, 0.002441406250, -0.985107421875, -3.039062500000, 2.351562500000, -4.945312500000, 1491880609
0.269775390625, 0.002441406250, -0.985107421875, -3.039062500000, 2.351562500000, -4.945312500000, 1491880609
0.269775390625, 0.002441406250, -0.985107421875, -3.039062500000, 2.351562500000, -4.945312500000, 1491880609
0.269775390625, 0.002441406250, -0.985107421875, -3.039062500000, 2.351562500000, -4.945312500000, 1491880609
0.272949218750, -0.053955078125, -1.083984375000, -1.781250000000, -1.671875000000, -2.460937500000, 1491880609
0.272949218750, -0.053955078125, -1.083984375000, -1.781250000000, -1.671875000000, -2.460937500000, 1491880609
0.272949218750, -0.053955078125, -1.083984375000, -1.781250000000, -1.671875000000, -2.460937500000, 1491880609
0.226562500000, -0.055908203125, -1.072753906250, -1.742187500000, -0.742187500000, -2.960937500000, 1491880609
0.226562500000, -0.055908203125, -1.072753906250, -1.742187500000, -0.742187500000, -2.960937500000, 1491880609
0.226562500000, -0.055908203125, -1.072753906250, -1.742187500000, -0.742187500000, -2.960937500000, 1491880609
0.252441406250, -0.151367187500, -1.017822265625, -4.031250000000, -0.609375000000, -1.593750000000, 1491880609
0.252441406250, -0.151367187500, -1.017822265625, -4.031250000000, -0.609375000000, -1.593750000000, 1491880609
0.252441406250, -0.151367187500, -1.017822265625, -4.031250000000, -0.609375000000, -1.593750000000, 1491880609
0.212646484375, -0.046142578125, -1.083496093750, -2.101562500000, 2.445312500000, 0.210937500000, 1491880609
0.212646484375, -0.046142578125, -1.083496093750, -2.101562500000, 2.445312500000, 0.210937500000, 1491880609
0.212646484375, -0.046142578125, -1.083496093750, -2.101562500000, 2.445312500000, 0.210937500000, 1491880609
0.212646484375, -0.046142578125, -1.083496093750, -2.101562500000, 2.445312500000, 0.210937500000, 1491880609
0.175292968750, -0.078857421875, -1.016113281250, -1.515625000000, 0.531250000000, -4.101562500000, 1491880609
0.175292968750, -0.078857421875, -1.016113281250, -1.515625000000, 0.531250000000, -4.101562500000, 1491880609
0.175292968750, -0.078857421875, -1.016113281250, -1.515625000000, 0.531250000000, -4.101562500000, 1491880609
0.230468750000, -0.144775390625, -1.025390625000, -4.296875000000, -0.101562500000, -1.960937500000, 1491880609
0.230468750000, -0.144775390625, -1.025390625000, -4.296875000000, -0.101562500000, -1.960937500000, 1491880609
0.230468750000, -0.144775390625, -1.025390625000, -4.296875000000, -0.101562500000, -1.960937500000, 1491880609
0.216796875000, -0.126464843750, -0.920898437500, -4.921875000000, 1.812500000000, -0.054687500000, 1491880609
0.216796875000, -0.126464843750, -0.920898437500, -4.921875000000, 1.812500000000, -0.054687500000, 1491880609
0.216796875000, -0.126464843750, -0.920898437500, -4.921875000000, 1.812500000000, -0.054687500000, 1491880609
0.164062500000, -0.080322265625, -1.012451171875, -1.914062500000, -0.484375000000, -4.781250000000, 1491880609
0.164062500000, -0.080322265625, -1.012451171875, -1.914062500000, -0.484375000000, -4.781250000000, 1491880609
0.164062500000, -0.080322265625, -1.012451171875, -1.914062500000, -0.484375000000, -4.781250000000, 1491880610
0.164062500000, -0.080322265625, -1.012451171875, -1.914062500000, -0.484375000000, -4.781250000000, 1491880610
0.272949218750, -0.088623046875, -1.034667968750, -3.867187500000, 0.734375000000, -2.132812500000, 1491880610
0.272949218750, -0.088623046875, -1.034667968750, -3.867187500000, 0.734375000000, -2.132812500000, 1491880610
0.272949218750, -0.088623046875, -1.034667968750, -3.867187500000, 0.734375000000, -2.132812500000, 1491880610
0.239501953125, -0.096679687500, -1.070800781250, -3.140625000000, -0.859375000000, -0.242187500000, 1491880610
0.239501953125, -0.096679687500, -1.070800781250, -3.140625000000, -0.859375000000, -0.242187500000, 1491880610
0.239501953125, -0.096679687500, -1.070800781250, -3.140625000000, -0.859375000000, -0.242187500000, 1491880610
0.113281250000, -0.129638671875, -0.992187500000, -4.351562500000, 1.609375000000, 0.632812500000, 1491880610
0.113281250000, -0.129638671875, -0.992187500000, -4.351562500000, 1.609375000000, 0.632812500000, 1491880610
0.113281250000, -0.129638671875, -0.992187500000, -4.351562500000, 1.609375000000, 0.632812500000, 1491880610
0.269775390625, -0.058837890625, -0.995849609375, -3.523437500000, -0.070312500000, -4.390625000000, 1491880610
0.269775390625, -0.058837890625, -0.995849609375, -3.523437500000, -0.070312500000, -4.390625000000, 1491880610
0.269775390625, -0.058837890625, -0.995849609375, -3.523437500000, -0.070312500000, -4.390625000000, 1491880610
0.269775390625, -0.058837890625, -0.995849609375, -3.523437500000, -0.070312500000, -4.390625000000, 1491880610
0.251220703125, -0.142333984375, -1.005859375000, -1.414062500000, 1.007812500000, -4.843750000000, 1491880610
0.251220703125, -0.142333984375, -1.005859375000, -1.414062500000, 1.007812500000, -4.843750000000, 1491880610
0.251220703125, -0.142333984375, -1.005859375000, -1.414062500000, 1.007812500000, -4.843750000000, 1491880610
0.256591796875, -0.090332031250, -1.020751953125, -3.187500000000, 1.109375000000, -2.703125000000, 1491880610
0.256591796875, -0.090332031250, -1.020751953125, -3.187500000000, 1.109375000000, -2.703125000000, 1491880610
0.256591796875, -0.090332031250, -1.020751953125, -3.187500000000, 1.109375000000, -2.703125000000, 1491880610
0.186767578125, -0.058837890625, -0.985839843750, -3.296875000000, 2.054687500000, -2.468750000000, 1491880610
0.186767578125, -0.058837890625, -0.985839843750, -3.296875000000, 2.054687500000, -2.468750000000, 1491880610
0.186767578125, -0.058837890625, -0.985839843750, -3.296875000000, 2.054687500000, -2.468750000000, 1491880610
0.276611328125, -0.145751953125, -1.022705078125, -4.289062500000, 2.421875000000, -1.507812500000, 1491880610
0.276611328125, -0.145751953125, -1.022705078125, -4.289062500000, 2.421875000000, -1.507812500000, 1491880610
0.276611328125, -0.145751953125, -1.022705078125, -4.289062500000, 2.421875000000, -1.507812500000, 1491880610
0.276611328125, -0.145751953125, -1.022705078125, -4.289062500000, 2.421875000000, -1.507812500000, 1491880610
0.181396484375, -0.055175781250, -0.990722656250, -4.218750000000, -0.187500000000, -1.304687500000, 1491880610
0.181396484375, -0.055175781250, -0.990722656250, -4.218750000000, -0.187500000000, -1.304687500000, 1491880610
0.181396484375, -0.055175781250, -0.990722656250, -4.218750000000, -0.187500000000, -1.304687500000, 1491880610
0.176025390625, -0.065917968750, -0.932373046875, -2.023437500000, -2.351562500000, -4.351562500000, 1491880610
0.176025390625, -0.065917968750, -0.932373046875, -2.023437500000, -2.351562500000, -4.351562500000, 1491880610
0.176025390625, -0.065917968750, -0.932373046875, -2.023437500000, -2.351562500000, -4.351562500000, 1491880610
0.263427734375, -0.042480468750, -1.004394531250, -4.273437500000, 0.750000000000, -4.867187500000, 1491880610
0.189208984375, -0.039794921875, -0.971191406250, -5.031250000000, 1.046875000000, -4.070312500000, 1491880610
0.189208984375, -0.039794921875, -0.971191406250, -5.031250000000, 1.046875000000, -4.070312500000, 1491880610
0.189208984375, -0.039794921875, -0.971191406250, -5.031250000000, 1.046875000000, -4.070312500000, 1491880610
0.189208984375, -0.039794921875, -0.971191406250, -5.031250000000, 1.046875000000, -4.070312500000, 1491880610
0.220947265625, -0.048339843750, -0.982666015625, -1.921875000000, 2.546875000000, -4.921875000000, 1491880610
0.220947265625, -0.048339843750, -0.982666015625, -1.921875000000, 2.546875000000, -4.921875000000, 1491880610
0.220947265625, -0.048339843750, -0.982666015625, -1.921875000000, 2.546875000000, -4.921875000000, 1491880610
0.220947265625, -0.048339843750, -0.982666015625, -1.921875000000, 2.546875000000, -4.921875000000, 1491880610
0.220947265625, -0.048339843750, -0.982666015625, -1.921875000000, 2.546875000000, -4.921875000000, 1491880610
0.276367187500, -0.050292968750, -0.969482421875, -4.390625000000, -0.453125000000, -1.398437500000, 1491880610
0.276367187500, -0.050292968750, -0.969482421875, -4.390625000000, -0.453125000000, -1.398437500000, 1491880610
0.169921875000, -0.049560546875, -1.011718750000, -1.117187500000, -4.101562500000, -1.109375000000, 1491880610
0.169921875000, -0.049560546875, -1.011718750000, -1.117187500000, -4.101562500000, -1.109375000000, 1491880610
0.169921875000, -0.049560546875, -1.011718750000, -1.117187500000, -4.101562500000, -1.109375000000, 1491880610
0.169921875000, -0.049560546875, -1.011718750000, -1.117187500000, -4.101562500000, -1.109375000000, 1491880610
0.228515625000, -0.053466796875, -0.999511718750, -4.531250000000, 1.273437500000, 0.382812500000, 1491880610
0.228515625000, -0.053466796875, -0.999511718750, -4.531250000000, 1.273437500000, 0.382812500000, 1491880610
0.228515625000, -0.053466796875, -0.999511718750, -4.531250000000, 1.273437500000, 0.382812500000, 1491880610
0.228515625000, -0.053466796875, -0.999511718750, -4.531250000000, 1.273437500000, 0.382812500000, 1491880610
0.251464843750, -0.062500000000, -0.986328125000, -4.070312500000, 0.984375000000, -4.968750000000, 1491880610
0.251464843750, -0.062500000000, -0.986328125000, -4.070312500000, 0.984375000000, -4.968750000000, 1491880610
0.251464843750, -0.062500000000, -0.986328125000, -4.070312500000, 0.984375000000, -4.968750000000, 1491880610
0.183837890625, -0.137695312500, -0.975341796875, -1.062500000000, -0.312500000000, -2.851562500000, 1491880610
0.183837890625, -0.137695312500, -0.975341796875, -1.062500000000, -0.312500000000, -2.851562500000, 1491880610
0.183837890625, -0.137695312500, -0.975341796875, -1.062500000000, -0.312500000000, -2.851562500000, 1491880610
0.265136718750, -0.136962890625, -0.971679687500, -1.718750000000, -0.789062500000, -1.773437500000, 1491880610
0.265136718750, -0.136962890625, -0.971679687500, -1.718750000000, -0.789062500000, -1.773437500000, 1491880610
0.265136718750, -0.136962890625, -0.971679687500, -1.718750000000, -0.789062500000, -1.773437500000, 1491880610
0.240234375000, -0.126953125000, -1.064941406250, -4.210937500000, 2.765625000000, -4.273437500000, 1491880610
0.240234375000, -0.126953125000, -1.064941406250, -4.210937500000, 2.765625000000, -4.273437500000, 1491880610
0.240234375000, -0.126953125000, -1.064941406250, -4.210937500000, 2.765625000000, -4.273437500000, 1491880610
0.240234375000, -0.126953125000, -1.064941406250, -4.210937500000, 2.765625000000, -4.273437500000, 1491880610
0.280517578125, -0.055908203125, -0.921386718750, -6.046875000000, -0.750000000000, -5.000000000000, 1491880611
0.280517578125, -0.055908203125, -0.921386718750, -6.046875000000, -0.750000000000, -5.000000000000, 1491880611
0.280517578125, -0.055908203125, -0.921386718750, -6.046875000000, -0.750000000000, -5.000000000000, 1491880611
0.269287109375, -0.056640625000, -0.980468750000, -3.273437500000, 0.828125000000, -2.914062500000, 1491880611
0.269287109375, -0.056640625000, -0.980468750000, -3.273437500000, 0.828125000000, -2.914062500000, 1491880611
0.269287109375, -0.056640625000, -0.980468750000, -3.273437500000, 0.828125000000, -2.914062500000, 1491880611
0.176757812500, -0.138427734375, -1.015136718750, -4.273437500000, -0.773437500000, -3.281250000000, 1491880611
0.176757812500, -0.138427734375, -1.015136718750, -4.273437500000, -0.773437500000, -3.281250000000, 1491880611
0.176757812500, -0.138427734375, -1.015136718750, -4.273437500000, -0.773437500000, -3.281250000000, 1491880611
0.181396484375, -0.043457031250, -0.934570312500, -6.007812500000, 0.328125000000, -4.390625000000, 1491880611
0.181396484375, -0.043457031250, -0.934570312500, -6.007812500000, 0.328125000000, -4.390625000000, 1491880611
0.181396484375, -0.043457031250, -0.934570312500, -6.007812500000, 0.328125000000, -4.390625000000, 1491880611
0.268554687500, -0.104492187500, -0.929199218750, -2.718750000000, -2.250000000000, -0.867187500000, 1491880611
0.185302734375, -0.132080078125, -0.995605468750, -1.765625000000, 2.968750000000, -2.914062500000, 1491880611
0.185302734375, -0.132080078125, -0.995605468750, -1.765625000000, 2.968750000000, -2.914062500000, 1491880611
0.185302734375, -0.132080078125, -0.995605468750, -1.765625000000, 2.968750000000, -2.914062500000, 1491880611
0.225830078125, -0.128906250000, -0.981689453125, -1.859375000000, 0.937500000000, -2.578125000000, 1491880611
0.225830078125, -0.128906250000, -0.981689453125, -1.859375000000, 0.937500000000, -2.578125000000, 1491880611
0.225830078125, -0.128906250000, -0.981689453125, -1.859375000000, 0.937500000000, -2.578125000000, 1491880611
0.158203125000, -0.032714843750, -1.018554687500, -3.156250000000, -0.812500000000, -1.453125000000, 1491880611
0.271484375000, -0.113037109375, -0.909912109375, -4.437500000000, -2.234375000000, -2.398437500000, 1491880611
0.271484375000, -0.113037109375, -0.909912109375, -4.437500000000, -2.234375000000, -2.398437500000, 1491880611
0.271484375000, -0.113037109375, -0.909912109375, -4.437500000000, -2.234375000000, -2.398437500000, 1491880611
0.253173828125, -0.142822265625, -1.026123046875, -3.773437500000, 1.484375000000, -3.117187500000, 1491880611
0.250976562500, -0.142333984375, -0.999511718750, -4.984375000000, 0.562500000000, -1.304687500000, 1491880611
0.250976562500, -0.142333984375, -0.999511718750, -4.984375000000, 0.562500000000, -1.304687500000, 1491880611
0.250976562500, -0.142333984375, -0.999511718750, -4.984375000000, 0.562500000000, -1.304687500000, 1491880611
0.250976562500, -0.142333984375, -0.999511718750, -4.984375000000, 0.562500000000, -1.304687500000, 1491880611
0.250976562500, -0.142333984375, -0.999511718750, -4.984375000000, 0.562500000000, -1.304687500000, 1491880611
0.228515625000, -0.043212890625, -0.933105468750, -3.460937500000, 0.664062500000, -2.078125000000, 1491880611
0.228515625000, -0.043212890625, -0.933105468750, -3.460937500000, 0.664062500000, -2.078125000000, 1491880611
0.228515625000, -0.043212890625, -0.933105468750, -3.460937500000, 0.664062500000, -2.078125000000, 1491880611
0.314697265625, -0.120605468750, -0.907958984375, -4.921875000000, 1.132812500000, -4.898437500000, 1491880611
0.314697265625, -0.120605468750, -0.907958984375, -4.921875000000, 1.132812500000, -4.898437500000, 1491880611
0.314697265625, -0.120605468750, -0.907958984375, -4.921875000000, 1.132812500000, -4.898437500000, 1491880611
0.280517578125, -0.035400390625, -1.006591796875, -4.109375000000, -0.585937500000, 2.015625000000, 1491880611
0.280517578125, -0.035400390625, -1.006591796875, -4.109375000000, -0.585937500000, 2.015625000000, 1491880611
0.280517578125, -0.035400390625, -1.006591796875, -4.109375000000, -0.585937500000, 2.015625000000, 1491880611
0.280517578125, -0.035400390625, -1.006591796875, -4.109375000000, -0.585937500000, 2.015625000000, 1491880611
0.226318359375, -0.074707031250, -1.070556640625, -3.867187500000, -0.070312500000, -2.492187500000, 1491880611
0.226318359375, -0.074707031250, -1.070556640625, -3.867187500000, -0.070312500000, -2.492187500000, 1491880611
0.226318359375, -0.074707031250, -1.070556640625, -3.867187500000, -0.070312500000, -2.492187500000, 1491880611
