ACC_X,ACC_Y,ACC_Z,G_X,G_Y,G_Z,Unix Time
0.020263671875, -0.942871093750, 0.354248046875, 4.890625000000, -2.492187500000, 4.437500000000, 1491880879
0.020263671875, -0.942871093750, 0.354248046875, 4.890625000000, -2.492187500000, 4.437500000000, 1491880879
0.020263671875, -0.942871093750, 0.354248046875, 4.890625000000, -2.492187500000, 4.437500000000, 1491880879
0.011718750000, -0.781738281250, 0.375000000000, 6.171875000000, -2.710937500000, -0.320312500000, 1491880879
0.011718750000, -0.781738281250, 0.375000000000, 6.171875000000, -2.710937500000, -0.320312500000, 1491880879
0.011718750000, -0.781738281250, 0.375000000000, 6.171875000000, -2.710937500000, -0.320312500000, 1491880879
-0.059082031250, -0.890136718750, 0.398681640625, -1.570312500000, -12.523437500000, -0.304687500000, 1491880879
-0.059082031250, -0.890136718750, 0.398681640625, -1.570312500000, -12.523437500000, -0.304687500000, 1491880879
-0.059082031250, -0.890136718750, 0.398681640625, -1.570312500000, -12.523437500000, -0.304687500000, 1491880879
0.076660156250, -0.855712890625, 0.451660156250, 2.828125000000, -1.671875000000, 3.468750000000, 1491880879
0.076660156250, -0.855712890625, 0.451660156250, 2.828125000000, -1.671875000000, 3.468750000000, 1491880879
0.076660156250, -0.855712890625, 0.451660156250, 2.828125000000, -1.671875000000, 3.468750000000, 1491880879
0.076660156250, -0.855712890625, 0.451660156250, 2.828125000000, -1.671875000000, 3.468750000000, 1491880879
-0.002929687500, -0.905761718750, 0.338867187500, 1.367187500000, 6.554687500000, 3.500000000000, 1491880879
-0.002929687500, -0.905761718750, 0.338867187500, 1.367187500000, 6.554687500000, 3.500000000000, 1491880879
-0.002929687500, -0.905761718750, 0.338867187500, 1.367187500000, 6.554687500000, 3.500000000000, 1491880879
-0.063476562500, -0.960449218750, 0.449218750000, -0.804687500000, 8.312500000000, 2.445312500000, 1491880879
-0.063476562500, -0.960449218750, 0.449218750000, -0.804687500000, 8.312500000000, 2.445312500000, 1491880879
-0.063476562500, -0.960449218750, 0.449218750000, -0.804687500000, 8.312500000000, 2.445312500000, 1491880879
0.059082031250, -0.947509765625, 0.350830078125, -3.796875000000, 3.445312500000, 2.351562500000, 1491880879
0.059082031250, -0.947509765625, 0.350830078125, -3.796875000000, 3.445312500000, 2.351562500000, 1491880879
0.059082031250, -0.947509765625, 0.350830078125, -3.796875000000, 3.445312500000, 2.351562500000, 1491880879
0.059082031250, -0.947509765625, 0.350830078125, -3.796875000000, 3.445312500000, 2.351562500000, 1491880879
-0.068115234375, -0.939453125000, 0.401855468750, 0.304687500000, 6.968750000000, -0.968750000000, 1491880879
-0.068115234375, -0.939453125000, 0.401855468750, 0.304687500000, 6.968750000000, -0.968750000000, 1491880879
-0.068115234375, -0.939453125000, 0.401855468750, 0.304687500000, 6.968750000000, -0.968750000000, 1491880879
-0.006103515625, -0.869384765625, 0.443115234375, 1.117187500000, 5.343750000000, -6.117187500000, 1491880879
-0.006103515625, -0.869384765625, 0.443115234375, 1.117187500000, 5.343750000000, -6.117187500000, 1491880879
-0.006103515625, -0.869384765625, 0.443115234375, 1.117187500000, 5.343750000000, -6.117187500000, 1491880879
-0.013916015625, -0.947753906250, 0.440673828125, -8.210937500000, -0.945312500000, -1.093750000000, 1491880879
-0.013916015625, -0.947753906250, 0.440673828125, -8.210937500000, -0.945312500000, -1.093750000000, 1491880879
-0.013916015625, -0.947753906250, 0.440673828125, -8.210937500000, -0.945312500000, -1.093750000000, 1491880879
0.071289062500, -0.948974609375, 0.362792968750, 0.414062500000, -2.335937500000, -5.304687500000, 1491880880
0.071289062500, -0.948974609375, 0.362792968750, 0.414062500000, -2.335937500000, -5.304687500000, 1491880880
0.071289062500, -0.948974609375, 0.362792968750, 0.414062500000, -2.335937500000, -5.304687500000, 1491880880
0.071289062500, -0.948974609375, 0.362792968750, 0.414062500000, -2.335937500000, -5.304687500000, 1491880880
-0.031738281250, -0.963867187500, 0.396240234375, 0.039062500000, -5.843750000000, -2.382812500000, 1491880880
-0.031738281250, -0.963867187500, 0.396240234375, 0.039062500000, -5.843750000000, -2.382812500000, 1491880880
-0.031738281250, -0.963867187500, 0.396240234375, 0.039062500000, -5.843750000000, -2.382812500000, 1491880880
0.087158203125, -0.906494140625, 0.291992187500, -10.453125000000, -11.234375000000, -0.257812500000, 1491880880
0.087158203125, -0.906494140625, 0.291992187500, -10.453125000000, -11.234375000000, -0.257812500000, 1491880880
0.087158203125, -0.906494140625, 0.291992187500, -10.453125000000, -11.234375000000, -0.257812500000, 1491880880
0.001220703125, -0.860351562500, 0.308593750000, -0.320312500000, -1.976562500000, -4.093750000000, 1491880880
0.001220703125, -0.860351562500, 0.308593750000, -0.320312500000, -1.976562500000, -4.093750000000, 1491880880
0.001220703125, -0.860351562500, 0.308593750000, -0.320312500000, -1.976562500000, -4.093750000000, 1491880880
0.074707031250, -0.861572265625, 0.353759765625, -3.203125000000, -4.265625000000, -4.335937500000, 1491880880
0.074707031250, -0.861572265625, 0.353759765625, -3.203125000000, -4.265625000000, -4.335937500000, 1491880880
0.074707031250, -0.861572265625, 0.353759765625, -3.203125000000, -4.265625000000, -4.335937500000, 1491880880
0.074707031250, -0.861572265625, 0.353759765625, -3.203125000000, -4.265625000000, -4.335937500000, 1491880880
0.026855468750, -0.949951171875, 0.352050781250, -3.640625000000, -1.335937500000, -4.484375000000, 1491880880
0.026855468750, -0.949951171875, 0.352050781250, -3.640625000000, -1.335937500000, -4.484375000000, 1491880880
0.026855468750, -0.949951171875, 0.352050781250, -3.640625000000, -1.335937500000, -4.484375000000, 1491880880
0.028320312500, -0.957275390625, 0.366455078125, -6.179687500000, -2.757812500000, -3.929687500000, 1491880880
0.028320312500, -0.957275390625, 0.366455078125, -6.179687500000, -2.757812500000, -3.929687500000, 1491880880
0.013427734375, -0.811767578125, 0.311035156250, -0.867187500000, 4.851562500000, -4.304687500000, 1491880880
0.013427734375, -0.811767578125, 0.311035156250, -0.867187500000, 4.851562500000, -4.304687500000, 1491880880
0.013427734375, -0.811767578125, 0.311035156250, -0.867187500000, 4.851562500000, -4.304687500000, 1491880880
0.013427734375, -0.811767578125, 0.311035156250, -0.867187500000, 4.851562500000, -4.304687500000, 1491880880
-0.030273437500, -0.932128906250, 0.345947265625, -6.179687500000, 2.335937500000, -4.773437500000, 1491880880
-0.030273437500, -0.932128906250, 0.345947265625, -6.179687500000, 2.335937500000, -4.773437500000, 1491880880
-0.030273437500, -0.932128906250, 0.345947265625, -6.179687500000, 2.335937500000, -4.773437500000, 1491880880
-0.030273437500, -0.932128906250, 0.345947265625, -6.179687500000, 2.335937500000, -4.773437500000, 1491880880
0.088623046875, -0.866699218750, 0.379394531250, -3.125000000000, 1.492187500000, -1.429687500000, 1491880880
0.088623046875, -0.866699218750, 0.379394531250, -3.125000000000, 1.492187500000, -1.429687500000, 1491880880
0.088623046875, -0.866699218750, 0.379394531250, -3.125000000000, 1.492187500000, -1.429687500000, 1491880880
0.006591796875, -0.886718750000, 0.332031250000, -6.546875000000, 1.601562500000, -1.234375000000, 1491880880
0.006591796875, -0.886718750000, 0.332031250000, -6.546875000000, 1.601562500000, -1.234375000000, 1491880880
0.006591796875, -0.886718750000, 0.332031250000, -6.546875000000, 1.601562500000, -1.234375000000, 1491880880
0.028076171875, -0.959716796875, 0.312011718750, -4.734375000000, 1.687500000000, -3.429687500000, 1491880880
0.028076171875, -0.959716796875, 0.312011718750, -4.734375000000, 1.687500000000, -3.429687500000, 1491880880
0.028076171875, -0.959716796875, 0.312011718750, -4.734375000000, 1.687500000000, -3.429687500000, 1491880880
-0.069580078125, -0.851806640625, 0.368652343750, 0.281250000000, 2.429687500000, -4.687500000000, 1491880880
-0.069580078125, -0.851806640625, 0.368652343750, 0.281250000000, 2.429687500000, -4.687500000000, 1491880880
-0.069580078125, -0.851806640625, 0.368652343750, 0.281250000000, 2.429687500000, -4.687500000000, 1491880880
-0.069580078125, -0.851806640625, 0.368652343750, 0.281250000000, 2.429687500000, -4.687500000000, 1491880880
-0.003417968750, -0.892089843750, 0.458007812500, -1.304687500000, 2.750000000000, -4.281250000000, 1491880880
-0.003417968750, -0.892089843750, 0.458007812500, -1.304687500000, 2.750000000000, -4.281250000000, 1491880880
-0.003417968750, -0.892089843750, 0.458007812500, -1.304687500000, 2.750000000000, -4.281250000000, 1491880880
-0.072509765625, -0.892333984375, 0.306396484375, -6.210937500000, -4.796875000000, -4.351562500000, 1491880880
-0.072509765625, -0.892333984375, 0.306396484375, -6.210937500000, -4.796875000000, -4.351562500000, 1491880880
-0.072509765625, -0.892333984375, 0.306396484375, -6.210937500000, -4.796875000000, -4.351562500000, 1491880880
0.029785156250, -0.864990234375, 0.394531250000, -1.695312500000, -1.703125000000, -3.117187500000, 1491880880
0.029785156250, -0.864990234375, 0.394531250000, -1.695312500000, -1.703125000000, -3.117187500000, 1491880880
0.029785156250, -0.864990234375, 0.394531250000, -1.695312500000, -1.703125000000, -3.117187500000, 1491880880
-0.027587890625, -0.936767578125, 0.394287109375, -6.476562500000, 0.015625000000, -8.609375000000, 1491880880
-0.027587890625, -0.936767578125, 0.394287109375, -6.476562500000, 0.015625000000, -8.609375000000, 1491880880
-0.027587890625, -0.936767578125, 0.394287109375, -6.476562500000, 0.015625000000, -8.609375000000, 1491880880
-0.027587890625, -0.936767578125, 0.394287109375, -6.476562500000, 0.015625000000, -8.609375000000, 1491880880
-0.023193359375, -0.916503906250, 0.298095703125, -2.757812500000, 0.484375000000, -1.789062500000, 1491880880
-0.023193359375, -0.916503906250, 0.298095703125, -2.757812500000, 0.484375000000, -1.789062500000, 1491880880
-0.023193359375, -0.916503906250, 0.298095703125, -2.757812500000, 0.484375000000, -1.789062500000, 1491880880
0.093505859375, -0.859375000000, 0.376953125000, -3.226562500000, -1.937500000000, -6.164062500000, 1491880880
0.093505859375, -0.859375000000, 0.376953125000, -3.226562500000, -1.937500000000, -6.164062500000, 1491880880
0.093505859375, -0.859375000000, 0.376953125000, -3.226562500000, -1.937500000000, -6.164062500000, 1491880880
-0.021972656250, -0.952636718750, 0.352539062500, -2.320312500000, 0.296875000000, -5.492187500000, 1491880880
-0.021972656250, -0.952636718750, 0.352539062500, -2.320312500000, 0.296875000000, -5.492187500000, 1491880880
-0.021972656250, -0.952636718750, 0.352539062500, -2.320312500000, 0.296875000000, -5.492187500000, 1491880880
0.089355468750, -0.846923828125, 0.359375000000, -6.617187500000, -4.687500000000, -2.429687500000, 1491880880
0.089355468750, -0.846923828125, 0.359375000000, -6.617187500000, -4.687500000000, -2.429687500000, 1491880880
0.089355468750, -0.846923828125, 0.359375000000, -6.617187500000, -4.687500000000, -2.429687500000, 1491880880
0.089355468750, -0.846923828125, 0.359375000000, -6.617187500000, -4.687500000000, -2.429687500000, 1491880881
-0.022949218750, -0.783935546875, 0.358154296875, -5.656250000000, -4.890625000000, -4.726562500000, 1491880881
-0.022949218750, -0.783935546875, 0.358154296875, -5.656250000000, -4.890625000000, -4.726562500000, 1491880881
-0.022949218750, -0.783935546875, 0.358154296875, -5.656250000000, -4.890625000000, -4.726562500000, 1491880881
0.014160156250, -0.939941406250, 0.390869140625, -4.742187500000, -1.015625000000, -4.242187500000, 1491880881
0.014160156250, -0.939941406250, 0.390869140625, -4.742187500000, -1.015625000000, -4.242187500000, 1491880881
0.014160156250, -0.939941406250, 0.390869140625, -4.742187500000, -1.015625000000, -4.242187500000, 1491880881
0.081787109375, -0.848876953125, 0.346679687500, -3.343750000000, -8.343750000000, -3.156250000000, 1491880881
0.081787109375, -0.848876953125, 0.346679687500, -3.343750000000, -8.343750000000, -3.156250000000, 1491880881
0.081787109375, -0.848876953125, 0.346679687500, -3.343750000000, -8.343750000000, -3.156250000000, 1491880881
0.011718750000, -0.872314453125, 0.294921875000, -4.570312500000, -5.062500000000, -7.210937500000, 1491880881
0.011718750000, -0.872314453125, 0.294921875000, -4.570312500000, -5.062500000000, -7.210937500000, 1491880881
0.011718750000, -0.872314453125, 0.294921875000, -4.570312500000, -5.062500000000, -7.210937500000, 1491880881
0.011718750000, -0.872314453125, 0.294921875000, -4.570312500000, -5.062500000000, -7.210937500000, 1491880881
-0.010253906250, -1.001708984375, 0.352050781250, -0.898437500000, 2.039062500000, -6.609375000000, 1491880881
-0.010253906250, -1.001708984375, 0.352050781250, -0.898437500000, 2.039062500000, -6.609375000000, 1491880881
-0.010253906250, -1.001708984375, 0.352050781250, -0.898437500000, 2.039062500000, -6.609375000000, 1491880881
0.068847656250, -0.903808593750, 0.353027343750, -0.976562500000, 0.757812500000, -6.843750000000, 1491880881
0.068847656250, -0.903808593750, 0.353027343750, -0.976562500000, 0.757812500000, -6.843750000000, 1491880881
0.068847656250, -0.903808593750, 0.353027343750, -0.976562500000, 0.757812500000, -6.843750000000, 1491880881
-0.009277343750, -0.960205078125, 0.351318359375, -6.156250000000, -1.343750000000, 0.023437500000, 1491880881
-0.009277343750, -0.960205078125, 0.351318359375, -6.156250000000, -1.343750000000, 0.023437500000, 1491880881
-0.009277343750, -0.960205078125, 0.351318359375, -6.156250000000, -1.343750000000, 0.023437500000, 1491880881
0.070312500000, -0.962646484375, 0.383056640625, -1.390625000000, 2.789062500000, -2.429687500000, 1491880881
0.070312500000, -0.962646484375, 0.383056640625, -1.390625000000, 2.789062500000, -2.429687500000, 1491880881
0.070312500000, -0.962646484375, 0.383056640625, -1.390625000000, 2.789062500000, -2.429687500000, 1491880881
0.070312500000, -0.962646484375, 0.383056640625, -1.390625000000, 2.789062500000, -2.429687500000, 1491880881
-0.007568359375, -0.895263671875, 0.345703125000, 2.453125000000, -2.375000000000, -4.781250000000, 1491880881
-0.007568359375, -0.895263671875, 0.345703125000, 2.453125000000, -2.375000000000, -4.781250000000, 1491880881
-0.007568359375, -0.895263671875, 0.345703125000, 2.453125000000, -2.375000000000, -4.781250000000, 1491880881
0.156250000000, -1.004150390625, 0.395751953125, -2.734375000000, 2.585937500000, -8.296875000000, 1491880881
0.156250000000, -1.004150390625, 0.395751953125, -2.734375000000, 2.585937500000, -8.296875000000, 1491880881
0.156250000000, -1.004150390625, 0.395751953125, -2.734375000000, 2.585937500000, -8.296875000000, 1491880881
0.021240234375, -0.943847656250, 0.386230468750, -1.007812500000, -2.156250000000, -4.679687500000, 1491880881
0.021240234375, -0.943847656250, 0.386230468750, -1.007812500000, -2.156250000000, -4.679687500000, 1491880881
0.021240234375, -0.943847656250, 0.386230468750, -1.007812500000, -2.156250000000, -4.679687500000, 1491880881
0.002685546875, -0.881835937500, 0.367675781250, 0.976562500000, -0.843750000000, -4.765625000000, 1491880881
0.002685546875, -0.881835937500, 0.367675781250, 0.976562500000, -0.843750000000, -4.765625000000, 1491880881
0.002685546875, -0.881835937500, 0.367675781250, 0.976562500000, -0.843750000000, -4.765625000000, 1491880881
0.002685546875, -0.881835937500, 0.367675781250, 0.976562500000, -0.843750000000, -4.765625000000, 1491880881
-0.013183593750, -0.950439453125, 0.402099609375, 1.742187500000, 2.640625000000, -6.187500000000, 1491880881
-0.013183593750, -0.950439453125, 0.402099609375, 1.742187500000, 2.640625000000, -6.187500000000, 1491880881
-0.013183593750, -0.950439453125, 0.402099609375, 1.742187500000, 2.640625000000, -6.187500000000, 1491880881
-0.082275390625, -0.964111328125, 0.310546875000, 1.320312500000, -0.289062500000, -7.265625000000, 1491880881
-0.082275390625, -0.964111328125, 0.310546875000, 1.320312500000, -0.289062500000, -7.265625000000, 1491880881
-0.082275390625, -0.964111328125, 0.310546875000, 1.320312500000, -0.289062500000, -7.265625000000, 1491880881
-0.005126953125, -0.935791015625, 0.302978515625, 0.976562500000, -3.687500000000, -11.000000000000, 1491880881
-0.005126953125, -0.935791015625, 0.302978515625, 0.976562500000, -3.687500000000, -11.000000000000, 1491880881
-0.005126953125, -0.935791015625, 0.302978515625, 0.976562500000, -3.687500000000, -11.000000000000, 1491880881
0.027343750000, -0.852050781250, 0.299316406250, 1.132812500000, 0.671875000000, -3.250000000000, 1491880881
0.027343750000, -0.852050781250, 0.299316406250, 1.132812500000, 0.671875000000, -3.250000000000, 1491880881
0.027343750000, -0.852050781250, 0.299316406250, 1.132812500000, 0.671875000000, -3.250000000000, 1491880881
0.027343750000, -0.852050781250, 0.299316406250, 1.132812500000, 0.671875000000, -3.250000000000, 1491880881
0.063476562500, -0.942626953125, 0.396484375000, 4.773437500000, 0.460937500000, -4.585937500000, 1491880881
0.063476562500, -0.942626953125, 0.396484375000, 4.773437500000, 0.460937500000, -4.585937500000, 1491880881
0.063476562500, -0.942626953125, 0.396484375000, 4.773437500000, 0.460937500000, -4.585937500000, 1491880881
0.074707031250, -0.860839843750, 0.399169921875, 5.296875000000, 0.226562500000, -8.609375000000, 1491880881
0.074707031250, -0.860839843750, 0.399169921875, 5.296875000000, 0.226562500000, -8.609375000000, 1491880881
0.074707031250, -0.860839843750, 0.399169921875, 5.296875000000, 0.226562500000, -8.609375000000, 1491880881
0.029052734375, -0.947753906250, 0.404541015625, 4.429687500000, -2.773437500000, -3.476562500000, 1491880881
0.029052734375, -0.947753906250, 0.404541015625, 4.429687500000, -2.773437500000, -3.476562500000, 1491880881
0.029052734375, -0.947753906250, 0.404541015625, 4.429687500000, -2.773437500000, -3.476562500000, 1491880881
0.073242187500, -0.947753906250, 0.287597656250, 5.476562500000, 2.390625000000, -4.757812500000, 1491880881
0.073242187500, -0.947753906250, 0.287597656250, 5.476562500000, 2.390625000000, -4.757812500000, 1491880881
0.073242187500, -0.947753906250, 0.287597656250, 5.476562500000, 2.390625000000, -4.757812500000, 1491880881
0.073242187500, -0.947753906250, 0.287597656250, 5.476562500000, 2.390625000000, -4.757812500000, 1491880881
0.091796875000, -0.952636718750, 0.314453125000, 8.296875000000, -0.554687500000, -8.625000000000, 1491880882
0.091796875000, -0.952636718750, 0.314453125000, 8.296875000000, -0.554687500000, -8.625000000000, 1491880882
0.091796875000, -0.952636718750, 0.314453125000, 8.296875000000, -0.554687500000, -8.625000000000, 1491880882
0.013671875000, -0.870361328125, 0.376220703125, 7.875000000000, 1.546875000000, -10.429687500000, 1491880882
0.013671875000, -0.870361328125, 0.376220703125, 7.875000000000, 1.546875000000, -10.429687500000, 1491880882
0.013671875000, -0.870361328125, 0.376220703125, 7.875000000000, 1.546875000000, -10.429687500000, 1491880882
0.045410156250, -0.925292968750, 0.290283203125, 10.101562500000, 2.109375000000, -10.187500000000, 1491880882
0.045410156250, -0.925292968750, 0.290283203125, 10.101562500000, 2.109375000000, -10.187500000000, 1491880882
0.045410156250, -0.925292968750, 0.290283203125, 10.101562500000, 2.109375000000, -10.187500000000, 1491880882
0.031005859375, -0.941894531250, 0.353515625000, 7.796875000000, -1.234375000000, -7.859375000000, 1491880882
0.031005859375, -0.941894531250, 0.353515625000, 7.796875000000, -1.234375000000, -7.859375000000, 1491880882
0.031005859375, -0.941894531250, 0.353515625000, 7.796875000000, -1.234375000000, -7.859375000000, 1491880882
0.031005859375, -0.941894531250, 0.353515625000, 7.796875000000, -1.234375000000, -7.859375000000, 1491880882
0.083984375000, -0.907958984375, 0.404785156250, 10.812500000000, 0.437500000000, -9.820312500000, 1491880882
0.083984375000, -0.907958984375, 0.404785156250, 10.812500000000, 0.437500000000, -9.820312500000, 1491880882
0.083984375000, -0.907958984375, 0.404785156250, 10.812500000000, 0.437500000000, -9.820312500000, 1491880882
0.018798828125, -0.868408203125, 0.386474609375, 7.890625000000, -3.890625000000, -9.054687500000, 1491880882
0.018798828125, -0.868408203125, 0.386474609375, 7.890625000000, -3.890625000000, -9.054687500000, 1491880882
0.018798828125, -0.868408203125, 0.386474609375, 7.890625000000, -3.890625000000, -9.054687500000, 1491880882
-0.010986328125, -0.859619140625, 0.341552734375, 12.562500000000, -1.687500000000, -9.343750000000, 1491880882
-0.010986328125, -0.859619140625, 0.341552734375, 12.562500000000, -1.687500000000, -9.343750000000, 1491880882
-0.010986328125, -0.859619140625, 0.341552734375, 12.562500000000, -1.687500000000, -9.343750000000, 1491880882
-0.013671875000, -0.898925781250, 0.244628906250, 13.390625000000, -3.296875000000, -9.726562500000, 1491880882
-0.013671875000, -0.898925781250, 0.244628906250, 13.390625000000, -3.296875000000, -9.726562500000, 1491880882
-0.013671875000, -0.898925781250, 0.244628906250, 13.390625000000, -3.296875000000, -9.726562500000, 1491880882
-0.013671875000, -0.898925781250, 0.244628906250, 13.390625000000, -3.296875000000, -9.726562500000, 1491880882
0.080322265625, -0.850830078125, 0.316406250000, 19.046875000000, -0.148437500000, -14.875000000000, 1491880882
0.080322265625, -0.850830078125, 0.316406250000, 19.046875000000, -0.148437500000, -14.875000000000, 1491880882
0.080322265625, -0.850830078125, 0.316406250000, 19.046875000000, -0.148437500000, -14.875000000000, 1491880882
0.083251953125, -0.746093750000, 0.328369140625, 11.851562500000, 3.570312500000, -7.007812500000, 1491880882
0.083251953125, -0.746093750000, 0.328369140625, 11.851562500000, 3.570312500000, -7.007812500000, 1491880882
0.083251953125, -0.746093750000, 0.328369140625, 11.851562500000, 3.570312500000, -7.007812500000, 1491880882
0.079833984375, -0.763671875000, 0.184326171875, 1.554687500000, -14.531250000000, -14.054687500000, 1491880882
0.079833984375, -0.763671875000, 0.184326171875, 1.554687500000, -14.531250000000, -14.054687500000, 1491880882
0.079833984375, -0.763671875000, 0.184326171875, 1.554687500000, -14.531250000000, -14.054687500000, 1491880882
0.078613281250, -0.601562500000, 0.216308593750, 3.945312500000, -18.281250000000, -11.390625000000, 1491880882
0.078613281250, -0.601562500000, 0.216308593750, 3.945312500000, -18.281250000000, -11.390625000000, 1491880882
0.078613281250, -0.601562500000, 0.216308593750, 3.945312500000, -18.281250000000, -11.390625000000, 1491880882
0.078613281250, -0.601562500000, 0.216308593750, 3.945312500000, -18.281250000000, -11.390625000000, 1491880882
0.085449218750, -0.488037109375, 0.119628906250, 10.742187500000, -10.523437500000, -11.312500000000, 1491880882
0.085449218750, -0.488037109375, 0.119628906250, 10.742187500000, -10.523437500000, -11.312500000000, 1491880882
0.085449218750, -0.488037109375, 0.119628906250, 10.742187500000, -10.523437500000, -11.312500000000, 1491880882
0.156250000000, -0.258056640625, 0.196777343750, 9.460937500000, -24.609375000000, 1.054687500000, 1491880882
0.156250000000, -0.258056640625, 0.196777343750, 9.460937500000, -24.609375000000, 1.054687500000, 1491880882
0.156250000000, -0.258056640625, 0.196777343750, 9.460937500000, -24.609375000000, 1.054687500000, 1491880882
0.079589843750, -0.158935546875, 0.040771484375, -14.296875000000, -105.742187500000, 2.453125000000, 1491880882
0.079589843750, -0.158935546875, 0.040771484375, -14.296875000000, -105.742187500000, 2.453125000000, 1491880882
0.079589843750, -0.158935546875, 0.040771484375, -14.296875000000, -105.742187500000, 2.453125000000, 1491880882
-0.007324218750, -0.181640625000, 0.040527343750, -14.234375000000, -43.976562500000, -12.164062500000, 1491880882
-0.007324218750, -0.181640625000, 0.040527343750, -14.234375000000, -43.976562500000, -12.164062500000, 1491880882
-0.007324218750, -0.181640625000, 0.040527343750, -14.234375000000, -43.976562500000, -12.164062500000, 1491880882
-0.007324218750, -0.181640625000, 0.040527343750, -14.234375000000, -43.976562500000, -12.164062500000, 1491880882
0.017578125000, -0.267822265625, 0.205566406250, -4.101562500000, -67.039062500000, -15.031250000000, 1491880882
0.017578125000, -0.267822265625, 0.205566406250, -4.101562500000, -67.039062500000, -15.031250000000, 1491880882
0.017578125000, -0.267822265625, 0.205566406250, -4.101562500000, -67.039062500000, -15.031250000000, 1491880882
-0.070068359375, -1.424072265625, 0.290283203125, -101.906250000000, 153.101562500000, -0.679687500000, 1491880882
-0.070068359375, -1.424072265625, 0.290283203125, -101.906250000000, 153.101562500000, -0.679687500000, 1491880882
-0.070068359375, -1.424072265625, 0.290283203125, -101.906250000000, 153.101562500000, -0.679687500000, 1491880882
-0.595703125000, -2.945556640625, 0.847167968750, -97.882812500000, 71.242187500000, 56.179687500000, 1491880882
-0.595703125000, -2.945556640625, 0.847167968750, -97.882812500000, 71.242187500000, 56.179687500000, 1491880882
-0.595703125000, -2.945556640625, 0.847167968750, -97.882812500000, 71.242187500000, 56.179687500000, 1491880882
-0.870361328125, -2.720703125000, 0.452392578125, 61.203125000000, -62.929687500000, -152.359375000000, 1491880882
-0.870361328125, -2.720703125000, 0.452392578125, 61.203125000000, -62.929687500000, -152.359375000000, 1491880882
-0.870361328125, -2.720703125000, 0.452392578125, 61.203125000000, -62.929687500000, -152.359375000000, 1491880882
-0.870361328125, -2.720703125000, 0.452392578125, 61.203125000000, -62.929687500000, -152.359375000000, 1491880882
-0.379638671875, -2.086181640625, 0.573486328125, 162.515625000000, -12.578125000000, -145.585937500000, 1491880882
-0.379638671875, -2.086181640625, 0.573486328125, 162.515625000000, -12.578125000000, -145.585937500000, 1491880882
-0.379638671875, -2.086181640625, 0.573486328125, 162.515625000000, -12.578125000000, -145.585937500000, 1491880883
0.012207031250, -0.323486328125, 0.056640625000, 137.164062500000, -127.531250000000, -100.484375000000, 1491880883
-0.028076171875, -0.080566406250, -0.062744140625, 140.156250000000, -218.476562500000, -89.875000000000, 1491880883
-0.028076171875, -0.080566406250, -0.062744140625, 140.156250000000, -218.476562500000, -89.875000000000, 1491880883
-0.091552734375, -0.107421875000, 0.133789062500, 33.914062500000, -141.296875000000, -17.968750000000, 1491880883
-0.091552734375, -0.107421875000, 0.133789062500, 33.914062500000, -141.296875000000, -17.968750000000, 1491880883
-0.091552734375, -0.107421875000, 0.133789062500, 33.914062500000, -141.296875000000, -17.968750000000, 1491880883
-0.091552734375, -0.107421875000, 0.133789062500, 33.914062500000, -141.296875000000, -17.968750000000, 1491880883
-0.091552734375, -0.107421875000, 0.133789062500, 33.914062500000, -141.296875000000, -17.968750000000, 1491880883
-0.091552734375, -0.107421875000, 0.133789062500, 33.914062500000, -141.296875000000, -17.968750000000, 1491880883
-0.091552734375, -0.107421875000, 0.133789062500, 33.914062500000, -141.296875000000, -17.968750000000, 1491880883
0.025390625000, -0.171142578125, 0.032226562500, -28.562500000000, -92.500000000000, -19.835937500000, 1491880883
-0.139160156250, -0.279785156250, 0.074218750000, -33.132812500000, -87.500000000000, -25.500000000000, 1491880883
-0.139160156250, -0.279785156250, 0.074218750000, -33.132812500000, -87.500000000000, -25.500000000000, 1491880883
-0.139160156250, -0.279785156250, 0.074218750000, -33.132812500000, -87.500000000000, -25.500000000000, 1491880883
-0.139160156250, -0.279785156250, 0.074218750000, -33.132812500000, -87.500000000000, -25.500000000000, 1491880883
-0.139160156250, -0.279785156250, 0.074218750000, -33.132812500000, -87.500000000000, -25.500000000000, 1491880883
-0.154296875000, -0.403320312500, 0.042480468750, -36.140625000000, -65.390625000000, -17.343750000000, 1491880883
-0.154296875000, -0.403320312500, 0.042480468750, -36.140625000000, -65.390625000000, -17.343750000000, 1491880883
-0.154296875000, -0.403320312500, 0.042480468750, -36.140625000000, -65.390625000000, -17.343750000000, 1491880883
-0.081298828125, -0.224609375000, 0.055419921875, 51.890625000000, -108.078125000000, -13.078125000000, 1491880883
-0.081298828125, -0.224609375000, 0.055419921875, 51.890625000000, -108.078125000000, -13.078125000000, 1491880883
-0.081298828125, -0.224609375000, 0.055419921875, 51.890625000000, -108.078125000000, -13.078125000000, 1491880883
-0.081298828125, -0.224609375000, 0.055419921875, 51.890625000000, -108.078125000000, -13.078125000000, 1491880883
-0.179687500000, -0.700439453125, 0.099121093750, 18.187500000000, -23.015625000000, -3.367187500000, 1491880883
-0.179687500000, -0.700439453125, 0.099121093750, 18.187500000000, -23.015625000000, -3.367187500000, 1491880883
-0.179687500000, -0.700439453125, 0.099121093750, 18.187500000000, -23.015625000000, -3.367187500000, 1491880883
-0.350341796875, -1.053222656250, 0.264160156250, -37.929687500000, 52.046875000000, -70.914062500000, 1491880883
-0.350341796875, -1.053222656250, 0.264160156250, -37.929687500000, 52.046875000000, -70.914062500000, 1491880883
-0.350341796875, -1.053222656250, 0.264160156250, -37.929687500000, 52.046875000000, -70.914062500000, 1491880883
-0.395751953125, -1.050048828125, 0.071777343750, -88.703125000000, 237.898437500000, -141.742187500000, 1491880883
-0.395751953125, -1.050048828125, 0.071777343750, -88.703125000000, 237.898437500000, -141.742187500000, 1491880883
-0.395751953125, -1.050048828125, 0.071777343750, -88.703125000000, 237.898437500000, -141.742187500000, 1491880883
-0.378906250000, -1.049560546875, 0.313964843750, 107.718750000000, 253.992187500000, -97.640625000000, 1491880883
-0.378906250000, -1.049560546875, 0.313964843750, 107.718750000000, 253.992187500000, -97.640625000000, 1491880883
-0.378906250000, -1.049560546875, 0.313964843750, 107.718750000000, 253.992187500000, -97.640625000000, 1491880883
-0.378906250000, -1.049560546875, 0.313964843750, 107.718750000000, 253.992187500000, -97.640625000000, 1491880883
0.020751953125, -0.190673828125, -0.089355468750, -70.648437500000, 127.851562500000, -46.773437500000, 1491880883
0.020751953125, -0.190673828125, -0.089355468750, -70.648437500000, 127.851562500000, -46.773437500000, 1491880883
0.020751953125, -0.190673828125, -0.089355468750, -70.648437500000, 127.851562500000, -46.773437500000, 1491880883
-7.937255859375, -8.000000000000, -5.225830078125, 253.992187500000, 253.992187500000, -256.000000000000, 1491880883
-7.937255859375, -8.000000000000, -5.225830078125, 253.992187500000, 253.992187500000, -256.000000000000, 1491880883
-7.937255859375, -8.000000000000, -5.225830078125, 253.992187500000, 253.992187500000, -256.000000000000, 1491880883
-0.333251953125, 2.967285156250, -0.497558593750, 113.906250000000, 253.992187500000, -51.312500000000, 1491880883
-0.333251953125, 2.967285156250, -0.497558593750, 113.906250000000, 253.992187500000, -51.312500000000, 1491880883
-0.333251953125, 2.967285156250, -0.497558593750, 113.906250000000, 253.992187500000, -51.312500000000, 1491880883
1.551025390625, -0.320068359375, -3.203857421875, 35.757812500000, 84.695312500000, 21.828125000000, 1491880883
1.551025390625, -0.320068359375, -3.203857421875, 35.757812500000, 84.695312500000, 21.828125000000, 1491880883
1.551025390625, -0.320068359375, -3.203857421875, 35.757812500000, 84.695312500000, 21.828125000000, 1491880883
1.551025390625, -0.320068359375, -3.203857421875, 35.757812500000, 84.695312500000, 21.828125000000, 1491880883
1.632324218750, -0.547363281250, -3.109130859375, 13.429687500000, -21.460937500000, 27.281250000000, 1491880883
1.632324218750, -0.547363281250, -3.109130859375, 13.429687500000, -21.460937500000, 27.281250000000, 1491880883
1.632324218750, -0.547363281250, -3.109130859375, 13.429687500000, -21.460937500000, 27.281250000000, 1491880883
0.983154296875, 0.137939453125, -1.759277343750, 8.171875000000, -77.390625000000, 3.601562500000, 1491880883
0.983154296875, 0.137939453125, -1.759277343750, 8.171875000000, -77.390625000000, 3.601562500000, 1491880883
0.983154296875, 0.137939453125, -1.759277343750, 8.171875000000, -77.390625000000, 3.601562500000, 1491880883
-0.235595703125, -0.053710937500, -0.300781250000, -1.398437500000, -83.257812500000, -82.453125000000, 1491880883
-0.235595703125, -0.053710937500, -0.300781250000, -1.398437500000, -83.257812500000, -82.453125000000, 1491880883
-0.235595703125, -0.053710937500, -0.300781250000, -1.398437500000, -83.257812500000, -82.453125000000, 1491880883
-0.177978515625, 0.178222656250, -0.129638671875, -44.132812500000, -63.343750000000, -114.804687500000, 1491880883
-0.177978515625, 0.178222656250, -0.129638671875, -44.132812500000, -63.343750000000, -114.804687500000, 1491880883
-0.177978515625, 0.178222656250, -0.129638671875, -44.132812500000, -63.343750000000, -114.804687500000, 1491880883
0.112792968750, 0.586669921875, -0.303710937500, -55.890625000000, 16.671875000000, -115.359375000000, 1491880883
0.459716796875, 0.566894531250, -0.459716796875, -49.664062500000, 12.468750000000, -4.007812500000, 1491880883
0.459716796875, 0.566894531250, -0.459716796875, -49.664062500000, 12.468750000000, -4.007812500000, 1491880883
0.459716796875, 0.566894531250, -0.459716796875, -49.664062500000, 12.468750000000, -4.007812500000, 1491880883
1.711425781250, -0.558837890625, -1.034667968750, 26.781250000000, -3.859375000000, -38.718750000000, 1491880884
1.711425781250, -0.558837890625, -1.034667968750, 26.781250000000, -3.859375000000, -38.718750000000, 1491880884
1.711425781250, -0.558837890625, -1.034667968750, 26.781250000000, -3.859375000000, -38.718750000000, 1491880884
0.066894531250, -0.046142578125, -0.018554687500, 12.242187500000, -136.945312500000, -1.203125000000, 1491880884
0.066894531250, -0.046142578125, -0.018554687500, 12.242187500000, -136.945312500000, -1.203125000000, 1491880884
0.066894531250, -0.046142578125, -0.018554687500, 12.242187500000, -136.945312500000, -1.203125000000, 1491880884
0.138183593750, -0.318847656250, -1.849853515625, -41.703125000000, 10.945312500000, -3.820312500000, 1491880884
0.138183593750, -0.318847656250, -1.849853515625, -41.703125000000, 10.945312500000, -3.820312500000, 1491880884
0.138183593750, -0.318847656250, -1.849853515625, -41.703125000000, 10.945312500000, -3.820312500000, 1491880884
0.138183593750, -0.318847656250, -1.849853515625, -41.703125000000, 10.945312500000, -3.820312500000, 1491880884
0.119384765625, -0.240234375000, -2.160888671875, -10.984375000000, -22.500000000000, -3.445312500000, 1491880884
0.119384765625, -0.240234375000, -2.160888671875, -10.984375000000, -22.500000000000, -3.445312500000, 1491880884
0.119384765625, -0.240234375000, -2.160888671875, -10.984375000000, -22.500000000000, -3.445312500000, 1491880884
0.021728515625, -0.113281250000, -1.457519531250, 24.046875000000, -48.523437500000, -10.773437500000, 1491880884
0.021728515625, -0.113281250000, -1.457519531250, 24.046875000000, -48.523437500000, -10.773437500000, 1491880884
0.021728515625, -0.113281250000, -1.457519531250, 24.046875000000, -48.523437500000, -10.773437500000, 1491880884
0.141113281250, -0.093261718750, -0.767089843750, 28.781250000000, -12.750000000000, -6.742187500000, 1491880884
0.141113281250, -0.093261718750, -0.767089843750, 28.781250000000, -12.750000000000, -6.742187500000, 1491880884
0.141113281250, -0.093261718750, -0.767089843750, 28.781250000000, -12.750000000000, -6.742187500000, 1491880884
-0.053222656250, 0.014404296875, -0.478759765625, 10.671875000000, 19.601562500000, 0.046875000000, 1491880884
-0.053222656250, 0.014404296875, -0.478759765625, 10.671875000000, 19.601562500000, 0.046875000000, 1491880884
-0.053222656250, 0.014404296875, -0.478759765625, 10.671875000000, 19.601562500000, 0.046875000000, 1491880884
-0.053222656250, 0.014404296875, -0.478759765625, 10.671875000000, 19.601562500000, 0.046875000000, 1491880884
0.152832031250, 0.071044921875, -0.688232421875, -3.648437500000, 6.250000000000, -5.656250000000, 1491880884
0.152832031250, 0.071044921875, -0.688232421875, -3.648437500000, 6.250000000000, -5.656250000000, 1491880884
0.152832031250, 0.071044921875, -0.688232421875, -3.648437500000, 6.250000000000, -5.656250000000, 1491880884
0.079345703125, -0.039062500000, -0.923095703125, -16.023437500000, -9.039062500000, -6.070312500000, 1491880884
0.079345703125, -0.039062500000, -0.923095703125, -16.023437500000, -9.039062500000, -6.070312500000, 1491880884
0.079345703125, -0.039062500000, -0.923095703125, -16.023437500000, -9.039062500000, -6.070312500000, 1491880884
0.148193359375, -0.211181640625, -1.218750000000, -1.093750000000, -6.382812500000, -4.867187500000, 1491880884
0.148193359375, -0.211181640625, -1.218750000000, -1.093750000000, -6.382812500000, -4.867187500000, 1491880884
0.148193359375, -0.211181640625, -1.218750000000, -1.093750000000, -6.382812500000, -4.867187500000, 1491880884
0.148193359375, -0.211181640625, -1.218750000000, -1.093750000000, -6.382812500000, -4.867187500000, 1491880884
-0.027099609375, -0.142822265625, -1.086181640625, 1.125000000000, 4.242187500000, -3.218750000000, 1491880884
-0.027099609375, -0.142822265625, -1.086181640625, 1.125000000000, 4.242187500000, -3.218750000000, 1491880884
-0.027099609375, -0.142822265625, -1.086181640625, 1.125000000000, 4.242187500000, -3.218750000000, 1491880884
-0.027099609375, -0.142822265625, -1.086181640625, 1.125000000000, 4.242187500000, -3.218750000000, 1491880884
-0.027099609375, -0.142822265625, -1.086181640625, 1.125000000000, 4.242187500000, -3.218750000000, 1491880884
-0.027099609375, -0.142822265625, -1.086181640625, 1.125000000000, 4.242187500000, -3.218750000000, 1491880884
0.129638671875, -0.067138671875, -0.874023437500, -1.234375000000, 9.429687500000, -5.742187500000, 1491880884
0.129638671875, -0.067138671875, -0.874023437500, -1.234375000000, 9.429687500000, -5.742187500000, 1491880884
0.129638671875, -0.067138671875, -0.874023437500, -1.234375000000, 9.429687500000, -5.742187500000, 1491880884
-0.000976562500, -0.078857421875, -0.794677734375, -6.859375000000, 12.648437500000, -1.757812500000, 1491880884
-0.000976562500, -0.078857421875, -0.794677734375, -6.859375000000, 12.648437500000, -1.757812500000, 1491880884
-0.000976562500, -0.078857421875, -0.794677734375, -6.859375000000, 12.648437500000, -1.757812500000, 1491880884
0.077880859375, 0.014648437500, -1.005126953125, -6.804687500000, 2.640625000000, -4.070312500000, 1491880884
0.077880859375, 0.014648437500, -1.005126953125, -6.804687500000, 2.640625000000, -4.070312500000, 1491880884
0.077880859375, 0.014648437500, -1.005126953125, -6.804687500000, 2.640625000000, -4.070312500000, 1491880884
0.077880859375, 0.014648437500, -1.005126953125, -6.804687500000, 2.640625000000, -4.070312500000, 1491880884
-0.001708984375, -0.142089843750, -1.041503906250, -3.179687500000, -8.648437500000, -6.484375000000, 1491880884
-0.001708984375, -0.142089843750, -1.041503906250, -3.179687500000, -8.648437500000, -6.484375000000, 1491880884
-0.001708984375, -0.142089843750, -1.041503906250, -3.179687500000, -8.648437500000, -6.484375000000, 1491880884
0.061035156250, -0.191406250000, -1.146240234375, 0.054687500000, -8.742187500000, -3.851562500000, 1491880884
0.061035156250, -0.191406250000, -1.146240234375, 0.054687500000, -8.742187500000, -3.851562500000, 1491880884
0.061035156250, -0.191406250000, -1.146240234375, 0.054687500000, -8.742187500000, -3.851562500000, 1491880884
0.067626953125, -0.119140625000, -1.064697265625, -0.078125000000, -5.507812500000, -1.265625000000, 1491880884
0.067626953125, -0.119140625000, -1.064697265625, -0.078125000000, -5.507812500000, -1.265625000000, 1491880884
0.067626953125, -0.119140625000, -1.064697265625, -0.078125000000, -5.507812500000, -1.265625000000, 1491880884
-0.020996093750, -0.086669921875, -0.915039062500, -2.648437500000, 3.000000000000, -1.421875000000, 1491880884
-0.020996093750, -0.086669921875, -0.915039062500, -2.648437500000, 3.000000000000, -1.421875000000, 1491880884
-0.020996093750, -0.086669921875, -0.915039062500, -2.648437500000, 3.000000000000, -1.421875000000, 1491880884
-0.020996093750, -0.086669921875, -0.915039062500, -2.648437500000, 3.000000000000, -1.421875000000, 1491880884
0.052978515625, -0.081787109375, -0.932861328125, -4.734375000000, 5.062500000000, -6.945312500000, 1491880884
0.052978515625, -0.081787109375, -0.932861328125, -4.734375000000, 5.062500000000, -6.945312500000, 1491880884
0.052978515625, -0.081787109375, -0.932861328125, -4.734375000000, 5.062500000000, -6.945312500000, 1491880884
0.068115234375, -0.154052734375, -1.028808593750, -4.734375000000, -4.320312500000, -8.046875000000, 1491880885
0.068115234375, -0.154052734375, -1.028808593750, -4.734375000000, -4.320312500000, -8.046875000000, 1491880885
0.068115234375, -0.154052734375, -1.028808593750, -4.734375000000, -4.320312500000, -8.046875000000, 1491880885
0.090820312500, -0.045166015625, -0.980468750000, -2.890625000000, -1.437500000000, -3.023437500000, 1491880885
0.090820312500, -0.045166015625, -0.980468750000, -2.890625000000, -1.437500000000, -3.023437500000, 1491880885
0.090820312500, -0.045166015625, -0.980468750000, -2.890625000000, -1.437500000000, -3.023437500000, 1491880885
0.090820312500, -0.045166015625, -0.980468750000, -2.890625000000, -1.437500000000, -3.023437500000, 1491880885
0.090820312500, -0.045166015625, -0.980468750000, -3.085937500000, -0.609375000000, -6.039062500000, 1491880885
0.044921875000, -0.077148437500, -0.999755859375, -2.273437500000, 2.906250000000, -4.304687500000, 1491880885
0.044921875000, -0.077148437500, -0.999755859375, -2.273437500000, 2.906250000000, -4.304687500000, 1491880885
0.044921875000, -0.077148437500, -0.999755859375, -2.273437500000, 2.906250000000, -4.304687500000, 1491880885
0.044921875000, -0.077148437500, -0.999755859375, -2.273437500000, 2.906250000000, -4.304687500000, 1491880885
-0.002197265625, -0.113525390625, -0.986572265625, -3.484375000000, 1.218750000000, -4.109375000000, 1491880885
-0.002197265625, -0.113525390625, -0.986572265625, -3.484375000000, 1.218750000000, -4.109375000000, 1491880885
-0.002197265625, -0.113525390625, -0.986572265625, -3.484375000000, 1.218750000000, -4.109375000000, 1491880885
0.051757812500, -0.033691406250, -1.029052734375, -4.296875000000, 1.742187500000, -4.460937500000, 1491880885
0.051757812500, -0.033691406250, -1.029052734375, -4.296875000000, 1.742187500000, -4.460937500000, 1491880885
0.078369140625, -0.145751953125, -1.011474609375, -4.500000000000, 0.953125000000, -6.078125000000, 1491880885
0.078369140625, -0.145751953125, -1.011474609375, -4.500000000000, 0.953125000000, -6.078125000000, 1491880885
0.078369140625, -0.145751953125, -1.011474609375, -4.500000000000, 0.953125000000, -6.078125000000, 1491880885
0.078369140625, -0.145751953125, -1.011474609375, -4.500000000000, 0.953125000000, -6.078125000000, 1491880885
0.078369140625, -0.145751953125, -1.011474609375, -4.500000000000, 0.953125000000, -6.078125000000, 1491880885
0.078369140625, -0.145751953125, -1.011474609375, -4.500000000000, 0.953125000000, -6.078125000000, 1491880885
0.092041015625, -0.071777343750, -0.981933593750, -3.226562500000, -1.648437500000, -3.335937500000, 1491880885
0.092041015625, -0.071777343750, -0.981933593750, -3.226562500000, -1.648437500000, -3.335937500000, 1491880885
0.092041015625, -0.071777343750, -0.981933593750, -3.226562500000, -1.648437500000, -3.335937500000, 1491880885
-0.016113281250, -0.154785156250, -0.938476562500, -1.710937500000, -2.671875000000, -4.187500000000, 1491880885
-0.016113281250, -0.154785156250, -0.938476562500, -1.710937500000, -2.671875000000, -4.187500000000, 1491880885
-0.016113281250, -0.154785156250, -0.938476562500, -1.710937500000, -2.671875000000, -4.187500000000, 1491880885
0.052001953125, 0.001464843750, -1.025390625000, -1.851562500000, -0.226562500000, -5.328125000000, 1491880885
0.052001953125, 0.001464843750, -1.025390625000, -1.851562500000, -0.226562500000, -5.328125000000, 1491880885
0.052001953125, 0.001464843750, -1.025390625000, -1.851562500000, -0.226562500000, -5.328125000000, 1491880885
0.093261718750, -0.045166015625, -0.982421875000, -1.093750000000, 0.820312500000, -6.148437500000, 1491880885
0.093261718750, -0.045166015625, -0.982421875000, -1.093750000000, 0.820312500000, -6.148437500000, 1491880885
0.093261718750, -0.045166015625, -0.982421875000, -1.093750000000, 0.820312500000, -6.148437500000, 1491880885
0.093261718750, -0.045166015625, -0.982421875000, -1.093750000000, 0.820312500000, -6.148437500000, 1491880885
0.041748046875, -0.139648437500, -0.934082031250, -3.453125000000, -0.976562500000, -3.226562500000, 1491880885
0.041748046875, -0.139648437500, -0.934082031250, -3.453125000000, -0.976562500000, -3.226562500000, 1491880885
0.041748046875, -0.139648437500, -0.934082031250, -3.453125000000, -0.976562500000, -3.226562500000, 1491880885
0.056396484375, -0.091308593750, -1.006591796875, -4.750000000000, 0.742187500000, -1.500000000000, 1491880885
0.056396484375, -0.091308593750, -1.006591796875, -4.750000000000, 0.742187500000, -1.500000000000, 1491880885
0.056396484375, -0.091308593750, -1.006591796875, -4.750000000000, 0.742187500000, -1.500000000000, 1491880885
0.043457031250, -0.150634765625, -0.995605468750, -6.140625000000, -0.500000000000, -1.578125000000, 1491880885
0.043457031250, -0.150634765625, -0.995605468750, -6.140625000000, -0.500000000000, -1.578125000000, 1491880885
0.043457031250, -0.150634765625, -0.995605468750, -6.140625000000, -0.500000000000, -1.578125000000, 1491880885
0.012695312500, -0.115478515625, -1.005859375000, -3.281250000000, 0.250000000000, -4.781250000000, 1491880885
0.012695312500, -0.115478515625, -1.005859375000, -3.281250000000, 0.250000000000, -4.781250000000, 1491880885
0.012695312500, -0.115478515625, -1.005859375000, -3.281250000000, 0.250000000000, -4.781250000000, 1491880885
0.012695312500, -0.115478515625, -1.005859375000, -3.281250000000, 0.250000000000, -4.781250000000, 1491880885
0.049072265625, -0.102294921875, -1.037841796875, -3.718750000000, 2.296875000000, -4.867187500000, 1491880885
0.049072265625, -0.102294921875, -1.037841796875, -3.718750000000, 2.296875000000, -4.867187500000, 1491880885
0.049072265625, -0.102294921875, -1.037841796875, -3.718750000000, 2.296875000000, -4.867187500000, 1491880885
0.053710937500, -0.034179687500, -1.071777343750, -3.351562500000, 2.664062500000, -3.078125000000, 1491880885
0.053710937500, -0.034179687500, -1.071777343750, -3.351562500000, 2.664062500000, -3.078125000000, 1491880885
0.053710937500, -0.034179687500, -1.071777343750, -3.351562500000, 2.664062500000, -3.078125000000, 1491880885
-0.015869140625, -0.145263671875, -0.973876953125, -4.890625000000, 2.101562500000, -1.851562500000, 1491880885
-0.015869140625, -0.145263671875, -0.973876953125, -4.890625000000, 2.101562500000, -1.851562500000, 1491880885
-0.015869140625, -0.145263671875, -0.973876953125, -4.890625000000, 2.101562500000, -1.851562500000, 1491880885
0.033447265625, -0.036621093750, -1.039062500000, -4.750000000000, -0.750000000000, -5.078125000000, 1491880885
0.033447265625, -0.036621093750, -1.039062500000, -4.750000000000, -0.750000000000, -5.078125000000, 1491880885
0.033447265625, -0.036621093750, -1.039062500000, -4.750000000000, -0.750000000000, -5.078125000000, 1491880885
0.033447265625, -0.036621093750, -1.039062500000, -4.750000000000, -0.750000000000, -5.078125000000, 1491880885
0.134765625000, -0.065429687500, -0.979980468750, -4.468750000000, -0.140625000000, -4.476562500000, 1491880885
0.134765625000, -0.065429687500, -0.979980468750, -4.468750000000, -0.140625000000, -4.476562500000, 1491880885
0.134765625000, -0.065429687500, -0.979980468750, -4.468750000000, -0.140625000000, -4.476562500000, 1491880885
-0.065673828125, -0.128173828125, -0.973632812500, -3.015625000000, -0.109375000000, -4.156250000000, 1491880885
-0.065673828125, -0.128173828125, -0.973632812500, -3.015625000000, -0.109375000000, -4.156250000000, 1491880885
-0.065673828125, -0.128173828125, -0.973632812500, -3.015625000000, -0.109375000000, -4.156250000000, 1491880885
0.036865234375, -0.153076171875, -0.971679687500, -2.742187500000, -0.101562500000, -3.335937500000, 1491880886
0.036865234375, -0.153076171875, -0.971679687500, -2.742187500000, -0.101562500000, -3.335937500000, 1491880886
0.036865234375, -0.153076171875, -0.971679687500, -2.742187500000, -0.101562500000, -3.335937500000, 1491880886
-0.010986328125, -0.150878906250, -1.006835937500, -1.492187500000, -0.890625000000, -3.445312500000, 1491880886
-0.010986328125, -0.150878906250, -1.006835937500, -1.492187500000, -0.890625000000, -3.445312500000, 1491880886
-0.010986328125, -0.150878906250, -1.006835937500, -1.492187500000, -0.890625000000, -3.445312500000, 1491880886
-0.010986328125, -0.150878906250, -1.006835937500, -1.492187500000, -0.890625000000, -3.445312500000, 1491880886
0.079345703125, -0.044677734375, -0.935058593750, -3.859375000000, 0.414062500000, -3.070312500000, 1491880886
0.079345703125, -0.044677734375, -0.935058593750, -3.859375000000, 0.414062500000, -3.070312500000, 1491880886
0.079345703125, -0.044677734375, -0.935058593750, -3.859375000000, 0.414062500000, -3.070312500000, 1491880886
0.149414062500, -0.126708984375, -1.026611328125, -4.273437500000, 0.132812500000, -4.500000000000, 1491880886
0.149414062500, -0.126708984375, -1.026611328125, -4.273437500000, 0.132812500000, -4.500000000000, 1491880886
0.149414062500, -0.126708984375, -1.026611328125, -4.273437500000, 0.132812500000, -4.500000000000, 1491880886
0.071533203125, -0.084472656250, -1.020507812500, -1.250000000000, -2.898437500000, -4.250000000000, 1491880886
0.071533203125, -0.084472656250, -1.020507812500, -1.250000000000, -2.898437500000, -4.250000000000, 1491880886
0.071533203125, -0.084472656250, -1.020507812500, -1.250000000000, -2.898437500000, -4.250000000000, 1491880886
-0.025390625000, -0.141601562500, -1.012939453125, -5.000000000000, 0.757812500000, -4.414062500000, 1491880886
-0.025390625000, -0.141601562500, -1.012939453125, -5.000000000000, 0.757812500000, -4.414062500000, 1491880886
-0.025390625000, -0.141601562500, -1.012939453125, -5.000000000000, 0.757812500000, -4.414062500000, 1491880886
-0.025390625000, -0.141601562500, -1.012939453125, -5.000000000000, 0.757812500000, -4.414062500000, 1491880886
-0.027832031250, -0.056396484375, -1.010253906250, -4.367187500000, -1.023437500000, -3.062500000000, 1491880886
-0.027832031250, -0.056396484375, -1.010253906250, -4.367187500000, -1.023437500000, -3.062500000000, 1491880886
-0.027832031250, -0.056396484375, -1.010253906250, -4.367187500000, -1.023437500000, -3.062500000000, 1491880886
0.029541015625, 0.020996093750, -1.007568359375, -4.750000000000, -0.812500000000, -4.750000000000, 1491880886
0.029541015625, 0.020996093750, -1.007568359375, -4.750000000000, -0.812500000000, -4.750000000000, 1491880886
0.029541015625, 0.020996093750, -1.007568359375, -4.750000000000, -0.812500000000, -4.750000000000, 1491880886
0.039062500000, -0.065917968750, -0.979248046875, -3.890625000000, -0.851562500000, -3.140625000000, 1491880886
0.039062500000, -0.065917968750, -0.979248046875, -3.890625000000, -0.851562500000, -3.140625000000, 1491880886
0.039062500000, -0.065917968750, -0.979248046875, -3.890625000000, -0.851562500000, -3.140625000000, 1491880886
0.075195312500, -0.141113281250, -1.071533203125, -4.093750000000, 0.687500000000, -6.429687500000, 1491880886
0.075195312500, -0.141113281250, -1.071533203125, -4.093750000000, 0.687500000000, -6.429687500000, 1491880886
0.075195312500, -0.141113281250, -1.071533203125, -4.093750000000, 0.687500000000, -6.429687500000, 1491880886
0.075195312500, -0.141113281250, -1.071533203125, -4.093750000000, 0.687500000000, -6.429687500000, 1491880886
0.031982421875, -0.095947265625, -0.914794921875, -1.789062500000, -1.414062500000, -4.421875000000, 1491880886
0.031982421875, -0.095947265625, -0.914794921875, -1.789062500000, -1.414062500000, -4.421875000000, 1491880886
0.031982421875, -0.095947265625, -0.914794921875, -1.789062500000, -1.414062500000, -4.421875000000, 1491880886
0.070556640625, -0.141357421875, -0.975341796875, -2.968750000000, 0.609375000000, -4.007812500000, 1491880886
0.070556640625, -0.141357421875, -0.975341796875, -2.968750000000, 0.609375000000, -4.007812500000, 1491880886
0.070556640625, -0.141357421875, -0.975341796875, -2.968750000000, 0.609375000000, -4.007812500000, 1491880886
0.053222656250, -0.078125000000, -0.922363281250, -4.859375000000, -0.757812500000, -4.460937500000, 1491880886
0.053222656250, -0.078125000000, -0.922363281250, -4.859375000000, -0.757812500000, -4.460937500000, 1491880886
0.053222656250, -0.078125000000, -0.922363281250, -4.859375000000, -0.757812500000, -4.460937500000, 1491880886
0.076904296875, -0.032714843750, -1.030761718750, -3.867187500000, -0.164062500000, -3.945312500000, 1491880886
0.076904296875, -0.032714843750, -1.030761718750, -3.867187500000, -0.164062500000, -3.945312500000, 1491880886
0.076904296875, -0.032714843750, -1.030761718750, -3.867187500000, -0.164062500000, -3.945312500000, 1491880886
0.137695312500, -0.090576171875, -1.019531250000, -4.750000000000, -0.304687500000, -1.710937500000, 1491880886
0.137695312500, -0.090576171875, -1.019531250000, -4.750000000000, -0.304687500000, -1.710937500000, 1491880886
0.137695312500, -0.090576171875, -1.019531250000, -4.750000000000, -0.304687500000, -1.710937500000, 1491880886
0.137695312500, -0.090576171875, -1.019531250000, -4.750000000000, -0.304687500000, -1.710937500000, 1491880886
-0.004150390625, -0.084960937500, -0.918457031250, -3.695312500000, -0.078125000000, -4.757812500000, 1491880886
-0.004150390625, -0.084960937500, -0.918457031250, -3.695312500000, -0.078125000000, -4.757812500000, 1491880886
-0.004150390625, -0.084960937500, -0.918457031250, -3.695312500000, -0.078125000000, -4.757812500000, 1491880886
0.149414062500, -0.047363281250, -0.986572265625, -4.835937500000, 0.734375000000, -1.359375000000, 1491880886
0.149414062500, -0.047363281250, -0.986572265625, -4.835937500000, 0.734375000000, -1.359375000000, 1491880886
0.149414062500, -0.047363281250, -0.986572265625, -4.835937500000, 0.734375000000, -1.359375000000, 1491880886
-0.013183593750, -0.134033203125, -1.023925781250, -3.828125000000, 0.335937500000, -3.406250000000, 1491880886
-0.013183593750, -0.134033203125, -1.023925781250, -3.828125000000, 0.335937500000, -3.406250000000, 1491880886
-0.013183593750, -0.134033203125, -1.023925781250, -3.828125000000, 0.335937500000, -3.406250000000, 1491880886
-0.013183593750, -0.134033203125, -1.023925781250, -3.828125000000, 0.335937500000, -3.406250000000, 1491880886
0.016601562500, -0.077880859375, -0.912109375000, -1.953125000000, -0.687500000000, -1.976562500000, 1491880886
0.016601562500, -0.077880859375, -0.912109375000, -1.953125000000, -0.687500000000, -1.976562500000, 1491880886
0.016601562500, -0.077880859375, -0.912109375000, -1.953125000000, -0.687500000000, -1.976562500000, 1491880886
0.083251953125, -0.100097656250, -0.994384765625, -4.429687500000, 2.304687500000, -4.671875000000, 1491880886
0.083251953125, -0.100097656250, -0.994384765625, -4.429687500000, 2.304687500000, -4.671875000000, 1491880886
0.083251953125, -0.100097656250, -0.994384765625, -4.429687500000, 2.304687500000, -4.671875000000, 1491880886
0.131591796875, -0.151611328125, -1.022216796875, -1.320312500000, 0.875000000000, -3.195312500000, 1491880886
0.131591796875, -0.151611328125, -1.022216796875, -1.320312500000, 0.875000000000, -3.195312500000, 1491880886
0.131591796875, -0.151611328125, -1.022216796875, -1.320312500000, 0.875000000000, -3.195312500000, 1491880886
-0.033203125000, -0.091064453125, -1.090820312500, -3.117187500000, 2.101562500000, -2.437500000000, 1491880887
-0.033203125000, -0.091064453125, -1.090820312500, -3.117187500000, 2.101562500000, -2.437500000000, 1491880887
-0.033203125000, -0.091064453125, -1.090820312500, -3.117187500000, 2.101562500000, -2.437500000000, 1491880887
-0.033203125000, -0.091064453125, -1.090820312500, -3.117187500000, 2.101562500000, -2.437500000000, 1491880887
0.153564453125, -0.058105468750, -0.980468750000, -3.015625000000, -0.257812500000, -3.585937500000, 1491880887
0.153564453125, -0.058105468750, -0.980468750000, -3.015625000000, -0.257812500000, -3.585937500000, 1491880887
0.153564453125, -0.058105468750, -0.980468750000, -3.015625000000, -0.257812500000, -3.585937500000, 1491880887
-0.019775390625, -0.057373046875, -1.019042968750, -4.484375000000, -0.031250000000, -4.390625000000, 1491880887
-0.019775390625, -0.057373046875, -1.019042968750, -4.484375000000, -0.031250000000, -4.390625000000, 1491880887
-0.019775390625, -0.057373046875, -1.019042968750, -4.484375000000, -0.031250000000, -4.390625000000, 1491880887
0.063476562500, -0.126953125000, -1.004638671875, -4.312500000000, 0.625000000000, -4.234375000000, 1491880887
0.063476562500, -0.126953125000, -1.004638671875, -4.312500000000, 0.625000000000, -4.234375000000, 1491880887
0.063476562500, -0.126953125000, -1.004638671875, -4.312500000000, 0.625000000000, -4.234375000000, 1491880887
0.068847656250, -0.125976562500, -0.910400390625, -6.171875000000, -0.578125000000, -5.875000000000, 1491880887
0.068847656250, -0.125976562500, -0.910400390625, -6.171875000000, -0.578125000000, -5.875000000000, 1491880887
0.068847656250, -0.125976562500, -0.910400390625, -6.171875000000, -0.578125000000, -5.875000000000, 1491880887
0.068847656250, -0.125976562500, -0.910400390625, -6.171875000000, -0.578125000000, -5.875000000000, 1491880887
0.140380859375, -0.041503906250, -1.000976562500, -1.687500000000, 0.195312500000, -3.046875000000, 1491880887
0.140380859375, -0.041503906250, -1.000976562500, -1.687500000000, 0.195312500000, -3.046875000000, 1491880887
0.140380859375, -0.041503906250, -1.000976562500, -1.687500000000, 0.195312500000, -3.046875000000, 1491880887
0.065917968750, -0.077392578125, -1.086669921875, -4.320312500000, 2.210937500000, -4.820312500000, 1491880887
0.065917968750, -0.077392578125, -1.086669921875, -4.320312500000, 2.210937500000, -4.820312500000, 1491880887
0.065917968750, -0.077392578125, -1.086669921875, -4.320312500000, 2.210937500000, -4.820312500000, 1491880887
0.084960937500, -0.041992187500, -1.063232421875, -3.515625000000, 0.281250000000, -3.484375000000, 1491880887
0.084960937500, -0.041992187500, -1.063232421875, -3.515625000000, 0.281250000000, -3.484375000000, 1491880887
0.084960937500, -0.041992187500, -1.063232421875, -3.515625000000, 0.281250000000, -3.484375000000, 1491880887
0.079345703125, -0.083007812500, -1.014648437500, -1.140625000000, 0.828125000000, -3.625000000000, 1491880887
-0.004638671875, -0.132812500000, -1.064941406250, -3.773437500000, 0.234375000000, -6.179687500000, 1491880887
-0.004638671875, -0.132812500000, -1.064941406250, -3.773437500000, 0.234375000000, -6.179687500000, 1491880887
-0.004638671875, -0.132812500000, -1.064941406250, -3.773437500000, 0.234375000000, -6.179687500000, 1491880887
0.066162109375, -0.105712890625, -1.031494140625, -2.382812500000, 0.476562500000, -4.406250000000, 1491880887
0.066162109375, -0.105712890625, -1.031494140625, -2.382812500000, 0.476562500000, -4.406250000000, 1491880887
0.066162109375, -0.105712890625, -1.031494140625, -2.382812500000, 0.476562500000, -4.406250000000, 1491880887
0.066162109375, -0.105712890625, -1.031494140625, -2.382812500000, 0.476562500000, -4.406250000000, 1491880887
0.066162109375, -0.105712890625, -1.031494140625, -2.382812500000, 0.476562500000, -4.406250000000, 1491880887
0.066162109375, -0.105712890625, -1.031494140625, -2.382812500000, 0.476562500000, -4.406250000000, 1491880887
0.002929687500, -0.129882812500, -1.027343750000, -2.859375000000, 1.507812500000, -6.414062500000, 1491880887
0.002929687500, -0.129882812500, -1.027343750000, -2.859375000000, 1.507812500000, -6.414062500000, 1491880887
0.002929687500, -0.129882812500, -1.027343750000, -2.859375000000, 1.507812500000, -6.414062500000, 1491880887
0.008300781250, -0.107666015625, -0.993164062500, -1.742187500000, 0.867187500000, -2.523437500000, 1491880887
0.008300781250, -0.107666015625, -0.993164062500, -1.742187500000, 0.867187500000, -2.523437500000, 1491880887
0.008300781250, -0.107666015625, -0.993164062500, -1.742187500000, 0.867187500000, -2.523437500000, 1491880887
0.008300781250, -0.107666015625, -0.993164062500, -1.742187500000, 0.867187500000, -2.523437500000, 1491880887
0.038818359375, -0.032958984375, -1.031005859375, -4.046875000000, -0.359375000000, -4.179687500000, 1491880887
0.038818359375, -0.032958984375, -1.031005859375, -4.046875000000, -0.359375000000, -4.179687500000, 1491880887
0.038818359375, -0.032958984375, -1.031005859375, -4.046875000000, -0.359375000000, -4.179687500000, 1491880887
0.039794921875, -0.153808593750, -0.989746093750, -4.710937500000, -0.148437500000, -3.351562500000, 1491880887
0.039794921875, -0.153808593750, -0.989746093750, -4.710937500000, -0.148437500000, -3.351562500000, 1491880887
0.039794921875, -0.153808593750, -0.989746093750, -4.710937500000, -0.148437500000, -3.351562500000, 1491880887
-0.022460937500, -0.041259765625, -1.069335937500, -4.117187500000, -0.148437500000, -3.429687500000, 1491880887
-0.022460937500, -0.041259765625, -1.069335937500, -4.117187500000, -0.148437500000, -3.429687500000, 1491880887
-0.022460937500, -0.041259765625, -1.069335937500, -4.117187500000, -0.148437500000, -3.429687500000, 1491880887
0.074951171875, -0.038818359375, -1.030517578125, -1.890625000000, 0.632812500000, -1.609375000000, 1491880887
0.074951171875, -0.038818359375, -1.030517578125, -1.890625000000, 0.632812500000, -1.609375000000, 1491880887
0.074951171875, -0.038818359375, -1.030517578125, -1.890625000000, 0.632812500000, -1.609375000000, 1491880887
0.074951171875, -0.038818359375, -1.030517578125, -1.890625000000, 0.632812500000, -1.609375000000, 1491880887
-0.008789062500, -0.041503906250, -0.990966796875, -3.757812500000, 2.460937500000, -4.781250000000, 1491880887
-0.008789062500, -0.041503906250, -0.990966796875, -3.757812500000, 2.460937500000, -4.781250000000, 1491880887
-0.008789062500, -0.041503906250, -0.990966796875, -3.757812500000, 2.460937500000, -4.781250000000, 1491880887
0.039550781250, -0.147460937500, -1.004882812500, -3.328125000000, 2.257812500000, -1.351562500000, 1491880887
0.039550781250, -0.147460937500, -1.004882812500, -3.328125000000, 2.257812500000, -1.351562500000, 1491880887
0.039550781250, -0.147460937500, -1.004882812500, -3.328125000000, 2.257812500000, -1.351562500000, 1491880887
-0.026855468750, -0.051757812500, -0.922363281250, -4.281250000000, 0.500000000000, -1.453125000000, 1491880887
-0.026855468750, -0.051757812500, -0.922363281250, -4.281250000000, 0.500000000000, -1.453125000000, 1491880887
-0.026855468750, -0.051757812500, -0.922363281250, -4.281250000000, 0.500000000000, -1.453125000000, 1491880887
0.085937500000, -0.127685546875, -0.979492187500, -4.234375000000, -0.125000000000, -3.335937500000, 1491880888
0.085937500000, -0.127685546875, -0.979492187500, -4.234375000000, -0.125000000000, -3.335937500000, 1491880888
0.085937500000, -0.127685546875, -0.979492187500, -4.234375000000, -0.125000000000, -3.335937500000, 1491880888
0.085937500000, -0.127685546875, -0.979492187500, -4.234375000000, -0.125000000000, -3.335937500000, 1491880888
-0.016601562500, -0.017089843750, -0.922119140625, -1.250000000000, 2.296875000000, -3.859375000000, 1491880888
-0.016601562500, -0.017089843750, -0.922119140625, -1.250000000000, 2.296875000000, -3.859375000000, 1491880888
-0.016601562500, -0.017089843750, -0.922119140625, -1.250000000000, 2.296875000000, -3.859375000000, 1491880888
0.082031250000, -0.088134765625, -0.920654296875, -2.945312500000, 4.218750000000, -3.914062500000, 1491880888
0.082031250000, -0.088134765625, -0.920654296875, -2.945312500000, 4.218750000000, -3.914062500000, 1491880888
0.082031250000, -0.088134765625, -0.920654296875, -2.945312500000, 4.218750000000, -3.914062500000, 1491880888
0.040771484375, -0.150634765625, -0.961425781250, 8.000000000000, 14.851562500000, -4.859375000000, 1491880888
0.040771484375, -0.150634765625, -0.961425781250, 8.000000000000, 14.851562500000, -4.859375000000, 1491880888
0.040771484375, -0.150634765625, -0.961425781250, 8.000000000000, 14.851562500000, -4.859375000000, 1491880888
0.101074218750, -0.079101562500, -1.084960937500, 6.734375000000, 27.828125000000, -3.851562500000, 1491880888
0.101074218750, -0.079101562500, -1.084960937500, 6.734375000000, 27.828125000000, -3.851562500000, 1491880888
0.101074218750, -0.079101562500, -1.084960937500, 6.734375000000, 27.828125000000, -3.851562500000, 1491880888
0.101074218750, -0.079101562500, -1.084960937500, 6.734375000000, 27.828125000000, -3.851562500000, 1491880888
0.195556640625, -0.143066406250, -1.025634765625, 2.164062500000, 23.023437500000, -8.398437500000, 1491880888
0.195556640625, -0.143066406250, -1.025634765625, 2.164062500000, 23.023437500000, -8.398437500000, 1491880888
0.195556640625, -0.143066406250, -1.025634765625, 2.164062500000, 23.023437500000, -8.398437500000, 1491880888
